T (C)	Fraction solid (wt)-TOTAL	Fraction liquid (wt)-LIQUID	Density (g/(cm)^3)-TOTAL	Molar volume (cm^3)-TOTAL	Volume change (%)-  	Average expansion coeff. (10e-6 1/K)-  	Thermal conductivity (W/(m*K))-TOTAL	Electrical resistivity (10e-6 Ohm*m)-TOTAL	Electrical conductivity (10e6 1/(Ohm*m))-TOTAL	Young's modulus (GPa)-TOTAL	Bulk modulus (GPa)-TOTAL	Shear modulus(GPa)-TOTAL	Poisson's ratio-TOTAL	Liquid viscosity (mPa s)-  	Total viscosity (mPa s)-  	Liquid diffusivity (10e-9 (m^2)/s)-  	Total diffusivity (10e-9 (m^2)/s)-  	Surface Tension (mN/m)-  	Enthalpy (J/mole)-TOTAL	Specific heat (J/(mole K))-TOTAL	Latent heat (J/mole)-TOTAL
1400.0	0.0	1.0	7.10744	7.99179	0.0	34.71096	30.23148	1.35594	0.73749	0.0	121.77014	0.0	0.5	6.80496	6.80496	1.20004	1.20004	1809.31779	40122.27	 	0.0
1395.0	0.0	1.0	7.11156	7.98716	-0.057882	34.67665	30.15091	1.3555	0.73773	0.0	121.90712	0.0	0.5	6.87843	6.87843	1.18367	1.18367	1812.8287	39922.192	40.0156	0.0
1390.0	0.0	1.0	7.11567	7.98255	-0.1156	34.64254	30.07035	1.35506	0.73797	0.0	122.0441	0.0	0.5	6.95314	6.95314	1.16745	1.16745	1816.36855	39722.555	39.9274	0.0
1385.0	0.0	1.0	7.11977	7.97795	-0.17316	34.60863	29.98978	1.35462	0.73822	0.0	122.18107	0.0	0.5	7.02913	7.02913	1.15135	1.15135	1819.9371	39523.359	39.8392	0.0
1380.0	0.0	1.0	7.12387	7.97336	-0.23055	34.57493	29.90922	1.35417	0.73846	0.0	122.31805	0.0	0.5	7.1064	7.1064	1.1354	1.1354	1823.53409	39324.598	39.7522	0.0
1375.0	0.0	1.0	7.12795	7.96879	-0.28779	34.54144	29.82866	1.35372	0.7387	0.0	122.45503	0.0	0.5	7.18501	7.18501	1.11958	1.11958	1827.15927	39126.272	39.6652	0.0
1370.0	0.0	1.0	7.13204	7.96423	-0.34486	34.50816	29.74809	1.35327	0.73895	0.0	122.59201	0.0	0.5	7.26497	7.26497	1.1039	1.1039	1830.81235	38928.376	39.5792	0.0
1365.0	0.0	1.0	7.13611	7.95968	-0.40176	34.47509	29.66753	1.35281	0.7392	0.0	122.72899	0.0	0.5	7.34632	7.34632	1.08836	1.08836	1834.49305	38730.909	39.4934	0.0
1360.0	0.0	1.0	7.14018	7.95515	-0.45851	34.44224	29.58697	1.35236	0.73945	0.0	122.86596	0.0	0.5	7.42908	7.42908	1.07295	1.07295	1838.20106	38533.867	39.4084	0.0
1355.0	0.0	1.0	7.14424	7.95062	-0.51509	34.4096	29.5064	1.3519	0.7397	0.0	123.00294	0.0	0.5	7.51329	7.51329	1.05767	1.05767	1841.93609	38337.248	39.3238	0.0
1354.18	0.0	1.0	7.14491	7.94988	-0.52439	34.40425	29.49314	1.35182	0.73974	0.0	123.0255	0.0	0.5	7.5273	7.5273	1.05517	1.05517	1842.55369	38304.922	39.26441	0.0
1350.0	0.16854	0.83146	7.20102	7.88792	-1.29973	32.28289	29.94888	1.32784	0.75311	0.0714896	126.24236	0.0241572	0.47968	7.57567	19.81129	1.04574	0.39988	1840.73812	35787.271	602.78329	2353.774
1345.0	0.33046	0.66954	7.25633	7.82786	-2.05123	30.23571	30.3991	1.30414	0.76679	1.09629	129.35729	0.37551	0.45972	7.63529	172.31654	1.03438	0.045833	1838.43008	33349.463	487.5616	4595.8
1340.0	0.45661	0.54339	7.30059	7.78047	-2.64424	28.63225	30.75876	1.28491	0.77827	4.11718	131.8223	1.42576	0.44385	7.69659	627.84309	1.02297	0.0125404	1836.0018	31427.267	384.4392	6322.629
1335.0	0.55597	0.44403	7.3365	7.74244	-3.12005	27.35746	31.04611	1.26907	0.78798	9.27582	133.80386	3.24076	0.43112	7.75976	1433.05242	1.0115	0.00547711	1833.47172	29890.318	307.3898	7664.623
1330.0	0.63495	0.36505	7.3659	7.71171	-3.50463	26.33931	31.27389	1.25591	0.79624	16.11405	135.424	5.67068	0.42082	7.82475	2553.46533	0.99998	0.0030643	1830.85118	28644.019	249.2598	8716.377
1325.0	0.69827	0.30173	7.39024	7.68647	-3.8204	25.51502	31.45189	1.24491	0.80327	23.99369	136.76732	8.49375	0.41243	7.8916	3924.98335	0.98842	0.00198731	1828.15849	27619.017	205.0004	9547.241
1320.0	0.74941	0.25059	7.41059	7.66557	-4.08196	24.84387	31.58817	1.23566	0.80929	32.32574	137.89914	11.49933	0.40555	7.96049	5483.35663	0.9768	0.00141807	1825.40736	26763.977	171.008	10208.547
1315.0	0.79099	0.20901	7.42776	7.64802	-4.3015	24.29166	31.68971	1.22783	0.81444	40.66435	138.86588	14.52445	0.39986	8.03123	7177.30984	0.96515	0.00107998	1822.6137	26040.55	144.6854	10738.643
1310.0	0.82501	0.17499	7.4424	7.63318	-4.48726	23.83532	31.7623	1.22117	0.81889	48.70258	139.70403	17.45455	0.39513	8.10415	8969.64615	0.95346	8.61457E-4	1819.7886	25419.838	124.1424	11166.422
1305.0	0.85303	0.14697	7.455	7.62048	-4.64618	23.45532	31.81075	1.21546	0.82273	56.25413	140.44076	20.21839	0.39116	8.1792	10836.35239	0.94172	7.10807E-4	1816.94741	24879.89	107.9896	11513.835
1300.0	0.87622	0.12378	7.46595	7.60949	-4.78367	23.13639	31.83926	1.21052	0.82609	63.22874	141.09707	22.77988	0.38782	8.25659	12765.32513	0.92994	6.01485E-4	1814.10359	24403.898	95.1984	11797.686
1296.93	0.88822	0.11178	7.47191	7.60354	-4.85809	22.96924	31.84699	1.20787	0.8279	67.12458	141.4638	24.21417	0.38606	8.30522	13963.10167	0.92269	5.48817E-4	1812.38383	24140.947	 	11942.939
1295.0	0.89627	0.10373	7.47586	7.5996	-4.90744	22.85608	31.85392	1.20612	0.8291	69.84247	141.70941	25.21615	0.38488	8.34114	14800.95667	0.91759	5.17112E-4	1811.62746	23967.84	87.2116	12041.995
1290.0	0.915	0.0849968	7.48534	7.59014	-5.02574	22.59008	31.86355	1.20191	0.83201	76.53915	142.30362	27.68977	0.38208	8.43655	17033.18564	0.90432	4.47911E-4	1809.54819	23548.407	83.8866	12270.07
1285.0	0.93018	0.0698176	7.49356	7.58197	-5.12793	22.37067	31.85735	1.1983	0.83452	82.39681	142.83537	29.85901	0.37976	8.53486	19292.00633	0.89104	3.94202E-4	1807.38528	23175.393	74.6028	12452.113
1280.0	0.9426	0.0573955	7.50078	7.57482	-5.21747	22.18792	31.83859	1.19516	0.83671	87.51684	143.31927	31.75927	0.37782	8.63611	21592.95917	0.87777	3.51065E-4	1805.15877	22838.152	67.4482	12598.768
1275.88	0.95112	0.0488772	7.50612	7.56955	-5.28341	22.06019	31.81499	1.19287	0.83831	91.22327	143.68895	33.13735	0.37644	8.72192	23527.46794	0.86683	3.21344E-4	1803.30296	22582.21	 	12697.817
1275.0	0.95339	0.046608	7.50745	7.56824	-5.29978	22.02576	31.81156	1.19232	0.8387	92.21747	143.77725	33.50724	0.37608	8.73675	24003.54841	0.86487	3.14792E-4	1803.42108	22520.801	63.4702	12725.915
1270.0	0.96536	0.0346411	7.51468	7.56113	-5.38879	21.84178	31.78864	1.18933	0.84081	97.63857	144.2593	35.52656	0.37416	8.82349	26796.51705	0.8536	2.81071E-4	1804.08968	22184.321	67.296	12872.571
1265.0	0.9747	0.0253021	7.52097	7.55496	-5.46592	21.6928	31.75425	1.18676	0.84263	102.13484	144.69429	37.20471	0.37261	8.91231	29606.53202	0.84235	2.5357E-4	1804.70168	21882.904	60.2834	12984.544
1260.0	0.98209	0.0179101	7.52655	7.5495	-5.53429	21.56968	31.71108	1.18451	0.84423	105.89942	145.09474	38.61225	0.37132	9.00304	32470.55127	0.83115	2.30453E-4	1805.27759	21607.221	55.1366	13071.157
1255.0	0.98802	0.0119832	7.5316	7.54457	-5.59599	21.46622	31.66105	1.18252	0.84565	109.08381	145.46919	39.80477	0.37024	9.0959	35421.33445	0.81999	2.10566E-4	1805.83072	21350.807	51.2828	13138.876
1250.0	0.99282	0.00717958	7.53624	7.54004	-5.6526	21.37774	31.60558	1.18071	0.84694	111.80434	145.82389	40.8251	0.36931	9.19082	38488.66209	0.80886	1.93151E-4	1806.37462	21109.072	48.347	13192.287
1245.0	0.99675	0.00324707	7.54056	7.53584	-5.70522	21.30099	31.54573	1.17907	0.84812	114.15216	146.16302	41.7069	0.3685	9.28779	41699.87241	0.79779	1.77692E-4	1806.91962	20878.699	46.0746	13234.705
1240.0	1.0	0.0	7.54462	7.53189	-5.75468	21.23353	31.48278	1.17754	0.84923	116.19855	146.48978	42.47654	0.3678	 	45081.40255	 	1.63822E-4	 	20657.244	44.291	13268.572
1235.0	1.0	0.0	7.54711	7.52938	-5.78602	21.22259	31.39937	1.17677	0.84979	116.61507	146.75683	42.63605	0.36756	 	48194.90063	 	1.52732E-4	 	20447.49515	41.94977	 
1230.0	1.0	0.0	7.5496	7.5269	-5.8171	21.21234	31.31596	1.17599	0.85035	117.03099	147.02333	42.79535	0.36733	 	51545.84139	 	1.4233E-4	 	20266.55648	36.18773	 
1225.0	1.0	0.0	7.55209	7.52442	-5.84814	21.20218	31.23255	1.17521	0.85091	117.44603	147.2881	42.95439	0.3671	 	55154.51115	 	1.32575E-4	 	20085.85939	36.13942	 
1220.0	1.0	0.0	7.55458	7.52194	-5.87912	21.19209	31.14914	1.17442	0.85148	117.8602	147.55116	43.11315	0.36687	 	59042.57108	 	1.23431E-4	 	19905.40359	36.09116	 
1215.0	1.0	0.0	7.55706	7.51947	-5.91005	21.18209	31.06572	1.17363	0.85206	118.27351	147.81251	43.27163	0.36664	 	63233.65439	 	1.14864E-4	 	19725.18877	36.04296	 
1210.0	1.0	0.0	7.55954	7.517	-5.94093	21.17218	30.9823	1.17284	0.85263	118.68594	148.07217	43.42985	0.36641	 	67753.56007	 	1.06841E-4	 	19545.21463	35.99483	 
1205.0	1.0	0.0	7.56202	7.51454	-5.97175	21.16235	30.89888	1.17204	0.85321	119.09751	148.33013	43.58779	0.36618	 	72630.46025	 	9.93314E-5	 	19365.48086	35.94675	 
1200.81	1.0	0.0	7.56409	7.51248	-5.99753	21.15418	30.82899	1.17137	0.8537	119.44159	148.54493	43.71988	0.36599	 	77012.65287	 	9.34138E-5	 	19215.1135	 	 
1200.0	1.0	0.0	7.5651	7.51147	-6.01011	21.128	30.77029	1.17296	0.85255	119.64485	148.57998	43.80058	0.36579	 	78046.68351	 	9.21254E-5	 	19153.91	42.31417	 
1195.0	1.0	0.0	7.57125	7.50538	-6.08639	20.96986	30.41952	1.18245	0.8457	120.85854	148.77937	44.28315	0.36461	 	84761.46701	 	8.45393E-5	 	18782.00562	74.38088	 
1190.0	1.0	0.0	7.57724	7.49944	-6.16066	20.81693	30.0837	1.19158	0.83922	122.0109	148.95427	44.74244	0.36348	 	92115.50862	 	7.75252E-5	 	18418.47978	72.70517	 
1185.0	1.0	0.0	7.58309	7.49366	-6.23301	20.66897	29.76203	1.20034	0.83309	123.10742	149.10912	45.18046	0.3624	 	100175.154	 	7.10442E-5	 	18062.89718	71.11652	 
1180.0	1.0	0.0	7.5888	7.48802	-6.30356	20.52569	29.4537	1.20875	0.8273	124.15286	149.24747	45.59894	0.36136	 	109014.0717	 	6.50601E-5	 	17714.85316	69.6088	 
1175.0	1.0	0.0	7.59438	7.48252	-6.37239	20.38686	29.15793	1.21681	0.82182	125.15137	149.37219	45.99941	0.36036	 	118714.2051	 	5.95385E-5	 	17373.96815	68.177	 
1170.0	1.0	0.0	7.59983	7.47715	-6.43959	20.25224	28.87402	1.22453	0.81664	126.10658	149.48559	46.3832	0.3594	 	129366.7539	 	5.44472E-5	 	17039.88614	66.8164	 
1165.0	1.0	0.0	7.60517	7.4719	-6.50524	20.12162	28.60128	1.23193	0.81174	127.02173	149.58955	46.7515	0.35848	 	141073.2782	 	4.97561E-5	 	16712.27298	65.52263	 
1160.0	1.0	0.0	7.61039	7.46677	-6.56942	19.99478	28.33908	1.239	0.8071	127.89969	149.68562	47.10539	0.35759	 	153946.9884	 	4.54367E-5	 	16390.81456	64.29168	 
1155.0	1.0	0.0	7.61551	7.46176	-6.6322	19.87155	28.08681	1.24577	0.80272	128.74304	149.77508	47.44582	0.35674	 	168114.1382	 	4.14626E-5	 	16075.21562	63.11979	 
1150.0	1.0	0.0	7.62053	7.45685	-6.69365	19.75173	27.84393	1.25224	0.79857	129.55411	149.85898	47.77366	0.35592	 	183715.6381	 	3.78087E-5	 	15765.19828	62.00347	 
1145.0	1.0	0.0	7.62544	7.45204	-6.75383	19.63516	27.60989	1.25841	0.79465	130.33501	149.93821	48.08971	0.35512	 	200908.8634	 	3.44516E-5	 	15460.50099	60.93946	 
1143.42	1.0	0.0	7.62698	7.45054	-6.77261	19.59892	27.53764	1.26031	0.79346	130.576	149.96241	48.18732	0.35488	 	206704.7685	 	3.34483E-5	 	15365.21477	 	 
1140.0	1.0	0.0	7.63026	7.44733	-6.81276	19.52182	27.38417	1.26431	0.79094	131.08796	150.01386	48.39479	0.35436	 	219874.2065	 	3.1369E-5	 	15160.72367	59.95546	 
1135.0	1.0	0.0	7.635	7.44271	-6.8705	19.41151	27.16632	1.26994	0.78744	131.8145	150.08635	48.68949	0.35362	 	240806.738	 	2.85409E-5	 	14865.73264	58.99821	 
1130.0	1.0	0.0	7.63964	7.43818	-6.92715	19.30398	26.95593	1.27531	0.78412	132.51616	150.15606	48.97439	0.35291	 	263924.9069	 	2.59484E-5	 	14575.38441	58.06964	 
1125.0	1.0	0.0	7.64421	7.43374	-6.98276	19.19911	26.75256	1.28043	0.78099	133.19445	150.22346	49.25006	0.35223	 	289475.3998	 	2.35738E-5	 	14289.47093	57.1827	 
1124.8	1.0	0.0	7.6444	7.43356	-6.98501	19.19488	26.74439	1.28063	0.78087	133.22169	150.22617	49.26114	0.3522	 	290575.4028	 	2.34811E-5	 	14277.87491	 	 
1120.0	1.0	0.0	7.64872	7.42936	-7.03757	19.09604	26.55584	1.2853	0.77803	133.85306	150.28771	49.51802	0.35156	 	317788.1234	 	2.13967E-5	 	14006.60064	56.57406	 
1115.0	1.0	0.0	7.65315	7.42506	-7.0914	18.99543	26.36544	1.28993	0.77523	134.4908	150.35056	49.7777	0.35091	 	349129.4949	 	1.9406E-5	 	13727.87164	55.7458	 
1110.0	1.0	0.0	7.65751	7.42083	-7.1443	18.89719	26.181	1.29434	0.77259	135.10882	150.41235	50.02953	0.35029	 	383846.6746	 	1.75873E-5	 	13453.14418	54.94549	 
1105.0	1.0	0.0	7.6618	7.41668	-7.1963	18.80121	26.00221	1.29853	0.7701	135.70829	150.47335	50.27397	0.34969	 	422332.0634	 	1.59268E-5	 	13182.2366	54.18152	 
1100.0	1.0	0.0	7.66602	7.41259	-7.24744	18.70737	25.82876	1.30251	0.76775	136.29029	150.53379	50.51144	0.3491	 	465026.8068	 	1.44121E-5	 	12914.9779	53.45174	 
1095.0	1.0	0.0	7.67019	7.40857	-7.29776	18.61558	25.66034	1.30628	0.76553	136.85586	150.59389	50.74232	0.34854	 	512427.3173	 	1.30313E-5	 	12651.20731	52.75412	 
1090.0	1.0	0.0	7.67429	7.40461	-7.3473	18.52572	25.49671	1.30986	0.76344	137.40596	150.65384	50.96701	0.34799	 	565092.5767	 	1.17736E-5	 	12390.77324	52.08681	 
1085.0	1.0	0.0	7.67833	7.40071	-7.39609	18.43771	25.3376	1.31325	0.76147	137.94147	150.71381	51.18583	0.34746	 	623652.4768	 	1.0629E-5	 	12133.53142	51.44837	 
1080.0	1.0	0.0	7.68232	7.39687	-7.44416	18.35147	25.18277	1.31646	0.75961	138.46324	150.77396	51.39912	0.34694	 	688817.4834	 	9.58801E-6	 	11879.34625	50.83703	 
1075.0	1.0	0.0	7.68625	7.39308	-7.49154	18.2669	25.03201	1.3195	0.75786	138.97208	150.83445	51.6072	0.34644	 	761389.5063	 	8.64208E-6	 	11628.0893	50.25139	 
1070.0	1.0	0.0	7.69014	7.38935	-7.53826	18.18393	24.8851	1.32236	0.75622	139.46873	150.89539	51.81035	0.34595	 	842274.4282	 	7.78319E-6	 	11379.63919	49.69002	 
1065.0	1.0	0.0	7.69397	7.38566	-7.58435	18.10249	24.74186	1.32507	0.75468	139.95389	150.95692	52.00885	0.34548	 	932496.4572	 	7.00397E-6	 	11133.88079	49.15168	 
1060.0	1.0	0.0	7.69776	7.38203	-7.62983	18.0225	24.6021	1.32762	0.75323	140.42824	151.01914	52.20297	0.34502	 	1033214.544	 	6.2976E-6	 	10890.70494	48.63517	 
1055.0	1.0	0.0	7.7015	7.37844	-7.67472	17.9439	24.46564	1.33002	0.75187	140.8924	151.08216	52.39294	0.34457	 	1145741.144	 	5.6578E-6	 	10650.00815	48.13936	 
1050.0	1.0	0.0	7.7052	7.3749	-7.71905	17.86662	24.33233	1.33227	0.7506	141.34696	151.14607	52.57901	0.34414	 	1271563.86	 	5.07876E-6	 	10411.69209	47.66321	 
1045.0	1.0	0.0	7.70886	7.3714	-7.76284	17.7906	24.20201	1.33438	0.74941	141.7925	151.21097	52.76139	0.34371	 	1412370.25	 	4.55515E-6	 	10175.6634	47.20574	 
1040.0	1.0	0.0	7.71248	7.36794	-7.80612	17.71578	24.07438	1.33637	0.7483	142.22953	151.27692	52.9403	0.3433	 	1570076.436	 	4.08207E-6	 	9941.8333	46.76602	 
1035.0	1.0	0.0	7.71606	7.36452	-7.84889	17.64211	23.94988	1.3382	0.74727	142.65856	151.34401	53.11593	0.3429	 	1746859.85	 	3.65499E-6	 	9710.11738	46.34318	 
1030.0	1.0	0.0	7.7196	7.36114	-7.89118	17.56953	23.82771	1.33992	0.74631	143.08007	151.41231	53.28847	0.34251	 	1945197.097	 	3.26977E-6	 	9480.43529	45.93642	 
1025.0	1.0	0.0	7.72311	7.3578	-7.93301	17.49799	23.70802	1.34152	0.74543	143.49451	151.48187	53.4581	0.34212	 	2167907.691	 	2.92261E-6	 	9252.71046	45.54497	 
1020.0	1.0	0.0	7.72658	7.35449	-7.97438	17.42745	23.59069	1.34299	0.7446	143.9023	151.55276	53.62498	0.34175	 	2418204.327	 	2.61001E-6	 	9026.87012	45.16807	 
1015.0	1.0	0.0	7.73002	7.35122	-8.01533	17.35785	23.47563	1.34436	0.74385	144.30384	151.62502	53.78929	0.34138	 	2699751.092	 	2.32879E-6	 	8802.84474	44.80508	 
1010.0	1.0	0.0	7.73343	7.34798	-8.05586	17.28916	23.36272	1.34561	0.74316	144.69952	151.69872	53.95116	0.34102	 	3016730.773	 	2.076E-6	 	8580.56816	44.45532	 
1005.0	1.0	0.0	7.73681	7.34477	-8.096	17.22133	23.25189	1.34676	0.74252	145.08969	151.77388	54.11075	0.34067	 	3373922.824	 	1.84898E-6	 	8359.97716	44.1182	 
1000.0	1.0	0.0	7.74015	7.3416	-8.13574	17.15432	23.14303	1.3478	0.74195	145.47471	151.85056	54.26819	0.34033	 	3776793.528	 	1.64529E-6	 	8141.01146	43.79314	 
995.0	1.0	0.0	7.74347	7.33845	-8.17511	17.08808	23.03607	1.34874	0.74143	145.8549	151.92878	54.42362	0.34	 	4231600.92	 	1.46269E-6	 	7923.61353	43.47959	 
990.0	1.0	0.0	7.74676	7.33533	-8.21411	17.02259	22.93093	1.34958	0.74097	146.23056	152.00859	54.57714	0.33967	 	4745516.065	 	1.29915E-6	 	7707.72841	43.17702	 
985.0	1.0	0.0	7.75003	7.33224	-8.25277	16.95781	22.82754	1.35033	0.74056	146.602	152.09002	54.72889	0.33935	 	5326764.717	 	1.1528E-6	 	7493.30359	42.88496	 
980.0	1.0	0.0	7.75326	7.32918	-8.29109	16.8937	22.72583	1.35098	0.7402	146.96947	152.17309	54.87898	0.33903	 	5984791.639	 	1.02198E-6	 	7280.28887	42.60294	 
975.0	1.0	0.0	7.75648	7.32615	-8.32908	16.83023	22.62572	1.35154	0.73989	147.33326	152.25783	55.0275	0.33872	 	6730451.857	 	9.05126E-7	 	7068.63626	42.33052	 
970.0	1.0	0.0	7.75967	7.32314	-8.36675	16.76736	22.52716	1.35202	0.73963	147.69361	152.34427	55.17456	0.33842	 	7576234.393	 	8.0086E-7	 	6858.29985	42.06728	 
965.0	1.0	0.0	7.76283	7.32015	-8.40412	16.70507	22.4301	1.35241	0.73942	148.05076	152.43242	55.32026	0.33812	 	8536523.023	 	7.07911E-7	 	6649.23571	41.81283	 
960.0	1.0	0.0	7.76597	7.31719	-8.44119	16.64333	22.33446	1.35272	0.73925	148.40494	152.52231	55.46469	0.33783	 	9627900.335	 	6.25131E-7	 	6441.40176	41.56679	 
955.0	1.0	0.0	7.7691	7.31425	-8.47797	16.58211	22.24021	1.35294	0.73913	148.75635	152.61395	55.60793	0.33755	 	1.086950431E7	 	5.51478E-7	 	6234.75781	41.32879	 
950.0	1.0	0.0	7.77219	7.31133	-8.51447	16.52137	22.14729	1.35309	0.73905	149.1052	152.70735	55.75007	0.33726	 	1.228344609E7	 	4.86011E-7	 	6029.26524	41.09851	 
945.0	1.0	0.0	7.77527	7.30843	-8.5507	16.4611	22.05566	1.35315	0.73901	149.4517	152.80255	55.89118	0.33699	 	1.389529848E7	 	4.27878E-7	 	5824.88705	40.87564	 
940.0	1.0	0.0	7.77833	7.30556	-8.58666	16.40127	21.96526	1.35314	0.73902	149.79602	152.89953	56.03134	0.33672	 	1.573467114E7	 	3.76308E-7	 	5621.58787	40.65984	 
935.0	1.0	0.0	7.78137	7.30271	-8.62237	16.34184	21.87607	1.35306	0.73906	150.13833	152.99833	56.17063	0.33645	 	1.78358836E7	 	3.30608E-7	 	5419.33363	40.45085	 
930.0	1.0	0.0	7.78439	7.29987	-8.65784	16.28281	21.78803	1.35291	0.73915	150.47882	153.09894	56.3091	0.33619	 	2.023876237E7	 	2.9015E-7	 	5218.09181	40.24837	 
925.0	1.0	0.0	7.7874	7.29706	-8.69306	16.22414	21.70111	1.35268	0.73927	150.81762	153.20137	56.44682	0.33593	 	2.298957223E7	 	2.54371E-7	 	5017.83104	40.05215	 
920.0	1.0	0.0	7.79038	7.29426	-8.72805	16.16581	21.61528	1.35238	0.73943	151.1549	153.30564	56.58386	0.33567	 	2.61421226E7	 	2.22762E-7	 	4818.52122	39.86196	 
915.0	1.0	0.0	7.79335	7.29148	-8.76281	16.10781	21.5305	1.35202	0.73963	151.4908	153.41175	56.72027	0.33542	 	2.975906692E7	 	1.94867E-7	 	4620.13349	39.67755	 
910.0	1.0	0.0	7.7963	7.28872	-8.79734	16.0501	21.44674	1.35159	0.73987	151.82546	153.5197	56.85612	0.33517	 	3.391344384E7	 	1.70276E-7	 	4422.64015	39.49867	 
905.0	1.0	0.0	7.79924	7.28598	-8.83166	15.99268	21.36397	1.35109	0.74014	152.15901	153.62951	56.99144	0.33493	 	3.869049605E7	 	1.48622E-7	 	4226.01441	39.32515	 
900.0	1.0	0.0	7.80216	7.28325	-8.86578	15.93551	21.28216	1.35053	0.74045	152.49157	153.74117	57.1263	0.33469	 	4.418983523E7	 	1.29574E-7	 	4030.23068	39.15675	 
895.0	1.0	0.0	7.80506	7.28054	-8.89968	15.87858	21.20127	1.3499	0.74079	152.82327	153.85468	57.26074	0.33445	 	5.052799437E7	 	1.12837E-7	 	3835.26415	38.99331	 
890.0	1.0	0.0	7.80795	7.27785	-8.93339	15.82187	21.1213	1.34921	0.74117	153.15421	153.97006	57.39481	0.33422	 	5.784148142E7	 	9.81484E-8	 	3641.09108	38.83461	 
885.0	1.0	0.0	7.81082	7.27517	-8.96691	15.76536	21.04221	1.34846	0.74158	153.4845	154.0873	57.52856	0.33399	 	6.629038783E7	 	8.52709E-8	 	3447.68848	38.68052	 
880.0	1.0	0.0	7.81368	7.27251	-9.00023	15.70903	20.96398	1.34765	0.74203	153.81425	154.2064	57.66202	0.33376	 	7.606271605E7	 	7.39947E-8	 	3255.03406	38.53089	 
875.0	1.0	0.0	7.81653	7.26986	-9.03337	15.65287	20.88658	1.34678	0.74251	154.14356	154.32737	57.79523	0.33353	 	8.737950645E7	 	6.41321E-8	 	3063.1065	38.38551	 
870.0	1.0	0.0	7.81936	7.26723	-9.06633	15.59686	20.81	1.34585	0.74302	154.47253	154.4502	57.92824	0.33331	 	1.005009915E8	 	5.55162E-8	 	2871.88553	38.24419	 
865.0	1.0	0.0	7.82218	7.26461	-9.09911	15.54098	20.73421	1.34486	0.74357	154.80123	154.5749	58.06109	0.33309	 	1.157339353E8	 	4.79983E-8	 	2681.35132	38.10684	 
860.0	1.0	0.0	7.82499	7.262	-9.13172	15.48521	20.6592	1.34382	0.74415	155.12976	154.70146	58.1938	0.33287	 	1.334404281E8	 	4.14464E-8	 	2491.4848	37.97331	 
855.0	1.0	0.0	7.82778	7.25941	-9.16417	15.42955	20.58495	1.34271	0.74476	155.4582	154.82989	58.32641	0.33266	 	1.540484456E8	 	3.57434E-8	 	2302.26735	37.84349	 
850.0	1.0	0.0	7.83057	7.25683	-9.19644	15.37397	20.51144	1.34155	0.7454	155.78662	154.96017	58.45896	0.33244	 	1.780645043E8	 	3.07856E-8	 	2113.68108	37.71725	 
845.0	1.0	0.0	7.83277	7.25478	-9.22201	15.3489	20.45203	1.33946	0.74657	156.11462	155.1627	58.58791	0.33231	 	2.021983755E8	 	2.69904E-8	 	1953.59815	32.01659	 
840.0	1.0	0.0	7.83497	7.25275	-9.24751	15.32382	20.39262	1.33736	0.74774	156.44216	155.36451	58.71672	0.33218	 	2.29865536E8	 	2.36356E-8	 	1790.45612	32.62841	 
835.0	1.0	0.0	7.83717	7.25071	-9.27295	15.29875	20.33319	1.33524	0.74893	156.76926	155.56561	58.84539	0.33204	 	2.616210396E8	 	2.06734E-8	 	1627.52332	32.58656	 
830.0	1.0	0.0	7.83936	7.24869	-9.29832	15.27367	20.27376	1.33311	0.75013	157.09591	155.76599	58.9739	0.33191	 	2.981129977E8	 	1.80609E-8	 	1464.79892	32.54488	 
825.0	1.0	0.0	7.84155	7.24666	-9.32363	15.24859	20.21432	1.33097	0.75133	157.42211	155.96567	59.10228	0.33178	 	3.400991559E8	 	1.57595E-8	 	1302.28209	32.50337	 
820.0	1.0	0.0	7.84373	7.24465	-9.34887	15.22351	20.15486	1.32882	0.75255	157.74786	156.16463	59.23051	0.33164	 	3.884665964E8	 	1.37345E-8	 	1139.97195	32.46203	 
815.0	1.0	0.0	7.84591	7.24263	-9.37405	15.19842	20.0954	1.32666	0.75378	158.07316	156.36288	59.35859	0.33151	 	4.442551867E8	 	1.19548E-8	 	977.86756	32.42088	 
810.0	1.0	0.0	7.84809	7.24063	-9.39916	15.17333	20.03593	1.32448	0.75501	158.39801	156.56043	59.48653	0.33138	 	5.086855287E8	 	1.03926E-8	 	815.96801	32.37991	 
805.0	1.0	0.0	7.85026	7.23863	-9.4242	15.14824	19.97644	1.32229	0.75626	158.72241	156.75728	59.61432	0.33124	 	5.831923169E8	 	9.02307E-9	 	654.27228	32.33914	 
800.0	1.0	0.0	7.85242	7.23663	-9.44918	15.12315	19.91695	1.32009	0.75752	159.04637	156.95342	59.74197	0.33111	 	6.694642117E8	 	7.82384E-9	 	492.77937	32.29858	 
795.0	1.0	0.0	7.85458	7.23464	-9.4741	15.09805	19.85744	1.31788	0.7588	159.36987	157.14887	59.86947	0.33098	 	7.694915681E8	 	6.77509E-9	 	331.48818	32.25824	 
790.0	1.0	0.0	7.85674	7.23265	-9.49894	15.07296	19.79793	1.31565	0.76008	159.69293	157.34361	59.99683	0.33084	 	8.856236547E8	 	5.85912E-9	 	170.3976	32.21812	 
785.0	1.0	0.0	7.85889	7.23067	-9.52373	15.04786	19.7384	1.31341	0.76137	160.01554	157.53766	60.12404	0.33071	 	1.020637349E9	 	5.06014E-9	 	9.50646	32.17823	 
780.0	1.0	0.0	7.86104	7.2287	-9.54845	15.02275	19.67886	1.31116	0.76268	160.3377	157.73102	60.2511	0.33058	 	1.17781974E9	 	4.36413E-9	 	-151.18647	32.13859	 
775.0	1.0	0.0	7.86318	7.22673	-9.5731	14.99765	19.61931	1.3089	0.764	160.65941	157.92369	60.37802	0.33045	 	1.361067606E9	 	3.75864E-9	 	-311.68246	32.0992	 
770.0	1.0	0.0	7.86532	7.22476	-9.59769	14.97254	19.55975	1.30662	0.76533	160.98067	158.11566	60.50479	0.33031	 	1.575007396E9	 	3.23259E-9	 	-471.98285	32.06008	 
765.0	1.0	0.0	7.86746	7.2228	-9.62221	14.94743	19.50017	1.30433	0.76668	161.30149	158.30695	60.63142	0.33018	 	1.825140185E9	 	2.7762E-9	 	-632.08906	32.02124	 
760.0	1.0	0.0	7.86959	7.22085	-9.64667	14.92231	19.44059	1.30203	0.76803	161.62186	158.49755	60.7579	0.33005	 	2.118017058E9	 	2.38079E-9	 	-792.00254	31.9827	 
755.0	1.0	0.0	7.87171	7.2189	-9.67106	14.8972	19.38099	1.29971	0.7694	161.94178	158.68746	60.88424	0.32992	 	2.461451687E9	 	2.03869E-9	 	-951.72484	31.94446	 
750.0	1.0	0.0	7.87383	7.21695	-9.69538	14.87208	19.32138	1.29738	0.77078	162.26125	158.8767	61.01043	0.32978	 	2.864778381E9	 	1.74315E-9	 	-1111.25758	31.90655	 
745.0	1.0	0.0	7.87595	7.21501	-9.71964	14.84696	19.26175	1.29504	0.77218	162.58027	159.06525	61.13648	0.32965	 	3.339165887E9	 	1.4882E-9	 	-1270.60247	31.86898	 
740.0	1.0	0.0	7.87806	7.21308	-9.74384	14.82183	19.20212	1.29268	0.77359	162.89885	159.25312	61.26237	0.32952	 	3.897999613E9	 	1.26858E-9	 	-1429.7613	31.83177	 
735.0	1.0	0.0	7.88017	7.21115	-9.76797	14.79671	19.14246	1.29031	0.77501	163.21698	159.44032	61.38813	0.32939	 	4.557348008E9	 	1.07969E-9	 	-1588.73594	31.79493	 
730.0	1.0	0.0	7.88227	7.20923	-9.79203	14.77158	19.0828	1.28792	0.77644	163.53466	159.62684	61.51374	0.32925	 	5.336532615E9	 	9.17473E-10	 	-1747.52837	31.75849	 
725.0	1.0	0.0	7.88437	7.20731	-9.81603	14.74645	19.02312	1.28552	0.77789	163.85189	159.81268	61.6392	0.32912	 	6.258826069E9	 	7.78376E-10	 	-1906.14071	31.72247	 
720.0	1.0	0.0	7.88646	7.2054	-9.83997	14.72131	18.96343	1.28311	0.77936	164.16867	159.99786	61.76451	0.32899	 	7.352308304E9	 	6.59292E-10	 	-2064.57512	31.68688	 
715.0	1.0	0.0	7.88855	7.20349	-9.86383	14.69618	18.90372	1.28068	0.78083	164.48501	160.18236	61.88968	0.32886	 	8.65091872E9	 	5.57503E-10	 	-2222.83396	31.65177	 
710.0	1.0	0.0	7.89063	7.20159	-9.88764	14.67104	18.844	1.27824	0.78233	164.8009	160.3662	62.0147	0.32872	 	1.01958E10	 	4.70638E-10	 	-2380.91966	31.61714	 
705.0	1.0	0.0	7.89271	7.19969	-9.91137	14.64589	18.78427	1.27578	0.78383	165.11634	160.54937	62.13958	0.32859	 	1.2036699999999998E10	 	3.96631E-10	 	-2538.83481	31.58303	 
700.0	1.0	0.0	7.89478	7.1978	-9.93504	14.62075	18.72452	1.27331	0.78535	165.43134	160.73188	62.26431	0.32846	 	1.4234199999999998E10	 	3.33683E-10	 	-2696.58216	31.54947	 
695.0	1.0	0.0	7.89685	7.19591	-9.95865	14.5956	18.66475	1.27083	0.78689	165.74589	160.91372	62.3889	0.32833	 	1.6862099999999998E10	 	2.80231E-10	 	-2854.16459	31.51649	 
690.0	1.0	0.0	7.89892	7.19403	-9.98219	14.57045	18.60497	1.26833	0.78844	166.05999	161.0949	62.51334	0.3282	 	2.00104E10	 	2.34923E-10	 	-3011.58516	31.48412	 
685.0	1.0	0.0	7.90098	7.19216	-10.00566	14.5453	18.54517	1.26581	0.79001	166.37364	161.27542	62.63763	0.32806	 	2.3788999999999996E10	 	1.96582E-10	 	-3168.84714	31.45239	 
680.0	1.0	0.0	7.90304	7.19029	-10.02907	14.52015	18.48536	1.26328	0.79159	166.68685	161.45529	62.76177	0.32793	 	2.8332399999999996E10	 	1.64197E-10	 	-3325.95392	31.42136	 
675.0	1.0	0.0	7.90509	7.18842	-10.05242	14.49499	18.42553	1.26073	0.79319	166.99961	161.6345	62.88577	0.3278	 	3.3805799999999996E10	 	1.3689E-10	 	-3482.90919	31.39105	 
670.0	1.0	0.0	7.90713	7.18656	-10.0757	14.46983	18.36568	1.25817	0.7948	167.31192	161.81305	63.00963	0.32767	 	4.04122E10	 	1.13908E-10	 	-3639.71678	31.36152	 
665.0	1.0	0.0	7.90917	7.1847	-10.09891	14.44467	18.30582	1.25559	0.79644	167.62379	161.99095	63.13333	0.32754	 	4.840159999999999E10	 	9.46017E-11	 	-3796.3808	31.3328	 
660.0	1.0	0.0	7.91121	7.18285	-10.12205	14.4195	18.24594	1.253	0.79808	167.93521	162.1682	63.25689	0.32741	 	5.808279999999999E10	 	7.84135E-11	 	-3952.89401	31.30264	 
655.0	1.0	0.0	7.91324	7.18101	-10.14514	14.39434	18.18604	1.25039	0.79975	168.24618	162.34481	63.38031	0.32727	 	6.98374E10	 	6.4866E-11	 	-4109.19188	31.25957	 
650.0	1.0	0.0	7.91527	7.17917	-10.16815	14.36917	18.12612	1.24777	0.80143	168.5567	162.52076	63.50358	0.32714	 	8.41386E10	 	5.35505E-11	 	-4265.18881	31.19939	 
645.0	1.0	0.0	7.91729	7.17734	-10.1911	14.34399	18.06619	1.24513	0.80313	168.86678	162.69607	63.6267	0.32701	 	1.01574E11	 	4.41181E-11	 	-4420.88611	31.13946	 
640.0	1.0	0.0	7.91931	7.17551	-10.21398	14.31882	18.00623	1.24247	0.80485	169.17641	162.87073	63.74967	0.32688	 	1.22876E11	 	3.62711E-11	 	-4576.28513	31.0798	 
635.0	1.0	0.0	7.92132	7.17368	-10.2368	14.29364	17.94626	1.23979	0.80659	169.4856	163.04476	63.8725	0.32675	 	1.48958E11	 	2.97564E-11	 	-4731.38718	31.02041	 
630.0	1.0	0.0	7.92333	7.17187	-10.25956	14.26846	17.88627	1.2371	0.80834	169.79434	163.21814	63.99518	0.32662	 	1.8096E11	 	2.43592E-11	 	-4886.19359	30.96128	 
625.0	1.0	0.0	7.92534	7.17005	-10.28224	14.24328	17.82625	1.2344	0.81011	170.10263	163.39088	64.11771	0.32649	 	2.20316E11	 	1.98971E-11	 	-5040.70591	30.90247	 
620.0	1.0	0.0	7.92733	7.16825	-10.30486	14.21809	17.76622	1.23167	0.8119	170.41048	163.56299	64.2401	0.32636	 	2.68821E11	 	1.62161E-11	 	-5194.92611	30.84404	 
615.0	1.0	0.0	7.92933	7.16644	-10.32742	14.19291	17.70617	1.22893	0.81371	170.71788	163.73446	64.36234	0.32622	 	3.28742E11	 	1.31862E-11	 	-5348.85517	30.78581	 
610.0	1.0	0.0	7.93132	7.16465	-10.34991	14.16772	17.6461	1.22617	0.81555	171.02483	163.90529	64.48444	0.32609	 	4.02936E11	 	1.06976E-11	 	-5502.49441	30.72785	 
605.0	1.0	0.0	7.9333	7.16285	-10.37233	14.14252	17.586	1.2234	0.8174	171.33133	164.0755	64.60638	0.32596	 	4.95021E11	 	8.65829E-12	 	-5655.84509	30.67014	 
600.0	1.0	0.0	7.93528	7.16107	-10.39469	14.11733	17.52588	1.2206	0.81927	171.63739	164.24507	64.72818	0.32583	 	6.09585E11	 	6.99103E-12	 	-5808.90855	30.61269	 
595.0	1.0	0.0	7.93726	7.15928	-10.41699	14.09213	17.46574	1.21779	0.82116	171.94301	164.41401	64.84984	0.3257	 	7.52466E11	 	5.63112E-12	 	-5961.68606	30.5555	 
590.0	1.0	0.0	7.93923	7.15751	-10.43921	14.06693	17.40558	1.21497	0.82307	172.24817	164.58233	64.97134	0.32557	 	9.31106E11	 	4.52454E-12	 	-6114.17893	30.49858	 
585.0	1.0	0.0	7.94119	7.15574	-10.46137	14.04173	17.3454	1.21212	0.825	172.5529	164.75002	65.0927	0.32544	 	1.15502E12	 	3.62628E-12	 	-6266.38845	30.4419	 
580.0	1.0	0.0	7.94315	7.15397	-10.48347	14.01652	17.28519	1.20925	0.82696	172.85717	164.91708	65.21391	0.32531	 	1.4364E12	 	2.89892E-12	 	-6418.3159	30.38549	 
575.0	1.0	0.0	7.94511	7.15221	-10.5055	13.99131	17.22496	1.20637	0.82893	173.161	165.08353	65.33498	0.32518	 	1.79093E12	 	2.31142E-12	 	-6569.9626	30.32934	 
570.0	1.0	0.0	7.94706	7.15046	-10.52746	13.9661	17.1647	1.20347	0.83093	173.46438	165.24935	65.45589	0.32505	 	2.23882E12	 	1.83811E-12	 	-6721.32979	30.27344	 
565.0	1.0	0.0	7.949	7.14871	-10.54936	13.94089	17.10442	1.20055	0.83295	173.76732	165.41455	65.57666	0.32492	 	2.80618E12	 	1.45778E-12	 	-6872.41879	30.2178	 
560.0	1.0	0.0	7.95094	7.14696	-10.57119	13.91567	17.04411	1.19761	0.835	174.06981	165.57913	65.69729	0.32479	 	3.52687E12	 	1.15298E-12	 	-7023.23085	30.16241	 
555.0	1.0	0.0	7.95288	7.14522	-10.59296	13.89045	16.98378	1.19465	0.83707	174.37185	165.7431	65.81776	0.32466	 	4.4449E12	 	9.09356E-13	 	-7173.76728	30.10728	 
550.0	1.0	0.0	7.95481	7.14349	-10.61466	13.86523	16.92342	1.19167	0.83916	174.67345	165.90645	65.93809	0.32453	 	5.61765E12	 	7.15172E-13	 	-7324.02934	30.05241	 
545.0	1.0	0.0	7.95674	7.14176	-10.6363	13.84001	16.86304	1.18868	0.84127	174.9746	166.06919	66.05827	0.3244	 	7.12018E12	 	5.60827E-13	 	-7474.0183	29.99779	 
540.0	1.0	0.0	7.95866	7.14003	-10.65787	13.81478	16.80262	1.18566	0.84341	175.27531	166.23132	66.1783	0.32427	 	9.05092E12	 	4.38495E-13	 	-7623.73542	29.94342	 
535.0	1.0	0.0	7.96057	7.13832	-10.67937	13.78955	16.74218	1.18262	0.84558	175.57557	166.39283	66.29819	0.32414	 	1.15394E13	 	3.41818E-13	 	-7773.182	29.88932	 
530.0	1.0	0.0	7.96248	7.1366	-10.70081	13.76432	16.68171	1.17957	0.84777	175.87539	166.55374	66.41793	0.32401	 	1.47567E13	 	2.65641E-13	 	-7922.35927	29.83545	 
525.0	1.0	0.0	7.96439	7.13489	-10.72218	13.73909	16.62121	1.17649	0.84999	176.17475	166.71404	66.53752	0.32388	 	1.89292E13	 	2.05797E-13	 	-8071.2685	29.78185	 
520.0	1.0	0.0	7.96629	7.13319	-10.74348	13.71385	16.56069	1.17339	0.85223	176.47368	166.87374	66.65696	0.32375	 	2.43578E13	 	1.58929E-13	 	-8219.91095	29.72849	 
515.0	1.0	0.0	7.96819	7.13149	-10.76472	13.68861	16.50013	1.17027	0.8545	176.77215	167.03283	66.77626	0.32362	 	3.14437E13	 	1.22338E-13	 	-8368.28788	29.67539	 
510.0	1.0	0.0	7.97008	7.1298	-10.7859	13.66337	16.43954	1.16714	0.8568	177.07019	167.19132	66.8954	0.32349	 	4.07236E13	 	9.38611E-14	 	-8516.40053	29.62253	 
505.0	1.0	0.0	7.97196	7.12812	-10.80701	13.63813	16.37892	1.16398	0.85912	177.36777	167.3492	67.0144	0.32336	 	5.29177E13	 	7.1771E-14	 	-8664.25016	29.56993	 
500.0	1.0	0.0	7.97385	7.12643	-10.82805	13.61288	16.31826	1.1608	0.86148	177.66491	167.50649	67.13325	0.32323	 	6.89966E13	 	5.46919E-14	 	-8811.83799	29.51757	 
495.0	1.0	0.0	7.97572	7.12476	-10.84902	13.58763	16.25758	1.15759	0.86386	177.96161	167.66318	67.25196	0.3231	 	9.02722E13	 	4.15316E-14	 	-8959.16529	29.46546	 
490.0	1.0	0.0	7.97759	7.12309	-10.86993	13.56238	16.19685	1.15437	0.86627	178.25785	167.81927	67.37051	0.32297	 	1.18525E14	 	3.14258E-14	 	-9106.23327	29.4136	 
485.0	1.0	0.0	7.97946	7.12142	-10.89078	13.53713	16.1361	1.15113	0.86872	178.55366	167.97477	67.48892	0.32284	 	1.5618E14	 	2.36928E-14	 	-9253.04317	29.36198	 
480.0	1.0	0.0	7.98132	7.11976	-10.91156	13.51187	16.07531	1.14786	0.87119	178.84902	168.12967	67.60718	0.32271	 	2.06554E14	 	1.77965E-14	 	-9399.59623	29.31061	 
475.0	1.0	0.0	7.98318	7.1181	-10.93227	13.48661	16.01449	1.14457	0.87369	179.14393	168.28398	67.72529	0.32258	 	2.7419699999999997E14	 	1.33172E-14	 	-9545.89366	29.25949	 
470.0	1.0	0.0	7.98503	7.11645	-10.95291	13.46135	15.95362	1.14126	0.87623	179.43839	168.4377	67.84325	0.32245	 	3.65382E14	 	9.92695E-15	 	-9691.93668	29.2086	 
465.0	1.0	0.0	7.98687	7.11481	-10.97349	13.43608	15.89272	1.13792	0.8788	179.73241	168.59083	67.96107	0.32232	 	4.88789E14	 	7.37072E-15	 	-9837.7265	29.15796	 
460.0	1.0	0.0	7.98871	7.11317	-10.99401	13.41082	15.83179	1.13456	0.8814	180.02599	168.74338	68.07874	0.32219	 	6.56476E14	 	5.4508E-15	 	-9983.26434	29.10757	 
455.0	1.0	0.0	7.99055	7.11154	-11.01446	13.38555	15.77081	1.13118	0.88403	180.31912	168.89533	68.19625	0.32206	 	8.85271E14	 	4.0145E-15	 	-10128.55141	29.05741	 
450.0	1.0	0.0	7.99238	7.10991	-11.03484	13.36027	15.70979	1.12778	0.8867	180.6118	169.0467	68.31362	0.32193	 	1.19875E15	 	2.94433E-15	 	-10273.5889	29.0075	 
445.0	1.0	0.0	7.99421	7.10828	-11.05516	13.335	15.64873	1.12435	0.8894	180.90404	169.19749	68.43085	0.3218	 	1.6301E15	 	2.15024E-15	 	-10418.378	28.95782	 
440.0	1.0	0.0	7.99603	7.10667	-11.07541	13.30972	15.58764	1.1209	0.89214	181.19584	169.3477	68.54792	0.32167	 	2.22624E15	 	1.56349E-15	 	-10562.91991	28.90838	 
435.0	1.0	0.0	7.99784	7.10505	-11.09559	13.28444	15.52649	1.11742	0.89492	181.48718	169.49732	68.66484	0.32154	 	3.05381E15	 	1.1318E-15	 	-10707.21581	28.85918	 
430.0	1.0	0.0	7.99965	7.10344	-11.11571	13.25916	15.46531	1.11392	0.89773	181.77809	169.64636	68.78162	0.32141	 	4.20788E15	 	8.15589E-16	 	-10851.26688	28.81021	 
425.0	1.0	0.0	8.00146	7.10184	-11.13576	13.23387	15.40408	1.1104	0.90058	182.06854	169.79483	68.89825	0.32129	 	5.82477E15	 	5.85001E-16	 	-10995.07412	28.76145	 
420.0	1.0	0.0	8.00326	7.10024	-11.15575	13.20859	15.3428	1.10685	0.90347	182.35856	169.94272	69.01473	0.32116	 	8.10087E15	 	4.17621E-16	 	-11138.63897	28.71297	 
415.0	1.0	0.0	8.00505	7.09865	-11.17566	13.1833	15.28148	1.10328	0.90639	182.64812	170.09004	69.13106	0.32103	 	1.13205E16	 	2.9669E-16	 	-11281.96191	28.66459	 
410.0	1.0	0.0	8.00684	7.09707	-11.19552	13.158	15.22011	1.09968	0.90936	182.93724	170.23678	69.24724	0.3209	 	1.58975E16	 	2.09737E-16	 	-11425.04311	28.61624	 
405.0	1.0	0.0	8.00863	7.09548	-11.21531	13.13271	15.15869	1.09605	0.91237	183.22592	170.38295	69.36327	0.32077	 	2.2437E16	 	1.47519E-16	 	-11567.88279	28.56794	 
400.0	1.0	0.0	8.01041	7.09391	-11.23503	13.10741	15.09722	1.0924	0.91542	183.51415	170.52854	69.47915	0.32064	 	3.18291E16	 	1.03222E-16	 	-11710.48113	28.51967	 
395.0	1.0	0.0	8.01218	7.09234	-11.25468	13.08211	15.0357	1.08872	0.91851	183.80193	170.67357	69.59489	0.32051	 	4.53896E16	 	7.18462E-17	 	-11852.8383	28.47143	 
390.0	1.0	0.0	8.01395	7.09077	-11.27427	13.05681	14.97413	1.08502	0.92164	184.08927	170.81803	69.71047	0.32038	 	6.50748E16	 	4.97377E-17	 	-11994.95448	28.42324	 
385.0	1.0	0.0	8.01571	7.08921	-11.29379	13.0315	14.9125	1.08129	0.92482	184.37617	170.96192	69.82591	0.32026	 	9.38095E16	 	3.42424E-17	 	-12136.82983	28.37507	 
380.0	1.0	0.0	8.01747	7.08766	-11.31325	13.00619	14.85082	1.07753	0.92805	184.66262	171.10525	69.9412	0.32013	 	1.35992E17	 	2.34416E-17	 	-12278.46451	28.32694	 
375.0	1.0	0.0	8.01922	7.08611	-11.33264	12.98088	14.78908	1.07374	0.93132	184.94862	171.24801	70.05634	0.32	 	1.98274E17	 	1.5955E-17	 	-12419.85867	28.27883	 
370.0	1.0	0.0	8.02097	7.08456	-11.35197	12.95557	14.72728	1.06993	0.93464	185.23418	171.39021	70.17132	0.31987	 	2.90781E17	 	1.07953E-17	 	-12561.01244	28.23075	 
365.0	1.0	0.0	8.02271	7.08302	-11.37122	12.93025	14.66543	1.06609	0.93801	185.51929	171.53185	70.28616	0.31974	 	4.29014E17	 	7.26002E-18	 	-12701.92595	28.1827	 
360.0	1.0	0.0	8.02445	7.08149	-11.39042	12.90494	14.60351	1.06222	0.94142	185.80396	171.67293	70.40085	0.31961	 	6.36861E17	 	4.85231E-18	 	-12842.59933	28.13468	 
355.0	1.0	0.0	8.02618	7.07996	-11.40954	12.87962	14.54154	1.05833	0.94489	186.08818	171.81345	70.5154	0.31949	 	9.5137E17	 	3.22256E-18	 	-12983.03268	28.08667	 
350.0	1.0	0.0	8.02791	7.07844	-11.4286	12.85429	14.47949	1.0544	0.94841	186.37196	171.95341	70.62979	0.31936	 	1.43038E18	 	2.12632E-18	 	-13123.22612	28.03869	 
345.0	1.0	0.0	8.02963	7.07692	-11.44759	12.82897	14.41739	1.05045	0.95198	186.65529	172.09282	70.74403	0.31923	 	2.1648E18	 	1.39368E-18	 	-13263.17971	27.99072	 
340.0	1.0	0.0	8.03135	7.07541	-11.46652	12.80364	14.35521	1.04646	0.9556	186.93818	172.23167	70.85812	0.3191	 	3.29853E18	 	9.07262E-19	 	-13402.89356	27.94277	 
335.0	1.0	0.0	8.03306	7.0739	-11.48538	12.77831	14.29297	1.04245	0.95928	187.22062	172.36996	70.97207	0.31897	 	5.06093E18	 	5.86499E-19	 	-13542.36771	27.89483	 
330.0	1.0	0.0	8.03477	7.0724	-11.50418	12.75297	14.23066	1.0384	0.96302	187.50262	172.50771	71.08586	0.31885	 	7.82028E18	 	3.76435E-19	 	-13681.60222	27.8469	 
325.0	1.0	0.0	8.03647	7.0709	-11.5229	12.72764	14.16827	1.03433	0.96681	187.78417	172.6449	71.1995	0.31872	 	1.21723E19	 	2.39841E-19	 	-13820.59716	27.79899	 
320.0	1.0	0.0	8.03816	7.06941	-11.54157	12.7023	14.10581	1.03023	0.97066	188.06528	172.78155	71.313	0.31859	 	1.90882E19	 	1.51665E-19	 	-13959.35254	27.75108	 
315.0	1.0	0.0	8.03985	7.06792	-11.56016	12.67696	14.04328	1.02609	0.97457	188.34594	172.91764	71.42634	0.31846	 	3.01632E19	 	9.51693E-20	 	-14097.86838	27.70317	 
310.0	1.0	0.0	8.04154	7.06644	-11.57869	12.65161	13.98066	1.02192	0.97855	188.62616	173.05319	71.53953	0.31834	 	4.80395E19	 	5.92473E-20	 	-14236.14467	27.65526	 
305.0	1.0	0.0	8.04322	7.06497	-11.59715	12.62627	13.91796	1.01773	0.98258	188.90593	173.18819	71.65258	0.31821	 	7.71286E19	 	3.65857E-20	 	-14374.18143	27.60735	 
300.0	1.0	0.0	8.04489	7.0635	-11.61555	12.60092	13.85519	1.0135	0.98668	189.18525	173.32265	71.76547	0.31808	 	1.2485899999999998E20	 	2.24045E-20	 	-14511.97861	27.55944	 
295.0	1.0	0.0	8.04656	7.06203	-11.63388	12.57557	13.79232	1.00923	0.99085	189.46413	173.45656	71.87822	0.31795	 	2.03848E20	 	1.36033E-20	 	-14649.53617	27.51151	 
290.0	1.0	0.0	8.04822	7.06057	-11.65215	12.55021	13.72937	1.00494	0.99509	189.74257	173.58994	71.99081	0.31782	 	3.3571699999999997E20	 	8.18725E-21	 	-14786.85406	27.46358	 
285.0	1.0	0.0	8.04988	7.05912	-11.67034	12.52486	13.66633	1.00061	0.99939	190.02056	173.72277	72.10326	0.3177	 	5.5785499999999997E20	 	4.88333E-21	 	-14923.93219	27.41563	 
280.0	1.0	0.0	8.05154	7.05767	-11.68847	12.4995	13.6032	0.99625	1.00377	190.29811	173.85506	72.21555	0.31757	 	9.35529E20	 	2.88584E-21	 	-15060.77049	27.36766	 
275.0	1.0	0.0	8.05318	7.05623	-11.70654	12.47413	13.53997	0.99185	1.00821	190.57521	173.98681	72.32769	0.31744	 	1.58376E21	 	1.68926E-21	 	-15197.36882	27.31967	 
270.0	1.0	0.0	8.05482	7.05479	-11.72454	12.44877	13.47664	0.98742	1.01274	190.85186	174.11803	72.43969	0.31732	 	2.70726E21	 	9.7921E-22	 	-15333.72707	27.27165	 
265.0	1.0	0.0	8.05646	7.05335	-11.74247	12.4234	13.41322	0.98296	1.01733	191.12807	174.24871	72.55153	0.31719	 	4.6741100000000003E21	 	5.61942E-22	 	-15469.84507	27.2236	 
260.0	1.0	0.0	8.05809	7.05193	-11.76033	12.39803	13.34969	0.97846	1.02201	191.40384	174.37885	72.66322	0.31706	 	8.15296E21	 	3.19169E-22	 	-15605.72266	27.17552	 
255.0	1.0	0.0	8.05972	7.0505	-11.77813	12.37266	13.28605	0.97393	1.02677	191.67915	174.50847	72.77476	0.31693	 	1.43716E22	 	1.79365E-22	 	-15741.35964	27.1274	 
250.0	1.0	0.0	8.06134	7.04909	-11.79587	12.34729	13.2223	0.96936	1.03161	191.95403	174.63755	72.88615	0.31681	 	2.56096E22	 	9.97033E-23	 	-15876.75577	27.07923	 
245.0	1.0	0.0	8.06295	7.04768	-11.81353	12.32191	13.15844	0.96476	1.03653	192.22846	174.7661	72.9974	0.31668	 	4.61469E22	 	5.48024E-23	 	-16011.91083	27.03101	 
240.0	1.0	0.0	8.06456	7.04627	-11.83113	12.29653	13.09447	0.96011	1.04154	192.50244	174.89412	73.10849	0.31655	 	8.41136E22	 	2.97759E-23	 	-16146.82453	26.98274	 
235.0	1.0	0.0	8.06617	7.04487	-11.84867	12.27115	13.03037	0.95544	1.04664	192.77598	175.02161	73.21942	0.31643	 	1.55139E23	 	1.59867E-23	 	-16281.49658	26.93441	 
230.0	1.0	0.0	8.06777	7.04347	-11.86613	12.24576	12.96615	0.95072	1.05183	193.04907	175.14857	73.33021	0.3163	 	2.8963899999999998E23	 	8.47865E-24	 	-16415.92666	26.88602	 
225.0	1.0	0.0	8.06936	7.04208	-11.88353	12.22038	12.9018	0.94597	1.05712	193.32172	175.27501	73.44085	0.31617	 	5.47568E23	 	4.44026E-24	 	-16550.1144	26.83755	 
220.0	1.0	0.0	8.07095	7.0407	-11.90087	12.19499	12.83731	0.94118	1.0625	193.59393	175.40092	73.55134	0.31605	 	1.04864E24	 	2.29529E-24	 	-16684.05942	26.789	 
215.0	1.0	0.0	8.07253	7.03932	-11.91813	12.16959	12.77269	0.93635	1.06798	193.86568	175.52631	73.66167	0.31592	 	2.0351500000000002E24	 	1.17069E-24	 	-16817.7613	26.74038	 
210.0	1.0	0.0	8.07411	7.03794	-11.93534	12.1442	12.70794	0.93148	1.07356	194.137	175.65118	73.77186	0.31579	 	4.00431E24	 	5.889E-25	 	-16951.21956	26.69165	 
205.0	1.0	0.0	8.07568	7.03657	-11.95247	12.1188	12.64303	0.92657	1.07925	194.40786	175.77552	73.88189	0.31567	 	7.99106E24	 	2.92043E-25	 	-17084.43374	26.64284	 
200.0	1.0	0.0	8.07724	7.03521	-11.96954	12.0934	12.57797	0.92163	1.08504	194.67829	175.89935	73.99177	0.31554	 	1.6181700000000001E25	 	1.42712E-25	 	-17217.4033	26.59391	 
195.0	1.0	0.0	8.0788	7.03385	-11.98654	12.068	12.51276	0.91664	1.09094	194.94826	176.02265	74.10151	0.31541	 	3.32651E25	 	6.86883E-26	 	-17350.12765	26.54487	 
190.0	1.0	0.0	8.08036	7.0325	-12.00347	12.04259	12.44739	0.91161	1.09696	195.2178	176.14544	74.21109	0.31529	 	6.94562E25	 	3.2546E-26	 	-17482.60619	26.49571	 
185.0	1.0	0.0	8.08191	7.03115	-12.02034	12.01718	12.38185	0.90654	1.10309	195.48688	176.26771	74.32051	0.31516	 	1.4737100000000001E26	 	1.51734E-26	 	-17614.83826	26.44641	 
180.0	1.0	0.0	8.08345	7.0298	-12.03714	11.99177	12.31614	0.90143	1.10934	195.75552	176.38947	74.42979	0.31503	 	3.17923E26	 	6.95676E-27	 	-17746.82315	26.39698	 
175.0	1.0	0.0	8.08499	7.02847	-12.05388	11.96636	12.25025	0.89628	1.11572	196.02372	176.51071	74.53892	0.31491	 	6.977220000000001E26	 	3.13493E-27	 	-17878.5601	26.34739	 
170.0	1.0	0.0	8.08652	7.02714	-12.07055	11.94095	12.18418	0.89109	1.12222	196.29147	176.63144	74.64789	0.31478	 	1.55864E27	 	1.38768E-27	 	-18010.04831	26.29764	 
165.0	1.0	0.0	8.08805	7.02581	-12.08715	11.91553	12.11791	0.88585	1.12886	196.55878	176.75165	74.75671	0.31466	 	3.5463199999999996E27	 	6.0302E-28	 	-18141.28689	26.24772	 
160.0	1.0	0.0	8.08957	7.02449	-12.10368	11.89011	12.05144	0.88057	1.13562	196.82564	176.87136	74.86539	0.31453	 	8.22339E27	 	2.57083E-28	 	-18272.27494	26.19761	 
155.0	1.0	0.0	8.09109	7.02317	-12.12015	11.86468	11.98477	0.87525	1.14253	197.09205	176.99055	74.9739	0.3144	 	1.94472E28	 	1.07455E-28	 	-18403.01147	26.1473	 
150.0	1.0	0.0	8.0926	7.02186	-12.13656	11.83926	11.91789	0.86988	1.14958	197.35802	177.10924	75.08227	0.31428	 	4.69348E28	 	4.40034E-29	 	-18533.4954	26.09679	 
145.0	1.0	0.0	8.0941	7.02055	-12.15289	11.81383	11.85078	0.86447	1.15677	197.62355	177.22742	75.19049	0.31415	 	1.15687E29	 	1.76415E-29	 	-18663.72564	26.04605	 
140.0	1.0	0.0	8.0956	7.01925	-12.16916	11.7884	11.78345	0.85902	1.16412	197.88863	177.34509	75.29855	0.31403	 	2.9144500000000004E29	 	6.91891E-30	 	-18793.70097	25.99507	 
135.0	1.0	0.0	8.09709	7.01796	-12.18536	11.76297	11.71587	0.85352	1.17163	198.15326	177.46226	75.40646	0.3139	 	7.51037E29	 	2.65244E-30	 	-18923.4201	25.94383	 
130.0	1.0	0.0	8.09858	7.01667	-12.2015	11.73753	11.64805	0.84797	1.17929	198.41745	177.57892	75.51422	0.31378	 	1.9813599999999999E30	 	9.93095E-31	 	-19052.8817	25.89232	 
125.0	1.0	0.0	8.10006	7.01539	-12.21757	11.71209	11.57996	0.84238	1.18712	198.68119	177.69508	75.62183	0.31365	 	5.35606E30	 	3.62817E-31	 	-19182.0843	25.84052	 
120.0	1.0	0.0	8.10154	7.01411	-12.23357	11.68665	11.51161	0.83674	1.19512	198.94449	177.81074	75.72929	0.31352	 	1.48496E31	 	1.29221E-31	 	-19311.02634	25.78841	 
115.0	1.0	0.0	8.10301	7.01283	-12.2495	11.66121	11.44298	0.83105	1.2033	199.20735	177.9259	75.83659	0.3134	 	4.226599999999999E31	 	4.48224E-32	 	-19439.7062	25.73597	 
110.0	1.0	0.0	8.10448	7.01157	-12.26537	11.63576	11.37405	0.82532	1.21166	199.46975	178.04056	75.94374	0.31327	 	1.2363E32	 	1.51262E-32	 	-19568.1221	25.68318	 
105.0	1.0	0.0	8.10594	7.0103	-12.28117	11.61031	11.30482	0.81953	1.22021	199.73171	178.15472	76.05074	0.31315	 	3.72037E32	 	4.96095E-33	 	-19696.2722	25.63002	 
100.0	1.0	0.0	8.10739	7.00905	-12.29691	11.58486	11.23527	0.8137	1.22895	199.99323	178.26838	76.15759	0.31302	 	1.15311E33	 	1.57943E-33	 	-19824.15448	25.57646	 
95.0	1.0	0.0	8.10884	7.00779	-12.31258	11.55941	11.16539	0.80782	1.23789	200.2543	178.38154	76.26428	0.3129	 	3.6855E33	 	4.87545E-34	 	-19951.76683	25.52247	 
90.0	1.0	0.0	8.11028	7.00655	-12.32818	11.53395	11.09516	0.8019	1.24704	200.51493	178.49421	76.37083	0.31277	 	1.21624E34	 	1.45731E-34	 	-20079.10699	25.46803	 
85.0	1.0	0.0	8.11172	7.0053	-12.34371	11.50849	11.02457	0.79592	1.25641	200.77511	178.60639	76.47721	0.31265	 	4.1497500000000004E34	 	4.2124E-35	 	-20206.17254	25.41311	 
80.0	1.0	0.0	8.11315	7.00407	-12.35918	11.48303	10.9536	0.78989	1.26599	201.03484	178.71807	76.58345	0.31252	 	1.4659399999999998E35	 	1.17579E-35	 	-20332.96091	25.35767	 
75.0	1.0	0.0	8.11458	7.00284	-12.37458	11.45756	10.88223	0.78382	1.27581	201.29413	178.82926	76.68954	0.3124	 	5.3697399999999995E35	 	3.16446E-36	 	-20459.46937	25.30169	 
70.0	1.0	0.0	8.116	7.00161	-12.38992	11.4321	10.81045	0.77769	1.28586	201.55298	178.93996	76.79547	0.31227	 	2.0427799999999998E36	 	8.19878E-37	 	-20585.69499	25.24512	 
65.0	1.0	0.0	8.11741	7.00039	-12.40519	11.40663	10.73823	0.77151	1.29616	201.81138	179.05017	76.90125	0.31215	 	8.084439999999999E36	 	2.04149E-37	 	-20711.63464	25.18793	 
60.0	1.0	0.0	8.11882	6.99918	-12.42039	11.38116	10.66556	0.76528	1.30671	202.06933	179.15989	77.00687	0.31202	 	3.3343499999999996E37	 	4.87658E-38	 	-20837.28499	25.13007	 
55.0	1.0	0.0	8.12023	6.99797	-12.43552	11.35568	10.5924	0.759	1.31752	202.32684	179.26912	77.11234	0.3119	 	1.4358999999999999E38	 	1.11541E-38	 	-20962.64247	25.0715	 
50.0	1.0	0.0	8.12162	6.99676	-12.45059	11.3302	10.51874	0.75267	1.3286	202.5839	179.37787	77.21766	0.31177	 	6.46936E38	 	2.43798E-39	 	-21087.70327	25.01216	 
45.0	1.0	0.0	8.12302	6.99556	-12.46559	11.30473	10.44455	0.74629	1.33996	202.84051	179.48613	77.32283	0.31165	 	3.05595E39	 	5.08128E-40	 	-21212.46333	24.95201	 
40.0	1.0	0.0	8.1244	6.99437	-12.48052	11.27924	10.3698	0.73986	1.35161	203.09668	179.5939	77.42784	0.31152	 	1.51692E40	 	1.00757E-40	 	-21336.91827	24.89099	 
35.0	1.0	0.0	8.12578	6.99318	-12.49539	11.25376	10.29446	0.73337	1.36356	203.35241	179.70119	77.5327	0.3114	 	7.93159E40	 	1.89622E-41	 	-21461.06344	24.82903	 
30.0	1.0	0.0	8.12716	6.992	-12.51019	11.22827	10.21851	0.72684	1.37583	203.60769	179.808	77.63741	0.31127	 	4.3798100000000004E41	 	3.37823E-42	 	-21584.89381	24.76607	 
25.0	1.0	0.0	8.12853	6.99082	-12.52492	 	10.14189	0.72025	1.38841	203.86252	179.91433	77.74196	0.31115	 	2.56118E42	 	5.68174E-43	 	-21708.40404	 	 
