T (C)	Fraction solid (wt)-TOTAL	Fraction liquid (wt)-LIQUID	Density (g/(cm)^3)-TOTAL	Molar volume (cm^3)-TOTAL	Volume change (%)-  	Average expansion coeff. (10e-6 1/K)-  	Thermal conductivity (W/(m*K))-TOTAL	Electrical resistivity (10e-6 Ohm*m)-TOTAL	Electrical conductivity (10e6 1/(Ohm*m))-TOTAL	Young's modulus (GPa)-TOTAL	Bulk modulus (GPa)-TOTAL	Shear modulus(GPa)-TOTAL	Poisson's ratio-TOTAL	Liquid viscosity (mPa s)-  	Total viscosity (mPa s)-  	Liquid diffusivity (10e-9 (m^2)/s)-  	Total diffusivity (10e-9 (m^2)/s)-  	Surface Tension (mN/m)-  	Enthalpy (J/mole)-TOTAL	Specific heat (J/(mole K))-TOTAL	Latent heat (J/mole)-TOTAL
1400.0	0.0	1.0	7.21992	7.97927	0.0	32.29686	28.12346	1.45758	0.68607	0.0	121.79371	0.0	0.5	7.07253	7.07253	1.15464	1.15464	1770.24717	45338.384	 	0.0
1395.0	0.0	1.0	7.22393	7.97485	-0.0554968	32.26172	28.04743	1.45716	0.68627	0.0	121.93977	0.0	0.5	7.14856	7.14856	1.13895	1.13895	1773.21457	45135.809	40.515	0.0
1390.0	0.0	1.0	7.22793	7.97043	-0.11084	32.22675	27.97141	1.45674	0.68646	0.0	122.08584	0.0	0.5	7.22587	7.22587	1.12338	1.12338	1776.22493	44933.689	40.424	0.0
1385.0	0.0	1.0	7.23192	7.96603	-0.16602	32.19196	27.89539	1.45632	0.68666	0.0	122.2319	0.0	0.5	7.30449	7.30449	1.10795	1.10795	1779.27885	44732.019	40.334	0.0
1380.0	0.0	1.0	7.23591	7.96164	-0.22105	32.15735	27.81937	1.4559	0.68686	0.0	122.37797	0.0	0.5	7.38445	7.38445	1.09265	1.09265	1782.37691	44530.798	40.2442	0.0
1375.0	0.0	1.0	7.23989	7.95726	-0.27591	32.12292	27.74334	1.45547	0.68706	0.0	122.52403	0.0	0.5	7.46578	7.46578	1.07748	1.07748	1785.51966	44330.023	40.155	0.0
1370.0	0.0	1.0	7.24387	7.95289	-0.33063	32.08868	27.66732	1.45504	0.68726	0.0	122.6701	0.0	0.5	7.54851	7.54851	1.06244	1.06244	1788.70764	44129.692	40.0662	0.0
1365.0	0.0	1.0	7.24783	7.94854	-0.38518	32.05463	27.5913	1.45461	0.68747	0.0	122.81617	0.0	0.5	7.63267	7.63267	1.04752	1.04752	1791.94136	43929.803	39.9778	0.0
1360.0	0.0	1.0	7.25179	7.9442	-0.43958	32.02076	27.51528	1.45418	0.68767	0.0	122.96223	0.0	0.5	7.71828	7.71828	1.03274	1.03274	1795.2213	43730.353	39.89	0.0
1355.0	0.0	1.0	7.25575	7.93987	-0.49382	31.98709	27.43925	1.45374	0.68788	0.0	123.1083	0.0	0.5	7.8054	7.8054	1.01809	1.01809	1798.54794	43531.34	39.8026	0.0
1350.0	0.0	1.0	7.25969	7.93556	-0.5479	31.95361	27.36323	1.45331	0.68809	0.0	123.25436	0.0	0.5	7.89404	7.89404	1.00357	1.00357	1801.92169	43332.761	39.7158	0.0
1345.0	0.0	1.0	7.26363	7.93125	-0.60183	31.92033	27.28721	1.45287	0.68829	0.0	123.40043	0.0	0.5	7.98425	7.98425	0.98917	0.98917	1805.34297	43134.615	39.6292	0.0
1340.0	0.0	1.0	7.26756	7.92696	-0.6556	31.88724	27.21119	1.45242	0.6885	0.0	123.54649	0.0	0.5	8.07606	8.07606	0.9749	0.9749	1808.81216	42936.899	39.5432	0.0
1335.0	0.0	1.0	7.27149	7.92268	-0.70921	31.85435	27.13516	1.45198	0.68872	0.0	123.69256	0.0	0.5	8.1695	8.1695	0.96077	0.96077	1812.32958	42739.612	39.4574	0.0
1330.0	0.0	1.0	7.2754	7.91842	-0.76267	31.82167	27.05914	1.45153	0.68893	0.0	123.83862	0.0	0.5	8.26462	8.26462	0.94676	0.94676	1815.89556	42542.75	39.3724	0.0
1325.31	0.0	1.0	7.27907	7.91443	-0.8127	31.79116	26.98778	1.45111	0.68913	0.0	123.97573	0.0	0.5	8.35546	8.35546	0.93372	0.93372	1819.28719	42358.369	39.28651	0.0
1325.0	0.00958	0.99042	7.28173	7.9116	-0.84813	31.69573	27.01748	1.44924	0.69002	7.82612E-7	124.08816	2.61087E-7	0.49876	8.36121	8.46825	0.9329	0.92111	1819.19683	42207.471	491.90898	138.836
1320.0	0.15864	0.84136	7.32325	7.86666	-1.41128	30.17545	27.49015	1.41986	0.70429	0.0605937	125.80447	0.0204825	0.47916	8.45603	26.33538	0.91955	0.29526	1817.76416	39862.698	468.9546	2287.592
1315.0	0.2805	0.7195	7.35785	7.82968	-1.87472	28.93535	27.88137	1.39554	0.71657	0.60564	127.25013	0.207	0.4629	8.55306	176.51232	0.90627	0.043914	1816.42367	37925.272	387.4852	4029.42
1310.0	0.38102	0.61898	7.38699	7.79885	-2.26112	27.91207	28.20878	1.375	0.72727	2.10254	128.48538	0.72536	0.44932	8.6525	604.58175	0.89303	0.0127807	1815.17573	36306.896	323.6752	5452.615
1305.0	0.46467	0.53533	7.41175	7.7728	-2.58767	27.05741	28.48403	1.35742	0.73669	4.72952	129.55497	1.64462	0.43788	8.75434	1396.314	0.87986	0.00551635	1814.02002	34940.708	273.2376	6624.036
1300.0	0.53481	0.46519	7.43297	7.75058	-2.86606	26.33872	28.71517	1.34222	0.74503	8.42185	130.49359	2.94847	0.42817	8.85878	2580.04964	0.86673	0.00297597	1812.95433	33775.559	233.0298	7594.832
1295.0	0.59402	0.40598	7.45135	7.73149	-3.10539	25.73059	28.90858	1.32901	0.75244	12.98675	131.32914	4.57314	0.41989	8.966	4148.90349	0.85364	0.00184476	1811.97601	32771.953	200.7212	8404.495
1290.0	0.64433	0.35567	7.46736	7.71489	-3.31337	25.21124	29.06907	1.31745	0.75904	18.1877	132.08062	6.43682	0.41279	9.076	6078.63574	0.84061	0.00125511	1811.08278	31899.122	174.5662	9083.791
1285.0	0.68731	0.31269	7.48143	7.70039	-3.49515	24.76631	29.20088	1.30731	0.76493	23.79696	132.76451	8.45872	0.40665	9.18909	8340.62674	0.82761	9.11795E-4	1810.2708	31132.903	153.2438	9656.882
1280.0	0.72422	0.27578	7.49388	7.68757	-3.65582	24.38138	29.3077	1.29837	0.7702	29.61688	133.39227	10.56742	0.40133	9.30529	10907.32909	0.81465	6.94995E-4	1809.53784	30454.171	135.7464	10142.89
1275.0	0.75606	0.24394	7.50498	7.67614	-3.79904	24.0461	29.39273	1.29044	0.77493	35.49055	133.97357	12.70526	0.39669	9.42473	13756.97351	0.80173	5.49259E-4	1808.88092	29847.675	121.2992	10557.064
1270.0	0.78365	0.21635	7.51493	7.66593	-3.92692	23.75467	29.45873	1.28339	0.77918	41.29624	134.51727	14.82677	0.39262	9.54764	16873.59428	0.78886	4.46362E-4	1808.29545	29301.177	109.2996	10911.64
1265.0	0.80767	0.19233	7.52392	7.65672	-4.04237	23.49876	29.5082	1.27709	0.78303	46.94868	135.02877	16.89958	0.38905	9.67419	20248.1968	0.77602	3.70765E-4	1807.77929	28804.787	99.278	11216.507
1260.0	0.82865	0.17135	7.53209	7.64836	-4.14714	23.27347	29.54322	1.27143	0.78652	52.39047	135.51346	18.9014	0.38589	9.80448	23878.67894	0.76321	3.13373E-4	1807.32899	28350.468	90.8638	11479.698
1255.0	0.84705	0.15295	7.53956	7.64071	-4.24304	23.07355	29.56561	1.26633	0.78969	57.58129	135.9751	20.81627	0.38308	9.93862	27766.26774	0.75046	2.68618E-4	1806.94267	27931.649	83.7638	11707.784
1250.0	0.86323	0.13677	7.54642	7.63366	-4.33134	22.89544	29.57699	1.2617	0.79258	62.50418	136.41706	22.63687	0.38058	10.07681	31920.66896	0.73774	2.32894E-4	1806.61734	27542.926	77.7446	11906.164
1245.0	0.87753	0.12247	7.55276	7.62717	-4.41279	22.73709	29.57863	1.25748	0.79524	67.14645	136.84247	24.35758	0.37835	10.21934	36352.90834	0.72507	2.03827E-4	1806.34954	27179.84	72.6172	12079.3
1240.0	0.89018	0.10982	7.55866	7.62111	-4.48871	22.59461	29.57185	1.25363	0.79768	71.51247	137.25324	25.97923	0.37634	10.36624	41081.37243	0.71244	1.79773E-4	1806.13832	26838.682	68.2316	12230.893
1235.0	0.90143	0.0985714	7.56416	7.61544	-4.55972	22.46629	29.55756	1.25009	0.79994	75.60562	137.65127	27.50238	0.37453	10.51767	46125.5103	0.69986	1.59584E-4	1805.98122	26516.363	64.4638	12364.034
1230.0	0.91144	0.0885577	7.56932	7.61012	-4.62639	22.35053	29.53668	1.24683	0.80204	79.43812	138.03834	28.93098	0.37289	10.67396	51511.01495	0.68733	1.42426E-4	1805.87557	26210.293	61.214	12481.311
1225.0	0.9204	0.0796035	7.57418	7.6051	-4.68933	22.24553	29.51004	1.2438	0.80399	83.02488	138.41577	30.27008	0.3714	10.83523	57267.3528	0.67484	1.27684E-4	1805.81999	25918.291	58.4004	12584.901
1220.0	0.92842	0.0715839	7.57878	7.60033	-4.74908	22.14973	29.47824	1.24099	0.80581	86.37832	138.78453	31.52391	0.37004	11.00158	63425.38998	0.66242	1.14902E-4	1805.81351	25638.517	55.9548	12676.643
1215.0	0.93562	0.0643804	7.58315	7.5958	-4.80592	22.06239	29.44188	1.23836	0.80752	89.51489	139.14567	32.69825	0.3688	11.17338	70021.72482	0.65005	1.03729E-4	1805.85382	25369.409	53.8216	12758.097
1214.48	0.93631	0.0636905	7.58359	7.59534	-4.81169	22.05374	29.43773	1.2381	0.80769	89.82326	139.18285	32.81379	0.36868	11.19152	70732.6468	0.64877	1.0265E-4	1805.86107	25342.07	 	12765.85
1210.0	0.94237	0.0576339	7.58756	7.59138	-4.86128	21.97899	29.40275	1.23584	0.80916	92.52871	139.50754	33.82805	0.36763	11.31203	77147.36038	0.63993	9.38319E-5	1804.68082	25103.374	53.207	12836.854
1205.0	0.94849	0.0515143	7.59179	7.58713	-4.9145	21.90175	29.36008	1.23347	0.81072	95.36268	139.86222	34.89174	0.36655	11.45306	84806.98615	0.62992	8.50694E-5	1803.4686	24845.499	51.575	12907.826
1200.0	0.95399	0.046013	7.59584	7.58307	-4.96545	21.83117	29.31389	1.23123	0.8122	98.00671	140.20983	35.88527	0.36556	11.60091	93032.30266	0.61979	7.72858E-5	1802.35892	24595.91	49.9178	12970.882
1195.0	0.95895	0.0410527	7.59972	7.57915	-5.0145	21.7661	29.26457	1.22912	0.81359	100.47807	140.55097	36.81493	0.36464	11.75577	101877.1379	0.60955	7.03364E-5	1801.34733	24353.571	48.4678	13027.06
1194.9	0.95904	0.0409615	7.5998	7.57908	-5.01541	21.765	29.26354	1.22908	0.81362	100.52408	140.55771	36.83224	0.36462	11.75896	102057.8117	0.60934	7.02072E-5	1801.32769	24348.878	 	13028.075
1190.0	0.96418	0.0358187	7.60357	7.57519	-5.0641	21.69868	29.21668	1.22694	0.81503	103.12986	140.90023	37.81335	0.36367	11.91693	111733.5043	0.59925	6.39134E-5	1800.67067	24106.665	49.3812	13088.173
1185.0	0.96886	0.0311382	7.60726	7.57138	-5.11197	21.63633	29.16569	1.22489	0.8164	105.59037	141.24206	38.74078	0.36278	12.08542	122331.6367	0.58888	5.81768E-5	1800.09871	23867.23	47.887	13142.18
1184.39	0.96938	0.0306156	7.6077	7.57092	-5.11768	21.62918	29.15911	1.22465	0.81656	105.87197	141.28338	38.84699	0.36268	12.10652	123678.8189	0.58761	5.75189E-5	1800.03342	23838.519	 	13148.148
1184.39	0.96939	0.0306145	7.6077	7.57092	-5.1177	21.62915	29.1591	1.22465	0.81656	105.87253	141.28346	38.84721	0.36268	12.10654	123680.9889	0.58761	5.75179E-5	1800.03344	23838.473	 	13148.161
1180.0	0.97398	0.0260224	7.61112	7.5673	-5.16305	21.56295	29.11745	1.22271	0.81786	108.3388	141.6235	39.77733	0.36182	12.2227	134233.7902	0.58027	5.28367E-5	1799.94287	23614.077	50.6306	13210.271
1175.0	0.97865	0.0213504	7.61485	7.56333	-5.21278	21.49334	29.06675	1.22063	0.81925	110.93568	142.00068	40.75768	0.36092	12.36397	147097.8254	0.57167	4.80501E-5	1799.83901	23367.535	49.3084	13272.113
1170.0	0.98278	0.0172216	7.61842	7.55952	-5.26059	21.42948	29.01281	1.21867	0.82056	113.31572	142.36775	41.65709	0.3601	12.51447	160923.0001	0.56284	4.37704E-5	1799.73609	23129.82	47.543	13325.489
1165.0	0.98644	0.0135576	7.62184	7.55584	-5.30673	21.37059	28.95603	1.21683	0.8218	115.50467	142.72561	42.4851	0.35935	12.67399	175808.5887	0.55383	3.99255E-5	1799.64069	22899.605	46.043	13371.722
1160.0	0.98971	0.0102935	7.62513	7.55227	-5.35143	21.31594	28.89679	1.21509	0.82299	117.52594	143.0756	43.2504	0.35867	12.8427	191866.679	0.54466	3.64568E-5	1799.55706	22675.811	44.7588	13411.891
1155.0	0.99262	0.00737727	7.62691	7.54786	-5.40663	21.22575	28.77821	1.21584	0.82248	119.52626	143.49299	44.0096	0.35796	13.02016	209214.4834	0.53536	3.33172E-5	1801.67293	22395.81611	55.99898	13446.88
1150.0	0.99501	0.00499017	7.63531	7.54029	-5.50155	21.00138	28.45319	1.22542	0.81605	122.02609	144.10212	44.97304	0.35666	13.21828	230941.63	0.52549	3.0077E-5	1803.78666	21934.75935	92.21135	13483.416
1145.0	0.99697	0.00303242	7.64299	7.53286	-5.59468	20.78104	28.14082	1.23467	0.80993	124.29939	144.69338	45.85108	0.35547	13.4549	254666.5091	0.51443	2.71792E-5	1805.90076	21482.17921	90.51603	13521.739
1140.0	0.99861	0.00139309	7.65	7.52576	-5.68367	20.57275	27.8445	1.24341	0.80424	126.35395	145.24753	46.64627	0.35438	13.69766	280516.9587	0.50353	2.45876E-5	1808.02988	21046.28368	87.17911	13553.271
1135.0	1.0	0.0	7.65643	7.51895	-5.769	20.37502	27.56318	1.25166	0.79894	128.22984	145.77082	47.37362	0.35339	 	308743.9688	 	2.22606E-5	 	20625.18384	84.21997	13579.563
1130.0	1.0	0.0	7.66239	7.5131	-5.84227	20.21676	27.29177	1.25962	0.79389	129.25768	146.19986	47.77952	0.35265	 	338385.9647	 	2.02385E-5	 	20220.48105	80.94056	 
1125.0	1.0	0.0	7.6682	7.5074	-5.91372	20.06329	27.03336	1.26713	0.78919	130.2455	146.60778	48.17005	0.35193	 	371246.2159	 	1.83814E-5	 	19850.83081	73.93005	 
1120.0	1.0	0.0	7.67389	7.50184	-5.98342	19.91445	26.78734	1.27419	0.78481	131.19558	146.99665	48.54605	0.35125	 	407703.9256	 	1.66778E-5	 	19489.67652	72.23086	 
1115.0	1.0	0.0	7.67944	7.49641	-6.05143	19.77013	26.55311	1.28082	0.78075	132.11002	147.36828	48.90827	0.35059	 	448185.6438	 	1.5117E-5	 	19136.75203	70.5849	 
1110.0	1.0	0.0	7.68487	7.49112	-6.11779	19.63018	26.33011	1.28701	0.77699	132.99078	147.72431	49.25745	0.34996	 	493170.5647	 	1.36886E-5	 	18791.79917	68.99057	 
1105.0	1.0	0.0	7.69018	7.48595	-6.18257	19.4945	26.11776	1.29279	0.77352	133.83971	148.06617	49.59425	0.34935	 	543197.3052	 	1.2383E-5	 	18454.5641	67.44701	 
1100.0	1.0	0.0	7.69537	7.4809	-6.24581	19.36295	25.9155	1.29815	0.77033	134.65854	148.39516	49.91934	0.34876	 	598871.4877	 	1.11911E-5	 	18124.7944	65.95394	 
1095.0	1.0	0.0	7.70044	7.47598	-6.30756	19.23542	25.72276	1.30311	0.76739	135.44895	148.71247	50.23332	0.3482	 	660874.4998	 	1.01042E-5	 	17802.23669	64.51154	 
1090.0	1.0	0.0	7.7054	7.47116	-6.36789	19.11177	25.539	1.30769	0.76471	136.21254	149.01917	50.53681	0.34766	 	729973.4196	 	9.1143E-6	 	17486.63533	63.12027	 
1085.0	1.0	0.0	7.71025	7.46646	-6.42683	18.99187	25.36369	1.3119	0.76225	136.95088	149.31623	50.8304	0.34714	 	807032.4278	 	8.21379E-6	 	17177.73159	61.78075	 
1080.0	1.0	0.0	7.715	7.46186	-6.48445	18.87559	25.19631	1.31576	0.76002	137.66546	149.60457	51.11465	0.34663	 	893025.8092	 	7.39552E-6	 	16875.26305	60.49371	 
1075.0	1.0	0.0	7.71965	7.45737	-6.54079	18.76278	25.03634	1.31927	0.758	138.35774	149.88501	51.39012	0.34615	 	989052.8813	 	6.65281E-6	 	16578.965	59.25961	 
1070.0	1.0	0.0	7.72421	7.45297	-6.59591	18.6533	24.8833	1.32246	0.75617	139.02913	150.1583	51.65734	0.34569	 	1096355.142	 	5.97943E-6	 	16288.57087	58.07883	 
1065.0	1.0	0.0	7.72868	7.44866	-6.64986	18.54701	24.73671	1.32534	0.75452	139.68098	150.42513	51.91685	0.34524	 	1216335.893	 	5.36955E-6	 	16003.81374	56.95143	 
1060.0	1.0	0.0	7.73305	7.44445	-6.70271	18.44375	24.59614	1.32794	0.75305	140.31459	150.68615	52.16913	0.3448	 	1350582.844	 	4.81775E-6	 	15724.42793	55.87716	 
1055.0	1.0	0.0	7.73735	7.44031	-6.75449	18.34338	24.46114	1.33026	0.75173	140.93119	150.94193	52.41467	0.34439	 	1500893.996	 	4.31901E-6	 	15450.15068	54.85545	 
1050.0	1.0	0.0	7.74156	7.43626	-6.80526	18.24574	24.33133	1.33232	0.75057	141.53196	151.19299	52.65392	0.34398	 	1669307.314	 	3.86865E-6	 	15180.72381	53.88537	 
1045.0	1.0	0.0	7.7457	7.43229	-6.85508	18.1507	24.20633	1.33414	0.74955	142.11801	151.43982	52.88732	0.34359	 	1858135.109	 	3.46238E-6	 	14915.89525	52.96571	 
1040.0	1.0	0.0	7.74977	7.42839	-6.90398	18.0581	24.08578	1.33573	0.74865	142.69039	151.68285	53.11528	0.34321	 	2070003.278	 	3.09621E-6	 	14655.42041	52.09497	 
1035.0	1.0	0.0	7.75377	7.42455	-6.95203	17.9678	23.96934	1.33711	0.74788	143.25009	151.92246	53.33819	0.34285	 	2307896.733	 	2.76648E-6	 	14399.06322	51.27144	 
1030.0	1.0	0.0	7.75771	7.42078	-6.99926	17.87968	23.85673	1.33829	0.74722	143.79802	152.15901	53.5564	0.34249	 	2575211.591	 	2.46984E-6	 	14146.59652	50.49334	 
1025.0	1.0	0.0	7.76159	7.41708	-7.04572	17.79359	23.74765	1.33928	0.74667	144.33504	152.3928	53.77025	0.34215	 	2875815.13	 	2.20318E-6	 	13897.80478	49.75835	 
1021.02	1.0	0.0	7.76464	7.41417	-7.08219	17.7264	23.66312	1.33994	0.7463	144.75552	152.57726	53.93769	0.34188	 	3141987.66	 	2.01035E-6	 	13702.13257	 	 
1020.0	1.0	0.0	7.76541	7.41343	-7.09143	17.70945	23.64185	1.34009	0.74622	144.86199	152.6242	53.98008	0.34181	 	3214128.758	 	1.96369E-6	 	13652.46831	49.06729	 
1015.0	1.0	0.0	7.76917	7.40984	-7.13643	17.62721	23.53908	1.34074	0.74586	145.37965	152.85357	54.18619	0.34148	 	3595213.143	 	1.74875E-6	 	13410.34529	48.4246	 
1010.0	1.0	0.0	7.77288	7.4063	-7.18077	17.54664	23.43912	1.34123	0.74559	145.88862	153.08092	54.38881	0.34116	 	4024779.376	 	1.55604E-6	 	13171.31501	47.80606	 
1005.0	1.0	0.0	7.77655	7.40281	-7.22449	17.46762	23.34178	1.34157	0.74539	146.38952	153.30646	54.5882	0.34085	 	4509395.563	 	1.38341E-6	 	12935.20263	47.22248	 
1000.0	1.0	0.0	7.78016	7.39937	-7.26764	17.39006	23.24686	1.34178	0.74528	146.88292	153.53037	54.78459	0.34055	 	5056577.591	 	1.22888E-6	 	12701.84363	46.6718	 
995.0	1.0	0.0	7.78374	7.39597	-7.31022	17.31386	23.15419	1.34186	0.74523	147.36938	153.75279	54.9782	0.34025	 	5674933.198	 	1.09068E-6	 	12471.0835	46.15203	 
990.0	1.0	0.0	7.78727	7.39261	-7.35229	17.23891	23.06361	1.34182	0.74526	147.84936	153.97388	55.16921	0.33996	 	6374331.422	 	9.67179E-7	 	12242.77733	45.66123	 
985.0	1.0	0.0	7.79077	7.3893	-7.39385	17.16514	22.97499	1.34166	0.74534	148.32333	154.19375	55.3578	0.33968	 	7166097.817	 	8.56912E-7	 	12016.78938	45.19759	 
980.0	1.0	0.0	7.79423	7.38602	-7.43495	17.09247	22.8882	1.3414	0.74549	148.79171	154.41251	55.54416	0.3394	 	8063242.851	 	7.58543E-7	 	11792.99257	44.75936	 
975.0	1.0	0.0	7.79765	7.38278	-7.47559	17.02081	22.80311	1.34103	0.7457	149.25486	154.63026	55.72841	0.33913	 	9080727.436	 	6.70861E-7	 	11571.26804	44.34491	 
970.0	1.0	0.0	7.80104	7.37957	-7.51582	16.95009	22.71962	1.34057	0.74595	149.71315	154.84707	55.91072	0.33886	 	1.023577376E7	 	5.92775E-7	 	11351.50409	43.95279	 
965.0	1.0	0.0	7.8044	7.37639	-7.55563	16.88024	22.63685	1.34006	0.74624	150.16688	155.06303	56.09119	0.3386	 	1.15482258E7	 	5.23293E-7	 	11133.59871	43.58107	 
960.0	1.0	0.0	7.80773	7.37324	-7.59507	16.81119	22.55623	1.33942	0.74659	150.61636	155.27821	56.26996	0.33834	 	1.304097439E7	 	4.61522E-7	 	10917.45369	43.22901	 
955.0	1.0	0.0	7.81103	7.37013	-7.63413	16.7429	22.47693	1.33869	0.747	151.06185	155.49264	56.44714	0.33808	 	1.474045185E7	 	4.06656E-7	 	10702.97803	42.89513	 
950.0	1.0	0.0	7.81431	7.36704	-7.67285	16.67529	22.39887	1.33789	0.74745	151.5036	155.70639	56.62281	0.33783	 	1.66772135E7	 	3.57967E-7	 	10490.08671	42.57826	 
945.0	1.0	0.0	7.81756	7.36397	-7.71123	16.60832	22.32199	1.33701	0.74794	151.94184	155.91951	56.79707	0.33759	 	1.88866185E7	 	3.14799E-7	 	10278.70035	42.27727	 
940.0	1.0	0.0	7.82079	7.36094	-7.7493	16.54194	22.24621	1.33606	0.74847	152.37678	156.13202	56.97001	0.33734	 	2.140962978E7	 	2.76562E-7	 	10068.74461	41.99115	 
935.0	1.0	0.0	7.82399	7.35792	-7.78706	16.47609	22.17148	1.33503	0.74904	152.8086	156.34396	57.14171	0.3371	 	2.429375473E7	 	2.42724E-7	 	9860.14984	41.71895	 
930.0	1.0	0.0	7.82717	7.35493	-7.82452	16.41074	22.09774	1.33395	0.74966	153.23748	156.55536	57.31223	0.33687	 	2.759415442E7	 	2.12809E-7	 	9652.85094	41.45978	 
925.0	1.0	0.0	7.83033	7.35197	-7.86171	16.34583	22.02495	1.33279	0.7503	153.66359	156.76624	57.48164	0.33663	 	3.137494595E7	 	1.86387E-7	 	9446.78673	41.21284	 
920.0	1.0	0.0	7.83347	7.34902	-7.89863	16.28134	21.95304	1.33158	0.75099	154.08707	156.97664	57.65	0.3364	 	3.571074223E7	 	1.63073E-7	 	9241.89998	40.97735	 
915.0	1.0	0.0	7.83658	7.3461	-7.93528	16.21722	21.88199	1.3303	0.75171	154.50807	157.18656	57.81737	0.33617	 	4.06884763E7	 	1.42524E-7	 	9038.1369	40.75262	 
910.0	1.0	0.0	7.83968	7.34319	-7.97169	16.15343	21.81176	1.32897	0.75246	154.9267	157.39602	57.9838	0.33595	 	4.640954317E7	 	1.24428E-7	 	8835.44716	40.53795	 
905.0	1.0	0.0	7.84277	7.3403	-8.00786	16.08995	21.74229	1.32758	0.75325	155.34309	157.60504	58.14934	0.33573	 	5.299235877E7	 	1.08511E-7	 	8633.78327	40.33278	 
900.0	1.0	0.0	7.84583	7.33744	-8.0438	16.02674	21.67357	1.32614	0.75407	155.75733	157.81363	58.31402	0.3355	 	6.057536627E7	 	9.45245E-8	 	8433.10077	40.1365	 
895.0	1.0	0.0	7.84888	7.33459	-8.07952	15.96377	21.60556	1.32464	0.75492	156.16954	158.0218	58.4779	0.33529	 	6.932063641E7	 	8.22475E-8	 	8233.35776	39.9486	 
890.0	1.0	0.0	7.85191	7.33175	-8.11502	15.90102	21.53823	1.3231	0.7558	156.5798	158.22957	58.641	0.33507	 	7.941810988E7	 	7.1483E-8	 	8034.51483	39.76859	 
885.0	1.0	0.0	7.85493	7.32894	-8.15032	15.83844	21.47155	1.3215	0.75672	156.98819	158.43693	58.80336	0.33486	 	9.109068423E7	 	6.20551E-8	 	7836.53491	39.59599	 
880.0	1.0	0.0	7.85793	7.32614	-8.18541	15.77603	21.4055	1.31986	0.75766	157.3948	158.64389	58.96502	0.33465	 	1.046002382E8	 	5.38071E-8	 	7639.38278	39.43042	 
875.0	1.0	0.0	7.86092	7.32335	-8.2203	15.71375	21.34005	1.31816	0.75863	157.79968	158.85046	59.12599	0.33444	 	1.202548508E8	 	4.65997E-8	 	7443.0254	39.27148	 
870.0	1.0	0.0	7.86389	7.32058	-8.25501	15.65159	21.27519	1.31642	0.75963	158.20292	159.05665	59.28632	0.33423	 	1.38417392E8	 	4.03087E-8	 	7247.43249	39.11858	 
865.0	1.0	0.0	7.86685	7.31783	-8.28953	15.58951	21.21089	1.31464	0.76066	158.60457	159.26246	59.44602	0.33402	 	1.595158155E8	 	3.48243E-8	 	7052.57481	38.97154	 
860.0	1.0	0.0	7.8698	7.31509	-8.32387	15.5275	21.14713	1.31281	0.76172	159.00468	159.46789	59.60511	0.33382	 	1.840555076E8	 	3.00487E-8	 	6858.42487	38.82999	 
855.0	1.0	0.0	7.87274	7.31236	-8.35804	15.46555	21.0839	1.31094	0.76281	159.40331	159.67295	59.76363	0.33361	 	2.12634025E8	 	2.58953E-8	 	6664.95676	38.69362	 
851.66	1.0	0.0	7.87469	7.31055	-8.38077	15.42416	21.04195	1.30966	0.76356	159.66881	159.80973	59.8692	0.33348	 	2.343208019E8	 	2.34291E-8	 	6536.08582	 	 
850.0	1.0	0.0	7.87566	7.30965	-8.39207	15.40346	21.02504	1.30878	0.76407	159.77312	159.8394	59.91182	0.3334	 	2.460079402E8	 	2.22831E-8	 	6458.47712	41.29593	 
845.0	1.0	0.0	7.8779	7.30757	-8.41807	15.37763	20.96365	1.30677	0.76525	160.12273	160.0603	60.04895	0.33327	 	2.79755159E8	 	1.95078E-8	 	6299.42824	31.80978	 
840.0	1.0	0.0	7.88013	7.3055	-8.44399	15.35181	20.90226	1.30475	0.76643	160.47179	160.28036	60.18591	0.33313	 	3.184994041E8	 	1.70581E-8	 	6137.36324	32.413	 
835.0	1.0	0.0	7.88235	7.30344	-8.46985	15.32599	20.84087	1.30271	0.76763	160.82032	160.49956	60.32269	0.333	 	3.630341442E8	 	1.48983E-8	 	5975.52957	32.36673	 
830.0	1.0	0.0	7.88457	7.30138	-8.49564	15.30017	20.77947	1.30067	0.76884	161.16831	160.71792	60.4593	0.33287	 	4.142872463E8	 	1.29963E-8	 	5813.92644	32.32063	 
825.0	1.0	0.0	7.88679	7.29933	-8.52136	15.27436	20.71806	1.29861	0.77005	161.51577	160.93544	60.59573	0.33273	 	4.733451523E8	 	1.13232E-8	 	5652.55303	32.27468	 
820.0	1.0	0.0	7.889	7.29728	-8.54701	15.24854	20.65664	1.29654	0.77128	161.86269	161.15212	60.73198	0.3326	 	5.414816572E8	 	9.85332E-9	 	5491.40853	32.2289	 
815.0	1.0	0.0	7.89121	7.29524	-8.57259	15.22273	20.59522	1.29446	0.77252	162.20908	161.36796	60.86806	0.33246	 	6.201922132E8	 	8.56346E-9	 	5330.49208	32.18329	 
810.0	1.0	0.0	7.89341	7.29321	-8.5981	15.19693	20.53379	1.29237	0.77377	162.55493	161.58296	61.00397	0.33233	 	7.112348789E8	 	7.43297E-9	 	5169.80278	32.13786	 
805.0	1.0	0.0	7.89561	7.29118	-8.62354	15.17112	20.47235	1.29026	0.77504	162.90024	161.79713	61.13969	0.3322	 	8.166792693E8	 	6.44339E-9	 	5009.33973	32.09261	 
800.0	1.0	0.0	7.8978	7.28915	-8.64892	15.14532	20.41091	1.28814	0.77631	163.24502	162.01048	61.27525	0.33206	 	9.389651577E8	 	5.57825E-9	 	4849.10202	32.04754	 
795.0	1.0	0.0	7.89999	7.28713	-8.67423	15.11952	20.34946	1.28601	0.7776	163.58926	162.22299	61.41062	0.33193	 	1.080972734E9	 	4.82286E-9	 	4689.08865	32.00267	 
790.0	1.0	0.0	7.90218	7.28512	-8.69946	15.09373	20.288	1.28387	0.77889	163.93297	162.43468	61.54582	0.3318	 	1.246106964E9	 	4.16415E-9	 	4529.29865	31.958	 
785.0	1.0	0.0	7.90436	7.28311	-8.72463	15.06793	20.22653	1.28172	0.7802	164.27614	162.64554	61.68085	0.33166	 	1.438399036E9	 	3.5905E-9	 	4369.73098	31.91353	 
780.0	1.0	0.0	7.90653	7.28111	-8.74973	15.04214	20.16506	1.27955	0.78153	164.61877	162.85558	61.8157	0.33153	 	1.662628538E9	 	3.09159E-9	 	4210.38458	31.86928	 
775.0	1.0	0.0	7.9087	7.27911	-8.77476	15.01636	20.10358	1.27737	0.78286	164.96088	163.06481	61.95037	0.3314	 	1.924470836E9	 	2.65827E-9	 	4051.25834	31.82525	 
770.0	1.0	0.0	7.91086	7.27712	-8.79972	14.99057	20.04208	1.27518	0.78421	165.30244	163.27321	62.08487	0.33126	 	2.230675129E9	 	2.28243E-9	 	3892.35112	31.78144	 
765.0	1.0	0.0	7.91302	7.27513	-8.82462	14.96479	19.98059	1.27297	0.78556	165.64347	163.4808	62.21919	0.33113	 	2.589279908E9	 	1.9569E-9	 	3733.66172	31.73788	 
760.0	1.0	0.0	7.91518	7.27315	-8.84944	14.93901	19.91908	1.27075	0.78694	165.98397	163.68758	62.35333	0.331	 	3.009874106E9	 	1.67534E-9	 	3575.18893	31.69456	 
755.0	1.0	0.0	7.91733	7.27118	-8.8742	14.91323	19.85756	1.26852	0.78832	166.32394	163.89355	62.4873	0.33086	 	3.503914141E9	 	1.43215E-9	 	3416.93146	31.65149	 
750.0	1.0	0.0	7.91947	7.26921	-8.89888	14.88746	19.79604	1.26627	0.78972	166.66336	164.09871	62.6211	0.33073	 	4.085109458E9	 	1.22243E-9	 	3258.88797	31.6087	 
745.0	1.0	0.0	7.92161	7.26724	-8.9235	14.86168	19.7345	1.26401	0.79113	167.00226	164.30306	62.75472	0.3306	 	4.769892162E9	 	1.04181E-9	 	3101.05708	31.56618	 
740.0	1.0	0.0	7.92375	7.26528	-8.94805	14.83591	19.67296	1.26174	0.79256	167.34062	164.50661	62.88816	0.33046	 	5.577990066E9	 	8.86508E-10	 	2943.43733	31.52395	 
735.0	1.0	0.0	7.92588	7.26333	-8.97253	14.81015	19.61141	1.25945	0.79399	167.67845	164.70936	63.02142	0.33033	 	6.53312713E9	 	7.53166E-10	 	2786.02721	31.48202	 
730.0	1.0	0.0	7.92801	7.26138	-8.99694	14.78438	19.54984	1.25715	0.79545	168.01574	164.91131	63.15451	0.3302	 	7.663881138E9	 	6.38857E-10	 	2628.82514	31.44041	 
725.0	1.0	0.0	7.93013	7.25944	-9.02129	14.75862	19.48827	1.25484	0.79691	168.3525	165.11246	63.28743	0.33006	 	9.004735758E9	 	5.41018E-10	 	2471.82948	31.39913	 
720.0	1.0	0.0	7.93225	7.2575	-9.04556	14.73286	19.42669	1.25251	0.7984	168.68873	165.31282	63.42016	0.32993	 	1.05974E10	 	4.57408E-10	 	2315.03849	31.3582	 
715.0	1.0	0.0	7.93436	7.25557	-9.06977	14.70711	19.3651	1.25017	0.79989	169.02442	165.51238	63.55272	0.3298	 	1.2492299999999998E10	 	3.86072E-10	 	2158.45036	31.31763	 
710.0	1.0	0.0	7.93646	7.25365	-9.09391	14.68136	19.30349	1.24781	0.8014	169.35958	165.71115	63.68511	0.32966	 	1.4750599999999998E10	 	3.25309E-10	 	2002.06319	31.27743	 
705.0	1.0	0.0	7.93857	7.25173	-9.11797	14.6556	19.24188	1.24544	0.80293	169.6942	165.90914	63.81732	0.32953	 	1.74469E10	 	2.73636E-10	 	1845.875	31.23764	 
700.0	1.0	0.0	7.94066	7.24981	-9.14197	14.62986	19.18026	1.24306	0.80447	170.02829	166.10633	63.94935	0.3294	 	2.06717E10	 	2.29769E-10	 	1689.88368	31.19826	 
695.0	1.0	0.0	7.94275	7.2479	-9.16591	14.60411	19.11862	1.24066	0.80602	170.36185	166.30274	64.08121	0.32927	 	2.4535399999999996E10	 	1.92591E-10	 	1534.08705	31.15933	 
690.0	1.0	0.0	7.94484	7.246	-9.18977	14.57837	19.05698	1.23824	0.8076	170.69488	166.49837	64.21289	0.32913	 	2.9173099999999996E10	 	1.61138E-10	 	1378.48278	31.12085	 
685.0	1.0	0.0	7.94692	7.2441	-9.21356	14.55263	18.99532	1.23581	0.80918	171.02737	166.69322	64.34439	0.329	 	3.47502E10	 	1.34574E-10	 	1223.06844	31.08287	 
680.0	1.0	0.0	7.949	7.24221	-9.23729	14.52689	18.93365	1.23337	0.81079	171.35933	166.88729	64.47572	0.32887	 	4.14696E10	 	1.12181E-10	 	1067.84147	31.04539	 
675.0	1.0	0.0	7.95107	7.24032	-9.26094	14.50116	18.87198	1.23091	0.81241	171.69076	167.08059	64.60687	0.32873	 	4.958059999999999E10	 	9.33367E-11	 	912.79916	31.00846	 
670.0	1.0	0.0	7.95314	7.23844	-9.28453	14.47543	18.81028	1.22843	0.81405	172.02166	167.27311	64.73784	0.3286	 	5.939029999999999E10	 	7.75089E-11	 	757.93864	30.9721	 
665.0	1.0	0.0	7.9552	7.23656	-9.30805	14.4497	18.74858	1.22594	0.8157	172.35202	167.46485	64.86864	0.32847	 	7.1278E10	 	6.42397E-11	 	603.2569	30.93635	 
660.0	1.0	0.0	7.95726	7.23469	-9.3315	14.42397	18.68686	1.22344	0.81737	172.68185	167.65583	64.99926	0.32834	 	8.57126E10	 	5.31366E-11	 	448.75868	30.89964	 
655.0	1.0	0.0	7.95931	7.23282	-9.35489	14.39825	18.62513	1.22091	0.81906	173.01115	167.84604	65.12971	0.3282	 	1.03275E11	 	4.3864E-11	 	294.48791	30.85415	 
650.0	1.0	0.0	7.96136	7.23096	-9.3782	14.37252	18.56339	1.21838	0.82077	173.33992	168.03548	65.25998	0.32807	 	1.24688E11	 	3.61354E-11	 	140.50295	30.79699	 
645.0	1.0	0.0	7.9634	7.22911	-9.40145	14.34681	18.50164	1.21582	0.82249	173.66815	168.22416	65.39007	0.32794	 	1.5085E11	 	2.97067E-11	 	-13.19734	30.74006	 
640.0	1.0	0.0	7.96544	7.22726	-9.42462	14.32109	18.43987	1.21325	0.82423	173.99585	168.41208	65.51999	0.32781	 	1.82882E11	 	2.43701E-11	 	-166.61406	30.68334	 
635.0	1.0	0.0	7.96747	7.22541	-9.44773	14.29538	18.37809	1.21066	0.82599	174.32302	168.59923	65.64973	0.32768	 	2.22187E11	 	1.99492E-11	 	-319.74833	30.62685	 
630.0	1.0	0.0	7.9695	7.22357	-9.47077	14.26967	18.31629	1.20806	0.82777	174.64966	168.78563	65.77929	0.32754	 	2.70522E11	 	1.62946E-11	 	-472.60126	30.57059	 
625.0	1.0	0.0	7.97153	7.22174	-9.49374	14.24396	18.25448	1.20544	0.82957	174.97577	168.97127	65.90868	0.32741	 	3.30093E11	 	1.328E-11	 	-625.1744	30.51463	 
620.0	1.0	0.0	7.97354	7.21991	-9.51665	14.21825	18.19266	1.2028	0.83139	175.30134	169.15616	66.03789	0.32728	 	4.03682E11	 	1.07987E-11	 	-777.46996	30.45911	 
615.0	1.0	0.0	7.97556	7.21809	-9.53948	14.19255	18.13082	1.20015	0.83323	175.62639	169.3403	66.16692	0.32715	 	4.94796E11	 	8.76086E-12	 	-929.48847	30.4037	 
610.0	1.0	0.0	7.97756	7.21628	-9.56225	14.16685	18.06897	1.19748	0.83509	175.9509	169.52368	66.29577	0.32701	 	6.07874E11	 	7.091E-12	 	-1081.23103	30.34851	 
605.0	1.0	0.0	7.97957	7.21446	-9.58494	14.14115	18.0071	1.19479	0.83697	176.27488	169.70632	66.42445	0.32688	 	7.48547E11	 	5.7258E-12	 	-1232.69871	30.29354	 
600.0	1.0	0.0	7.98156	7.21266	-9.60757	14.11546	17.94522	1.19208	0.83887	176.59833	169.88821	66.55296	0.32675	 	9.23974E11	 	4.61228E-12	 	-1383.89259	30.23878	 
595.0	1.0	0.0	7.98356	7.21086	-9.63014	14.08977	17.88332	1.18936	0.84079	176.92125	170.06936	66.68128	0.32662	 	1.14328E12	 	3.70619E-12	 	-1534.81374	30.18423	 
590.0	1.0	0.0	7.98554	7.20906	-9.65263	14.06408	17.8214	1.18662	0.84273	177.24363	170.24976	66.80943	0.32649	 	1.41814E12	 	2.97066E-12	 	-1685.46326	30.1299	 
585.0	1.0	0.0	7.98753	7.20727	-9.67505	14.03839	17.75947	1.18386	0.8447	177.56549	170.42942	66.9374	0.32635	 	1.7635E12	 	2.37506E-12	 	-1835.8422	30.07579	 
580.0	1.0	0.0	7.9895	7.20549	-9.69741	14.01271	17.69752	1.18108	0.84668	177.88682	170.60834	67.0652	0.32622	 	2.19857E12	 	1.89396E-12	 	-1985.95164	30.02189	 
575.0	1.0	0.0	7.99148	7.20371	-9.71969	13.98703	17.63555	1.17828	0.84869	178.20761	170.78653	67.19281	0.32609	 	2.74812E12	 	1.50634E-12	 	-2135.79264	29.9682	 
570.0	1.0	0.0	7.99344	7.20194	-9.74191	13.96135	17.57357	1.17547	0.85072	178.52787	170.96398	67.32026	0.32596	 	3.44413E12	 	1.19485E-12	 	-2285.36627	29.91473	 
565.0	1.0	0.0	7.99541	7.20017	-9.76406	13.93567	17.51157	1.17264	0.85278	178.84761	171.1407	67.44752	0.32583	 	4.32806E12	 	9.45182E-13	 	-2434.67359	29.86146	 
560.0	1.0	0.0	7.99736	7.19841	-9.78615	13.91	17.44955	1.16978	0.85486	179.16681	171.31669	67.57461	0.3257	 	5.45378E12	 	7.45612E-13	 	-2583.71566	29.80841	 
555.0	1.0	0.0	7.99931	7.19665	-9.80816	13.88433	17.38751	1.16691	0.85696	179.48548	171.49195	67.70152	0.32556	 	6.8915E12	 	5.86518E-13	 	-2732.49353	29.75557	 
550.0	1.0	0.0	8.00126	7.1949	-9.83011	13.85866	17.32545	1.16402	0.85909	179.80362	171.66648	67.82825	0.32543	 	8.73304E12	 	4.60045E-13	 	-2881.00824	29.70294	 
545.0	1.0	0.0	8.0032	7.19316	-9.85198	13.833	17.26337	1.16111	0.86124	180.12123	171.84028	67.9548	0.3253	 	1.10987E13	 	3.59787E-13	 	-3029.26086	29.65052	 
540.0	1.0	0.0	8.00514	7.19142	-9.87379	13.80734	17.20128	1.15818	0.86342	180.43831	172.01336	68.08118	0.32517	 	1.41469E13	 	2.8054E-13	 	-3177.25241	29.59831	 
535.0	1.0	0.0	8.00707	7.18968	-9.89553	13.78168	17.13916	1.15523	0.86563	180.75486	172.18572	68.20738	0.32504	 	1.80865E13	 	2.18084E-13	 	-3324.98395	29.54631	 
530.0	1.0	0.0	8.009	7.18795	-9.9172	13.75602	17.07703	1.15226	0.86786	181.07088	172.35736	68.3334	0.32491	 	2.3194E13	 	1.69008E-13	 	-3472.4565	29.49451	 
525.0	1.0	0.0	8.01092	7.18623	-9.93881	13.73036	17.01487	1.14927	0.87012	181.38637	172.52828	68.45925	0.32478	 	2.98367E13	 	1.30563E-13	 	-3619.6711	29.44292	 
520.0	1.0	0.0	8.01284	7.18451	-9.96034	13.70471	16.95269	1.14626	0.8724	181.70133	172.69848	68.58492	0.32464	 	3.85039E13	 	1.0054E-13	 	-3766.62879	29.39154	 
515.0	1.0	0.0	8.01475	7.1828	-9.98181	13.67906	16.89049	1.14323	0.87472	182.01576	172.86797	68.71041	0.32451	 	4.98498E13	 	7.71672E-14	 	-3913.33057	29.34036	 
510.0	1.0	0.0	8.01665	7.18109	-10.00321	13.65342	16.82827	1.14018	0.87706	182.32966	173.03675	68.83572	0.32438	 	6.47521E13	 	5.90307E-14	 	-4059.77747	29.28938	 
505.0	1.0	0.0	8.01855	7.17939	-10.02454	13.62777	16.76603	1.1371	0.87943	182.64303	173.20481	68.96086	0.32425	 	8.43927E13	 	4.50034E-14	 	-4205.97051	29.23861	 
500.0	1.0	0.0	8.02045	7.17769	-10.0458	13.60213	16.70376	1.13401	0.88183	182.95587	173.37216	69.08582	0.32412	 	1.10368E14	 	3.41906E-14	 	-4351.9107	29.18804	 
495.0	1.0	0.0	8.02234	7.176	-10.067	13.57649	16.64147	1.13089	0.88426	183.26818	173.53881	69.2106	0.32399	 	1.44844E14	 	2.58841E-14	 	-4497.59905	29.13767	 
490.0	1.0	0.0	8.02422	7.17431	-10.08813	13.55086	16.57915	1.12775	0.88672	183.57996	173.70475	69.3352	0.32386	 	1.90767E14	 	1.95251E-14	 	-4643.03654	29.0875	 
485.0	1.0	0.0	8.0261	7.17263	-10.10918	13.52523	16.51682	1.12459	0.88921	183.89121	173.86999	69.45963	0.32373	 	2.5216399999999997E14	 	1.46744E-14	 	-4788.22418	29.03753	 
480.0	1.0	0.0	8.02798	7.17096	-10.13017	13.49959	16.45445	1.12141	0.89174	184.20193	174.03453	69.58387	0.3236	 	3.34559E14	 	1.09874E-14	 	-4933.16297	28.98776	 
475.0	1.0	0.0	8.02985	7.16929	-10.1511	13.47397	16.39206	1.1182	0.89429	184.51212	174.19836	69.70794	0.32347	 	4.45556E14	 	8.19545E-15	 	-5077.85388	28.93818	 
470.0	1.0	0.0	8.03171	7.16763	-10.17195	13.44834	16.32965	1.11498	0.89688	184.82178	174.3615	69.83184	0.32333	 	5.95673E14	 	6.08913E-15	 	-5222.2979	28.8888	 
465.0	1.0	0.0	8.03357	7.16597	-10.19273	13.42272	16.2672	1.11173	0.8995	185.13092	174.52394	69.95555	0.3232	 	7.99505E14	 	4.5062E-15	 	-5366.496	28.83962	 
460.0	1.0	0.0	8.03542	7.16431	-10.21345	13.3971	16.20474	1.10845	0.90216	185.43952	174.68568	70.07909	0.32307	 	1.0774E15	 	3.32125E-15	 	-5510.44914	28.79063	 
455.0	1.0	0.0	8.03727	7.16267	-10.2341	13.37148	16.14224	1.10515	0.90485	185.74759	174.84673	70.20245	0.32294	 	1.45785E15	 	2.43778E-15	 	-5654.1583	28.74183	 
450.0	1.0	0.0	8.03911	7.16102	-10.25468	13.34587	16.07971	1.10183	0.90758	186.05514	175.00709	70.32563	0.32281	 	1.98092E15	 	1.78176E-15	 	-5797.62443	28.69322	 
445.0	1.0	0.0	8.04095	7.15939	-10.2752	13.32026	16.01716	1.09849	0.91034	186.36215	175.16675	70.44863	0.32268	 	2.70316E15	 	1.29667E-15	 	-5940.84848	28.64481	 
440.0	1.0	0.0	8.04279	7.15776	-10.29564	13.29465	15.95458	1.09512	0.91314	186.66864	175.32573	70.57145	0.32255	 	3.70486E15	 	9.39498E-16	 	-6083.83137	28.59658	 
435.0	1.0	0.0	8.04461	7.15613	-10.31602	13.26904	15.89196	1.09173	0.91598	186.9746	175.48403	70.6941	0.32242	 	5.1004E15	 	6.77653E-16	 	-6226.57407	28.54854	 
430.0	1.0	0.0	8.04643	7.15451	-10.33633	13.24344	15.82932	1.08831	0.91886	187.28003	175.64163	70.81657	0.32229	 	7.05361E15	 	4.86545E-16	 	-6369.07749	28.50068	 
425.0	1.0	0.0	8.04825	7.15289	-10.35657	13.21784	15.76664	1.08486	0.92177	187.58493	175.79856	70.93886	0.32216	 	9.80021E15	 	3.47696E-16	 	-6511.34244	28.45299	 
420.0	1.0	0.0	8.05006	7.15129	-10.37674	13.19224	15.70393	1.0814	0.92473	187.8893	175.9548	71.06097	0.32203	 	1.36811E16	 	2.47283E-16	 	-6653.37001	28.40551	 
415.0	1.0	0.0	8.05187	7.14968	-10.39684	13.16664	15.64119	1.0779	0.92773	188.19314	176.11036	71.1829	0.3219	 	1.91915E16	 	1.75009E-16	 	-6795.16066	28.35813	 
410.0	1.0	0.0	8.05367	7.14808	-10.41688	13.14105	15.57842	1.07438	0.93077	188.49645	176.26524	71.30466	0.32177	 	2.70552E16	 	1.2324E-16	 	-6936.71459	28.31079	 
405.0	1.0	0.0	8.05547	7.14649	-10.43685	13.11546	15.51561	1.07084	0.93385	188.79924	176.41945	71.42623	0.32164	 	3.83346E16	 	8.63418E-17	 	-7078.03206	28.2635	 
400.0	1.0	0.0	8.05726	7.1449	-10.45675	13.08987	15.45276	1.06726	0.93698	189.10149	176.57298	71.54763	0.32151	 	5.45985E16	 	6.01753E-17	 	-7219.11331	28.21625	 
395.0	1.0	0.0	8.05904	7.14332	-10.47658	13.06429	15.38988	1.06366	0.94015	189.40322	176.72584	71.66885	0.32138	 	7.8175E16	 	4.1715E-17	 	-7359.95854	28.16905	 
390.0	1.0	0.0	8.06082	7.14174	-10.49635	13.03871	15.32697	1.06004	0.94336	189.70442	176.87802	71.78989	0.32125	 	1.1254E17	 	2.87602E-17	 	-7500.56796	28.12188	 
385.0	1.0	0.0	8.0626	7.14017	-10.51604	13.01313	15.26401	1.05639	0.94662	190.00509	177.02954	71.91076	0.32112	 	1.62911E17	 	1.9718E-17	 	-7640.94177	28.07476	 
380.0	1.0	0.0	8.06436	7.1386	-10.53567	12.98755	15.20102	1.0527	0.94993	190.30523	177.18038	72.03144	0.32099	 	2.37165E17	 	1.34415E-17	 	-7781.08016	28.02768	 
375.0	1.0	0.0	8.06613	7.13704	-10.55523	12.96198	15.13798	1.049	0.95329	190.60485	177.33056	72.15194	0.32086	 	3.47272E17	 	9.10946E-18	 	-7920.98331	27.98063	 
370.0	1.0	0.0	8.06789	7.13549	-10.57472	12.9364	15.07491	1.04526	0.9567	190.90393	177.48008	72.27227	0.32073	 	5.11521E17	 	6.13671E-18	 	-8060.65138	27.93361	 
365.0	1.0	0.0	8.06964	7.13394	-10.59415	12.91084	15.0118	1.04149	0.96016	191.20249	177.62893	72.39242	0.3206	 	7.58041E17	 	4.10882E-18	 	-8200.08453	27.88663	 
360.0	1.0	0.0	8.07139	7.13239	-10.61351	12.88527	14.94864	1.0377	0.96367	191.50052	177.77712	72.51239	0.32047	 	1.13037E18	 	2.73384E-18	 	-8339.2829	27.83968	 
355.0	1.0	0.0	8.07313	7.13085	-10.6328	12.85971	14.88544	1.03387	0.96724	191.79802	177.92465	72.63218	0.32034	 	1.69633E18	 	1.80734E-18	 	-8478.24663	27.79274	 
350.0	1.0	0.0	8.07487	7.12932	-10.65202	12.83415	14.82219	1.03002	0.97085	192.09499	178.07151	72.75179	0.32021	 	2.5623E18	 	1.187E-18	 	-8616.97581	27.74584	 
345.0	1.0	0.0	8.0766	7.12779	-10.67117	12.80859	14.7589	1.02614	0.97453	192.39143	178.21773	72.87122	0.32008	 	3.89624E18	 	7.74345E-19	 	-8755.47057	27.69895	 
340.0	1.0	0.0	8.07832	7.12627	-10.69025	12.78303	14.69556	1.02223	0.97826	192.68735	178.36328	72.99047	0.31995	 	5.96528E18	 	5.01675E-19	 	-8893.73101	27.65209	 
335.0	1.0	0.0	8.08004	7.12475	-10.70927	12.75748	14.63218	1.01828	0.98205	192.98274	178.50818	73.10955	0.31982	 	9.19725E18	 	3.2273E-19	 	-9031.75717	27.60523	 
330.0	1.0	0.0	8.08176	7.12324	-10.72822	12.73193	14.56874	1.01431	0.9859	193.2776	178.65243	73.22844	0.31969	 	1.42824E19	 	2.06115E-19	 	-9169.54914	27.55839	 
325.0	1.0	0.0	8.08347	7.12173	-10.7471	12.70638	14.50526	1.0103	0.9898	193.57193	178.79603	73.34716	0.31956	 	2.2343E19	 	1.30664E-19	 	-9307.10694	27.51156	 
320.0	1.0	0.0	8.08517	7.12023	-10.76592	12.68084	14.44172	1.00626	0.99378	193.86573	178.93897	73.4657	0.31943	 	3.52175E19	 	8.22039E-20	 	-9444.43062	27.46474	 
315.0	1.0	0.0	8.08687	7.11874	-10.78466	12.65529	14.37813	1.00219	0.99781	194.15901	179.08127	73.58405	0.3193	 	5.59416E19	 	5.13145E-20	 	-9581.52019	27.41791	 
310.0	1.0	0.0	8.08856	7.11725	-10.80334	12.62976	14.31449	0.99809	1.00191	194.45176	179.22293	73.70223	0.31917	 	8.9569E19	 	3.17767E-20	 	-9718.37562	27.37109	 
305.0	1.0	0.0	8.09025	7.11576	-10.82195	12.60422	14.25079	0.99396	1.00608	194.74398	179.36393	73.82023	0.31904	 	1.4458299999999998E20	 	1.95169E-20	 	-9854.99691	27.32426	 
300.0	1.0	0.0	8.09193	7.11428	-10.84049	12.57868	14.18704	0.98979	1.01032	195.03567	179.5043	73.93805	0.31891	 	2.3534399999999997E20	 	1.18864E-20	 	-9991.38401	27.27742	 
295.0	1.0	0.0	8.09361	7.11281	-10.85897	12.55315	14.12322	0.98559	1.01462	195.32684	179.64402	74.05569	0.31878	 	3.8637899999999997E20	 	7.17688E-21	 	-10127.53685	27.23057	 
290.0	1.0	0.0	8.09528	7.11134	-10.87738	12.52762	14.05935	0.98135	1.019	195.61747	179.7831	74.17315	0.31865	 	6.39953E20	 	4.29499E-21	 	-10263.45535	27.1837	 
285.0	1.0	0.0	8.09695	7.10987	-10.89572	12.5021	13.99541	0.97708	1.02345	195.90758	179.92154	74.29043	0.31852	 	1.0695700000000001E21	 	2.547E-21	 	-10399.13939	27.13681	 
280.0	1.0	0.0	8.09861	7.10842	-10.91399	12.47657	13.93141	0.97278	1.02798	196.19717	180.05935	74.40753	0.3184	 	1.80427E21	 	1.49633E-21	 	-10534.58885	27.08989	 
275.0	1.0	0.0	8.10027	7.10696	-10.93219	12.45105	13.86734	0.96844	1.03259	196.48622	180.19652	74.52446	0.31827	 	3.07282E21	 	8.7066E-22	 	-10669.80357	27.04294	 
270.0	1.0	0.0	8.10192	7.10552	-10.95033	12.42554	13.80321	0.96406	1.03728	196.77475	180.33305	74.6412	0.31814	 	5.28483E21	 	5.01621E-22	 	-10804.78337	26.99596	 
265.0	1.0	0.0	8.10356	7.10408	-10.96839	12.40002	13.73901	0.95965	1.04204	197.06275	180.46895	74.75776	0.31801	 	9.18121E21	 	2.86082E-22	 	-10939.52805	26.94894	 
260.0	1.0	0.0	8.1052	7.10264	-10.9864	12.37451	13.67474	0.9552	1.0469	197.35022	180.60422	74.87414	0.31788	 	1.6116399999999998E22	 	1.61461E-22	 	-11074.03736	26.90186	 
255.0	1.0	0.0	8.10683	7.10121	-11.00433	12.349	13.61039	0.95072	1.05183	197.63716	180.73886	74.99035	0.31775	 	2.8593199999999996E22	 	9.01531E-23	 	-11208.31105	26.85474	 
250.0	1.0	0.0	8.10846	7.09978	-11.02219	12.32349	13.54597	0.9462	1.05686	197.92358	180.87288	75.10637	0.31762	 	5.128819999999999E22	 	4.97846E-23	 	-11342.34883	26.80756	 
245.0	1.0	0.0	8.11008	7.09836	-11.03999	12.29799	13.48148	0.94164	1.06198	198.20947	181.00626	75.22221	0.31749	 	9.303999999999999E22	 	2.71814E-23	 	-11476.15036	26.76031	 
240.0	1.0	0.0	8.1117	7.09695	-11.05772	12.27248	13.4169	0.93704	1.06719	198.49483	181.13902	75.33787	0.31736	 	1.70751E23	 	1.46679E-23	 	-11609.7153	26.71299	 
235.0	1.0	0.0	8.11331	7.09554	-11.07538	12.24698	13.35224	0.9324	1.0725	198.77967	181.27115	75.45336	0.31724	 	3.17135E23	 	7.8205E-24	 	-11743.04325	26.66559	 
230.0	1.0	0.0	8.11491	7.09413	-11.09298	12.22149	13.2875	0.92773	1.0779	199.06398	181.40267	75.56866	0.31711	 	5.96307E23	 	4.11827E-24	 	-11876.13378	26.61811	 
225.0	1.0	0.0	8.11651	7.09274	-11.1105	12.19599	13.22267	0.92301	1.08341	199.34776	181.53356	75.68378	0.31698	 	1.13553E24	 	2.14115E-24	 	-12008.98642	26.57053	 
220.0	1.0	0.0	8.11811	7.09134	-11.12796	12.1705	13.15776	0.91825	1.08902	199.63101	181.66383	75.79872	0.31685	 	2.1908000000000002E24	 	1.09866E-24	 	-12141.60066	26.52285	 
215.0	1.0	0.0	8.1197	7.08996	-11.14536	12.14501	13.09275	0.91346	1.09474	199.91374	181.79348	75.91349	0.31672	 	4.28403E24	 	5.56144E-25	 	-12273.97597	26.47506	 
210.0	1.0	0.0	8.12128	7.08857	-11.16268	12.11953	13.02764	0.90862	1.10057	200.19594	181.92251	76.02807	0.31659	 	8.49435E24	 	2.77612E-25	 	-12406.11174	26.42715	 
205.0	1.0	0.0	8.12286	7.0872	-11.17994	12.09404	12.96244	0.90374	1.10651	200.47761	182.05093	76.14247	0.31646	 	1.7085400000000001E25	 	1.36592E-25	 	-12538.00733	26.37912	 
200.0	1.0	0.0	8.12443	7.08582	-11.19712	12.06856	12.89714	0.89882	1.11257	200.75875	182.17874	76.25669	0.31634	 	3.4876600000000002E25	 	6.62142E-26	 	-12669.66206	26.33095	 
195.0	1.0	0.0	8.126	7.08446	-11.21425	12.04309	12.83173	0.89385	1.11875	201.03937	182.30593	76.37073	0.31621	 	7.2287500000000005E25	 	3.16088E-26	 	-12801.07519	26.28262	 
190.0	1.0	0.0	8.12756	7.0831	-11.2313	12.01761	12.76621	0.88884	1.12506	201.31946	182.43251	76.48459	0.31608	 	1.5220400000000001E26	 	1.48519E-26	 	-12932.24591	26.23414	 
185.0	1.0	0.0	8.12912	7.08174	-11.24829	11.99214	12.70059	0.88379	1.13149	201.59903	182.55848	76.59827	0.31595	 	3.2572300000000006E26	 	6.86509E-27	 	-13063.17339	26.1855	 
180.0	1.0	0.0	8.13067	7.08039	-11.2652	11.96667	12.63485	0.87869	1.13805	201.87807	182.68385	76.71177	0.31582	 	7.088610000000001E26	 	3.12009E-27	 	-13193.8567	26.13666	 
175.0	1.0	0.0	8.13221	7.07905	-11.28206	11.9412	12.56899	0.87355	1.14475	202.15658	182.8086	76.82509	0.31569	 	1.56968E27	 	1.39348E-27	 	-13324.29487	26.08763	 
170.0	1.0	0.0	8.13375	7.07771	-11.29884	11.91574	12.50301	0.86837	1.15159	202.43456	182.93275	76.93822	0.31557	 	3.5387499999999997E27	 	6.11206E-28	 	-13454.48687	26.0384	 
165.0	1.0	0.0	8.13528	7.07637	-11.31555	11.89027	12.4369	0.86313	1.15857	202.71202	183.0563	77.05118	0.31544	 	8.12731E27	 	2.63125E-28	 	-13584.43157	25.98894	 
160.0	1.0	0.0	8.13681	7.07505	-11.3322	11.86482	12.37066	0.85785	1.1657	202.98895	183.17924	77.16396	0.31531	 	1.9027400000000001E28	 	1.11108E-28	 	-13714.1278	25.93925	 
155.0	1.0	0.0	8.13833	7.07372	-11.34878	11.83936	12.30429	0.85252	1.17299	203.26535	183.30158	77.27655	0.31518	 	4.54404E28	 	4.59875E-29	 	-13843.57429	25.8893	 
150.0	1.0	0.0	8.13985	7.07241	-11.3653	11.8139	12.23777	0.84715	1.18043	203.54123	183.42332	77.38896	0.31505	 	1.1077400000000002E29	 	1.86441E-29	 	-13972.76969	25.83908	 
145.0	1.0	0.0	8.14136	7.07109	-11.38174	11.78845	12.17111	0.84172	1.18804	203.81658	183.54446	77.5012	0.31493	 	2.75861E29	 	7.39823E-30	 	-14101.71257	25.78858	 
140.0	1.0	0.0	8.14286	7.06979	-11.39812	11.763	12.1043	0.83625	1.19582	204.0914	183.66501	77.61325	0.3148	 	7.02317E29	 	2.87118E-30	 	-14230.40139	25.73776	 
135.0	1.0	0.0	8.14436	7.06848	-11.41443	11.73756	12.03733	0.83072	1.20377	204.36569	183.78495	77.72512	0.31467	 	1.82945E30	 	1.0889E-30	 	-14358.83453	25.68663	 
130.0	1.0	0.0	8.14586	7.06719	-11.43068	11.71212	11.9702	0.82515	1.21191	204.63946	183.90431	77.83681	0.31454	 	4.87999E30	 	4.03213E-31	 	-14487.01027	25.63515	 
125.0	1.0	0.0	8.14734	7.0659	-11.44685	11.68668	11.9029	0.81952	1.22023	204.91271	184.02307	77.94832	0.31441	 	1.3342E31	 	1.45651E-31	 	-14614.92677	25.5833	 
120.0	1.0	0.0	8.14883	7.06461	-11.46296	11.66124	11.83543	0.81384	1.22874	205.18542	184.14123	78.05964	0.31429	 	3.74225E31	 	5.12758E-32	 	-14742.58208	25.53106	 
115.0	1.0	0.0	8.1503	7.06333	-11.479	11.6358	11.76777	0.80811	1.23745	205.45761	184.25881	78.17079	0.31416	 	1.07791E32	 	1.75753E-32	 	-14869.97411	25.47841	 
110.0	1.0	0.0	8.15177	7.06206	-11.49498	11.61037	11.69993	0.80233	1.24637	205.72928	184.3758	78.28175	0.31403	 	3.19173E32	 	5.85907E-33	 	-14997.10067	25.42531	 
105.0	1.0	0.0	8.15324	7.06079	-11.51088	11.58494	11.63189	0.79649	1.25551	206.00041	184.49219	78.39254	0.3139	 	9.72605E32	 	1.89764E-33	 	-15123.95944	25.37175	 
100.0	1.0	0.0	8.1547	7.05952	-11.52672	11.55951	11.56365	0.7906	1.26487	206.27102	184.60801	78.50314	0.31378	 	3.05362E33	 	5.96424E-34	 	-15250.54792	25.3177	 
95.0	1.0	0.0	8.15615	7.05827	-11.5425	11.53409	11.49519	0.78465	1.27446	206.54111	184.72323	78.61356	0.31365	 	9.88985E33	 	1.81686E-34	 	-15376.86351	25.26312	 
90.0	1.0	0.0	8.1576	7.05701	-11.5582	11.50867	11.42652	0.77864	1.28429	206.81066	184.83787	78.7238	0.31352	 	3.3084E34	 	5.3574E-35	 	-15502.90341	25.20798	 
85.0	1.0	0.0	8.15904	7.05577	-11.57384	11.48325	11.35761	0.77258	1.29436	207.0797	184.95193	78.83385	0.31339	 	1.1446999999999999E35	 	1.52708E-35	 	-15628.66472	25.15226	 
80.0	1.0	0.0	8.16048	7.05452	-11.58941	11.45783	11.28846	0.76646	1.3047	207.3482	185.06541	78.94373	0.31327	 	4.10229E35	 	4.20164E-36	 	-15754.14433	25.09592	 
75.0	1.0	0.0	8.16191	7.05329	-11.60491	11.43242	11.21906	0.76028	1.3153	207.61618	185.17831	79.05342	0.31314	 	1.5250499999999997E36	 	1.11421E-36	 	-15879.33899	25.03893	 
70.0	1.0	0.0	8.16334	7.05205	-11.62035	11.40701	11.1494	0.75405	1.32618	207.88363	185.29062	79.16293	0.31301	 	5.890639999999999E36	 	2.84321E-37	 	-16004.24533	24.98127	 
65.0	1.0	0.0	8.16476	7.05083	-11.63571	11.3816	11.07947	0.74775	1.33734	208.15056	185.40236	79.27226	0.31288	 	2.3680699999999998E37	 	6.96949E-38	 	-16128.85981	24.9229	 
60.0	1.0	0.0	8.16617	7.04961	-11.65101	11.35619	11.00924	0.74139	1.34881	208.41695	185.51353	79.38141	0.31276	 	9.92578E37	 	1.63818E-38	 	-16253.17878	24.86379	 
55.0	1.0	0.0	8.16758	7.04839	-11.66625	11.33079	10.93872	0.73497	1.36059	208.68283	185.62411	79.49037	0.31263	 	4.3460999999999995E38	 	3.68518E-39	 	-16377.19853	24.80395	 
50.0	1.0	0.0	8.16898	7.04718	-11.68141	11.30539	10.86789	0.72849	1.3727	208.94817	185.73413	79.59916	0.3125	 	1.9919700000000003E39	 	7.91788E-40	 	-16500.9437	24.74903	 
45.0	1.0	0.0	8.17038	7.04598	-11.69651	11.27999	10.79673	0.72195	1.38514	209.213	185.84357	79.70776	0.31238	 	9.577360000000001E39	 	1.62134E-40	 	-16624.40636	24.69253	 
40.0	1.0	0.0	8.17177	7.04478	-11.71154	11.25459	10.72522	0.71534	1.39794	209.47729	185.95244	79.81618	0.31225	 	4.84158E40	 	3.15683E-41	 	-16747.53994	24.62672	 
35.0	1.0	0.0	8.17315	7.04358	-11.72651	11.2292	10.65335	0.70867	1.4111	209.74106	186.06074	79.92441	0.31212	 	2.57968E41	 	5.83019E-42	 	-16870.33932	24.55988	 
30.0	1.0	0.0	8.17453	7.04239	-11.74141	11.20381	10.58111	0.70193	1.42465	210.0043	186.16847	80.03247	0.31199	 	1.4524899999999998E42	 	1.01866E-42	 	-16992.79881	24.4919	 
25.0	1.0	0.0	8.17591	7.04121	-11.75624	 	10.50846	0.69512	1.43859	210.26702	186.27563	80.14034	0.31187	 	8.6663E42	 	1.67914E-43	 	-17114.91212	 	 
