T (C)	Fraction solid (wt)-TOTAL	Fraction liquid (wt)-LIQUID	Density (g/(cm)^3)-TOTAL	Volume change (%)-  	Average expansion coeff. (10e-6 1/K)-  	Thermal conductivity (W/(m*K))-TOTAL	Electrical conductivity (10e6 1/(Ohm*m))-TOTAL	Young's modulus (GPa)-TOTAL	Poisson's ratio-TOTAL	Enthalpy (J/mole)-TOTAL	Specific heat (J/(mole K))-TOTAL	Latent heat (J/mole)-TOTAL
400.0	0.0	1.0	9.50895	0.0	53.28078	20.49628	1.24279	0.0	0.5	17790.696	 	0.0
395.0	0.0	1.0	9.5144	-0.0572744	53.45388	20.42419	1.24768	0.0	0.5	17641.642	29.8108	0.0
390.0	0.0	1.0	9.51983	-0.11429	53.63426	20.3521	1.25265	0.0	0.5	17492.532	29.822	0.0
385.0	0.0	1.0	9.52524	-0.17103	53.82224	20.28001	1.2577	0.0	0.5	17343.364	29.8336	0.0
380.0	0.0	1.0	9.53063	-0.22752	54.01813	20.20792	1.26282	0.0	0.5	17194.136	29.8456	0.0
375.0	0.0	1.0	9.53601	-0.28374	54.22227	20.13583	1.26803	0.0	0.5	17044.848	29.8576	0.0
370.0	0.0	1.0	9.54136	-0.3397	54.43502	20.06374	1.27331	0.0	0.5	16895.497	29.8702	0.0
365.0	0.0	1.0	9.5467	-0.3954	54.65676	19.99164	1.27867	0.0	0.5	16746.082	29.883	0.0
360.0	0.0	1.0	9.55201	-0.45083	54.88789	19.91955	1.28412	0.0	0.5	16596.602	29.896	0.0
355.0	0.0	1.0	9.55731	-0.506	55.12885	19.84746	1.28966	0.0	0.5	16447.054	29.9096	0.0
350.0	0.0	1.0	9.56259	-0.56091	55.38008	19.77537	1.29529	0.0	0.5	16297.436	29.9236	0.0
345.0	0.0	1.0	9.56785	-0.61555	55.64206	19.70328	1.301	0.0	0.5	16147.748	29.9376	0.0
340.0	0.0	1.0	9.57308	-0.66993	55.91531	19.63119	1.30681	0.0	0.5	15997.985	29.9526	0.0
335.0	0.0	1.0	9.5783	-0.72405	56.20037	19.5591	1.31272	0.0	0.5	15848.148	29.9674	0.0
330.0	0.0	1.0	9.5835	-0.77791	56.49782	19.48701	1.31872	0.0	0.5	15698.232	29.9832	0.0
325.0	0.0	1.0	9.58868	-0.8315	56.80829	19.41492	1.32483	0.0	0.5	15548.285	29.9894	0.0
320.0	0.0	1.0	9.59384	-0.88483	57.13243	19.34283	1.33103	0.0	0.5	15398.614	29.9342	0.0
315.0	0.0	1.0	9.59898	-0.9379	57.47095	19.27074	1.33735	0.0	0.5	15249.259	29.871	0.0
310.0	0.0	1.0	9.6041	-0.9907	57.82461	19.19865	1.34377	0.0	0.5	15100.21	29.8098	0.0
305.0	0.0	1.0	9.6092	-1.04324	58.19422	19.12656	1.3503	0.0	0.5	14951.456	29.7508	0.0
300.0	0.0	1.0	9.61428	-1.09552	58.58065	19.05446	1.35695	0.0	0.5	14802.986	29.694	0.0
295.0	0.0	1.0	9.61934	-1.14753	58.98483	18.98237	1.36371	0.0	0.5	14654.79	29.6392	0.0
290.0	0.0	1.0	9.62437	-1.19928	59.40777	18.91028	1.37059	0.0	0.5	14506.857	29.5866	0.0
285.0	0.0	1.0	9.62939	-1.25077	59.85055	18.83819	1.3776	0.0	0.5	14359.177	29.536	0.0
280.0	0.0	1.0	9.63439	-1.302	60.31434	18.7661	1.38473	0.0	0.5	14211.74	29.4874	0.0
275.0	0.0	1.0	9.63937	-1.35296	60.8004	18.69401	1.39199	0.0	0.5	14064.536	29.4408	0.0
270.0	0.0	1.0	9.64432	-1.40366	61.31009	18.62192	1.39939	0.0	0.5	13917.554	29.3964	0.0
265.0	0.0	1.0	9.64926	-1.4541	61.84489	18.54983	1.40692	0.0	0.5	13770.785	29.3538	0.0
260.0	0.0	1.0	9.65418	-1.50427	62.4064	18.47774	1.4146	0.0	0.5	13624.217	29.3136	0.0
259.78	0.0	1.0	9.6544	-1.50651	62.43226	18.4745	1.41495	0.0	0.5	13617.644	29.2888	0.0
255.0	0.12379	0.87621	9.68707	-1.83835	58.63106	19.62664	1.51678	0.00224843	0.49184	12968.506	135.929	509.337
250.0	0.22802	0.77198	9.71542	-2.12487	55.43485	20.66622	1.61238	0.0266702	0.48488	12390.209	115.659	941.441
245.0	0.31266	0.68734	9.73928	-2.36504	52.8376	21.57388	1.69944	0.0968718	0.47916	11890.104	100.021	1295.526
240.0	0.38232	0.61768	9.75968	-2.5686	50.72128	22.37454	1.77969	0.222	0.47442	11449.855	88.0498	1589.916
235.0	0.44031	0.55969	9.77737	-2.74536	48.95503	23.08388	1.85418	0.39958	0.47043	11056.306	78.7098	1837.759
230.0	0.48908	0.51092	9.79294	-2.89958	47.49119	23.71377	1.9237	0.62128	0.46706	10699.809	71.2994	2048.701
225.0	0.53046	0.46954	9.80679	-3.03697	46.25138	24.27348	1.98887	0.87692	0.46418	10373.279	65.306	2229.927
220.0	0.56584	0.43416	9.81925	-3.15974	45.2128	24.77185	2.05028	1.15681	0.46171	10071.253	60.4052	2386.924
215.0	0.59632	0.40368	9.83058	-3.27136	44.327	25.21588	2.10841	1.45232	0.45957	9789.47	56.3566	2523.955
210.11	0.62219	0.37781	9.84075	-3.37158	43.58465	25.60417	2.16253	1.74988	0.45774	9530.334	 	2641.841
210.0	0.62398	0.37602	9.84122	-3.37611	43.5245	25.63404	2.16555	1.77264	0.45757	9513.648	55.1644	2655.302
205.0	0.69295	0.30705	9.85949	-3.55522	41.21796	26.82731	2.29006	2.87302	0.45102	8852.537	132.222	3172.216
200.0	0.74223	0.25777	9.87358	-3.69273	39.61927	27.73929	2.39293	3.98709	0.44627	8338.043	102.899	3542.79
195.0	0.77878	0.22122	9.88499	-3.80385	38.47515	28.45214	2.48064	5.04744	0.4427	7918.491	83.9104	3818.699
190.0	0.80665	0.19335	9.89461	-3.89746	37.63661	29.02032	2.55749	6.02496	0.43993	7563.824	70.9334	4030.002
185.0	0.82837	0.17163	9.90297	-3.97851	37.02294	29.48124	2.62647	6.91135	0.43775	7255.39	61.6868	4195.35
180.0	0.84559	0.15441	9.9104	-4.05057	36.57462	29.86077	2.68963	7.7084	0.436	6981.0	54.878	4326.934
175.0	0.85943	0.14057	9.91717	-4.11598	36.25304	30.17768	2.7485	8.42315	0.43458	6732.338	49.7324	4433.068
174.81	0.85989	0.14011	9.91741	-4.11831	36.24352	30.18847	2.75064	8.44821	0.43453	6723.453	 	4436.617
174.81	1.0	0.0	9.95852	-4.51411	26.90914	33.64442	3.06553	19.66637	0.41488	5608.845	 	5551.225
165.0	1.0	0.0	9.96674	-4.59282	26.80891	33.76664	3.14557	20.08273	0.41487	5330.013	140.232	 
160.0	1.0	0.0	9.97091	-4.63269	26.75824	33.82936	3.18779	20.29247	0.41487	5188.346	28.3334	 
155.0	1.0	0.0	9.97506	-4.67241	26.70785	33.89241	3.23103	20.50059	0.41487	5046.959	28.2774	 
150.0	1.0	0.0	9.9792	-4.71198	26.65773	33.9558	3.27532	20.70709	0.41487	4905.85	28.2218	 
145.0	1.0	0.0	9.98333	-4.7514	26.60789	34.01954	3.3207	20.91196	0.41487	4765.021	28.1658	 
140.0	1.0	0.0	9.98745	-4.79067	26.55832	34.08365	3.36723	21.11521	0.41487	4624.471	28.11	 
135.0	1.0	0.0	9.99156	-4.82979	26.50903	34.14815	3.41493	21.31684	0.41487	4484.201	28.054	 
130.0	1.0	0.0	9.99565	-4.86876	26.46001	34.21305	3.46385	21.51686	0.41487	4344.211	27.998	 
125.0	1.0	0.0	9.99973	-4.90758	26.41127	34.27837	3.51405	21.71526	0.41487	4204.501	27.942	 
120.0	1.0	0.0	10.0038	-4.94626	26.3628	34.34413	3.56556	21.91204	0.41486	4065.071	27.886	 
115.0	1.0	0.0	10.00786	-4.9848	26.31461	34.41036	3.61846	22.10721	0.41486	3925.921	27.83	 
110.0	1.0	0.0	10.0119	-5.02319	26.26669	34.47707	3.67278	22.30076	0.41486	3787.052	27.7738	 
105.0	1.0	0.0	10.01594	-5.06144	26.21905	34.54429	3.7286	22.49271	0.41486	3648.463	27.7178	 
100.0	1.0	0.0	10.01996	-5.09955	26.17168	34.61204	3.78597	22.68304	0.41486	3510.153	27.662	 
95.0	1.0	0.0	10.02397	-5.13752	26.12459	34.68034	3.84497	22.87176	0.41486	3372.124	27.6058	 
90.0	1.0	0.0	10.02797	-5.17536	26.07777	34.74923	3.90565	23.05887	0.41486	3234.374	27.55	 
85.0	1.0	0.0	10.03196	-5.21305	26.03123	34.81873	3.96809	23.24438	0.41486	3096.904	27.494	 
80.0	1.0	0.0	10.03593	-5.25061	25.98496	34.88887	4.03238	23.42827	0.41486	2959.713	27.4382	 
75.0	1.0	0.0	10.0399	-5.28803	25.93897	34.95969	4.0986	23.61056	0.41485	2822.801	27.3824	 
70.0	1.0	0.0	10.04385	-5.32532	25.89325	35.03121	4.16682	23.79124	0.41485	2686.167	27.3268	 
65.0	1.0	0.0	10.0478	-5.36248	25.84781	35.10348	4.23716	23.97032	0.41485	2549.811	27.2712	 
60.0	1.0	0.0	10.05173	-5.39951	25.80264	35.17652	4.3097	24.14779	0.41485	2413.732	27.2158	 
55.0	1.0	0.0	10.05565	-5.43641	25.75775	35.25039	4.38455	24.32366	0.41485	2277.93	27.1604	 
50.0	1.0	0.0	10.05956	-5.47317	25.71314	35.32512	4.46183	24.49792	0.41485	2142.403	27.1054	 
45.0	1.0	0.0	10.06346	-5.50981	25.66879	35.40075	4.54166	24.67058	0.41485	2007.152	27.0502	 
40.0	1.0	0.0	10.06735	-5.54632	25.62473	35.47734	4.62416	24.84163	0.41485	1872.174	26.9956	 
35.0	1.0	0.0	10.07123	-5.58271	25.58094	35.55494	4.70947	25.01108	0.41485	1737.468	26.9412	 
30.0	1.0	0.0	10.0751	-5.61898	25.53743	35.6336	4.79773	25.17893	0.41485	1603.034	26.8868	 
25.0	1.0	0.0	10.07896	-5.65512	 	35.71338	4.88911	25.34518	0.41484	1468.87	 	 
