T (C)	Fraction solid (wt)-TOTAL	Fraction liquid (wt)-LIQUID	Density (g/(cm)^3)-TOTAL	Volume change (%)-  	Average expansion coeff. (10e-6 1/K)-  	Thermal conductivity (W/(m*K))-TOTAL	Electrical conductivity (10e6 1/(Ohm*m))-TOTAL	Young's modulus (GPa)-TOTAL	Poisson's ratio-TOTAL	Enthalpy (J/mole)-TOTAL	Specific heat (J/(mole K))-TOTAL	Latent heat (J/mole)-TOTAL
400.0	0.0	1.0	10.50038	0.0	63.37669	20.36563	1.23487	0.0	0.5	16187.775	 	0.0
395.0	0.0	1.0	10.50664	-0.0595663	63.65824	20.30065	1.24014	0.0	0.5	16035.425	30.47	0.0
390.0	0.0	1.0	10.51288	-0.11885	63.95031	20.23568	1.24549	0.0	0.5	15883.005	30.484	0.0
385.0	0.0	1.0	10.51909	-0.17784	64.25335	20.17071	1.25092	0.0	0.5	15730.516	30.4978	0.0
380.0	0.0	1.0	10.52528	-0.23654	64.56781	20.10573	1.25644	0.0	0.5	15577.958	30.5116	0.0
375.0	0.0	1.0	10.53145	-0.29496	64.89419	20.04076	1.26204	0.0	0.5	15425.33	30.5256	0.0
370.0	0.0	1.0	10.53759	-0.35309	65.23301	19.97578	1.26773	0.0	0.5	15272.632	30.5396	0.0
365.0	0.0	1.0	10.54371	-0.41093	65.58481	19.91081	1.2735	0.0	0.5	15119.865	30.5534	0.0
360.0	0.0	1.0	10.54981	-0.46848	65.95018	19.84584	1.27937	0.0	0.5	14967.028	30.5674	0.0
355.0	0.0	1.0	10.55588	-0.52575	66.32973	19.78086	1.28533	0.0	0.5	14814.12	30.5816	0.0
350.0	0.0	1.0	10.56193	-0.58273	66.72411	19.71589	1.29139	0.0	0.5	14661.143	30.5954	0.0
345.0	0.0	1.0	10.56796	-0.63942	67.13403	19.65091	1.29755	0.0	0.5	14508.095	30.6096	0.0
340.0	0.0	1.0	10.57396	-0.69583	67.56022	19.58594	1.3038	0.0	0.5	14354.976	30.6238	0.0
335.0	0.0	1.0	10.57994	-0.75194	68.00347	19.52097	1.31016	0.0	0.5	14201.786	30.638	0.0
330.0	0.0	1.0	10.58589	-0.80777	68.46461	19.45599	1.31662	0.0	0.5	14048.526	30.652	0.0
325.0	0.0	1.0	10.59182	-0.86331	68.94455	19.39102	1.3232	0.0	0.5	13895.262	30.6528	0.0
320.0	0.0	1.0	10.59773	-0.91857	69.44424	19.32604	1.32988	0.0	0.5	13742.418	30.5688	0.0
318.97	0.0	1.0	10.59894	-0.92986	69.54921	19.31272	1.33126	0.0	0.5	13711.143	30.5101	0.0010
315.0	8.1E-4	0.99919	10.60424	-0.97954	69.89081	19.11007	1.3262	3.41285E-11	0.49989	13555.844	39.0696	34.212
310.0	0.0018	0.9982	10.61087	-1.04195	70.33499	18.86171	1.32018	8.19558E-10	0.49975	13362.553	38.6582	75.611
308.67	0.00205	0.99795	10.61262	-1.0581	70.46198	18.79675	1.31865	1.39598E-9	0.49971	13311.42	 	86.342
307.97	1.0	0.0	10.9617	-4.20859	30.87718	32.15878	2.25874	10.12971	0.43724	8032.721	 	5343.988
300.0	1.0	0.0	10.97054	-4.2858	30.76978	32.26696	2.29786	10.34326	0.43724	7800.233	556.232	 
295.0	1.0	0.0	10.97606	-4.33394	30.70291	32.33482	2.32296	10.47652	0.43724	7654.705	29.1056	 
290.0	1.0	0.0	10.98156	-4.38186	30.63642	32.4027	2.3485	10.60927	0.43724	7509.388	29.0634	 
285.0	1.0	0.0	10.98704	-4.42957	30.57031	32.47059	2.37451	10.7415	0.43724	7364.281	29.0214	 
280.0	1.0	0.0	10.99251	-4.47707	30.50457	32.53849	2.40098	10.87323	0.43724	7219.383	28.9796	 
275.0	1.0	0.0	10.99795	-4.52436	30.43921	32.60641	2.42794	11.00445	0.43724	7074.692	28.9382	 
270.0	1.0	0.0	11.00338	-4.57143	30.37422	32.67435	2.45539	11.13515	0.43724	6930.209	28.8966	 
265.0	1.0	0.0	11.00878	-4.61831	30.30961	32.7423	2.48336	11.26534	0.43724	6785.932	28.8554	 
260.0	1.0	0.0	11.01417	-4.66497	30.24537	32.81026	2.51185	11.39503	0.43724	6641.859	28.8146	 
255.0	1.0	0.0	11.01954	-4.71143	30.18151	32.87825	2.54089	11.52421	0.43724	6497.99	28.7738	 
250.0	1.0	0.0	11.02489	-4.75769	30.11803	32.94625	2.57048	11.65287	0.43724	6354.323	28.7334	 
245.0	1.0	0.0	11.03023	-4.80375	30.05492	33.01427	2.60064	11.78103	0.43724	6210.856	28.6934	 
240.0	1.0	0.0	11.03554	-4.84961	29.99219	33.0823	2.63139	11.90868	0.43724	6067.589	28.6534	 
235.0	1.0	0.0	11.04084	-4.89527	29.92983	33.15036	2.66275	12.03582	0.43724	5924.519	28.614	 
230.0	1.0	0.0	11.04612	-4.94074	29.86785	33.21844	2.69473	12.16246	0.43724	5781.647	28.5744	 
225.0	1.0	0.0	11.05139	-4.98601	29.80624	33.28654	2.72736	12.28859	0.43724	5638.991	28.5312	 
220.0	1.0	0.0	11.05663	-5.03108	29.74501	33.35466	2.76065	12.41421	0.43724	5496.556	28.487	 
215.0	1.0	0.0	11.06186	-5.07597	29.68416	33.4228	2.79462	12.53933	0.43724	5354.343	28.4426	 
210.0	1.0	0.0	11.06707	-5.12067	29.62368	33.49097	2.8293	12.66394	0.43724	5212.35	28.3986	 
205.0	1.0	0.0	11.07227	-5.16517	29.56358	33.55916	2.86471	12.78804	0.43724	5070.577	28.3546	 
200.0	1.0	0.0	11.07744	-5.20949	29.50385	33.62738	2.90087	12.91164	0.43724	4929.025	28.3104	 
195.0	1.0	0.0	11.0826	-5.25363	29.4445	33.69562	2.9378	13.03473	0.43723	4787.692	28.2666	 
190.0	1.0	0.0	11.08775	-5.29758	29.38552	33.76389	2.97553	13.15732	0.43723	4646.578	28.2228	 
185.0	1.0	0.0	11.09287	-5.34135	29.32692	33.83219	3.01409	13.2794	0.43723	4505.684	28.1788	 
180.0	1.0	0.0	11.09798	-5.38494	29.2687	33.90051	3.0535	13.40098	0.43723	4365.008	28.1352	 
175.0	1.0	0.0	11.10308	-5.42835	29.21085	33.96887	3.0938	13.52206	0.43723	4224.551	28.0914	 
170.0	1.0	0.0	11.10816	-5.47159	29.15337	34.03726	3.135	13.64263	0.43723	4084.311	28.048	 
165.0	1.0	0.0	11.11322	-5.51465	29.09628	34.10568	3.17715	13.7627	0.43723	3944.29	28.0042	 
160.0	1.0	0.0	11.11826	-5.55753	29.03955	34.17414	3.22028	13.88226	0.43723	3804.485	27.961	 
155.0	1.0	0.0	11.1233	-5.60024	28.98321	34.24263	3.26441	14.00132	0.43723	3664.898	27.9174	 
150.0	1.0	0.0	11.12831	-5.64278	28.92724	34.31116	3.3096	14.11988	0.43723	3525.528	27.874	 
145.0	1.0	0.0	11.13331	-5.68515	28.87164	34.37972	3.35586	14.23793	0.43723	3386.374	27.8308	 
140.0	1.0	0.0	11.13829	-5.72736	28.81642	34.44833	3.40325	14.35549	0.43723	3247.435	27.7878	 
135.0	1.0	0.0	11.14326	-5.76939	28.76158	34.51698	3.45181	14.47254	0.43723	3108.713	27.7444	 
130.0	1.0	0.0	11.14822	-5.81127	28.70711	34.58567	3.50157	14.58908	0.43723	2970.206	27.7014	 
125.0	1.0	0.0	11.15316	-5.85298	28.65302	34.6544	3.55259	14.70513	0.43723	2831.914	27.6584	 
120.0	1.0	0.0	11.15808	-5.89452	28.59931	34.72318	3.60492	14.82067	0.43723	2693.836	27.6156	 
115.0	1.0	0.0	11.16299	-5.93591	28.54596	34.79202	3.65859	14.93572	0.43723	2555.973	27.5726	 
110.0	1.0	0.0	11.16788	-5.97714	28.493	34.8609	3.71367	15.05026	0.43723	2418.324	27.5298	 
105.0	1.0	0.0	11.17276	-6.01822	28.44041	34.92983	3.77022	15.1643	0.43723	2280.888	27.4872	 
100.0	1.0	0.0	11.17763	-6.05913	28.3882	34.99882	3.82828	15.27784	0.43723	2143.665	27.4446	 
95.0	1.0	0.0	11.18248	-6.0999	28.33636	35.06787	3.88793	15.39087	0.43723	2006.655	27.402	 
90.0	1.0	0.0	11.18732	-6.14051	28.2849	35.13698	3.94923	15.50341	0.43723	1869.857	27.3596	 
85.0	1.0	0.0	11.19215	-6.18097	28.23381	35.20615	4.01225	15.61545	0.43723	1733.271	27.3172	 
80.0	1.0	0.0	11.19696	-6.22129	28.1831	35.27539	4.07705	15.72698	0.43723	1596.896	27.275	 
75.0	1.0	0.0	11.20176	-6.26145	28.13276	35.3447	4.14373	15.83802	0.43723	1460.732	27.2328	 
70.0	1.0	0.0	11.20654	-6.30147	28.08281	35.41408	4.21236	15.94855	0.43723	1324.78	27.1904	 
65.0	1.0	0.0	11.21131	-6.34135	28.03322	35.48353	4.28303	16.05859	0.43723	1189.037	27.1486	 
60.0	1.0	0.0	11.21607	-6.38108	27.98401	35.55307	4.35583	16.16812	0.43723	1053.504	27.1066	 
55.0	1.0	0.0	11.22082	-6.42067	27.93518	35.62268	4.43086	16.27716	0.43723	918.18	27.0648	 
50.0	1.0	0.0	11.22555	-6.46013	27.88673	35.69239	4.50822	16.38569	0.43723	783.065	27.023	 
45.0	1.0	0.0	11.23027	-6.49944	27.83864	35.76218	4.58803	16.49373	0.43723	648.159	26.9812	 
40.0	1.0	0.0	11.23498	-6.53862	27.79094	35.83208	4.67039	16.60127	0.43723	513.46	26.9398	 
35.0	1.0	0.0	11.23967	-6.57767	27.74361	35.90207	4.75545	16.70831	0.43723	378.968	26.8984	 
30.0	1.0	0.0	11.24436	-6.61658	27.69664	35.97217	4.84332	16.81484	0.43723	244.683	26.857	 
25.0	1.0	0.0	11.24903	-6.65536	 	36.04238	4.93415	16.92088	0.43723	110.605	 	 
