T (C)	Fraction solid (wt)-TOTAL	Fraction liquid (wt)-LIQUID	Density (g/(cm)^3)-TOTAL	Volume change (%)-  	Average expansion coeff. (10e-6 1/K)-  	Thermal conductivity (W/(m*K))-TOTAL	Electrical conductivity (10e6 1/(Ohm*m))-TOTAL	Young's modulus (GPa)-TOTAL	Poisson's ratio-TOTAL	Enthalpy (J/mole)-TOTAL	Specific heat (J/(mole K))-TOTAL	Latent heat (J/mole)-TOTAL
400.0	0.0	1.0	8.56555	0.0	4.30121	28.01632	1.69876	0.0	0.5	20317.221	 	0.0
395.0	0.0	1.0	8.57057	-0.0586337	3.82855	27.93317	1.7064	0.0	0.5	20174.007	28.6428	0.0
390.0	0.0	1.0	8.57559	-0.11713	3.34415	27.85002	1.71415	0.0	0.5	20030.713	28.6588	0.0
385.0	0.0	1.0	8.5806	-0.1755	2.84754	27.76687	1.72201	0.0	0.5	19887.334	28.6758	0.0
380.0	0.0	1.0	8.58561	-0.23374	2.33819	27.68372	1.73	0.0	0.5	19743.865	28.6938	0.0
375.0	0.0	1.0	8.59062	-0.29184	1.81555	27.60057	1.73811	0.0	0.5	19600.297	28.7136	0.0
370.0	0.0	1.0	8.59561	-0.34981	1.27906	27.51742	1.74634	0.0	0.5	19456.625	28.7344	0.0
365.0	0.0	1.0	8.60061	-0.40765	0.7281	27.43427	1.75471	0.0	0.5	19312.841	28.7568	0.0
360.0	0.0	1.0	8.60559	-0.46535	0.16202	27.35112	1.7632	0.0	0.5	19168.936	28.781	0.0
355.0	0.0	1.0	8.61057	-0.52292	-0.41987	27.26798	1.77184	0.0	0.5	19024.902	28.8068	0.0
350.0	0.0	1.0	8.61555	-0.58036	-1.0183	27.18483	1.78061	0.0	0.5	18880.73	28.8344	0.0
345.0	0.0	1.0	8.62052	-0.63767	-1.63403	27.10168	1.78952	0.0	0.5	18736.408	28.8644	0.0
340.0	0.0	1.0	8.62548	-0.69484	-2.26791	27.01853	1.79858	0.0	0.5	18591.927	28.8962	0.0
335.0	0.0	1.0	8.63044	-0.75188	-2.92079	26.93538	1.80778	0.0	0.5	18447.275	28.9304	0.0
330.0	0.0	1.0	8.63539	-0.80879	-3.59362	26.85223	1.81714	0.0	0.5	18302.44	28.967	0.0
325.0	0.0	1.0	8.64033	-0.86556	-4.2874	26.76908	1.82666	0.0	0.5	18157.408	29.0064	0.0
320.0	0.0	1.0	8.64527	-0.92221	-5.00319	26.68593	1.83633	0.0	0.5	18012.167	29.0482	0.0
315.0	0.0	1.0	8.65021	-0.97871	-5.74212	26.60278	1.84618	0.0	0.5	17866.702	29.093	0.0
310.0	0.0	1.0	8.65513	-1.03509	-6.50543	26.51963	1.85618	0.0	0.5	17720.997	29.141	0.0
305.0	0.0	1.0	8.66006	-1.09133	-7.2944	26.43648	1.86637	0.0	0.5	17575.035	29.1924	0.0
300.0	0.0	1.0	8.66497	-1.14745	-8.11045	26.35333	1.87673	0.0	0.5	17428.801	29.2468	0.0
295.0	0.0	1.0	8.66988	-1.20342	-8.95507	26.27019	1.88727	0.0	0.5	17282.275	29.3052	0.0
290.0	0.0	1.0	8.67478	-1.25927	-9.82989	26.18704	1.898	0.0	0.5	17135.438	29.3674	0.0
285.0	0.0	1.0	8.67968	-1.31498	-10.73665	26.10389	1.90892	0.0	0.5	16988.269	29.4338	0.0
280.0	0.0	1.0	8.68457	-1.37056	-11.67722	26.02074	1.92004	0.0	0.5	16840.749	29.504	0.0
275.0	0.0	1.0	8.68946	-1.42601	-12.65364	25.93759	1.93136	0.0	0.5	16692.853	29.5792	0.0
270.0	0.0	1.0	8.69434	-1.48132	-13.66809	25.85444	1.94289	0.0	0.5	16544.585	29.6536	0.0
265.0	0.0	1.0	8.69921	-1.5365	-14.72296	25.77129	1.95464	0.0	0.5	16396.408	29.6354	0.0
260.0	0.0	1.0	8.70408	-1.59155	-15.82082	25.68814	1.96661	0.0	0.5	16248.482	29.5852	0.0
255.0	0.0	1.0	8.70894	-1.64647	-16.96449	25.60499	1.9788	0.0	0.5	16100.792	29.538	0.0
254.04	0.0	1.0	8.70987	-1.65702	-17.18994	25.589	1.98117	0.0	0.5	16072.412	29.5124	0.0010
250.0	0.00149	0.99851	8.7151	-1.71484	-18.35931	25.35048	1.97785	1.97928E-10	0.49982	15912.721	39.5434	40.6
245.0	0.00326	0.99674	8.72148	-1.78711	-19.87685	25.06365	1.97434	4.52019E-9	0.49961	15717.288	39.0866	88.761
240.0	0.00493	0.99507	8.72777	-1.85863	-21.45332	24.78638	1.97153	2.39407E-8	0.49941	15524.302	38.5972	134.659
235.0	0.00652	0.99348	8.73399	-1.92777	-23.06693	24.51867	1.96942	7.36939E-8	0.49922	15333.676	38.1252	178.36
230.0	0.00803	0.99197	8.74013	-1.99687	-24.75843	24.25966	1.96798	1.70421E-7	0.49903	15145.344	37.6664	219.932
227.6	0.00873	0.99127	8.74305	-2.02928	-25.58789	24.13859	1.96755	2.38381E-7	0.49895	15055.73	 	239.163
225.0	0.01123	0.98877	8.74637	-2.06703	-26.55241	24.03458	1.96929	3.37179E-7	0.49852	14915.417	45.9854	303.453
220.0	0.01569	0.98431	8.75268	-2.13821	-28.45592	23.83588	1.97281	6.48723E-7	0.49774	14654.411	52.2012	418.456
215.0	0.01974	0.98026	8.75885	-2.20734	-30.42342	23.64325	1.97691	1.30696E-6	0.49705	14404.371	50.008	522.898
210.0	0.02341	0.97659	8.76492	-2.27379	-32.44872	23.45653	1.9816	2.55258E-6	0.49642	14164.214	48.0314	617.862
205.0	0.02675	0.97325	8.77087	-2.34049	-34.5913	23.27473	1.9868	4.57532E-6	0.49585	13932.998	46.2432	704.29
200.0	0.02979	0.97021	8.77672	-2.40513	-36.81679	23.09819	1.99257	7.48665E-6	0.49533	13709.899	44.6198	783.007
195.0	0.03256	0.96744	8.78247	-2.4699	-39.17582	22.926	1.99884	1.13177E-5	0.49486	13494.193	43.1412	854.738
190.0	0.03507	0.96493	8.78816	-2.53259	-41.63555	22.75838	2.00564	1.60344E-5	0.49444	13285.237	41.7912	920.125
185.0	0.03736	0.96264	8.79375	-2.59486	-44.24012	22.59497	2.01297	2.15538E-5	0.49405	13082.463	40.5548	979.736
180.0	0.03945	0.96055	8.79927	-2.65589	-46.98621	22.43589	2.02086	2.77599E-5	0.4937	12885.361	39.4204	1034.08
175.0	0.04135	0.95865	8.80473	-2.71601	-49.89481	22.28068	2.02927	3.45239E-5	0.49339	12693.473	38.3776	1083.615
170.0	0.04308	0.95692	8.81014	-2.77516	-52.98177	22.12931	2.03822	4.16976E-5	0.4931	12506.389	37.4168	1128.75
165.0	0.04465	0.95535	8.81548	-2.83443	-56.2919	21.98148	2.04771	4.91546E-5	0.49284	12323.736	36.5306	1169.857
160.0	0.04608	0.95392	8.82076	-2.89282	-59.82552	21.83732	2.05776	5.67607E-5	0.4926	12145.176	35.712	1207.272
155.0	0.04739	0.95261	8.82599	-2.95023	-63.60562	21.69671	2.06839	6.43967E-5	0.49239	11970.401	34.955	1241.302
150.33	0.04849	0.95151	8.83082	-3.00403	-67.41406	21.56824	2.07882	7.14641E-5	0.4922	11810.299	 	1270.279
150.33	0.04849	0.95151	8.83082	-3.00403	-67.41399	21.56824	2.07882	7.1464E-5	0.4922	11810.296	 	1270.281
150.0	0.05142	0.94858	8.82959	-2.99007	-67.21728	21.53327	2.07706	7.15217E-5	0.49176	11775.471	38.986	1295.886
145.0	0.09484	0.90516	8.81104	-2.78585	-64.31797	20.49308	2.00036	2.07716E-4	0.4851	11256.545	103.785	1674.862
140.0	0.13549	0.86451	8.7931	-2.58699	-61.32225	19.58262	1.93463	0.00174519	0.47891	10762.201	98.8688	2029.652
139.98	0.13563	0.86437	8.79303	-2.58654	-61.31874	19.57972	1.93442	0.00175582	0.47889	10760.496	 	2030.862
135.0	1.0	0.0	8.5728	-0.0844607	12.09142	16.91348	1.6914	36.54528	0.3451	3625.744	1427.29	9026.946
130.0	1.0	0.0	8.5744	-0.10309	12.07284	16.96972	1.71807	36.84989	0.3451	3486.662	27.8164	 
125.0	1.0	0.0	8.576	-0.12167	12.05426	17.0273	1.74555	37.15084	0.3451	3348.002	27.732	 
120.0	1.0	0.0	8.57759	-0.14019	12.03569	17.08628	1.77388	37.44813	0.3451	3209.759	27.6486	 
115.0	1.0	0.0	8.57917	-0.15866	12.01711	17.1467	1.80308	37.74179	0.3451	3071.927	27.5664	 
110.0	1.0	0.0	8.58076	-0.17707	11.99854	17.20864	1.83321	38.03183	0.3451	2934.502	27.485	 
105.0	1.0	0.0	8.58233	-0.19542	11.97996	17.27214	1.8643	38.31827	0.3451	2797.479	27.4046	 
100.0	1.0	0.0	8.58391	-0.21372	11.96139	17.33727	1.89641	38.60112	0.3451	2660.852	27.3254	 
95.0	1.0	0.0	8.58548	-0.23196	11.94282	17.40409	1.92957	38.88039	0.3451	2524.617	27.247	 
90.0	1.0	0.0	8.58704	-0.25015	11.92425	17.47266	1.96384	39.1561	0.3451	2388.767	27.17	 
85.0	1.0	0.0	8.5886	-0.26829	11.90567	17.54307	1.99928	39.42826	0.3451	2253.297	27.094	 
80.0	1.0	0.0	8.59016	-0.28636	11.8871	17.61539	2.03595	39.69688	0.3451	2118.201	27.0192	 
75.0	1.0	0.0	8.59171	-0.30439	11.86853	17.68969	2.0739	39.96197	0.3451	1983.473	26.9456	 
70.0	1.0	0.0	8.59326	-0.32235	11.84996	17.76607	2.1132	40.22355	0.3451	1849.108	26.873	 
65.0	1.0	0.0	8.59481	-0.34026	11.83139	17.84461	2.15393	40.48163	0.3451	1715.098	26.802	 
60.0	1.0	0.0	8.59635	-0.35812	11.81282	17.92541	2.19616	40.73621	0.3451	1581.438	26.732	 
55.0	1.0	0.0	8.59788	-0.37592	11.79426	18.00856	2.23996	40.98731	0.3451	1448.121	26.6634	 
50.0	1.0	0.0	8.59942	-0.39366	11.77569	18.09418	2.28543	41.23493	0.3451	1315.139	26.5964	 
45.0	1.0	0.0	8.60094	-0.41135	11.75712	18.18238	2.33267	41.47909	0.3451	1182.486	26.5306	 
40.0	1.0	0.0	8.60247	-0.42899	11.73856	18.27328	2.38176	41.71979	0.3451	1050.154	26.4664	 
35.0	1.0	0.0	8.60399	-0.44657	11.71998	18.367	2.43282	41.95704	0.3451	918.136	26.4036	 
30.0	1.0	0.0	8.6055	-0.46409	11.70143	18.46369	2.48596	42.19085	0.3451	786.424	26.3424	 
25.0	1.0	0.0	8.60701	-0.48156	 	18.56349	2.54132	42.42123	0.3451	655.009	 	 
