T (C)	Fraction solid (wt)-TOTAL	Fraction liquid (wt)-LIQUID	Density (g/(cm)^3)-TOTAL	Volume change (%)-  	Average expansion coeff. (10e-6 1/K)-  	Thermal conductivity (W/(m*K))-TOTAL	Electrical conductivity (10e6 1/(Ohm*m))-TOTAL	Young's modulus (GPa)-TOTAL	Poisson's ratio-TOTAL	Enthalpy (J/mole)-TOTAL	Specific heat (J/(mole K))-TOTAL	Latent heat (J/mole)-TOTAL
400.0	0.0	1.0	7.15345	0.0	43.78128	35.99756	2.18271	0.0	0.5	17817.566	 	0.0
395.0	0.0	1.0	7.15734	-0.0542539	43.86007	35.89596	2.19283	0.0	0.5	17675.243	28.4646	0.0
390.0	0.0	1.0	7.16121	-0.10835	43.94254	35.79441	2.20312	0.0	0.5	17532.868	28.475	0.0
385.0	0.0	1.0	7.16508	-0.16229	44.02885	35.69294	2.21356	0.0	0.5	17390.436	28.4864	0.0
380.0	0.0	1.0	7.16894	-0.21606	44.11915	35.59152	2.22417	0.0	0.5	17247.944	28.4984	0.0
375.0	0.0	1.0	7.1728	-0.26968	44.21362	35.49017	2.23494	0.0	0.5	17105.387	28.5114	0.0
370.0	0.0	1.0	7.17665	-0.32314	44.31243	35.38888	2.24589	0.0	0.5	16962.759	28.5256	0.0
365.0	0.0	1.0	7.18049	-0.37644	44.41579	35.28766	2.25701	0.0	0.5	16820.056	28.5406	0.0
360.0	0.0	1.0	7.18432	-0.42958	44.52389	35.1865	2.26831	0.0	0.5	16677.272	28.5568	0.0
355.0	0.0	1.0	7.18814	-0.48257	44.63695	35.0854	2.2798	0.0	0.5	16534.401	28.5742	0.0
350.0	0.0	1.0	7.19196	-0.53539	44.7552	34.98437	2.29148	0.0	0.5	16391.437	28.5928	0.0
345.0	0.0	1.0	7.19577	-0.58806	44.87888	34.8834	2.30334	0.0	0.5	16248.373	28.6128	0.0
340.0	0.0	1.0	7.19957	-0.64056	45.00825	34.7825	2.31541	0.0	0.5	16105.203	28.634	0.0
335.0	0.0	1.0	7.20337	-0.69291	45.14358	34.68166	2.32768	0.0	0.5	15961.919	28.6568	0.0
330.0	0.0	1.0	7.20716	-0.7451	45.28517	34.58088	2.34015	0.0	0.5	15818.513	28.6812	0.0
325.0	0.0	1.0	7.21094	-0.79713	45.43333	34.48017	2.35284	0.0	0.5	15674.978	28.707	0.0
320.0	0.0	1.0	7.21471	-0.849	45.5884	34.37952	2.36575	0.0	0.5	15531.305	28.7346	0.0
315.0	0.0	1.0	7.21847	-0.90072	45.75073	34.27893	2.37888	0.0	0.5	15387.486	28.7638	0.0
310.0	0.0	1.0	7.22223	-0.95227	45.92071	34.17841	2.39224	0.0	0.5	15243.51	28.7952	0.0
305.0	0.0	1.0	7.22598	-1.00367	46.09874	34.07795	2.40584	0.0	0.5	15099.368	28.8284	0.0
300.0	0.0	1.0	7.22972	-1.0549	46.28526	33.97756	2.41968	0.0	0.5	14955.049	28.8638	0.0
295.0	0.0	1.0	7.23346	-1.10598	46.48075	33.87722	2.43377	0.0	0.5	14810.543	28.9012	0.0
290.0	0.0	1.0	7.23718	-1.1569	46.68571	33.77696	2.44811	0.0	0.5	14665.839	28.9408	0.0
285.0	0.0	1.0	7.2409	-1.20766	46.9007	33.67675	2.46271	0.0	0.5	14520.924	28.983	0.0
280.0	0.0	1.0	7.24461	-1.25826	47.12629	33.57662	2.47758	0.0	0.5	14375.787	29.0274	0.0
275.0	0.0	1.0	7.24831	-1.3087	47.36312	33.47654	2.49273	0.0	0.5	14230.413	29.0748	0.0
270.0	0.0	1.0	7.25201	-1.35898	47.61189	33.37653	2.50816	0.0	0.5	14084.792	29.1242	0.0
265.0	0.0	1.0	7.2557	-1.40911	47.87334	33.27658	2.52388	0.0	0.5	13938.978	29.1628	0.0
260.0	0.0	1.0	7.25937	-1.45907	48.14828	33.1767	2.53991	0.0	0.5	13792.979	29.1998	0.0
255.0	0.0	1.0	7.26305	-1.50888	48.43759	33.07688	2.55624	0.0	0.5	13646.783	29.2392	0.0
250.0	0.0	1.0	7.26671	-1.55853	48.74223	32.97712	2.57289	0.0	0.5	13500.373	29.282	0.0
245.0	0.0	1.0	7.27036	-1.60802	49.06324	32.87743	2.58986	0.0	0.5	13353.734	29.3278	0.0
240.0	0.0	1.0	7.27401	-1.65735	49.40176	32.7778	2.60717	0.0	0.5	13206.849	29.377	0.0
235.0	0.0	1.0	7.27765	-1.70652	49.75904	32.67823	2.62483	0.0	0.5	13059.703	29.4292	0.0
230.0	0.0	1.0	7.28128	-1.75553	50.13647	32.57873	2.64284	0.0	0.5	12912.306	29.4794	0.0
225.0	0.0	1.0	7.2849	-1.80439	50.53554	32.47929	2.66122	0.0	0.5	12764.964	29.4684	0.0
220.0	0.0	1.0	7.28852	-1.85308	50.95793	32.37992	2.67997	0.0	0.5	12617.765	29.4398	0.0
215.0	0.0	1.0	7.29212	-1.90162	51.40547	32.28061	2.69912	0.0	0.5	12470.721	29.4088	0.0
210.0	0.0	1.0	7.29572	-1.95	51.88021	32.18136	2.71867	0.0	0.5	12323.845	29.3752	0.0
207.9	0.0	1.0	7.29723	-1.97031	52.08868	32.13961	2.72702	0.0	0.5	12262.082	29.35	0.0
205.0	0.0013	0.9987	7.30013	-2.00933	52.16848	32.00125	2.73172	5.0267E-11	0.49989	12153.923	37.3524	23.224
200.0	0.00345	0.99655	7.30507	-2.07491	52.34829	31.76738	2.74042	2.52369E-9	0.49971	11968.848	37.015	61.79
195.0	0.00549	0.99451	7.30993	-2.14071	52.53428	31.53914	2.74978	1.63017E-8	0.49953	11785.872	36.5952	98.456
191.93	0.00669	0.99331	7.31288	-2.18008	52.67665	31.40193	2.75592	3.61121E-8	0.49942	11674.413	 	120.076
190.0	0.0975705	0.90243	7.33178	-2.43238	47.94357	32.86792	2.89657	0.00222533	0.48702	10974.011	162.372	764.218
185.0	0.29035	0.70965	7.36982	-2.93616	38.42956	36.31152	3.23497	0.22527	0.46066	9490.83	296.636	2101.517
180.0	0.43115	0.56885	7.39594	-3.27931	31.92619	39.35721	3.545	1.18231	0.4414	8393.022	219.562	3053.67
175.0	0.539	0.461	7.41437	-3.5212	27.35033	42.16064	3.83988	3.01844	0.42668	7540.077	170.589	3761.195
170.0	0.62432	0.37568	7.42749	-3.69344	24.1388	44.71401	4.11838	5.59054	0.41512	6854.427	137.13	4301.67
165.0	0.69273	0.30727	7.43678	-3.81638	21.92953	47.01736	4.37995	8.64119	0.40594	6292.223	112.441	4718.949
160.0	0.74728	0.25272	7.44332	-3.90402	20.47127	49.03208	4.62036	11.86991	0.39869	5827.107	93.0232	5039.398
155.0	0.7901	0.2099	7.44791	-3.96736	19.55457	50.73664	4.83682	15.00462	0.39306	5439.703	77.4808	5282.405
150.0	0.82324	0.17676	7.45125	-4.0147	19.0121	52.1439	5.02971	17.86746	0.38873	5112.989	65.3428	5465.058
145.0	0.84879	0.15121	7.4538	-4.05219	18.7116	53.2936	5.20208	20.38577	0.38543	4831.975	56.2028	5602.377
140.0	0.86855	0.13145	7.45589	-4.08359	18.57004	54.23598	5.35813	22.56328	0.3829	4584.524	49.4902	5706.502
135.0	0.88398	0.11602	7.45772	-4.11168	18.52103	55.01716	5.50189	24.43831	0.38094	4361.52	44.6008	5786.554
130.0	0.89617	0.10383	7.45939	-4.13789	18.52989	55.67561	5.63679	26.05954	0.37939	4156.405	41.023	5849.099
125.0	0.90595	0.0940529	7.46099	-4.16305	18.57657	56.24031	5.76547	27.47183	0.37816	3964.544	38.3722	5898.775
120.0	0.91388	0.0861239	7.46256	-4.18757	18.65154	56.73337	5.88999	28.71413	0.37717	3782.669	36.375	5938.855
115.0	0.92039	0.0796132	7.46412	-4.21193	18.74091	57.17117	6.0119	29.81799	0.37635	3608.459	34.842	5971.663
110.0	0.92579	0.0742079	7.46569	-4.23612	18.84815	57.56595	6.1324	30.80845	0.37568	3440.246	33.6426	5998.871
105.0	0.93032	0.069676	7.46728	-4.26039	18.96493	57.92706	6.25247	31.70578	0.37512	3276.812	32.6868	6021.7
100.0	0.93416	0.0658431	7.46889	-4.28476	19.09315	58.26155	6.37283	32.52546	0.37465	3117.255	31.9114	6041.054
95.0	0.93743	0.0625732	7.47052	-4.30926	19.2327	58.57487	6.49412	33.28019	0.37424	2960.896	31.2718	6057.616
90.0	0.94024	0.0597649	7.47218	-4.33381	19.39112	58.87146	6.61687	33.98002	0.3739	2807.216	30.736	6071.907
85.0	0.94266	0.0573359	7.47387	-4.35854	19.56532	59.15467	6.74152	34.6332	0.3736	2655.811	30.281	6084.33
84.01	0.94311	0.0568941	7.47421	-4.36356	19.59734	59.20949	6.76653	34.75782	0.37354	2625.98	 	6086.603
80.0	0.94478	0.0552223	7.47558	-4.3834	19.76352	59.42677	6.86842	35.24623	0.37334	2506.33	29.8962	6095.239
75.84	0.94634	0.0536643	7.47702	-4.40409	19.95827	59.64689	6.97609	35.72988	0.37315	2383.195	 	6103.319
75.0	0.99169	0.00830738	7.47894	-4.42946	18.51759	60.5652	7.10053	40.90507	0.3686	2142.183	72.8294	6321.225
72.08	1.0	0.0	7.48099	-4.44579	18.45266	60.67372	7.17341	42.5326	0.36778	2021.797	 	6361.119
65.0	1.0	0.0	7.48395	-4.48367	18.40747	60.9217	7.35354	43.04735	0.36778	1804.561	33.7622	 
60.0	1.0	0.0	7.48604	-4.5103	18.37555	61.10166	7.48595	43.40524	0.36778	1667.293	27.4536	 
55.0	1.0	0.0	7.48812	-4.53684	18.34363	61.28584	7.62293	43.75847	0.36778	1530.463	27.366	 
50.0	1.0	0.0	7.4902	-4.5633	18.31172	61.47443	7.76469	44.10706	0.36778	1394.067	27.2792	 
45.0	1.0	0.0	7.49227	-4.58966	18.2798	61.66764	7.91151	44.451	0.36778	1258.101	27.1932	 
40.0	1.0	0.0	7.49433	-4.61593	18.24789	61.86568	8.06364	44.79029	0.36778	1122.56	27.1082	 
35.0	1.0	0.0	7.49639	-4.6421	18.21598	62.06878	8.22138	45.12494	0.36778	987.44	27.024	 
30.0	1.0	0.0	7.49844	-4.66819	18.18404	62.2772	8.38505	45.45495	0.36778	852.733	26.9414	 
25.0	1.0	0.0	7.50048	-4.69419	 	62.4912	8.55496	45.78032	0.36778	718.434	 	 
