T (C)	Fraction solid (wt)-TOTAL	Fraction liquid (wt)-LIQUID	Density (g/(cm)^3)-TOTAL	Volume change (%)-  	Average expansion coeff. (10e-6 1/K)-  	Thermal conductivity (W/(m*K))-TOTAL	Electrical conductivity (10e6 1/(Ohm*m))-TOTAL	Young's modulus (GPa)-TOTAL	Poisson's ratio-TOTAL	Enthalpy (J/mole)-TOTAL	Specific heat (J/(mole K))-TOTAL	Latent heat (J/mole)-TOTAL
400.0	0.0	1.0	7.90646	0.0	57.09808	33.25919	2.01667	0.0	0.5	18512.753	 	0.0
395.0	0.0	1.0	7.91075	-0.0542053	57.34997	33.16204	2.02582	0.0	0.5	18367.741	29.0024	0.0
390.0	0.0	1.0	7.91503	-0.10821	57.61073	33.06488	2.03512	0.0	0.5	18222.68	29.0122	0.0
385.0	0.0	1.0	7.91929	-0.16201	57.88074	32.96773	2.04455	0.0	0.5	18077.569	29.0222	0.0
380.0	0.0	1.0	7.92355	-0.2156	58.16039	32.87058	2.05413	0.0	0.5	17932.404	29.033	0.0
375.0	0.0	1.0	7.92779	-0.269	58.45007	32.77342	2.06386	0.0	0.5	17787.181	29.0446	0.0
370.0	0.0	1.0	7.93202	-0.32219	58.75025	32.67627	2.07374	0.0	0.5	17641.897	29.0568	0.0
365.0	0.0	1.0	7.93624	-0.37517	59.06137	32.57911	2.08377	0.0	0.5	17496.548	29.0698	0.0
360.0	0.0	1.0	7.94044	-0.42796	59.38392	32.48196	2.09397	0.0	0.5	17351.129	29.0838	0.0
355.0	0.0	1.0	7.94464	-0.48054	59.71844	32.38481	2.10432	0.0	0.5	17205.636	29.0986	0.0
350.0	0.0	1.0	7.94882	-0.53292	60.06546	32.28765	2.11484	0.0	0.5	17060.064	29.1144	0.0
345.0	0.0	1.0	7.95299	-0.58509	60.42557	32.1905	2.12553	0.0	0.5	16914.409	29.131	0.0
340.0	0.0	1.0	7.95715	-0.63707	60.79941	32.09334	2.1364	0.0	0.5	16768.665	29.1488	0.0
335.0	0.0	1.0	7.9613	-0.68884	61.18762	31.99619	2.14744	0.0	0.5	16622.828	29.1674	0.0
330.0	0.0	1.0	7.96544	-0.7404	61.59092	31.89903	2.15867	0.0	0.5	16476.89	29.1876	0.0
325.0	0.0	1.0	7.96956	-0.79177	62.01007	31.80188	2.17008	0.0	0.5	16330.864	29.2052	0.0
320.0	0.0	1.0	7.97367	-0.84293	62.44587	31.70473	2.18169	0.0	0.5	16184.851	29.2026	0.0
315.0	0.0	1.0	7.97777	-0.89389	62.89917	31.60757	2.1935	0.0	0.5	16038.857	29.1988	0.0
310.0	0.0	1.0	7.98186	-0.94464	63.37091	31.51042	2.2055	0.0	0.5	15892.875	29.1964	0.0
305.0	0.0	1.0	7.98594	-0.99519	63.86207	31.41326	2.21772	0.0	0.5	15746.894	29.1962	0.0
300.0	0.0	1.0	7.99	-1.04554	64.37371	31.31611	2.23015	0.0	0.5	15600.904	29.198	0.0
295.0	0.0	1.0	7.99405	-1.09569	64.90696	31.21896	2.24279	0.0	0.5	15454.894	29.202	0.0
290.0	0.0	1.0	7.99809	-1.14563	65.46305	31.1218	2.25566	0.0	0.5	15308.854	29.208	0.0
285.0	0.0	1.0	8.00212	-1.19537	66.0433	31.02465	2.26877	0.0	0.5	15162.772	29.2164	0.0
280.0	0.0	1.0	8.00613	-1.24491	66.64913	30.92749	2.28211	0.0	0.5	15016.637	29.227	0.0
275.0	0.0	1.0	8.01013	-1.29424	67.28207	30.83034	2.29569	0.0	0.5	14870.437	29.24	0.0
270.0	0.0	1.0	8.01412	-1.34337	67.94378	30.73319	2.30952	0.0	0.5	14724.16	29.2554	0.0
265.0	0.0	1.0	8.0181	-1.3923	68.63607	30.63603	2.32361	0.0	0.5	14577.794	29.2732	0.0
260.0	0.0	1.0	8.02206	-1.44103	69.36088	30.53888	2.33796	0.0	0.5	14431.324	29.294	0.0
255.0	0.0	1.0	8.02601	-1.48955	70.12033	30.44172	2.35259	0.0	0.5	14284.739	29.317	0.0
250.0	0.0	1.0	8.02995	-1.53787	70.91673	30.34457	2.36749	0.0	0.5	14138.024	29.343	0.0
245.0	0.0	1.0	8.03388	-1.58599	71.75261	30.24741	2.38269	0.0	0.5	13991.164	29.372	0.0
240.0	0.0	1.0	8.03779	-1.6339	72.63072	30.15026	2.39817	0.0	0.5	13844.144	29.404	0.0
235.0	0.0	1.0	8.04169	-1.68161	73.55407	30.05311	2.41397	0.0	0.5	13696.95	29.4388	0.0
230.0	0.0	1.0	8.04558	-1.72912	74.52597	29.95595	2.43007	0.0	0.5	13549.591	29.4718	0.0
225.0	0.0	1.0	8.04945	-1.77642	75.55007	29.8588	2.4465	0.0	0.5	13402.341	29.45	0.0
220.0	0.0	1.0	8.05332	-1.82352	76.63037	29.76164	2.46327	0.0	0.5	13255.28	29.4122	0.0
215.0	0.0	1.0	8.05717	-1.87042	77.77133	29.66449	2.48038	0.0	0.5	13108.419	29.3722	0.0
210.0	0.0	1.0	8.061	-1.91712	78.97785	29.56734	2.49784	0.0	0.5	12961.768	29.3302	0.0
207.25	0.0	1.0	8.06311	-1.94275	79.67231	29.51383	2.50761	0.0	0.5	12881.092	29.2964	0.0
205.0	0.0010	0.999	8.06539	-1.97088	80.11211	29.37183	2.50727	2.87437E-11	0.49989	12795.837	37.955	19.501
200.0	0.00313	0.99687	8.07039	-2.03206	81.16091	29.06405	2.50721	2.81218E-9	0.49966	12607.847	37.598	61.291
195.0	0.00515	0.99485	8.07534	-2.09174	82.30251	28.7666	2.50806	2.07345E-8	0.49944	12422.246	37.1202	100.932
190.0	0.00706	0.99294	8.08022	-2.15048	83.53358	28.47904	2.50979	7.37537E-8	0.49923	12238.949	36.6594	138.518
185.0	0.00887	0.99113	8.08498	-2.20869	84.85355	28.20127	2.51244	1.84729E-7	0.49903	12057.874	36.215	174.14
180.0	0.01058	0.98942	8.0897	-2.26561	86.28794	27.9327	2.51597	3.76373E-7	0.49885	11878.943	35.7862	207.884
178.57	0.01106	0.98894	8.09105	-2.28159	86.72183	27.85758	2.51714	4.48783E-7	0.4988	11828.183	 	217.195
177.46	0.04454	0.95546	8.10195	-2.41315	84.29161	28.27004	2.5607	6.34647E-5	0.49372	11508.502	 	504.72
177.46	1.0	0.0	8.32192	-4.99319	24.2597	47.98115	4.34612	30.07998	0.38085	5249.186	 	6764.036
170.0	1.0	0.0	8.32663	-5.04689	24.19428	48.13027	4.43304	30.66989	0.38085	5031.297	684.765	 
165.0	1.0	0.0	8.32977	-5.08272	24.15057	48.23179	4.49308	31.06034	0.38085	4885.775	29.1044	 
160.0	1.0	0.0	8.33291	-5.11842	24.10696	48.33464	4.55464	31.4469	0.38085	4740.643	29.0264	 
155.0	1.0	0.0	8.33603	-5.15399	24.06345	48.43887	4.61777	31.82959	0.38085	4595.902	28.9482	 
150.0	1.0	0.0	8.33915	-5.18944	24.02005	48.54453	4.68252	32.20841	0.38084	4451.555	28.8694	 
145.0	1.0	0.0	8.34226	-5.22476	23.97675	48.65168	4.74897	32.58338	0.38084	4307.602	28.7906	 
140.0	1.0	0.0	8.34536	-5.25995	23.93355	48.76036	4.81718	32.95449	0.38084	4164.044	28.7116	 
135.0	1.0	0.0	8.34845	-5.29502	23.89046	48.87064	4.88722	33.32175	0.38084	4020.883	28.6322	 
130.0	1.0	0.0	8.35153	-5.32997	23.84746	48.98258	4.95917	33.68517	0.38084	3878.12	28.5526	 
125.0	1.0	0.0	8.3546	-5.36479	23.80458	49.09624	5.0331	34.04476	0.38084	3735.754	28.4732	 
120.0	1.0	0.0	8.35767	-5.39948	23.76179	49.21168	5.10909	34.40052	0.38084	3593.787	28.3934	 
115.0	1.0	0.0	8.36072	-5.43406	23.71911	49.32899	5.18724	34.75246	0.38084	3452.22	28.3134	 
110.0	1.0	0.0	8.36377	-5.46851	23.67653	49.44823	5.26764	35.10057	0.38084	3311.052	28.2336	 
105.0	1.0	0.0	8.36681	-5.50284	23.63406	49.56948	5.35037	35.44487	0.38084	3170.285	28.1534	 
100.0	1.0	0.0	8.36984	-5.53705	23.59169	49.69282	5.43556	35.78537	0.38084	3029.917	28.0736	 
95.0	1.0	0.0	8.37286	-5.57113	23.54942	49.81835	5.5233	36.12205	0.38083	2889.949	27.9936	 
90.0	1.0	0.0	8.37587	-5.6051	23.50725	49.94614	5.61371	36.45494	0.38083	2750.38	27.9138	 
85.0	1.0	0.0	8.37887	-5.63894	23.46519	50.07631	5.70691	36.78402	0.38083	2611.211	27.8338	 
80.0	1.0	0.0	8.38187	-5.67266	23.42323	50.20894	5.80304	37.10932	0.38083	2472.44	27.7542	 
75.0	1.0	0.0	8.38486	-5.70627	23.38137	50.34415	5.90224	37.43082	0.38083	2334.066	27.6748	 
70.0	1.0	0.0	8.38784	-5.73975	23.33962	50.48206	6.00464	37.74853	0.38083	2196.088	27.5956	 
65.0	1.0	0.0	8.39081	-5.77312	23.29797	50.62277	6.11041	38.06246	0.38083	2058.505	27.5166	 
60.0	1.0	0.0	8.39377	-5.80637	23.25642	50.76643	6.21972	38.3726	0.38083	1921.314	27.4382	 
55.0	1.0	0.0	8.39672	-5.8395	23.21498	50.91315	6.33274	38.67897	0.38083	1784.515	27.3598	 
50.0	1.0	0.0	8.39967	-5.87251	23.17364	51.0631	6.44966	38.98156	0.38083	1648.103	27.2824	 
45.0	1.0	0.0	8.4026	-5.9054	23.1324	51.21642	6.57069	39.28037	0.38083	1512.078	27.205	 
40.0	1.0	0.0	8.40553	-5.93818	23.09127	51.37326	6.69605	39.57541	0.38082	1376.434	27.1288	 
35.0	1.0	0.0	8.40845	-5.97084	23.05024	51.53382	6.82597	39.86668	0.38082	1241.17	27.0528	 
30.0	1.0	0.0	8.41136	-6.00339	23.00928	51.69826	6.96069	40.15418	0.38082	1106.28	26.978	 
25.0	1.0	0.0	8.41426	-6.03582	 	51.86678	7.10049	40.43792	0.38082	971.76	 	 
