T (C)	Fraction solid (wt)-TOTAL	Fraction liquid (wt)-LIQUID	Density (g/(cm)^3)-TOTAL	Volume change (%)-  	Average expansion coeff. (10e-6 1/K)-  	Thermal conductivity (W/(m*K))-TOTAL	Electrical conductivity (10e6 1/(Ohm*m))-TOTAL	Young's modulus (GPa)-TOTAL	Poisson's ratio-TOTAL	Enthalpy (J/g)-TOTAL	Specific heat (J/(g K))-TOTAL	Latent heat (J/g)-TOTAL
400.0	0.0	1.0	6.9625	0.0	58.73116	38.49152	2.33393	0.0	0.5	155.726	 	0.0
395.0	0.0	1.0	6.96611	-0.051866	59.02669	38.37928	2.34454	0.0	0.5	154.518	0.2416	0.0
390.0	0.0	1.0	6.96971	-0.10356	59.33199	38.26701	2.3553	0.0	0.5	153.309	0.2418	0.0
385.0	0.0	1.0	6.97331	-0.15508	59.64747	38.1547	2.36623	0.0	0.5	152.101	0.2416	0.0
380.0	0.0	1.0	6.9769	-0.20643	59.97355	38.04235	2.37732	0.0	0.5	150.892	0.2418	0.0
375.0	0.0	1.0	6.98048	-0.25761	60.3107	37.92997	2.38859	0.0	0.5	149.683	0.2418	0.0
370.0	0.0	1.0	6.98405	-0.30862	60.6594	37.81755	2.40002	0.0	0.5	148.473	0.242	0.0
365.0	0.0	1.0	6.98761	-0.35945	61.02015	37.7051	2.41163	0.0	0.5	147.263	0.242	0.0
360.0	0.0	1.0	6.99117	-0.41011	61.39349	37.59261	2.42343	0.0	0.5	146.052	0.2422	0.0
355.0	0.0	1.0	6.99471	-0.4606	61.77999	37.48008	2.4354	0.0	0.5	144.84	0.2424	0.0
350.0	0.0	1.0	6.99825	-0.51092	62.18027	37.36751	2.44757	0.0	0.5	143.629	0.2422	0.0
345.0	0.0	1.0	7.00178	-0.56107	62.59497	37.25491	2.45993	0.0	0.5	142.416	0.2426	0.0
340.0	0.0	1.0	7.0053	-0.61104	63.02477	37.14226	2.4725	0.0	0.5	141.203	0.2426	0.0
335.0	0.0	1.0	7.00881	-0.66084	63.47041	37.02958	2.48526	0.0	0.5	139.988	0.243	0.0
330.0	0.0	1.0	7.01232	-0.71047	63.93267	36.91685	2.49823	0.0	0.5	138.774	0.2428	0.0
325.0	0.0	1.0	7.01581	-0.75993	64.41237	36.80409	2.51142	0.0	0.5	137.558	0.2432	0.0
320.0	0.0	1.0	7.0193	-0.80922	64.9104	36.69128	2.52483	0.0	0.5	136.341	0.2434	0.0
315.0	0.0	1.0	7.02278	-0.85833	65.42771	36.57843	2.53846	0.0	0.5	135.123	0.2436	0.0
310.0	0.0	1.0	7.02624	-0.90727	65.96532	36.46554	2.55233	0.0	0.5	133.904	0.2438	0.0
305.0	0.0	1.0	7.0297	-0.95604	66.52431	36.35261	2.56643	0.0	0.5	132.684	0.244	0.0
300.0	0.0	1.0	7.03315	-1.00464	67.10586	36.23963	2.58077	0.0	0.5	131.462	0.2444	0.0
295.0	0.0	1.0	7.0366	-1.05307	67.7112	36.12661	2.59536	0.0	0.5	130.239	0.2446	0.0
290.0	0.0	1.0	7.04003	-1.10132	68.34169	36.01354	2.61021	0.0	0.5	129.015	0.2448	0.0
285.0	0.0	1.0	7.04345	-1.14941	68.99879	35.90042	2.62532	0.0	0.5	127.789	0.2452	0.0
280.0	0.0	1.0	7.04687	-1.19732	69.68405	35.78726	2.6407	0.0	0.5	126.561	0.2456	0.0
275.0	0.0	1.0	7.05028	-1.24505	70.39916	35.67405	2.65636	0.0	0.5	125.332	0.2458	0.0
270.0	0.0	1.0	7.05367	-1.29262	71.14596	35.5608	2.6723	0.0	0.5	124.1	0.2464	0.0
265.0	0.0	1.0	7.05706	-1.34001	71.92642	35.44749	2.68854	0.0	0.5	122.867	0.2466	0.0
260.0	0.0	1.0	7.06044	-1.38724	72.74269	35.33413	2.70507	0.0	0.5	121.632	0.247	0.0
255.0	0.0	1.0	7.06381	-1.43429	73.59711	35.22072	2.72192	0.0	0.5	120.395	0.2474	0.0
250.0	0.0	1.0	7.06717	-1.48117	74.49222	35.10726	2.73908	0.0	0.5	119.155	0.248	0.0
245.0	0.0	1.0	7.07053	-1.52787	75.4308	34.99375	2.75657	0.0	0.5	117.913	0.2484	0.0
240.0	0.0	1.0	7.07387	-1.57441	76.41587	34.88018	2.7744	0.0	0.5	116.668	0.249	0.0
235.0	0.0	1.0	7.0772	-1.62077	77.45076	34.76656	2.79257	0.0	0.5	115.421	0.2494	0.0
231.66	0.0	1.0	7.07942	-1.65161	78.17085	34.6907	2.80489	0.0	0.5	114.587	0.24996	0.0
230.0	6.9E-4	0.99931	7.08075	-1.66998	78.48684	34.62283	2.80866	1.16907E-11	0.49992	114.065	0.3138	0.131
225.0	0.00268	0.99732	7.08473	-1.72546	79.46324	34.42213	2.8204	2.72491E-9	0.49966	112.508	0.3114	0.512
220.0	0.00457	0.99543	7.08866	-1.78013	80.50446	34.22682	2.83284	2.31129E-8	0.49942	110.967	0.3082	0.873
218.69	0.00505	0.99495	7.08968	-1.79427	80.79105	34.17642	2.83622	3.44801E-8	0.49936	110.565	 	0.964
217.35	0.11097	0.88903	7.11436	-2.13495	75.05912	36.20071	3.01241	0.00374542	0.48468	104.164	 	7.022
215.0	0.75736	0.24264	7.27094	-4.24496	36.52317	49.33224	4.12488	10.94807	0.39436	63.542	9.485	47.116
210.0	0.95526	0.044738	7.32048	-4.90691	24.79512	55.33229	4.67445	29.27556	0.36605	50.05	2.6984	59.282
205.0	0.98267	0.0173313	7.32858	-5.02748	23.10359	56.34176	4.8095	33.40896	0.36211	47.091	0.5918	60.972
200.0	0.99245	0.00754636	7.3324	-5.09296	22.43407	56.78832	4.89885	35.33076	0.3607	45.219	0.3744	61.587
195.0	0.99724	0.00276104	7.335	-5.14303	22.04738	57.07085	4.9758	36.57553	0.36001	43.658	0.3122	61.897
190.0	1.0	0.0	7.33712	-5.1869	21.77064	57.28603	5.04848	37.53462	0.3596	42.226	0.2864	62.084
185.0	1.0	0.0	7.33962	-5.21923	21.73285	57.38296	5.11222	38.07121	0.3596	40.363	0.3726	 
180.0	1.0	0.0	7.34211	-5.25146	21.69506	57.48165	5.17751	38.60222	0.3596	39.108	0.251	 
175.0	1.0	0.0	7.3446	-5.28358	21.65727	57.58218	5.24443	39.12765	0.35959	37.856	0.2504	 
170.0	1.0	0.0	7.34709	-5.31559	21.61947	57.6846	5.31304	39.64751	0.35959	36.608	0.2496	 
165.0	1.0	0.0	7.34956	-5.3475	21.58168	57.78898	5.38339	40.16184	0.35958	35.363	0.249	 
160.0	1.0	0.0	7.35203	-5.3793	21.54389	57.89538	5.45556	40.67062	0.35958	34.122	0.2482	 
155.0	1.0	0.0	7.3545	-5.411	21.50611	58.00389	5.52962	41.17389	0.35957	32.885	0.2474	 
150.0	1.0	0.0	7.35696	-5.44259	21.46832	58.11457	5.60563	41.67164	0.35957	31.652	0.2466	 
145.0	1.0	0.0	7.35941	-5.47407	21.43053	58.22751	5.68369	42.16389	0.35957	30.422	0.246	 
140.0	1.0	0.0	7.36185	-5.50545	21.39275	58.34278	5.76386	42.65065	0.35956	29.196	0.2452	 
135.0	1.0	0.0	7.36429	-5.53672	21.35496	58.46048	5.84624	43.13192	0.35956	27.974	0.2444	 
130.0	1.0	0.0	7.36672	-5.56788	21.31718	58.5807	5.93092	43.60773	0.35955	26.756	0.2436	 
125.0	1.0	0.0	7.36914	-5.59894	21.27939	58.70353	6.01799	44.07807	0.35955	25.542	0.2428	 
120.0	1.0	0.0	7.37156	-5.62989	21.24162	58.82907	6.10756	44.54295	0.35954	24.331	0.2422	 
115.0	1.0	0.0	7.37397	-5.66073	21.20383	58.95744	6.19973	45.00239	0.35954	23.124	0.2414	 
110.0	1.0	0.0	7.37637	-5.69147	21.16605	59.08873	6.29462	45.45638	0.35954	21.921	0.2406	 
105.0	1.0	0.0	7.37877	-5.7221	21.12827	59.22308	6.39235	45.90494	0.35953	20.722	0.2398	 
100.0	1.0	0.0	7.38116	-5.75263	21.0905	59.3606	6.49305	46.34808	0.35953	19.527	0.239	 
95.0	1.0	0.0	7.38354	-5.78305	21.05272	59.50142	6.59685	46.7858	0.35952	18.335	0.2384	 
90.0	1.0	0.0	7.38592	-5.81336	21.01494	59.64568	6.70389	47.2181	0.35952	17.147	0.2376	 
85.0	1.0	0.0	7.38829	-5.84357	20.97717	59.79353	6.81433	47.64499	0.35952	15.964	0.2366	 
80.0	1.0	0.0	7.39065	-5.87367	20.93939	59.94511	6.92833	48.06649	0.35951	14.784	0.236	 
75.0	1.0	0.0	7.393	-5.90366	20.90162	60.1006	7.04606	48.48259	0.35951	13.607	0.2354	 
70.0	1.0	0.0	7.39535	-5.93355	20.86385	60.26017	7.16771	48.89329	0.3595	12.435	0.2344	 
65.0	1.0	0.0	7.3977	-5.96333	20.82608	60.42398	7.29346	49.29861	0.3595	11.266	0.2338	 
60.0	1.0	0.0	7.40003	-5.993	20.78831	60.59225	7.42354	49.69855	0.35949	10.101	0.233	 
55.0	1.0	0.0	7.40236	-6.02257	20.75054	60.76517	7.55816	50.09312	0.35949	8.94	0.2322	 
50.0	1.0	0.0	7.40468	-6.05204	20.71277	60.94295	7.69756	50.48231	0.35949	7.783	0.2314	 
45.0	1.0	0.0	7.407	-6.08139	20.67499	61.12584	7.842	50.86613	0.35948	6.629	0.2308	 
40.0	1.0	0.0	7.4093	-6.11064	20.63724	61.31407	7.99175	51.24459	0.35948	5.479	0.23	 
35.0	1.0	0.0	7.4116	-6.13979	20.59945	61.50791	8.14709	51.61769	0.35947	4.333	0.2292	 
30.0	1.0	0.0	7.4139	-6.16882	20.5617	61.70763	8.30836	51.98543	0.35947	3.19	0.2286	 
25.0	1.0	0.0	7.41618	-6.19775	 	61.91352	8.47588	52.34782	0.35946	2.051	 	 
