T (C)	Fraction solid (wt)-TOTAL	Fraction liquid (wt)-LIQUID	Density (g/(cm)^3)-TOTAL	Molar volume (cm^3)-TOTAL	Volume change (%)-  	Average expansion coeff. (10e-6 1/K)-  	Thermal conductivity (W/(m*K))-TOTAL	Electrical resistivity (10e-6 Ohm*m)-TOTAL	Electrical conductivity (10e6 1/(Ohm*m))-TOTAL	Young's modulus (GPa)-TOTAL	Bulk modulus (GPa)-TOTAL	Shear modulus(GPa)-TOTAL	Poisson's ratio-TOTAL	Liquid viscosity (mPa s)-  	Total viscosity (mPa s)-  	Liquid diffusivity (10e-9 (m^2)/s)-  	Total diffusivity (10e-9 (m^2)/s)-  	Surface Tension (mN/m)-  	Enthalpy (J/mole)-TOTAL	Specific heat (J/(mole K))-TOTAL	Latent heat (J/mole)-TOTAL
1500.0	0.0	1.0	7.09663	7.82397	0.0	26.68506	30.52742	1.89266	0.52836	0.0	111.1455	0.0	0.4969	6.89338	6.89338	1.25545	1.25545	1765.02384	65535.88	 	0.0
1495.0	0.0	1.0	7.10054	7.81967	-0.054975	26.63644	30.45661	1.89171	0.52862	0.0	111.33366	0.0	0.4969	6.95571	6.95571	1.24069	1.24069	1766.79955	65315.686	44.0388	0.0
1490.0	0.0	1.0	7.10443	7.81538	-0.10979	26.58789	30.38579	1.89076	0.52889	0.0	111.52181	0.0	0.4969	7.01895	7.01895	1.22604	1.22604	1768.57312	65095.917	43.9538	0.0
1485.0	0.0	1.0	7.10832	7.8111	-0.16446	26.5394	30.31498	1.8898	0.52916	0.0	111.70997	0.0	0.4969	7.08314	7.08314	1.21148	1.21148	1770.34452	64876.571	43.8692	0.0
1480.0	0.0	1.0	7.11221	7.80684	-0.21897	26.49098	30.24417	1.88884	0.52943	0.0	111.89812	0.0	0.4969	7.14828	7.14828	1.19703	1.19703	1772.11374	64657.646	43.785	0.0
1475.0	0.0	1.0	7.11608	7.80259	-0.27332	26.44263	30.17335	1.88787	0.5297	0.0	112.08627	0.0	0.4969	7.2144	7.2144	1.18267	1.18267	1773.88074	64439.139	43.7014	0.0
1470.0	0.0	1.0	7.11995	7.79835	-0.32752	26.39434	30.10254	1.8869	0.52997	0.0	112.27443	0.0	0.4969	7.28152	7.28152	1.16842	1.16842	1775.6455	64221.048	43.6182	0.0
1465.0	0.0	1.0	7.12381	7.79412	-0.38156	26.34612	30.03173	1.88593	0.53024	0.0	112.46258	0.0	0.4969	7.34965	7.34965	1.15427	1.15427	1777.40801	64003.371	43.5354	0.0
1460.0	0.0	1.0	7.12767	7.7899	-0.43545	26.29796	29.96092	1.88495	0.53052	0.0	112.65074	0.0	0.4969	7.41882	7.41882	1.14022	1.14022	1779.16822	63786.106	43.453	0.0
1455.0	0.0	1.0	7.13152	7.7857	-0.48918	26.24988	29.8901	1.88396	0.5308	0.0	112.83889	0.0	0.4969	7.48904	7.48904	1.12627	1.12627	1780.92613	63569.25	43.3712	0.0
1450.0	0.0	1.0	7.13536	7.78151	-0.54275	26.20186	29.81929	1.88297	0.53108	0.0	113.02705	0.0	0.4969	7.56035	7.56035	1.11242	1.11242	1782.68169	63352.853	43.2794	0.0
1445.0	0.0	1.0	7.13919	7.77733	-0.59617	26.15392	29.74848	1.88198	0.53136	0.0	113.2152	0.0	0.4969	7.63275	7.63275	1.09867	1.09867	1784.43489	63136.997	43.1712	0.0
1440.0	0.0	1.0	7.14302	7.77316	-0.64944	26.10604	29.67766	1.88098	0.53164	0.0	113.40335	0.0	0.4969	7.70628	7.70628	1.08502	1.08502	1786.1857	62921.669	43.0656	0.0
1435.0	0.0	1.0	7.14684	7.769	-0.70254	26.05824	29.60685	1.87997	0.53192	0.0	113.59151	0.0	0.4969	7.78095	7.78095	1.07147	1.07147	1787.93409	62706.867	42.9604	0.0
1430.0	0.0	1.0	7.15065	7.76486	-0.7555	26.01051	29.53604	1.87896	0.53221	0.0	113.77966	0.0	0.4969	7.85679	7.85679	1.05802	1.05802	1789.68003	62492.587	42.856	0.0
1425.0	0.0	1.0	7.15446	7.76073	-0.80829	25.96285	29.46522	1.87795	0.5325	0.0	113.96782	0.0	0.4969	7.93382	7.93382	1.04467	1.04467	1791.4235	62278.827	42.752	0.0
1420.0	0.0	1.0	7.15826	7.75661	-0.86094	25.91527	29.39441	1.87693	0.53278	0.0	114.15597	0.0	0.4969	8.01207	8.01207	1.03142	1.03142	1793.16447	62065.584	42.6486	0.0
1415.0	0.0	1.0	7.16205	7.75251	-0.91342	25.86776	29.3236	1.87591	0.53308	0.0	114.34413	0.0	0.4969	8.09156	8.09156	1.01828	1.01828	1794.9029	61852.853	42.5462	0.0
1410.0	0.0	1.0	7.16584	7.74841	-0.96575	25.82032	29.25278	1.87488	0.53337	0.0	114.53228	0.0	0.4969	8.17232	8.17232	1.00523	1.00523	1796.63877	61640.633	42.444	0.0
1405.0	0.0	1.0	7.16961	7.74433	-1.01793	25.77297	29.18197	1.87385	0.53366	0.0	114.72043	0.0	0.4969	8.25437	8.25437	0.99228	0.99228	1798.37205	61428.92	42.3426	0.0
1400.0	0.0	1.0	7.17338	7.74026	-1.06995	25.72569	29.11116	1.87281	0.53396	0.0	114.90859	0.0	0.4969	8.33774	8.33774	0.97943	0.97943	1800.1027	61217.71	42.242	0.0
1395.0	0.0	1.0	7.17715	7.7362	-1.12182	25.67848	29.04034	1.87176	0.53426	0.0	115.09674	0.0	0.4969	8.42247	8.42247	0.96668	0.96668	1801.83071	61007.001	42.1418	0.0
1393.05	0.0	1.0	7.17861	7.73462	-1.14198	25.66012	29.01276	1.87136	0.53437	0.0	115.17005	0.0	0.4969	8.45585	8.45585	0.96174	0.96174	1802.50321	60925.069	42.06	0.0
1390.0	0.11294	0.88706	7.19358	7.71854	-1.34753	25.15626	29.2643	1.85187	0.53999	0.0142052	114.43292	0.00479586	0.48098	8.51172	12.44039	0.95368	0.65251	1801.51988	59508.801	464.043	1287.987
1385.0	0.26789	0.73211	7.21447	7.69622	-1.63276	24.46712	29.61085	1.8247	0.54804	0.45677	113.42007	0.15654	0.45893	8.60424	98.08312	0.94058	0.0825118	1800.00393	57533.963	394.968	3053.11
1380.0	0.38914	0.61086	7.23136	7.67828	-1.86205	23.92673	29.87993	1.80281	0.55469	2.06061	112.65491	0.71475	0.44148	8.69809	418.78808	0.92763	0.0192666	1798.57601	55943.222	318.148	4434.628
1375.0	0.48553	0.51447	7.2453	7.66344	-2.0518	23.4915	30.08945	1.78484	0.56027	5.05108	112.07844	1.76925	0.42746	8.7933	1053.41594	0.91481	0.00763631	1797.23524	54635.214	261.602	5533.903
1370.0	0.56327	0.43673	7.25706	7.65106	-2.21004	23.14035	30.25268	1.76983	0.56503	9.24017	111.65105	3.26267	0.41605	8.88988	2006.5884	0.90213	0.00399674	1795.9749	53538.967	219.249	6421.903
1367.71	0.59254	0.40746	7.26168	7.64621	-2.27199	23.00779	30.31048	1.764	0.56689	11.36298	111.51109	4.02452	0.41172	8.93463	2519.21554	0.89636	0.00317903	1795.41125	53108.009	 	6757.822
1365.0	0.64285	0.35715	7.26955	7.63798	-2.37718	22.76182	30.4985	1.75022	0.57136	14.34074	111.10026	5.10625	0.40423	8.96482	3535.12875	0.89186	0.0022617	1794.10274	52456.094	216.575	7297.014
1360.0	0.71876	0.28124	7.28211	7.62485	-2.54496	22.37867	30.76977	1.7295	0.5782	20.13331	110.55466	7.22734	0.39286	9.01999	5726.23097	0.8837	0.00139202	1791.87381	51421.507	206.917	8124.319
1355.0	0.77596	0.22404	7.29247	7.61415	-2.68183	22.07929	30.95646	1.7138	0.5835	26.03429	110.23665	9.40403	0.38421	9.07566	8139.43154	0.87559	9.76308E-4	1789.80647	50573.726	169.556	8765.298
1350.0	0.82035	0.17965	7.30137	7.60499	-2.79883	21.83349	31.08407	1.70153	0.58771	32.30014	110.07208	11.72477	0.37743	9.13197	10696.55322	0.86752	7.4063E-4	1787.8875	49854.15	143.915	9278.547
1345.0	0.85571	0.14429	7.30932	7.59691	-2.90207	21.6247	31.16974	1.69162	0.59115	39.28137	110.0147	14.3156	0.37198	9.18915	13365.58206	0.85947	5.90905E-4	1786.09943	49225.187	125.793	9701.656
1340.0	0.88455	0.11545	7.31663	7.58955	-2.99614	21.44034	31.22484	1.68342	0.59403	47.20381	110.03344	17.25938	0.36748	9.2477	16141.26698	0.85139	4.8778E-4	1784.42951	48661.93	112.651	10059.531
1335.0	0.9086	0.0914036	7.32354	7.58264	-3.08453	21.27068	31.2573	1.67646	0.5965	56.00677	110.1073	20.53502	0.36369	9.30688	19037.43327	0.84335	4.12292E-4	1782.86964	48147.219	102.942	10369.328
1330.0	0.929	0.0710046	7.3302	7.57604	-3.16893	21.11115	31.27242	1.67044	0.59865	65.23381	110.22255	23.9754	0.36043	9.36764	22069.34001	0.83528	3.54545E-4	1781.40577	47669.576	95.5286	10642.522
1325.0	0.94661	0.0533888	7.33674	7.56962	-3.25097	20.95716	31.27408	1.66514	0.60055	74.22963	110.36903	27.33889	0.35758	9.42966	25261.49338	0.8272	3.08777E-4	1780.02869	47220.437	89.8278	10887.675
1320.0	0.96211	0.037891	7.34324	7.56327	-3.33203	20.80477	31.26509	1.66041	0.60226	82.42022	110.53904	30.41241	0.35504	9.49302	28645.80454	0.8191	2.71445E-4	1778.73092	46793.136	85.4602	11111.451
1315.0	0.97595	0.0240494	7.34979	7.55694	-3.41303	20.6514	31.24726	1.65614	0.60381	89.50693	110.72723	33.0835	0.35274	9.55815	32253.37186	0.81097	2.40327E-4	1777.50405	46383.018	82.0236	11318.502
1310.0	0.98849	0.0115093	7.35643	7.55054	-3.49473	20.4948	31.22177	1.65228	0.60523	95.55012	110.92958	35.37242	0.35063	9.62518	36117.83701	0.80279	2.13938E-4	1776.34002	45986.53	79.2976	11512.377
1305.0	1.0	0.0	7.36322	7.54404	-3.57782	20.33292	31.18919	1.64878	0.60651	100.91978	111.143	37.41473	0.34866	 	40275.64854	 	1.91246E-4	 	45600.92	77.122	11695.829
1300.0	1.0	0.0	7.36585	7.54135	-3.6123	20.31186	31.11942	1.64724	0.60708	101.33065	111.4583	37.57224	0.34848	 	42942.95404	 	1.78799E-4	 	45354.198	49.3444	 
1295.0	1.0	0.0	7.36849	7.53865	-3.64672	20.29082	31.04965	1.64569	0.60765	101.74135	111.77265	37.72974	0.34829	 	45805.77096	 	1.67091E-4	 	45160.807	38.6782	 
1290.0	1.0	0.0	7.37111	7.53596	-3.68108	20.26981	30.97988	1.64414	0.60822	102.15187	112.08603	37.88721	0.3481	 	48879.76422	 	1.56084E-4	 	44967.733	38.6148	 
1285.0	1.0	0.0	7.37374	7.53328	-3.71537	20.24881	30.91011	1.64258	0.6088	102.56223	112.39846	38.04466	0.34792	 	52181.95797	 	1.45739E-4	 	44774.992	38.5482	 
1280.0	1.0	0.0	7.37636	7.5306	-3.7496	20.22784	30.84034	1.64101	0.60938	102.97241	112.70994	38.2021	0.34773	 	55730.86238	 	1.3602E-4	 	44582.58	38.4824	 
1275.0	1.0	0.0	7.37898	7.52793	-3.78376	20.20688	30.77057	1.63944	0.60996	103.38241	113.02045	38.3595	0.34755	 	59546.61308	 	1.26894E-4	 	44390.497	38.4166	 
1270.0	1.0	0.0	7.3816	7.52526	-3.81787	20.18595	30.70079	1.63786	0.61055	103.79223	113.33001	38.51689	0.34736	 	63651.12459	 	1.18328E-4	 	44198.741	38.3512	 
1265.0	1.0	0.0	7.38421	7.5226	-3.85191	20.16504	30.63102	1.63627	0.61115	104.20186	113.63862	38.67425	0.34717	 	68068.25919	 	1.10291E-4	 	44007.312	38.2858	 
1260.0	1.0	0.0	7.38682	7.51994	-3.88588	20.14414	30.56124	1.63467	0.61174	104.61131	113.94627	38.83159	0.34699	 	72824.01296	 	1.02754E-4	 	43816.21	38.2204	 
1255.0	1.0	0.0	7.38943	7.51729	-3.91979	20.12327	30.49146	1.63307	0.61234	105.02057	114.25297	38.98889	0.3468	 	77946.72078	 	9.56874E-5	 	43625.434	38.1552	 
1250.0	1.0	0.0	7.39203	7.51464	-3.95364	20.10242	30.42168	1.63146	0.61295	105.42964	114.55871	39.14617	0.34661	 	83467.28236	 	8.90662E-5	 	43434.985	38.0898	 
1245.0	1.0	0.0	7.39463	7.512	-3.98743	20.0816	30.3519	1.62985	0.61356	105.83851	114.8635	39.30343	0.34643	 	89419.41165	 	8.28647E-5	 	43244.861	38.0248	 
1240.0	1.0	0.0	7.39723	7.50936	-4.02116	20.06079	30.28212	1.62822	0.61417	106.24719	115.16734	39.46065	0.34624	 	95839.91209	 	7.70588E-5	 	43055.057	37.9608	 
1235.0	1.0	0.0	7.39983	7.50672	-4.05482	20.04	30.21234	1.62659	0.61478	106.65567	115.47023	39.61784	0.34606	 	102768.9806	 	7.16258E-5	 	42865.568	37.8978	 
1230.0	1.0	0.0	7.40242	7.50409	-4.08842	20.01924	30.14256	1.62495	0.6154	107.06394	115.77217	39.775	0.34587	 	110250.5438	 	6.65439E-5	 	42676.394	37.8348	 
1225.0	1.0	0.0	7.40501	7.50147	-4.12195	19.99849	30.07277	1.6233	0.61603	107.47201	116.07316	39.93213	0.34568	 	118332.629	 	6.17927E-5	 	42487.534	37.772	 
1220.0	1.0	0.0	7.40759	7.49885	-4.15543	19.97777	30.00298	1.62165	0.61666	107.87987	116.37319	40.08922	0.3455	 	127067.7758	 	5.73528E-5	 	42298.987	37.7094	 
1215.0	1.0	0.0	7.41018	7.49624	-4.18884	19.95706	29.9332	1.61999	0.61729	108.28752	116.67228	40.24628	0.34531	 	136513.4905	 	5.32057E-5	 	42110.753	37.6468	 
1210.0	1.0	0.0	7.41276	7.49363	-4.22219	19.93638	29.86341	1.61832	0.61793	108.69496	116.97042	40.4033	0.34512	 	146732.7506	 	4.93338E-5	 	41922.831	37.5844	 
1205.0	1.0	0.0	7.41534	7.49102	-4.25548	19.91572	29.79361	1.61664	0.61857	109.10219	117.26761	40.56029	0.34494	 	157794.5626	 	4.57207E-5	 	41735.22	37.5222	 
1200.0	1.0	0.0	7.41791	7.48842	-4.28871	19.89508	29.72382	1.61495	0.61921	109.50919	117.56386	40.71724	0.34475	 	169774.5822	 	4.23507E-5	 	41547.919	37.4602	 
1195.0	1.0	0.0	7.42048	7.48583	-4.32187	19.87446	29.65403	1.61326	0.61986	109.91598	117.85916	40.87415	0.34457	 	182755.8006	 	3.9209E-5	 	41360.928	37.3982	 
1190.0	1.0	0.0	7.42305	7.48324	-4.35497	19.85386	29.58423	1.61156	0.62052	110.32254	118.15351	41.03102	0.34438	 	196829.3082	 	3.62815E-5	 	41174.247	37.3362	 
1185.0	1.0	0.0	7.42561	7.48065	-4.38801	19.83328	29.51444	1.60985	0.62118	110.72888	118.44692	41.18785	0.34419	 	212095.1419	 	3.35551E-5	 	40987.874	37.2746	 
1180.0	1.0	0.0	7.42818	7.47807	-4.42099	19.81272	29.44464	1.60813	0.62184	111.13499	118.73938	41.34464	0.34401	 	228663.2277	 	3.10171E-5	 	40801.809	37.213	 
1175.0	1.0	0.0	7.43074	7.4755	-4.45391	19.79219	29.37484	1.60641	0.62251	111.54086	119.0309	41.50139	0.34382	 	246654.4283	 	2.86557E-5	 	40616.05	37.1518	 
1170.0	1.0	0.0	7.43329	7.47293	-4.48676	19.77167	29.30504	1.60467	0.62318	111.94651	119.32147	41.65809	0.34363	 	266201.7105	 	2.64598E-5	 	40430.599	37.0902	 
1165.0	1.0	0.0	7.43584	7.47036	-4.51956	19.75118	29.23524	1.60293	0.62386	112.35192	119.61111	41.81475	0.34345	 	287451.4438	 	2.44189E-5	 	40245.453	37.0292	 
1160.0	1.0	0.0	7.43839	7.4678	-4.55229	19.73071	29.16544	1.60118	0.62454	112.75708	119.8998	41.97137	0.34326	 	310564.8488	 	2.2523E-5	 	40060.612	36.9682	 
1155.0	1.0	0.0	7.44094	7.46524	-4.58496	19.71025	29.09563	1.59942	0.62522	113.16201	120.18755	42.12793	0.34308	 	335719.6123	 	2.07627E-5	 	39876.075	36.9074	 
1150.0	1.0	0.0	7.44349	7.46269	-4.61757	19.68982	29.02583	1.59766	0.62592	113.5667	120.47436	42.28445	0.34289	 	363111.6887	 	1.91292E-5	 	39691.842	36.8466	 
1145.0	1.0	0.0	7.44603	7.46015	-4.65012	19.66941	28.95602	1.59588	0.62661	113.97114	120.76022	42.44093	0.3427	 	392957.3125	 	1.76142E-5	 	39507.911	36.7862	 
1140.0	1.0	0.0	7.44856	7.45761	-4.68261	19.64902	28.88621	1.5941	0.62731	114.37533	121.04515	42.59735	0.34252	 	425495.2472	 	1.62099E-5	 	39324.283	36.7256	 
1135.0	1.0	0.0	7.4511	7.45507	-4.71504	19.62865	28.8164	1.59231	0.62802	114.77927	121.32914	42.75372	0.34233	 	460989.2987	 	1.49089E-5	 	39140.957	36.6652	 
1130.0	1.0	0.0	7.45363	7.45254	-4.7474	19.6083	28.74659	1.59051	0.62873	115.18295	121.6122	42.91004	0.34214	 	499731.1288	 	1.37042E-5	 	38957.931	36.6052	 
1125.0	1.0	0.0	7.45616	7.45001	-4.77971	19.58798	28.67678	1.5887	0.62945	115.58638	121.89431	43.06631	0.34196	 	542043.4049	 	1.25894E-5	 	38775.205	36.5452	 
1120.0	1.0	0.0	7.45869	7.44749	-4.81196	19.56767	28.60696	1.58688	0.63017	115.98955	122.17549	43.22253	0.34177	 	588283.3289	 	1.15584E-5	 	38592.779	36.4852	 
1115.0	1.0	0.0	7.46121	7.44497	-4.84414	19.54738	28.53714	1.58505	0.63089	116.39246	122.45573	43.37869	0.34159	 	638846.5949	 	1.06054E-5	 	38410.651	36.4256	 
1110.0	1.0	0.0	7.46373	7.44245	-4.87626	19.52712	28.46733	1.58322	0.63163	116.79511	122.73504	43.5348	0.3414	 	694171.8286	 	9.72499E-6	 	38228.822	36.3658	 
1105.0	1.0	0.0	7.46625	7.43995	-4.90833	19.50688	28.39751	1.58137	0.63236	117.19749	123.01342	43.69085	0.34121	 	754745.5729	 	8.91215E-6	 	38047.289	36.3066	 
1100.0	1.0	0.0	7.46876	7.43744	-4.94033	19.48665	28.32769	1.57952	0.6331	117.5996	123.29085	43.84685	0.34103	 	821107.8902	 	8.16215E-6	 	37866.053	36.2472	 
1095.0	1.0	0.0	7.47127	7.43494	-4.97227	19.46645	28.25786	1.57766	0.63385	118.00144	123.56736	44.00278	0.34084	 	893858.6614	 	7.47053E-6	 	37685.113	36.188	 
1090.0	1.0	0.0	7.47378	7.43245	-5.00416	19.44627	28.18804	1.57578	0.63461	118.40301	123.84294	44.15866	0.34065	 	973664.6745	 	6.83315E-6	 	37504.468	36.129	 
1085.0	1.0	0.0	7.47628	7.42996	-5.03598	19.42611	28.11822	1.5739	0.63536	118.8043	124.11758	44.31448	0.34047	 	1061267.608	 	6.24611E-6	 	37324.117	36.0702	 
1080.0	1.0	0.0	7.47878	7.42747	-5.06774	19.40597	28.04839	1.57201	0.63613	119.20531	124.39129	44.47024	0.34028	 	1157493.026	 	5.70577E-6	 	37144.06	36.0114	 
1075.0	1.0	0.0	7.48128	7.42499	-5.09944	19.38585	27.97856	1.57011	0.6369	119.60605	124.66407	44.62594	0.3401	 	1263260.53	 	5.20873E-6	 	36964.295	35.953	 
1070.0	1.0	0.0	7.48378	7.42252	-5.13109	19.36575	27.90873	1.5682	0.63767	120.0065	124.93592	44.78158	0.33991	 	1379595.205	 	4.75182E-6	 	36784.823	35.8944	 
1065.0	1.0	0.0	7.48627	7.42005	-5.16267	19.34568	27.8389	1.56628	0.63845	120.40666	125.20685	44.93715	0.33972	 	1507640.562	 	4.33205E-6	 	36605.643	35.836	 
1060.0	1.0	0.0	7.48876	7.41758	-5.19419	19.32562	27.76907	1.56436	0.63924	120.80654	125.47684	45.09266	0.33954	 	1648673.166	 	3.94667E-6	 	36426.752	35.7782	 
1055.0	1.0	0.0	7.49124	7.41512	-5.22566	19.30559	27.69923	1.56242	0.64003	121.20613	125.74591	45.2481	0.33935	 	1804119.177	 	3.59309E-6	 	36248.152	35.72	 
1050.0	1.0	0.0	7.49373	7.41266	-5.25706	19.28557	27.6294	1.56047	0.64083	121.60542	126.01405	45.40348	0.33916	 	1975573.094	 	3.26891E-6	 	36069.841	35.6622	 
1045.0	1.0	0.0	7.49621	7.41021	-5.28841	19.26558	27.55956	1.55851	0.64164	122.00442	126.28127	45.55879	0.33898	 	2164818.983	 	2.97187E-6	 	35891.819	35.6044	 
1040.0	1.0	0.0	7.49868	7.40776	-5.31969	19.24561	27.48972	1.55655	0.64245	122.40312	126.54756	45.71403	0.33879	 	2373854.561	 	2.6999E-6	 	35714.084	35.547	 
1035.0	1.0	0.0	7.50116	7.40532	-5.35092	19.22566	27.41988	1.55457	0.64327	122.80152	126.81293	45.8692	0.33861	 	2604918.533	 	2.45104E-6	 	35536.636	35.4896	 
1030.0	1.0	0.0	7.50363	7.40288	-5.38209	19.20573	27.35004	1.55258	0.64409	123.19963	127.07737	46.02431	0.33842	 	2860521.64	 	2.22349E-6	 	35359.474	35.4324	 
1025.0	1.0	0.0	7.5061	7.40044	-5.41319	19.18582	27.28019	1.55058	0.64492	123.59742	127.34089	46.17934	0.33823	 	3143481.971	 	2.01558E-6	 	35182.598	35.3752	 
1020.0	1.0	0.0	7.50856	7.39802	-5.44424	19.16593	27.21034	1.54858	0.64575	123.99491	127.6035	46.3343	0.33805	 	3456965.14	 	1.82575E-6	 	35006.006	35.3184	 
1015.0	1.0	0.0	7.51102	7.39559	-5.47523	19.14606	27.1405	1.54656	0.6466	124.39209	127.86518	46.48919	0.33786	 	3804530.052	 	1.65254E-6	 	34829.698	35.2616	 
1010.0	1.0	0.0	7.51348	7.39317	-5.50617	19.12621	27.07065	1.54453	0.64745	124.78896	128.12594	46.64401	0.33767	 	4190181.064	 	1.49462E-6	 	34653.674	35.2048	 
1005.0	1.0	0.0	7.51594	7.39075	-5.53704	19.10639	27.0008	1.54249	0.6483	125.18552	128.38578	46.79875	0.33749	 	4618427.515	 	1.35075E-6	 	34477.931	35.1486	 
1000.0	1.0	0.0	7.51839	7.38834	-5.56785	19.08658	26.93094	1.54044	0.64916	125.58176	128.6447	46.95342	0.3373	 	5094351.69	 	1.21977E-6	 	34302.47	35.0922	 
995.0	1.0	0.0	7.52084	7.38594	-5.59861	19.0668	26.86109	1.53838	0.65003	125.97769	128.9027	47.10801	0.33712	 	5623686.518	 	1.10062E-6	 	34127.29	35.036	 
990.0	1.0	0.0	7.52329	7.38354	-5.6293	19.04704	26.79123	1.53631	0.65091	126.37329	129.15979	47.26253	0.33693	 	6212904.459	 	9.92309E-7	 	33952.39	34.98	 
985.0	1.0	0.0	7.52573	7.38114	-5.65994	19.02729	26.72137	1.53423	0.65179	126.76857	129.41596	47.41697	0.33674	 	6869319.286	 	8.93934E-7	 	33777.769	34.9242	 
980.0	1.0	0.0	7.52817	7.37875	-5.69052	19.00757	26.65152	1.53214	0.65268	127.16352	129.67122	47.57132	0.33656	 	7601202.754	 	8.04651E-7	 	33603.427	34.8684	 
975.0	1.0	0.0	7.53061	7.37636	-5.72104	18.98787	26.58165	1.53004	0.65358	127.55815	129.92556	47.7256	0.33637	 	8417918.445	 	7.23684E-7	 	33429.362	34.813	 
970.0	1.0	0.0	7.53304	7.37397	-5.75151	18.96819	26.51179	1.52793	0.65448	127.95245	130.17899	47.8798	0.33618	 	9330075.478	 	6.50317E-7	 	33255.573	34.7578	 
965.0	1.0	0.0	7.53547	7.3716	-5.78191	18.94853	26.44193	1.5258	0.65539	128.34642	130.43151	48.03392	0.336	 	1.034970519E7	 	5.83891E-7	 	33082.061	34.7024	 
960.0	1.0	0.0	7.5379	7.36922	-5.81226	18.92889	26.37206	1.52367	0.65631	128.74006	130.68312	48.18796	0.33581	 	1.149046442E7	 	5.23799E-7	 	32908.824	34.6474	 
955.0	1.0	0.0	7.54032	7.36685	-5.84255	18.90928	26.30219	1.52152	0.65724	129.13335	130.93381	48.34192	0.33563	 	1.276786968E7	 	4.69483E-7	 	32735.861	34.5926	 
950.0	1.0	0.0	7.54275	7.36449	-5.87278	18.88968	26.23232	1.51936	0.65817	129.52632	131.18359	48.49579	0.33544	 	1.419956704E7	 	4.20428E-7	 	32563.171	34.538	 
945.0	1.0	0.0	7.54517	7.36213	-5.90296	18.87011	26.16245	1.51719	0.65911	129.91894	131.43247	48.64957	0.33525	 	1.580564372E7	 	3.76162E-7	 	32390.754	34.4834	 
940.0	1.0	0.0	7.54758	7.35977	-5.93307	18.85055	26.09257	1.51501	0.66006	130.31121	131.68044	48.80327	0.33507	 	1.760898794E7	 	3.36253E-7	 	32218.609	34.429	 
935.0	1.0	0.0	7.54999	7.35742	-5.96313	18.83102	26.0227	1.51282	0.66102	130.70315	131.9275	48.95689	0.33488	 	1.963570513E7	 	3.00304E-7	 	32046.735	34.3748	 
930.0	1.0	0.0	7.5524	7.35507	-5.99314	18.81151	25.95282	1.51061	0.66198	131.09473	132.17365	49.11041	0.33469	 	2.191559972E7	 	2.6795E-7	 	31875.131	34.3208	 
925.0	1.0	0.0	7.55481	7.35273	-6.02308	18.79201	25.88294	1.5084	0.66296	131.48597	132.4189	49.26385	0.33451	 	2.448273353E7	 	2.38857E-7	 	31703.795	34.2672	 
920.0	1.0	0.0	7.55721	7.35039	-6.05297	18.77254	25.81306	1.50617	0.66394	131.87686	132.66324	49.41721	0.33432	 	2.73760735E7	 	2.12721E-7	 	31532.729	34.2132	 
915.0	1.0	0.0	7.55961	7.34805	-6.0828	18.75309	25.74317	1.50393	0.66493	132.26739	132.90668	49.57047	0.33414	 	3.064024401E7	 	1.89263E-7	 	31361.929	34.16	 
910.0	1.0	0.0	7.56201	7.34573	-6.11257	18.73366	25.67329	1.50168	0.66592	132.65757	133.14922	49.72364	0.33395	 	3.432640157E7	 	1.68228E-7	 	31191.396	34.1066	 
905.0	1.0	0.0	7.5644	7.3434	-6.14228	18.71426	25.6034	1.49941	0.66693	133.04739	133.39086	49.87672	0.33376	 	3.849325285E7	 	1.49384E-7	 	31021.129	34.0534	 
900.0	1.0	0.0	7.5668	7.34108	-6.17194	18.69487	25.53351	1.49713	0.66794	133.43685	133.63159	50.02971	0.33358	 	4.320824107E7	 	1.32518E-7	 	30851.126	34.0006	 
895.0	1.0	0.0	7.56918	7.33876	-6.20154	18.6755	25.46362	1.49485	0.66897	133.82595	133.87142	50.1826	0.33339	 	4.854892987E7	 	1.17437E-7	 	30681.388	33.9476	 
890.0	1.0	0.0	7.57157	7.33645	-6.23109	18.65616	25.39373	1.49254	0.67	134.21468	134.11036	50.3354	0.3332	 	5.460461976E7	 	1.03966E-7	 	30511.911	33.8954	 
885.0	1.0	0.0	7.57395	7.33415	-6.26058	18.63683	25.32383	1.49023	0.67104	134.60305	134.34839	50.48811	0.33302	 	6.147823807E7	 	9.19454E-8	 	30342.697	33.8428	 
880.0	1.0	0.0	7.57633	7.33184	-6.29001	18.61753	25.25394	1.4879	0.67209	134.99105	134.58553	50.64072	0.33283	 	6.928855151E7	 	8.1229E-8	 	30173.744	33.7906	 
875.0	1.0	0.0	7.5787	7.32954	-6.31938	18.59825	25.18404	1.48556	0.67315	135.37868	134.82177	50.79323	0.33264	 	7.817275956E7	 	7.16853E-8	 	30005.051	33.7386	 
870.0	1.0	0.0	7.58108	7.32725	-6.3487	18.57898	25.11413	1.48321	0.67421	135.76594	135.05712	50.94565	0.33246	 	8.82895376E7	 	6.31947E-8	 	29836.616	33.687	 
865.0	1.0	0.0	7.58345	7.32496	-6.37796	18.55974	25.04423	1.48084	0.67529	136.15283	135.29157	51.09797	0.33227	 	9.982261256E7	 	5.5649E-8	 	29668.44	33.6352	 
860.0	1.0	0.0	7.58581	7.32268	-6.40717	18.54052	24.97433	1.47847	0.67638	136.53933	135.52513	51.25019	0.33209	 	1.129849691E8	 	4.89501E-8	 	29500.52	33.584	 
855.0	1.0	0.0	7.58818	7.3204	-6.43632	18.52132	24.90442	1.47607	0.67747	136.92546	135.75779	51.40231	0.3319	 	1.280238041E8	 	4.30093E-8	 	29332.857	33.5326	 
850.0	1.0	0.0	7.59054	7.31812	-6.46541	18.50215	24.83451	1.47367	0.67858	137.31121	135.98957	51.55433	0.33171	 	1.452263697E8	 	3.77467E-8	 	29165.448	33.4818	 
845.0	1.0	0.0	7.59289	7.31585	-6.49445	18.48299	24.7646	1.47125	0.67969	137.69658	136.22045	51.70626	0.33153	 	1.649268729E8	 	3.30899E-8	 	28998.293	33.431	 
840.0	1.0	0.0	7.59525	7.31358	-6.52343	18.46385	24.69468	1.46882	0.68082	138.08156	136.45044	51.85807	0.33134	 	1.875146348E8	 	2.89738E-8	 	28831.391	33.3804	 
835.0	1.0	0.0	7.5976	7.31132	-6.55235	18.44474	24.62477	1.46637	0.68196	138.46615	136.67954	52.00979	0.33115	 	2.134437494E8	 	2.53397E-8	 	28664.741	33.33	 
830.0	1.0	0.0	7.59995	7.30906	-6.58122	18.42564	24.55485	1.46391	0.6831	138.85036	136.90776	52.1614	0.33097	 	2.432445364E8	 	2.21349E-8	 	28498.341	33.28	 
825.0	1.0	0.0	7.60229	7.3068	-6.61004	18.40657	24.48493	1.46144	0.68426	139.23418	137.13509	52.31291	0.33078	 	2.775371365E8	 	1.9312E-8	 	28332.191	33.23	 
820.0	1.0	0.0	7.60463	7.30455	-6.6388	18.38751	24.41501	1.45895	0.68542	139.6176	137.36153	52.46431	0.3306	 	3.170476738E8	 	1.68284E-8	 	28166.289	33.1804	 
815.0	1.0	0.0	7.60697	7.30231	-6.6675	18.36848	24.34508	1.45645	0.6866	140.00063	137.58708	52.61561	0.33041	 	3.626274962E8	 	1.46459E-8	 	28000.634	33.131	 
810.0	1.0	0.0	7.60931	7.30007	-6.69615	18.34947	24.27516	1.45393	0.68779	140.38326	137.81176	52.7668	0.33022	 	4.152761133E8	 	1.27303E-8	 	27835.225	33.0818	 
805.0	1.0	0.0	7.61164	7.29783	-6.72474	18.33048	24.20523	1.4514	0.68899	140.76549	138.03554	52.91788	0.33004	 	4.761685788E8	 	1.10511E-8	 	27670.061	33.0328	 
800.0	1.0	0.0	7.61397	7.2956	-6.75327	18.31151	24.1353	1.44886	0.6902	141.14732	138.25845	53.06885	0.32985	 	5.46688229E8	 	9.58092E-9	 	27505.14	32.9842	 
795.0	1.0	0.0	7.6163	7.29337	-6.78176	18.29256	24.06536	1.4463	0.69142	141.52875	138.48047	53.21972	0.32966	 	6.284658799E8	 	8.2954E-9	 	27340.462	32.9356	 
790.0	1.0	0.0	7.61862	7.29114	-6.81018	18.27364	23.99543	1.44372	0.69265	141.90978	138.70162	53.37047	0.32948	 	7.234268285E8	 	7.17277E-9	 	27176.024	32.8876	 
785.0	1.0	0.0	7.62094	7.28892	-6.83855	18.25473	23.92549	1.44113	0.6939	142.2904	138.92188	53.52112	0.32929	 	8.338472952E8	 	6.19366E-9	 	27011.827	32.8394	 
780.0	1.0	0.0	7.62326	7.28671	-6.86687	18.23584	23.85555	1.43853	0.69515	142.67061	139.14127	53.67165	0.32911	 	9.624223082E8	 	5.34086E-9	 	26847.867	32.792	 
775.0	1.0	0.0	7.62557	7.2845	-6.89513	18.21698	23.78561	1.43591	0.69642	143.05041	139.35978	53.82207	0.32892	 	1.112347476E9	 	4.59907E-9	 	26684.145	32.7444	 
770.0	1.0	0.0	7.62788	7.28229	-6.92334	18.19813	23.71566	1.43327	0.6977	143.42979	139.57741	53.97238	0.32873	 	1.287417639E9	 	3.9547E-9	 	26520.658	32.6974	 
765.0	1.0	0.0	7.63019	7.28009	-6.95149	18.17931	23.64572	1.43062	0.699	143.80876	139.79416	54.12257	0.32855	 	1.492146087E9	 	3.39575E-9	 	26357.405	32.6506	 
760.0	1.0	0.0	7.63249	7.27789	-6.97959	18.16051	23.57577	1.42796	0.7003	144.18732	140.01004	54.27265	0.32836	 	1.731908836E9	 	2.91156E-9	 	26194.385	32.604	 
755.0	1.0	0.0	7.6348	7.2757	-7.00763	18.14173	23.50581	1.42528	0.70162	144.56546	140.22505	54.42262	0.32817	 	2.013119545E9	 	2.49272E-9	 	26031.595	32.558	 
750.0	1.0	0.0	7.63709	7.27351	-7.03562	18.12297	23.43586	1.42258	0.70295	144.94318	140.43918	54.57246	0.32799	 	2.343441913E9	 	2.13094E-9	 	25869.035	32.512	 
745.0	1.0	0.0	7.63939	7.27132	-7.06355	18.10423	23.3659	1.41986	0.70429	145.32047	140.65245	54.72219	0.3278	 	2.732048023E9	 	1.81891E-9	 	25706.703	32.4664	 
740.0	1.0	0.0	7.64168	7.26914	-7.09143	18.08551	23.29594	1.41713	0.70565	145.69734	140.86484	54.87181	0.32762	 	3.189933112E9	 	1.55017E-9	 	25544.598	32.421	 
735.0	1.0	0.0	7.64397	7.26696	-7.11925	18.06681	23.22598	1.41439	0.70702	146.07379	141.07636	55.0213	0.32743	 	3.730299742E9	 	1.31907E-9	 	25382.716	32.3764	 
730.0	1.0	0.0	7.64626	7.26479	-7.14703	18.04813	23.15602	1.41163	0.7084	146.44981	141.28701	55.17068	0.32724	 	4.369027506E9	 	1.12064E-9	 	25221.058	32.3316	 
725.0	1.0	0.0	7.64854	7.26262	-7.17474	18.02948	23.08605	1.40885	0.7098	146.82539	141.4968	55.31993	0.32706	 	5.125248317E9	 	9.50534E-10	 	25059.62	32.2876	 
720.0	1.0	0.0	7.65082	7.26046	-7.20241	18.01084	23.01608	1.40605	0.71121	147.20055	141.70571	55.46907	0.32687	 	6.022052301E9	 	8.04928E-10	 	24898.401	32.2438	 
715.0	1.0	0.0	7.6531	7.2583	-7.23002	17.99223	22.94611	1.40324	0.71264	147.57527	141.91377	55.61808	0.32668	 	7.087355497E9	 	6.80496E-10	 	24737.399	32.2004	 
710.0	1.0	0.0	7.65537	7.25614	-7.25757	17.97364	22.87614	1.40041	0.71408	147.94956	142.12095	55.76697	0.3265	 	8.354968457E9	 	5.7433E-10	 	24576.612	32.1574	 
705.0	1.0	0.0	7.65764	7.25399	-7.28507	17.95506	22.80616	1.39756	0.71553	148.32341	142.32728	55.91574	0.32631	 	9.865914702E9	 	4.83899E-10	 	24416.038	32.1148	 
700.0	1.0	0.0	7.65991	7.25184	-7.31252	17.93651	22.73618	1.3947	0.717	148.69682	142.53274	56.06438	0.32613	 	1.1670099999999998E10	 	4.06999E-10	 	24255.674	32.0728	 
695.0	1.0	0.0	7.66217	7.2497	-7.33992	17.91798	22.6662	1.39182	0.71849	149.06979	142.73733	56.2129	0.32594	 	1.3828099999999998E10	 	3.41716E-10	 	24095.519	32.031	 
690.0	1.0	0.0	7.66444	7.24756	-7.36726	17.89947	22.59622	1.38892	0.71999	149.44232	142.94107	56.3613	0.32575	 	1.6414199999999998E10	 	2.86392E-10	 	23935.569	31.99	 
685.0	1.0	0.0	7.66669	7.24542	-7.39454	17.88098	22.52623	1.386	0.7215	149.8144	143.14395	56.50957	0.32557	 	1.95189E10	 	2.39588E-10	 	23775.822	31.9494	 
680.0	1.0	0.0	7.66895	7.24329	-7.42178	17.86251	22.45624	1.38306	0.72303	150.18604	143.34596	56.65771	0.32538	 	2.32532E10	 	2.00063E-10	 	23616.276	31.9092	 
675.0	1.0	0.0	7.6712	7.24117	-7.44896	17.84407	22.38625	1.38011	0.72458	150.55723	143.54712	56.80572	0.32519	 	2.7753099999999996E10	 	1.66745E-10	 	23456.928	31.8696	 
670.0	1.0	0.0	7.67345	7.23904	-7.47609	17.82564	22.31625	1.37714	0.72614	150.92796	143.74743	56.95361	0.32501	 	3.3186099999999996E10	 	1.38711E-10	 	23297.775	31.8306	 
665.0	1.0	0.0	7.6757	7.23693	-7.50316	17.80724	22.24626	1.37415	0.72772	151.29825	143.94687	57.10136	0.32482	 	3.97585E10	 	1.15167E-10	 	23138.813	31.7924	 
660.0	1.0	0.0	7.67794	7.23481	-7.53019	17.78885	22.17626	1.37114	0.72932	151.66808	144.14547	57.24899	0.32464	 	4.772509999999999E10	 	9.54315E-11	 	22980.039	31.7548	 
655.0	1.0	0.0	7.68018	7.2327	-7.55716	17.77049	22.10625	1.36811	0.73094	152.03746	144.3432	57.39649	0.32445	 	5.740089999999999E10	 	7.89198E-11	 	22821.45	31.7178	 
650.0	1.0	0.0	7.68242	7.2306	-7.58407	17.75214	22.03625	1.36506	0.73257	152.40638	144.54009	57.54385	0.32426	 	6.91768E10	 	6.51326E-11	 	22663.043	31.6814	 
645.0	1.0	0.0	7.68465	7.22849	-7.61094	17.73382	21.96624	1.362	0.73422	152.77484	144.73612	57.69109	0.32408	 	8.35385E10	 	5.36431E-11	 	22504.812	31.6462	 
640.0	1.0	0.0	7.68688	7.2264	-7.63775	17.71552	21.89623	1.35891	0.73588	153.14284	144.93131	57.83819	0.32389	 	1.01091E11	 	4.40877E-11	 	22346.755	31.6114	 
635.0	1.0	0.0	7.68911	7.2243	-7.66451	17.69724	21.82621	1.3558	0.73757	153.51037	145.12564	57.98516	0.3237	 	1.22588E11	 	3.61573E-11	 	22188.866	31.5778	 
630.0	1.0	0.0	7.69133	7.22221	-7.69121	17.67898	21.7562	1.35268	0.73927	153.87744	145.31912	58.13199	0.32352	 	1.48975E11	 	2.95891E-11	 	22031.14	31.5452	 
625.0	1.0	0.0	7.69356	7.22013	-7.71787	17.66074	21.68618	1.34953	0.741	154.24405	145.51176	58.27869	0.32333	 	1.81436E11	 	2.41608E-11	 	21873.573	31.5134	 
620.0	1.0	0.0	7.69577	7.21805	-7.74447	17.64253	21.61615	1.34637	0.74274	154.61018	145.70354	58.42525	0.32315	 	2.2146E11	 	1.96842E-11	 	21716.16	31.4826	 
615.0	1.0	0.0	7.69799	7.21597	-7.77102	17.62433	21.54613	1.34318	0.7445	154.97585	145.89449	58.57168	0.32296	 	2.70919E11	 	1.60005E-11	 	21558.893	31.4534	 
610.0	1.0	0.0	7.7002	7.2139	-7.79752	17.60616	21.4761	1.33998	0.74628	155.34105	146.08458	58.71797	0.32277	 	3.32184E11	 	1.29761E-11	 	21401.766	31.4254	 
605.0	1.0	0.0	7.70241	7.21183	-7.82396	17.588	21.40607	1.33675	0.74808	155.70577	146.27384	58.86412	0.32259	 	4.0825E11	 	1.04986E-11	 	21244.773	31.3986	 
600.0	1.0	0.0	7.70462	7.20976	-7.85035	17.56987	21.33603	1.3335	0.74991	156.07002	146.46225	59.01013	0.3224	 	5.02921E11	 	8.47375E-12	 	21087.906	31.3734	 
595.0	1.0	0.0	7.70682	7.2077	-7.8767	17.55175	21.266	1.33023	0.75175	156.43379	146.64982	59.15601	0.32221	 	6.21039E11	 	6.8228E-12	 	20931.156	31.35	 
590.0	1.0	0.0	7.70902	7.20564	-7.90299	17.53366	21.19596	1.32694	0.75361	156.79708	146.83654	59.30174	0.32203	 	7.68777E11	 	5.4799E-12	 	20774.514	31.3284	 
585.0	1.0	0.0	7.71122	7.20359	-7.92922	17.51559	21.12591	1.32363	0.7555	157.15989	147.02243	59.44733	0.32184	 	9.54032E11	 	4.39023E-12	 	20617.97	31.3088	 
580.0	1.0	0.0	7.71341	7.20154	-7.95541	17.49754	21.05587	1.32029	0.75741	157.52222	147.20748	59.59279	0.32166	 	1.18693E12	 	3.50822E-12	 	20461.514	31.2912	 
575.0	1.0	0.0	7.7156	7.1995	-7.98155	17.47951	20.98582	1.31694	0.75934	157.88406	147.39169	59.7381	0.32147	 	1.4805E12	 	2.79609E-12	 	20305.132	31.2764	 
570.0	1.0	0.0	7.71779	7.19746	-8.00763	17.4615	20.91576	1.31356	0.76129	158.24542	147.57507	59.88326	0.32128	 	1.85153E12	 	2.2226E-12	 	20148.811	31.2642	 
565.0	1.0	0.0	7.71997	7.19542	-8.03366	17.44352	20.84571	1.31016	0.76327	158.6063	147.75761	60.02829	0.3211	 	2.32173E12	 	1.76196E-12	 	19992.537	31.2548	 
560.0	1.0	0.0	7.72216	7.19339	-8.05964	17.42555	20.77565	1.30673	0.76527	158.96668	147.93931	60.17317	0.32091	 	2.91927E12	 	1.39295E-12	 	19836.291	31.2492	 
555.0	1.0	0.0	7.72433	7.19136	-8.08557	17.4076	20.70559	1.30328	0.76729	159.32658	148.12018	60.3179	0.32072	 	3.68077E12	 	1.09814E-12	 	19680.056	31.247	 
550.0	1.0	0.0	7.72651	7.18933	-8.11145	17.38968	20.63552	1.29981	0.76934	159.68598	148.30022	60.46249	0.32054	 	4.65401E12	 	8.63254E-13	 	19523.81	31.2492	 
545.0	1.0	0.0	7.72868	7.18731	-8.13728	17.37177	20.56545	1.29632	0.77141	160.04488	148.47943	60.60694	0.32035	 	5.9015E12	 	6.7664E-13	 	19367.53	31.256	 
540.0	1.0	0.0	7.73085	7.1853	-8.16306	17.35389	20.49538	1.2928	0.77351	160.4033	148.6578	60.75123	0.32016	 	7.50527E12	 	5.28799E-13	 	19211.189	31.2682	 
535.0	1.0	0.0	7.73302	7.18328	-8.18878	17.33603	20.4253	1.28926	0.77564	160.76121	148.83535	60.89538	0.31998	 	9.57335E12	 	4.12017E-13	 	19054.756	31.2866	 
530.0	1.0	0.0	7.73518	7.18127	-8.21446	17.31819	20.35523	1.2857	0.77779	161.11863	149.01207	61.03938	0.31979	 	1.22484E13	 	3.20041E-13	 	18895.952	31.7608	 
525.0	1.0	0.0	7.73734	7.17927	-8.24008	17.30037	20.28514	1.28211	0.77997	161.47554	149.18796	61.18323	0.31961	 	1.57193E13	 	2.4782E-13	 	18737.662	31.658	 
520.0	1.0	0.0	7.7395	7.17727	-8.26566	17.28257	20.21506	1.27849	0.78217	161.83196	149.36303	61.32694	0.31942	 	2.02375E13	 	1.91287E-13	 	18579.898	31.5528	 
515.0	1.0	0.0	7.74165	7.17527	-8.29118	17.26479	20.14497	1.27485	0.7844	162.18787	149.53726	61.47049	0.31923	 	2.61381E13	 	1.47171E-13	 	18422.646	31.4504	 
510.0	1.0	0.0	7.7438	7.17328	-8.31665	17.24703	20.07488	1.27119	0.78667	162.54327	149.71068	61.61389	0.31905	 	3.38696E13	 	1.12855E-13	 	18265.892	31.3508	 
505.0	1.0	0.0	7.74595	7.17129	-8.34207	17.2293	20.00478	1.2675	0.78896	162.89817	149.88327	61.75714	0.31886	 	4.40345E13	 	8.62495E-14	 	18109.626	31.2532	 
500.0	1.0	0.0	7.7481	7.1693	-8.36745	17.21158	19.93468	1.26378	0.79128	163.25256	150.05504	61.90023	0.31867	 	5.7445E13	 	6.56899E-14	 	17953.836	31.158	 
495.0	1.0	0.0	7.75024	7.16732	-8.39277	17.19388	19.86458	1.26004	0.79363	163.60643	150.22599	62.04318	0.31849	 	7.51995E13	 	4.98561E-14	 	17798.51	31.0652	 
490.0	1.0	0.0	7.75238	7.16535	-8.41804	17.17621	19.79447	1.25627	0.79601	163.9598	150.39612	62.18597	0.3183	 	9.87895E13	 	3.77039E-14	 	17643.638	30.9744	 
485.0	1.0	0.0	7.75451	7.16337	-8.44326	17.15856	19.72436	1.25248	0.79842	164.31266	150.56543	62.3286	0.31812	 	1.3024799999999998E14	 	2.841E-14	 	17489.212	30.8852	 
480.0	1.0	0.0	7.75664	7.1614	-8.46844	17.14092	19.65425	1.24866	0.80086	164.66499	150.73392	62.47108	0.31793	 	1.72356E14	 	2.13276E-14	 	17335.222	30.798	 
475.0	1.0	0.0	7.75877	7.15944	-8.49356	17.12331	19.58413	1.24481	0.80334	165.01682	150.9016	62.61341	0.31774	 	2.28933E14	 	1.59503E-14	 	17181.658	30.7128	 
470.0	1.0	0.0	7.7609	7.15748	-8.51863	17.10572	19.51401	1.24093	0.80585	165.36812	151.06846	62.75558	0.31756	 	3.05245E14	 	1.18827E-14	 	17028.514	30.6288	 
465.0	1.0	0.0	7.76302	7.15552	-8.54365	17.08815	19.44389	1.23703	0.80839	165.71891	151.23451	62.89759	0.31737	 	4.08587E14	 	8.81753E-15	 	16875.782	30.5464	 
460.0	1.0	0.0	7.76514	7.15356	-8.56863	17.0706	19.37376	1.2331	0.81097	166.06917	151.39974	63.03944	0.31718	 	5.4909499999999994E14	 	6.51676E-15	 	16723.454	30.4656	 
455.0	1.0	0.0	7.76726	7.15161	-8.59355	17.05308	19.30363	1.22914	0.81358	166.41891	151.56416	63.18114	0.317	 	7.40925E14	 	4.7966E-15	 	16571.524	30.386	 
450.0	1.0	0.0	7.76938	7.14967	-8.61843	17.03557	19.23349	1.22515	0.81623	166.76813	151.72777	63.32267	0.31681	 	1.00393E15	 	3.51571E-15	 	16419.986	30.3076	 
445.0	1.0	0.0	7.77149	7.14773	-8.64325	17.01808	19.16335	1.22113	0.81891	167.11682	151.89057	63.46405	0.31663	 	1.36605E15	 	2.56587E-15	 	16268.832	30.2308	 
440.0	1.0	0.0	7.77359	7.14579	-8.66803	17.00062	19.09321	1.21708	0.82164	167.46499	152.05256	63.60527	0.31644	 	1.86684E15	 	1.86449E-15	 	16118.058	30.1548	 
435.0	1.0	0.0	7.7757	7.14385	-8.69275	16.98317	19.02306	1.21301	0.8244	167.81262	152.21374	63.74632	0.31625	 	2.56251E15	 	1.3488E-15	 	15967.658	30.08	 
430.0	1.0	0.0	7.7778	7.14192	-8.71743	16.96575	18.95291	1.2089	0.8272	168.15973	152.37411	63.88722	0.31607	 	3.5333E15	 	9.71303E-16	 	15817.626	30.0064	 
425.0	1.0	0.0	7.7799	7.13999	-8.74206	16.94835	18.88275	1.20476	0.83004	168.5063	152.53368	64.02795	0.31588	 	4.89434E15	 	6.96212E-16	 	15667.959	29.9334	 
420.0	1.0	0.0	7.782	7.13807	-8.76664	16.93097	18.81259	1.20059	0.83292	168.85235	152.69245	64.16852	0.31569	 	6.81161E15	 	4.96666E-16	 	15518.651	29.8616	 
415.0	1.0	0.0	7.78409	7.13615	-8.79117	16.9136	18.74243	1.1964	0.83584	169.19786	152.85041	64.30893	0.31551	 	9.52561E15	 	3.52596E-16	 	15369.698	29.7906	 
410.0	1.0	0.0	7.78618	7.13424	-8.81565	16.89626	18.67226	1.19217	0.83881	169.54283	153.00757	64.44917	0.31532	 	1.33865E16	 	2.49078E-16	 	15221.096	29.7204	 
405.0	1.0	0.0	7.78827	7.13233	-8.84009	16.87895	18.60209	1.18791	0.84182	169.88726	153.16393	64.58925	0.31514	 	1.8907E16	 	1.75061E-16	 	15072.841	29.651	 
400.0	1.0	0.0	7.79035	7.13042	-8.86447	16.86165	18.53192	1.18361	0.84487	170.23116	153.31949	64.72917	0.31495	 	2.68415E16	 	1.22403E-16	 	14924.93	29.5822	 
395.0	1.0	0.0	7.79243	7.12851	-8.88881	16.84437	18.46174	1.17929	0.84797	170.57452	153.47426	64.86892	0.31476	 	3.83061E16	 	8.51319E-17	 	14777.357	29.5146	 
390.0	1.0	0.0	7.79451	7.12661	-8.9131	16.82711	18.39155	1.17493	0.85112	170.91734	153.62822	65.0085	0.31458	 	5.49617E16	 	5.88896E-17	 	14630.122	29.447	 
385.0	1.0	0.0	7.79658	7.12472	-8.93734	16.80988	18.32136	1.17054	0.85431	171.25961	153.78139	65.14791	0.31439	 	7.92929E16	 	4.05114E-17	 	14483.219	29.3806	 
380.0	1.0	0.0	7.79866	7.12282	-8.96153	16.79266	18.25117	1.16611	0.85755	171.60134	153.93377	65.28716	0.3142	 	1.15039E17	 	2.77111E-17	 	14336.647	29.3144	 
375.0	1.0	0.0	7.80072	7.12093	-8.98567	16.77547	18.18098	1.16165	0.86084	171.94253	154.08535	65.42624	0.31402	 	1.67862E17	 	1.88456E-17	 	14190.401	29.2492	 
370.0	1.0	0.0	7.80279	7.11905	-9.00977	16.7583	18.11077	1.15716	0.86419	172.28317	154.23613	65.56516	0.31383	 	2.46383E17	 	1.27406E-17	 	14044.481	29.184	 
365.0	1.0	0.0	7.80485	7.11717	-9.03381	16.74115	18.04057	1.15263	0.86758	172.62327	154.38613	65.7039	0.31365	 	3.63815E17	 	8.56108E-18	 	13898.882	29.1198	 
360.0	1.0	0.0	7.80691	7.11529	-9.05781	16.72401	17.97036	1.14807	0.87103	172.96281	154.53534	65.84247	0.31346	 	5.40537E17	 	5.717E-18	 	13753.603	29.0558	 
355.0	1.0	0.0	7.80897	7.11342	-9.08177	16.7069	17.90014	1.14347	0.87453	173.30181	154.68376	65.98088	0.31327	 	8.08178E17	 	3.79352E-18	 	13608.641	28.9924	 
350.0	1.0	0.0	7.81102	7.11155	-9.10567	16.68982	17.82993	1.13883	0.87809	173.64025	154.83139	66.11911	0.31309	 	1.21617E18	 	2.50084E-18	 	13463.994	28.9294	 
345.0	1.0	0.0	7.81307	7.10968	-9.12953	16.67275	17.7597	1.13416	0.88171	173.97815	154.97824	66.25717	0.3129	 	1.84226E18	 	1.63768E-18	 	13319.661	28.8666	 
340.0	1.0	0.0	7.81512	7.10782	-9.15334	16.6557	17.68947	1.12946	0.88538	174.31549	155.12431	66.39506	0.31271	 	2.80963E18	 	1.06513E-18	 	13175.638	28.8046	 
335.0	1.0	0.0	7.81717	7.10596	-9.1771	16.63867	17.61924	1.12471	0.88912	174.65227	155.26959	66.53278	0.31253	 	4.31483E18	 	6.87913E-19	 	13031.924	28.7428	 
330.0	1.0	0.0	7.81921	7.1041	-9.20081	16.62167	17.549	1.11993	0.89291	174.9885	155.41408	66.67033	0.31234	 	6.67371E18	 	4.41108E-19	 	12888.518	28.6812	 
325.0	1.0	0.0	7.82125	7.10225	-9.22448	16.60468	17.47876	1.11511	0.89677	175.32418	155.5578	66.8077	0.31216	 	1.03977E19	 	2.80776E-19	 	12745.418	28.62	 
320.0	1.0	0.0	7.82328	7.1004	-9.2481	16.58772	17.40852	1.11025	0.9007	175.6593	155.70074	66.94491	0.31197	 	1.63213E19	 	1.77377E-19	 	12602.622	28.5592	 
315.0	1.0	0.0	7.82531	7.09856	-9.27167	16.57078	17.33826	1.10535	0.90469	175.99386	155.84291	67.08193	0.31178	 	2.58168E19	 	1.11192E-19	 	12460.128	28.4988	 
310.0	1.0	0.0	7.82734	7.09672	-9.29519	16.55385	17.26801	1.10041	0.90875	176.32786	155.9843	67.21879	0.3116	 	4.11589E19	 	6.91517E-20	 	12317.936	28.4384	 
305.0	1.0	0.0	7.82937	7.09488	-9.31867	16.53695	17.19775	1.09544	0.91288	176.6613	156.12491	67.35546	0.31141	 	6.61501E19	 	4.26576E-20	 	12176.044	28.3784	 
300.0	1.0	0.0	7.83139	7.09305	-9.3421	16.52007	17.12748	1.09042	0.91708	176.99418	156.26475	67.49197	0.31122	 	1.0719899999999998E20	 	2.60953E-20	 	12034.452	28.3184	 
295.0	1.0	0.0	7.83341	7.09122	-9.36549	16.50321	17.05721	1.08536	0.92136	177.3265	156.40382	67.6283	0.31104	 	1.75204E20	 	1.58272E-20	 	11893.156	28.2592	 
290.0	1.0	0.0	7.83543	7.08939	-9.38882	16.48637	16.98693	1.08026	0.92571	177.65826	156.54212	67.76445	0.31085	 	2.8885899999999997E20	 	9.51534E-21	 	11752.158	28.1996	 
285.0	1.0	0.0	7.83745	7.08757	-9.41212	16.46956	16.91665	1.07511	0.93013	177.98945	156.67966	67.90042	0.31067	 	4.8052799999999993E20	 	5.66916E-21	 	11611.456	28.1404	 
280.0	1.0	0.0	7.83946	7.08575	-9.43536	16.45276	16.84636	1.06993	0.93464	178.32008	156.81642	68.03622	0.31048	 	8.06765E20	 	3.34644E-21	 	11471.049	28.0814	 
275.0	1.0	0.0	7.84147	7.08394	-9.45856	16.43598	16.77607	1.0647	0.93923	178.65015	156.95243	68.17185	0.31029	 	1.36735E21	 	1.95661E-21	 	11330.936	28.0226	 
270.0	1.0	0.0	7.84347	7.08212	-9.48171	16.41923	16.70578	1.05943	0.94391	178.97965	157.08767	68.30729	0.31011	 	2.3401000000000001E21	 	1.13285E-21	 	11191.117	27.9638	 
265.0	1.0	0.0	7.84548	7.08032	-9.50482	16.4025	16.63547	1.05411	0.94867	179.30859	157.22215	68.44256	0.30992	 	4.04504E21	 	6.49333E-22	 	11051.591	27.9052	 
260.0	1.0	0.0	7.84747	7.07851	-9.52787	16.38578	16.56517	1.04875	0.95352	179.63696	157.35587	68.57766	0.30973	 	7.06432E21	 	3.68354E-22	 	10912.358	27.8466	 
255.0	1.0	0.0	7.84947	7.07671	-9.55089	16.36909	16.49485	1.04334	0.95846	179.96476	157.48883	68.71257	0.30955	 	1.24682E22	 	2.06748E-22	 	10773.416	27.7884	 
250.0	1.0	0.0	7.85147	7.07492	-9.57385	16.35242	16.42454	1.03789	0.96349	180.292	157.62104	68.84731	0.30936	 	2.2246E22	 	1.14778E-22	 	10634.767	27.7298	 
245.0	1.0	0.0	7.85346	7.07312	-9.59678	16.33577	16.35421	1.03239	0.96863	180.61867	157.7525	68.98186	0.30918	 	4.013789999999999E22	 	6.30068E-23	 	10496.409	27.6716	 
240.0	1.0	0.0	7.85544	7.07133	-9.61965	16.31914	16.28388	1.02684	0.97386	180.94478	157.88321	69.11624	0.30899	 	7.32575E22	 	3.41884E-23	 	10358.342	27.6134	 
235.0	1.0	0.0	7.85743	7.06955	-9.64248	16.30253	16.21355	1.02125	0.97919	181.27032	158.01316	69.25045	0.3088	 	1.3529799999999999E23	 	1.83311E-23	 	10220.567	27.555	 
230.0	1.0	0.0	7.85941	7.06776	-9.66526	16.28594	16.14321	1.01561	0.98463	181.59529	158.14237	69.38447	0.30862	 	2.5294499999999997E23	 	9.70863E-24	 	10083.083	27.4968	 
225.0	1.0	0.0	7.86139	7.06598	-9.688	16.26938	16.07286	1.00991	0.99018	181.91969	158.27084	69.51831	0.30843	 	4.78869E23	 	5.07727E-24	 	9945.891	27.4384	 
220.0	1.0	0.0	7.86336	7.06421	-9.71069	16.25283	16.00251	1.00417	0.99584	182.24353	158.39856	69.65198	0.30824	 	9.18391E23	 	2.62083E-24	 	9808.99	27.3802	 
215.0	1.0	0.0	7.86534	7.06244	-9.73334	16.2363	15.93215	0.99838	1.00162	182.5668	158.52554	69.78547	0.30806	 	1.78497E24	 	1.33477E-24	 	9672.381	27.3218	 
210.0	1.0	0.0	7.86731	7.06067	-9.75594	16.2198	15.86179	0.99254	1.00752	182.88951	158.65179	69.91878	0.30787	 	3.5173100000000003E24	 	6.70437E-25	 	9536.064	27.2634	 
205.0	1.0	0.0	7.86927	7.0589	-9.7785	16.20332	15.79142	0.98664	1.01354	183.21165	158.7773	70.05191	0.30768	 	7.02991E24	 	3.31972E-25	 	9400.041	27.2046	 
200.0	1.0	0.0	7.87124	7.05714	-9.80101	16.18685	15.72105	0.9807	1.01968	183.53322	158.90208	70.18486	0.3075	 	1.4257600000000002E25	 	1.61972E-25	 	9264.311	27.146	 
195.0	1.0	0.0	7.8732	7.05539	-9.82348	16.17041	15.65066	0.9747	1.02596	183.85423	159.02613	70.31764	0.30731	 	2.93562E25	 	7.78344E-26	 	9128.875	27.0872	 
190.0	1.0	0.0	7.87516	7.05363	-9.8459	16.15399	15.58028	0.96864	1.03237	184.17468	159.14945	70.45023	0.30713	 	6.13943E25	 	3.68197E-26	 	8993.734	27.0282	 
185.0	1.0	0.0	7.87711	7.05188	-9.86827	16.13759	15.50988	0.96254	1.03892	184.49456	159.27205	70.58265	0.30694	 	1.3048200000000001E26	 	1.71374E-26	 	8858.889	26.969	 
180.0	1.0	0.0	7.87906	7.05013	-9.8906	16.12121	15.43948	0.95637	1.04562	184.81388	159.39392	70.7149	0.30675	 	2.8196600000000002E26	 	7.8439E-27	 	8724.341	26.9096	 
175.0	1.0	0.0	7.88101	7.04839	-9.91289	16.10485	15.36908	0.95015	1.05246	185.13264	159.51508	70.84696	0.30657	 	6.19885E26	 	3.52857E-27	 	8590.091	26.85	 
170.0	1.0	0.0	7.88296	7.04665	-9.93513	16.08852	15.29867	0.94388	1.05946	185.45084	159.63553	70.97885	0.30638	 	1.38722E27	 	1.55916E-27	 	8456.141	26.79	 
165.0	1.0	0.0	7.8849	7.04491	-9.95733	16.0722	15.22825	0.93754	1.06662	185.76848	159.75526	71.11056	0.30619	 	3.1620299999999997E27	 	6.76308E-28	 	8322.492	26.7298	 
160.0	1.0	0.0	7.88684	7.04318	-9.97948	16.05591	15.15782	0.93115	1.07394	186.08557	159.87428	71.2421	0.30601	 	7.34591E27	 	2.87793E-28	 	8189.146	26.6692	 
155.0	1.0	0.0	7.88878	7.04145	-10.00159	16.03963	15.08739	0.9247	1.08144	186.4021	159.9926	71.37346	0.30582	 	1.74051E28	 	1.20062E-28	 	8056.105	26.6082	 
150.0	1.0	0.0	7.89072	7.03972	-10.02365	16.02338	15.01695	0.91819	1.08911	186.71808	160.11022	71.50465	0.30564	 	4.20881E28	 	4.90706E-29	 	7923.37	26.547	 
145.0	1.0	0.0	7.89265	7.038	-10.04567	16.00715	14.94651	0.91161	1.09696	187.0335	160.22715	71.63566	0.30545	 	1.03948E29	 	1.96338E-29	 	7790.943	26.4854	 
140.0	1.0	0.0	7.89458	7.03628	-10.06765	15.99093	14.87606	0.90498	1.105	187.34838	160.34337	71.76651	0.30526	 	2.6240600000000004E29	 	7.68459E-30	 	7658.828	26.423	 
135.0	1.0	0.0	7.8965	7.03457	-10.08958	15.97474	14.8056	0.89828	1.11324	187.66272	160.45892	71.89718	0.30508	 	6.776190000000001E29	 	2.93982E-30	 	7527.026	26.3604	 
130.0	1.0	0.0	7.89842	7.03285	-10.11147	15.95857	14.73513	0.89152	1.12168	187.97651	160.57377	72.02768	0.30489	 	1.7915E30	 	1.09834E-30	 	7395.54	26.2972	 
125.0	1.0	0.0	7.90034	7.03114	-10.13331	15.94242	14.66466	0.88469	1.13034	188.28976	160.68795	72.15801	0.3047	 	4.8534899999999996E30	 	4.00386E-31	 	7264.373	26.2334	 
120.0	1.0	0.0	7.90226	7.02944	-10.15511	15.9263	14.59418	0.8778	1.13921	188.60248	160.80145	72.28817	0.30452	 	1.34865E31	 	1.4228E-31	 	7133.529	26.1688	 
115.0	1.0	0.0	7.90417	7.02774	-10.17686	15.91019	14.5237	0.87084	1.14831	188.91466	160.91429	72.41817	0.30433	 	3.84753E31	 	4.92384E-32	 	7003.01	26.1038	 
110.0	1.0	0.0	7.90609	7.02604	-10.19858	15.8941	14.4532	0.86382	1.15765	189.22632	161.02646	72.548	0.30415	 	1.1281E32	 	1.65771E-32	 	6872.82	26.038	 
105.0	1.0	0.0	7.90799	7.02434	-10.22024	15.87804	14.3827	0.85672	1.16724	189.53745	161.13797	72.67766	0.30396	 	3.40302E32	 	5.42359E-33	 	6742.963	25.9714	 
100.0	1.0	0.0	7.9099	7.02265	-10.24187	15.86199	14.31219	0.84956	1.17708	189.84806	161.24882	72.80717	0.30377	 	1.05738E33	 	1.72242E-33	 	6613.444	25.9038	 
95.0	1.0	0.0	7.9118	7.02096	-10.26345	15.84597	14.24168	0.84233	1.18719	190.15816	161.35904	72.93651	0.30359	 	3.38825E33	 	5.30318E-34	 	6484.267	25.8354	 
90.0	1.0	0.0	7.9137	7.01928	-10.28499	15.82996	14.17116	0.83502	1.19757	190.46775	161.46861	73.0657	0.3034	 	1.1211E34	 	1.58099E-34	 	6355.436	25.7662	 
85.0	1.0	0.0	7.9156	7.01759	-10.30648	15.81398	14.10063	0.82765	1.20825	190.77684	161.57755	73.19473	0.30321	 	3.8355100000000004E34	 	4.55752E-35	 	6226.957	25.6958	 
80.0	1.0	0.0	7.91749	7.01592	-10.32793	15.79802	14.03009	0.82019	1.21922	191.08543	161.68586	73.3236	0.30303	 	1.3587099999999999E35	 	1.26858E-35	 	6098.835	25.6244	 
75.0	1.0	0.0	7.91938	7.01424	-10.34934	15.78208	13.95954	0.81267	1.23052	191.39353	161.79355	73.45233	0.30284	 	4.9912699999999995E35	 	3.40441E-36	 	5971.077	25.5516	 
70.0	1.0	0.0	7.92127	7.01257	-10.37071	15.76616	13.88899	0.80507	1.24214	191.70115	161.90063	73.58091	0.30266	 	1.90441E36	 	8.79446E-37	 	5843.688	25.4778	 
65.0	1.0	0.0	7.92315	7.0109	-10.39203	15.75026	13.81843	0.79739	1.2541	192.0083	162.00712	73.70934	0.30247	 	7.55979E36	 	2.18316E-37	 	5716.675	25.4026	 
60.0	1.0	0.0	7.92504	7.00924	-10.41331	15.73439	13.74786	0.78963	1.26642	192.31498	162.113	73.83763	0.30228	 	3.12774E37	 	5.19871E-38	 	5590.047	25.3256	 
55.0	1.0	0.0	7.92691	7.00758	-10.43454	15.71853	13.67728	0.78179	1.27912	192.62121	162.21831	73.96578	0.3021	 	1.3512799999999999E38	 	1.18526E-38	 	5463.81	25.2474	 
50.0	1.0	0.0	7.92879	7.00592	-10.45574	15.70269	13.6067	0.77387	1.2922	192.92698	162.32304	74.0938	0.30191	 	6.108389999999999E38	 	2.58205E-39	 	5337.972	25.1676	 
45.0	1.0	0.0	7.93066	7.00426	-10.47689	15.68688	13.5361	0.76587	1.3057	193.23233	162.42721	74.22169	0.30172	 	2.8953500000000004E39	 	5.36312E-40	 	5212.544	25.0856	 
40.0	1.0	0.0	7.93253	7.00261	-10.498	15.67109	13.4655	0.75779	1.31963	193.53725	162.53083	74.34945	0.30154	 	1.4423E40	 	1.0597E-40	 	5087.534	25.002	 
35.0	1.0	0.0	7.9344	7.00096	-10.51907	15.65531	13.39489	0.74962	1.33401	193.84176	162.63391	74.47709	0.30135	 	7.56902E40	 	1.98705E-41	 	4962.953	24.9162	 
30.0	1.0	0.0	7.93627	6.99932	-10.54009	15.63956	13.32427	0.74136	1.34886	194.14587	162.73646	74.60461	0.30117	 	4.1954100000000005E41	 	3.52671E-42	 	4838.812	24.8282	 
25.0	1.0	0.0	7.93813	6.99768	-10.56107	 	13.25365	0.73302	1.36422	194.4496	162.8385	74.73202	0.30098	 	2.4629399999999997E42	 	5.90836E-43	 	4715.123	 	 
