T (C)	Fraction solid (wt)-TOTAL	Fraction liquid (wt)-LIQUID	Density (g/(cm)^3)-TOTAL	Molar volume (cm^3)-TOTAL	Volume change (%)-  	Average expansion coeff. (10e-6 1/K)-  	Thermal conductivity (W/(m*K))-TOTAL	Electrical resistivity (10e-6 Ohm*m)-TOTAL	Electrical conductivity (10e6 1/(Ohm*m))-TOTAL	Young's modulus (GPa)-TOTAL	Bulk modulus (GPa)-TOTAL	Shear modulus(GPa)-TOTAL	Poisson's ratio-TOTAL	Liquid viscosity (mPa s)-  	Total viscosity (mPa s)-  	Liquid diffusivity (10e-9 (m^2)/s)-  	Total diffusivity (10e-9 (m^2)/s)-  	Surface Tension (mN/m)-  	Enthalpy (J/mole)-TOTAL	Specific heat (J/(mole K))-TOTAL	Latent heat (J/mole)-TOTAL
1500.0	0.23988	0.76012	7.02837	7.79942	0.0	20.77296	32.87126	1.75771	0.56892	0.18718	96.0938	0.0638878	0.46494	7.16382	16.5261	1.20806	0.52367	1714.51766	65837.938	 	0.0
1495.0	0.85234	0.14766	7.12146	7.69744	-1.30761	17.60597	34.56962	1.66664	0.60001	31.31125	72.94739	11.39795	0.37355	7.17566	1135.33918	1.20266	0.00760117	1704.91967	60117.265	1144.13	5495.962
1490.0	0.96511	0.0348876	7.14108	7.67625	-1.57929	16.99109	34.85454	1.64834	0.60667	52.24707	68.87844	19.26154	0.35625	7.18674	1933.15499	1.19741	0.00445153	1695.263	58894.512	244.551	6494.562
1485.0	0.9919	0.0081012	7.14754	7.66928	-1.66864	16.82652	34.87828	1.64255	0.60881	58.80606	68.19242	21.74823	0.35197	7.19805	2249.40923	1.19214	0.00381482	1685.9702	58441.067	90.689	6724.412
1480.0	1.0	0.0	7.15107	7.66547	-1.71749	16.76213	34.84478	1.63945	0.60996	61.20723	68.25272	22.66032	0.35054	 	2426.92793	 	0.00352573	 	58155.272	57.159	6787.165
1475.0	1.0	0.0	7.15326	7.66313	-1.74753	16.74453	34.7863	1.63753	0.61068	61.63387	68.63936	22.82155	0.35034	 	2536.47688	 	0.00336383	 	57891.695	52.7154	 
1470.0	1.0	0.0	7.15544	7.66079	-1.77752	16.72694	34.72783	1.63559	0.6114	62.06477	69.02974	22.9844	0.35015	 	2651.64227	 	0.00320853	 	57679.57	42.425	 
1465.0	1.0	0.0	7.15762	7.65845	-1.80746	16.70934	34.66935	1.63365	0.61213	62.4999	69.42381	23.14887	0.34996	 	2772.74483	 	0.0030596	 	57467.792	42.3556	 
1460.0	1.0	0.0	7.1598	7.65612	-1.83736	16.69173	34.61087	1.6317	0.61286	62.93922	69.8215	23.31494	0.34976	 	2900.12543	 	0.0029168	 	57256.361	42.2862	 
1455.0	1.0	0.0	7.16198	7.65379	-1.8672	16.67412	34.55239	1.62975	0.61359	63.38268	70.22277	23.48259	0.34957	 	3034.14642	 	0.00277992	 	57045.277	42.2168	 
1450.0	1.0	0.0	7.16415	7.65147	-1.897	16.65651	34.49391	1.62779	0.61433	63.83026	70.62756	23.65181	0.34937	 	3175.19315	 	0.00264874	 	56834.535	42.1484	 
1445.0	1.0	0.0	7.16633	7.64915	-1.92676	16.6389	34.43543	1.62582	0.61507	64.28192	71.0358	23.8226	0.34918	 	3323.67551	 	0.00252307	 	56624.131	42.0808	 
1440.0	1.0	0.0	7.1685	7.64683	-1.95646	16.62128	34.37696	1.62385	0.61582	64.73762	71.44746	23.99493	0.34899	 	3480.02964	 	0.0024027	 	56414.063	42.0136	 
1435.0	1.0	0.0	7.17067	7.64452	-1.98612	16.60366	34.31848	1.62187	0.61657	65.19732	71.86247	24.16879	0.34879	 	3644.71981	 	0.00228743	 	56204.331	41.9464	 
1430.0	1.0	0.0	7.17284	7.64221	-2.01573	16.58604	34.26	1.61988	0.61733	65.66098	72.28079	24.34417	0.3486	 	3818.2403	 	0.00217709	 	55994.933	41.8796	 
1425.0	1.0	0.0	7.175	7.6399	-2.0453	16.56841	34.20152	1.61789	0.61809	66.12857	72.70235	24.52106	0.3484	 	4001.11759	 	0.00207148	 	55785.869	41.8128	 
1420.0	1.0	0.0	7.17716	7.6376	-2.07482	16.55079	34.14304	1.61589	0.61886	66.60006	73.12711	24.69945	0.34821	 	4193.91259	 	0.00197044	 	55577.138	41.7462	 
1415.0	1.0	0.0	7.17932	7.6353	-2.10429	16.53315	34.08457	1.61388	0.61963	67.0754	73.55501	24.87932	0.34802	 	4397.22312	 	0.00187378	 	55368.738	41.68	 
1410.0	1.0	0.0	7.18148	7.63301	-2.13371	16.51552	34.02609	1.61186	0.6204	67.55455	73.986	25.06065	0.34782	 	4611.6865	 	0.00178135	 	55160.669	41.6138	 
1405.0	1.0	0.0	7.18364	7.63072	-2.16308	16.49788	33.96761	1.60984	0.62118	68.03749	74.42002	25.24344	0.34763	 	4837.98245	 	0.00169299	 	54952.929	41.548	 
1400.0	1.0	0.0	7.18579	7.62843	-2.19241	16.48024	33.90913	1.60781	0.62196	68.52417	74.85704	25.42767	0.34743	 	5076.83612	 	0.00160853	 	54745.518	41.4822	 
1395.0	1.0	0.0	7.18794	7.62614	-2.22169	16.46259	33.85065	1.60578	0.62275	69.01456	75.29698	25.61333	0.34724	 	5329.02137	 	0.00152783	 	54538.434	41.4168	 
1390.0	1.0	0.0	7.19009	7.62386	-2.25093	16.44494	33.79217	1.60374	0.62354	69.50862	75.73981	25.8004	0.34705	 	5595.36436	 	0.00145074	 	54331.676	41.3516	 
1385.0	1.0	0.0	7.19224	7.62159	-2.28011	16.42729	33.7337	1.60169	0.62434	70.0063	76.18547	25.98888	0.34685	 	5876.74736	 	0.00137713	 	54125.243	41.2866	 
1380.0	1.0	0.0	7.19439	7.61932	-2.30925	16.40963	33.67522	1.59963	0.62514	70.50759	76.63391	26.17875	0.34666	 	6174.1129	 	0.00130685	 	53919.135	41.2216	 
1375.0	1.0	0.0	7.19653	7.61705	-2.33834	16.39198	33.61674	1.59757	0.62595	71.01243	77.08508	26.36999	0.34646	 	6488.46824	 	0.00123977	 	53713.35	41.157	 
1370.0	1.0	0.0	7.19867	7.61478	-2.36739	16.37431	33.55826	1.5955	0.62676	71.52079	77.53892	26.56259	0.34627	 	6820.89018	 	0.00117577	 	53507.886	41.0928	 
1365.0	1.0	0.0	7.20081	7.61252	-2.39639	16.35665	33.49978	1.59342	0.62758	72.03264	77.9954	26.75655	0.34608	 	7172.53029	 	0.00111473	 	53302.744	41.0284	 
1360.0	1.0	0.0	7.20295	7.61026	-2.42534	16.33898	33.4413	1.59133	0.6284	72.54794	78.45445	26.95184	0.34588	 	7544.62052	 	0.00105651	 	53097.921	40.9646	 
1355.0	1.0	0.0	7.20508	7.60801	-2.45424	16.32131	33.38283	1.58924	0.62923	73.06664	78.91604	27.14845	0.34569	 	7938.47933	 	0.00100102	 	52893.417	40.9008	 
1350.0	1.0	0.0	7.20721	7.60576	-2.48309	16.30364	33.32435	1.58714	0.63006	73.58872	79.3801	27.34638	0.34549	 	8355.51821	 	9.48139E-4	 	52689.231	40.8372	 
1345.0	1.0	0.0	7.20934	7.60351	-2.5119	16.28596	33.26587	1.58503	0.6309	74.11414	79.84659	27.5456	0.3453	 	8797.24889	 	8.97757E-4	 	52485.36	40.7742	 
1340.0	1.0	0.0	7.21147	7.60127	-2.54066	16.26828	33.20739	1.58292	0.63175	74.64285	80.31547	27.74611	0.3451	 	9265.29096	 	8.49772E-4	 	52281.805	40.711	 
1335.0	1.0	0.0	7.21359	7.59903	-2.56937	16.2506	33.14891	1.58079	0.63259	75.17483	80.78667	27.94789	0.34491	 	9761.3803	 	8.04085E-4	 	52078.564	40.6482	 
1330.0	1.0	0.0	7.21572	7.59679	-2.59804	16.23291	33.09043	1.57866	0.63345	75.71003	81.26016	28.15092	0.34472	 	10287.3781	 	7.606E-4	 	51875.636	40.5856	 
1325.0	1.0	0.0	7.21784	7.59456	-2.62666	16.21522	33.03196	1.57653	0.63431	76.24843	81.73589	28.3552	0.34452	 	10845.28066	 	7.19223E-4	 	51673.02	40.5232	 
1320.0	1.0	0.0	7.21996	7.59233	-2.65523	16.19753	32.97348	1.57438	0.63517	76.78997	82.21381	28.56071	0.34433	 	11437.23002	 	6.79865E-4	 	51470.714	40.4612	 
1315.0	1.0	0.0	7.22207	7.59011	-2.68375	16.17983	32.915	1.57223	0.63604	77.33463	82.69387	28.76744	0.34413	 	12065.52552	 	6.42439E-4	 	51268.717	40.3994	 
1310.0	1.0	0.0	7.22419	7.58789	-2.71223	16.16213	32.85652	1.57007	0.63692	77.88236	83.17602	28.97537	0.34394	 	12732.63627	 	6.06863E-4	 	51067.029	40.3376	 
1305.0	1.0	0.0	7.2263	7.58567	-2.74065	16.14443	32.79804	1.5679	0.6378	78.43314	83.66021	29.1845	0.34375	 	13441.2148	 	5.73055E-4	 	50865.648	40.2762	 
1300.0	1.0	0.0	7.22841	7.58346	-2.76903	16.12672	32.73957	1.56572	0.63868	78.98692	84.14641	29.3948	0.34355	 	14194.11175	 	5.40939E-4	 	50664.572	40.2152	 
1295.0	1.0	0.0	7.23051	7.58125	-2.79737	16.10901	32.68109	1.56354	0.63957	79.54367	84.63456	29.60627	0.34336	 	14994.39195	 	5.10441E-4	 	50463.801	40.1542	 
1290.0	1.0	0.0	7.23262	7.57904	-2.82565	16.0913	32.62261	1.56135	0.64047	80.10335	85.12461	29.81889	0.34316	 	15845.35183	 	4.81488E-4	 	50263.333	40.0936	 
1285.0	1.0	0.0	7.23472	7.57684	-2.85389	16.07358	32.56413	1.55915	0.64138	80.66592	85.61652	30.03265	0.34297	 	16750.53836	 	4.54012E-4	 	50063.167	40.0332	 
1280.0	1.0	0.0	7.23682	7.57464	-2.88208	16.05587	32.50565	1.55694	0.64228	81.23134	86.11025	30.24753	0.34278	 	17713.76973	 	4.27946E-4	 	49863.302	39.973	 
1275.0	1.0	0.0	7.23892	7.57244	-2.91022	16.03814	32.44717	1.55473	0.6432	81.79959	86.60575	30.46353	0.34258	 	18739.15772	 	4.03227E-4	 	49663.736	39.9132	 
1270.0	1.0	0.0	7.24101	7.57025	-2.93832	16.02042	32.3887	1.5525	0.64412	82.37062	87.10296	30.68062	0.34239	 	19831.13219	 	3.79793E-4	 	49464.469	39.8534	 
1265.0	1.0	0.0	7.24311	7.56806	-2.96637	16.00269	32.33022	1.55027	0.64505	82.9444	87.60186	30.8988	0.34219	 	20994.46772	 	3.57586E-4	 	49265.499	39.794	 
1260.0	1.0	0.0	7.2452	7.56588	-2.99437	15.98496	32.27174	1.54803	0.64598	83.52088	88.10239	31.11805	0.342	 	22234.3126	 	3.36548E-4	 	49066.824	39.735	 
1255.0	1.0	0.0	7.24729	7.5637	-3.02232	15.96722	32.21326	1.54578	0.64692	84.10003	88.6045	31.33837	0.34181	 	23556.22055	 	3.16626E-4	 	48868.443	39.6762	 
1250.0	1.0	0.0	7.24937	7.56152	-3.05022	15.94949	32.15478	1.54353	0.64787	84.68182	89.10816	31.55972	0.34161	 	24966.18519	 	2.97767E-4	 	48670.356	39.6174	 
1245.0	1.0	0.0	7.25146	7.55935	-3.07808	15.93175	32.0963	1.54127	0.64882	85.26621	89.61331	31.78211	0.34142	 	26470.67779	 	2.79922E-4	 	48472.56	39.5592	 
1240.0	1.0	0.0	7.25354	7.55718	-3.10589	15.914	32.03783	1.53899	0.64978	85.85316	90.11992	32.00552	0.34122	 	28076.68842	 	2.63041E-4	 	48275.057	39.5006	 
1235.0	1.0	0.0	7.25562	7.55502	-3.13365	15.89625	31.97935	1.53671	0.65074	86.44264	90.62793	32.22994	0.34103	 	29791.77097	 	2.47078E-4	 	48077.844	39.4426	 
1230.0	1.0	0.0	7.25769	7.55286	-3.16136	15.8785	31.92087	1.53442	0.65171	87.0346	91.13732	32.45534	0.34084	 	31624.09228	 	2.31991E-4	 	47880.921	39.3846	 
1225.0	1.0	0.0	7.25977	7.5507	-3.18903	15.86075	31.86239	1.53213	0.65269	87.62901	91.64803	32.68173	0.34064	 	33582.48594	 	2.17735E-4	 	47684.286	39.327	 
1220.0	1.0	0.0	7.26184	7.54854	-3.21665	15.84299	31.80391	1.52982	0.65367	88.22584	92.16001	32.90908	0.34045	 	35676.51117	 	2.04271E-4	 	47487.937	39.2698	 
1215.0	1.0	0.0	7.26391	7.54639	-3.24422	15.82523	31.74543	1.52751	0.65466	88.82504	92.67323	33.13739	0.34025	 	37916.51721	 	1.9156E-4	 	47291.872	39.213	 
1210.0	1.0	0.0	7.26597	7.54425	-3.27174	15.80747	31.68696	1.52518	0.65566	89.42658	93.18765	33.36663	0.34006	 	40313.71395	 	1.79564E-4	 	47096.09	39.1564	 
1205.0	1.0	0.0	7.26804	7.5421	-3.29922	15.7897	31.62848	1.52285	0.65666	90.03043	93.70322	33.5968	0.33987	 	42880.24919	 	1.68247E-4	 	46900.588	39.1004	 
1200.0	1.0	0.0	7.2701	7.53997	-3.32664	15.77193	31.57	1.52051	0.65767	90.63654	94.21989	33.82789	0.33967	 	45629.29354	 	1.57576E-4	 	46705.365	39.0446	 
1195.0	1.0	0.0	7.27216	7.53783	-3.35402	15.75416	31.51152	1.51816	0.65869	91.24488	94.73763	34.05987	0.33948	 	48575.13336	 	1.47517E-4	 	46510.42	38.989	 
1190.0	1.0	0.0	7.27422	7.5357	-3.38135	15.73638	31.45304	1.51581	0.65971	91.85542	95.25639	34.29274	0.33928	 	51733.27296	 	1.3804E-4	 	46315.749	38.9342	 
1185.0	1.0	0.0	7.27627	7.53357	-3.40864	15.7186	31.39456	1.51344	0.66075	92.46811	95.77614	34.52648	0.33909	 	55120.54671	 	1.29115E-4	 	46121.351	38.8796	 
1180.0	1.0	0.0	7.27832	7.53145	-3.43587	15.70082	31.33609	1.51107	0.66178	93.08292	96.29683	34.76108	0.3389	 	58755.24227	 	1.20712E-4	 	45927.225	38.8252	 
1175.0	1.0	0.0	7.28037	7.52933	-3.46306	15.68304	31.27761	1.50868	0.66283	93.69982	96.81842	34.99652	0.3387	 	62657.23607	 	1.12805E-4	 	45733.367	38.7716	 
1170.0	1.0	0.0	7.28242	7.52721	-3.4902	15.66525	31.21913	1.50629	0.66388	94.31876	97.34086	35.2328	0.33851	 	66848.14235	 	1.05368E-4	 	45539.777	38.718	 
1165.0	1.0	0.0	7.28447	7.5251	-3.5173	15.64746	31.16065	1.50389	0.66494	94.93971	97.86412	35.4699	0.33831	 	71351.47717	 	9.83757E-5	 	45346.451	38.6652	 
1160.0	1.0	0.0	7.28651	7.52299	-3.54434	15.62966	31.10217	1.50148	0.66601	95.56263	98.38816	35.7078	0.33812	 	76192.83906	 	9.18045E-5	 	45153.389	38.6124	 
1155.0	1.0	0.0	7.28855	7.52088	-3.57134	15.61186	31.0437	1.49906	0.66709	96.18748	98.91294	35.9465	0.33793	 	81400.10802	 	8.56319E-5	 	44960.587	38.5604	 
1150.0	1.0	0.0	7.29059	7.51878	-3.59829	15.59406	30.98522	1.49663	0.66817	96.81424	99.4384	36.18597	0.33773	 	87003.665	 	7.98362E-5	 	44768.043	38.5088	 
1145.0	1.0	0.0	7.29262	7.51668	-3.62519	15.57626	30.92674	1.49419	0.66926	97.44286	99.96453	36.42621	0.33754	 	93036.6339	 	7.43969E-5	 	44575.756	38.4574	 
1140.0	1.0	0.0	7.29465	7.51459	-3.65204	15.55845	30.86826	1.49174	0.67036	98.0733	100.49127	36.6672	0.33734	 	99535.14876	 	6.92945E-5	 	44383.723	38.4066	 
1135.0	1.0	0.0	7.29668	7.5125	-3.67884	15.54064	30.80978	1.48929	0.67146	98.70553	101.01858	36.90894	0.33715	 	106538.6489	 	6.45102E-5	 	44191.942	38.3562	 
1130.0	1.0	0.0	7.29871	7.51041	-3.7056	15.52282	30.7513	1.48682	0.67258	99.33952	101.54644	37.15139	0.33696	 	114090.2048	 	6.00264E-5	 	44000.41	38.3064	 
1125.0	1.0	0.0	7.30074	7.50833	-3.73231	15.50501	30.69283	1.48434	0.6737	99.97522	102.07478	37.39456	0.33676	 	122236.879	 	5.58262E-5	 	43809.125	38.257	 
1120.0	1.0	0.0	7.30276	7.50625	-3.75897	15.48718	30.63435	1.48186	0.67483	100.6126	102.60359	37.63843	0.33657	 	131030.1247	 	5.18936E-5	 	43618.085	38.208	 
1115.0	1.0	0.0	7.30478	7.50417	-3.78558	15.46936	30.57587	1.47936	0.67597	101.25162	103.13281	37.88298	0.33637	 	140526.2275	 	4.82132E-5	 	43427.287	38.1596	 
1110.0	1.0	0.0	7.3068	7.5021	-3.81215	15.45153	30.51739	1.47686	0.67711	101.89224	103.66242	38.12821	0.33618	 	150786.7947	 	4.47706E-5	 	43236.728	38.1118	 
1105.0	1.0	0.0	7.30881	7.50003	-3.83866	15.4337	30.45891	1.47435	0.67827	102.53444	104.19236	38.37409	0.33599	 	161879.2974	 	4.1552E-5	 	43046.406	38.0644	 
1100.0	1.0	0.0	7.31082	7.49797	-3.86513	15.41587	30.40043	1.47182	0.67943	103.17817	104.72261	38.62062	0.33579	 	173877.6725	 	3.85444E-5	 	42856.318	38.0176	 
1095.0	1.0	0.0	7.31283	7.49591	-3.89155	15.39803	30.34196	1.46929	0.6806	103.82339	105.25312	38.86777	0.3356	 	186862.9895	 	3.57353E-5	 	42666.462	37.9712	 
1090.0	1.0	0.0	7.31484	7.49385	-3.91793	15.38019	30.28348	1.46675	0.68178	104.47007	105.78386	39.11555	0.3354	 	200924.1925	 	3.3113E-5	 	42476.835	37.9254	 
1085.0	1.0	0.0	7.31685	7.4918	-3.94425	15.36235	30.225	1.4642	0.68297	105.11817	106.31478	39.36393	0.33521	 	216158.9239	 	3.06663E-5	 	42287.434	37.8802	 
1080.0	1.0	0.0	7.31885	7.48975	-3.97053	15.3445	30.16652	1.46163	0.68417	105.76766	106.84586	39.61291	0.33502	 	232674.4406	 	2.83847E-5	 	42098.256	37.8356	 
1075.0	1.0	0.0	7.32085	7.4877	-3.99676	15.32666	30.10804	1.45906	0.68537	106.4185	107.37705	39.86246	0.33482	 	250588.6334	 	2.62581E-5	 	41909.298	37.7916	 
1070.0	1.0	0.0	7.32284	7.48566	-4.02294	15.3088	30.04956	1.45648	0.68659	107.07065	107.90832	40.11257	0.33463	 	270031.1628	 	2.42771E-5	 	41720.557	37.7482	 
1065.0	1.0	0.0	7.32484	7.48362	-4.04907	15.29095	29.99109	1.45389	0.68781	107.72408	108.43963	40.36324	0.33443	 	291144.7232	 	2.24328E-5	 	41532.031	37.7052	 
1060.0	1.0	0.0	7.32683	7.48159	-4.07515	15.27309	29.93261	1.45128	0.68905	108.37875	108.97094	40.61444	0.33424	 	314086.4539	 	2.07165E-5	 	41343.716	37.663	 
1055.0	1.0	0.0	7.32882	7.47956	-4.10119	15.25523	29.87413	1.44867	0.69029	109.03462	109.50221	40.86617	0.33405	 	339029.5129	 	1.91204E-5	 	41155.608	37.6216	 
1050.0	1.0	0.0	7.33081	7.47753	-4.12718	15.23736	29.81565	1.44605	0.69154	109.69165	110.03342	41.1184	0.33385	 	366164.8341	 	1.76368E-5	 	40967.705	37.5806	 
1045.0	1.0	0.0	7.33279	7.47551	-4.15312	15.21949	29.75717	1.44341	0.6928	110.34982	110.56451	41.37114	0.33366	 	395703.0909	 	1.62586E-5	 	40780.004	37.5402	 
1040.0	1.0	0.0	7.33477	7.47349	-4.17901	15.20162	29.6987	1.44077	0.69407	111.00908	111.09547	41.62436	0.33346	 	427876.8918	 	1.4979E-5	 	40592.5	37.5008	 
1035.0	1.0	0.0	7.33675	7.47147	-4.20485	15.18375	29.64022	1.43812	0.69535	111.66939	111.62624	41.87805	0.33327	 	462943.2371	 	1.37917E-5	 	40405.19	37.462	 
1030.0	1.0	0.0	7.33873	7.46946	-4.23064	15.16587	29.58174	1.43545	0.69665	112.33073	112.1568	42.13219	0.33307	 	501186.2704	 	1.26906E-5	 	40218.072	37.4236	 
1025.0	1.0	0.0	7.3407	7.46745	-4.25639	15.14799	29.52326	1.43278	0.69795	112.99305	112.68711	42.38678	0.33288	 	542920.361	 	1.16701E-5	 	40031.14	37.3864	 
1020.0	1.0	0.0	7.34267	7.46545	-4.28209	15.1301	29.46478	1.43009	0.69926	113.65631	113.21713	42.64179	0.33269	 	588493.5617	 	1.07249E-5	 	39844.392	37.3496	 
1015.0	1.0	0.0	7.34464	7.46345	-4.30774	15.11222	29.40631	1.42739	0.70058	114.32049	113.74683	42.89723	0.33249	 	638291.4888	 	9.84995E-6	 	39657.823	37.3138	 
1010.0	1.0	0.0	7.3466	7.46145	-4.33334	15.09432	29.34783	1.42469	0.70191	114.98555	114.27617	43.15306	0.3323	 	692741.6802	 	9.04051E-6	 	39471.43	37.2786	 
1005.0	1.0	0.0	7.34857	7.45946	-4.35889	15.07643	29.28935	1.42197	0.70325	115.65144	114.80513	43.40929	0.3321	 	752318.4938	 	8.29214E-6	 	39285.208	37.2444	 
1000.0	1.0	0.0	7.35053	7.45747	-4.3844	15.05853	29.23087	1.41924	0.7046	116.31813	115.33365	43.66589	0.33191	 	817548.6175	 	7.60068E-6	 	39099.154	37.2108	 
995.0	1.0	0.0	7.35248	7.45548	-4.40986	15.04063	29.17239	1.4165	0.70597	116.98559	115.86172	43.92285	0.33172	 	889017.273	 	6.96221E-6	 	38913.263	37.1782	 
990.0	1.0	0.0	7.35444	7.4535	-4.43526	15.02273	29.11392	1.41375	0.70734	117.65378	116.38929	44.18016	0.33152	 	967375.2042	 	6.37304E-6	 	38727.531	37.1464	 
985.0	1.0	0.0	7.35639	7.45152	-4.46062	15.00482	29.05544	1.41099	0.70872	118.32266	116.91633	44.43781	0.33133	 	1053346.558	 	5.82972E-6	 	38541.953	37.1156	 
980.0	1.0	0.0	7.35834	7.44955	-4.48594	14.98691	28.99696	1.40821	0.71012	118.99219	117.44281	44.69578	0.33113	 	1147737.778	 	5.32902E-6	 	38356.524	37.0858	 
975.0	1.0	0.0	7.36029	7.44758	-4.5112	14.969	28.93848	1.40543	0.71153	119.66235	117.96869	44.95406	0.33094	 	1251447.647	 	4.86789E-6	 	38171.241	37.0566	 
970.0	1.0	0.0	7.36223	7.44561	-4.53642	14.95108	28.88001	1.40263	0.71295	120.33309	118.49394	45.21263	0.33075	 	1365478.643	 	4.4435E-6	 	37986.098	37.0286	 
965.0	1.0	0.0	7.36417	7.44365	-4.56158	14.93317	28.82153	1.39983	0.71437	121.00438	119.01853	45.47148	0.33055	 	1490949.779	 	4.05319E-6	 	37801.09	37.0016	 
960.0	1.0	0.0	7.36611	7.44169	-4.5867	14.91524	28.76305	1.39701	0.71582	121.67618	119.54241	45.7306	0.33036	 	1629111.15	 	3.69447E-6	 	37616.212	36.9756	 
955.0	1.0	0.0	7.36805	7.43973	-4.61177	14.89732	28.70458	1.39418	0.71727	122.34845	120.06557	45.98997	0.33016	 	1781360.414	 	3.36501E-6	 	37431.459	36.9506	 
950.0	1.0	0.0	7.36998	7.43778	-4.63679	14.87939	28.6461	1.39134	0.71873	123.02117	120.58796	46.24959	0.32997	 	1949261.479	 	3.06264E-6	 	37246.825	36.9268	 
945.0	1.0	0.0	7.37191	7.43583	-4.66176	14.86146	28.58763	1.38848	0.72021	123.69428	121.10956	46.50943	0.32978	 	2134565.73	 	2.78534E-6	 	37062.305	36.904	 
940.0	1.0	0.0	7.37384	7.43389	-4.68669	14.84352	28.52915	1.38562	0.7217	124.36777	121.63033	46.76949	0.32958	 	2339236.136	 	2.5312E-6	 	36877.893	36.8824	 
935.0	1.0	0.0	7.37576	7.43195	-4.71156	14.82558	28.47068	1.38274	0.7232	125.04158	122.15023	47.02974	0.32939	 	2565474.672	 	2.29848E-6	 	36693.583	36.862	 
930.0	1.0	0.0	7.37769	7.43001	-4.73639	14.80764	28.41221	1.37985	0.72472	125.71568	122.66924	47.29019	0.32919	 	2815753.534	 	2.08551E-6	 	36509.369	36.8428	 
925.0	1.0	0.0	7.37961	7.42808	-4.76117	14.7897	28.35373	1.37695	0.72624	126.39005	123.18733	47.5508	0.329	 	3092850.695	 	1.89077E-6	 	36325.245	36.8248	 
920.0	1.0	0.0	7.38152	7.42615	-4.7859	14.77175	28.29526	1.37404	0.72778	127.06464	123.70445	47.81158	0.32881	 	3399890.467	 	1.71284E-6	 	36141.204	36.8082	 
915.0	1.0	0.0	7.38344	7.42423	-4.81058	14.7538	28.23679	1.37111	0.72933	127.73941	124.22059	48.0725	0.32861	 	3740389.785	 	1.55039E-6	 	35957.239	36.793	 
910.0	1.0	0.0	7.38535	7.42231	-4.83522	14.73584	28.17832	1.36818	0.7309	128.41433	124.7357	48.33355	0.32842	 	4118311.108	 	1.40219E-6	 	35773.345	36.7788	 
905.0	1.0	0.0	7.38726	7.42039	-4.8598	14.71788	28.11985	1.36523	0.73248	129.08936	125.24976	48.59472	0.32822	 	4538122.9	 	1.2671E-6	 	35589.512	36.7666	 
900.0	1.0	0.0	7.38916	7.41847	-4.88434	14.69992	28.06139	1.36227	0.73407	129.76448	125.76274	48.856	0.32803	 	5004868.886	 	1.14406E-6	 	35405.735	36.7554	 
895.0	1.0	0.0	7.39106	7.41656	-4.90882	14.68196	28.00292	1.35929	0.73568	130.43963	126.2746	49.11737	0.32784	 	5524247.402	 	1.03208E-6	 	35222.006	36.7458	 
890.0	1.0	0.0	7.39296	7.41466	-4.93326	14.66399	27.94446	1.35631	0.7373	131.11479	126.78531	49.37882	0.32764	 	6102702.417	 	9.30251E-7	 	35038.316	36.738	 
885.0	1.0	0.0	7.39486	7.41276	-4.95765	14.64602	27.886	1.35331	0.73893	131.78992	127.29484	49.64033	0.32745	 	6747528.052	 	8.37735E-7	 	34854.658	36.7316	 
880.0	1.0	0.0	7.39676	7.41086	-4.982	14.62805	27.82754	1.3503	0.74058	132.46498	127.80317	49.9019	0.32725	 	7466988.702	 	7.53749E-7	 	34671.022	36.7272	 
875.0	1.0	0.0	7.39865	7.40896	-5.00629	14.61007	27.76909	1.34727	0.74224	133.13995	128.31026	50.1635	0.32706	 	8270457.263	 	6.77573E-7	 	34487.402	36.724	 
870.0	1.0	0.0	7.40054	7.40707	-5.03053	14.59209	27.71063	1.34423	0.74392	133.81477	128.81607	50.42513	0.32687	 	9168574.33	 	6.08539E-7	 	34303.786	36.7232	 
865.0	1.0	0.0	7.40242	7.40518	-5.05473	14.57411	27.65219	1.34118	0.74561	134.48942	129.32059	50.68677	0.32667	 	1.017343176E7	 	5.46033E-7	 	34120.166	36.724	 
860.0	1.0	0.0	7.40431	7.4033	-5.07888	14.55612	27.59374	1.33812	0.74732	135.16386	129.82378	50.94841	0.32648	 	1.129878455E7	 	4.89488E-7	 	33936.533	36.7266	 
855.0	1.0	0.0	7.40619	7.40142	-5.10297	14.53813	27.5353	1.33504	0.74904	135.83805	130.32561	51.21003	0.32628	 	1.256029568E7	 	4.38383E-7	 	33752.875	36.7316	 
850.0	1.0	0.0	7.40806	7.39955	-5.12702	14.52014	27.47686	1.33195	0.75078	136.51196	130.82604	51.47162	0.32609	 	1.397581933E7	 	3.92236E-7	 	33569.183	36.7384	 
845.0	1.0	0.0	7.40994	7.39767	-5.15102	14.50214	27.41843	1.32885	0.75253	137.18556	131.32506	51.73316	0.3259	 	1.556572887E7	 	3.50604E-7	 	33385.445	36.7476	 
840.0	1.0	0.0	7.41181	7.39581	-5.17498	14.48415	27.36	1.32573	0.7543	137.8588	131.82263	51.99465	0.3257	 	1.735329715E7	 	3.13082E-7	 	33201.651	36.7588	 
835.0	1.0	0.0	7.41368	7.39394	-5.19888	14.46614	27.30158	1.3226	0.75609	138.53165	132.31873	52.25608	0.32551	 	1.936513789E7	 	2.79296E-7	 	33017.788	36.7726	 
830.0	1.0	0.0	7.41554	7.39208	-5.22274	14.44814	27.24317	1.31946	0.75789	139.20408	132.81331	52.51741	0.32531	 	2.163171864E7	 	2.48903E-7	 	32833.844	36.7888	 
825.0	1.0	0.0	7.41741	7.39022	-5.24654	14.43013	27.18476	1.3163	0.75971	139.87605	133.30636	52.77865	0.32512	 	2.418795753E7	 	2.21589E-7	 	32649.806	36.8076	 
820.0	1.0	0.0	7.41927	7.38837	-5.2703	14.41212	27.12635	1.31312	0.76154	140.54753	133.79785	53.03978	0.32493	 	2.707391842E7	 	1.97068E-7	 	32465.66	36.8292	 
815.0	1.0	0.0	7.42113	7.38652	-5.29401	14.3941	27.06796	1.30994	0.76339	141.21847	134.28774	53.30079	0.32473	 	3.033562159E7	 	1.75074E-7	 	32281.394	36.8532	 
810.0	1.0	0.0	7.42298	7.38468	-5.31767	14.37608	27.00957	1.30674	0.76526	141.88885	134.77601	53.56166	0.32454	 	3.402599032E7	 	1.55369E-7	 	32096.991	36.8806	 
805.0	1.0	0.0	7.42483	7.38284	-5.34128	14.35806	26.95119	1.30352	0.76715	142.55862	135.26263	53.82238	0.32434	 	3.820595759E7	 	1.37732E-7	 	31912.436	36.911	 
800.0	1.0	0.0	7.42668	7.381	-5.36484	14.34004	26.89282	1.30029	0.76906	143.22776	135.74758	54.08293	0.32415	 	4.294576143E7	 	1.21963E-7	 	31727.714	36.9444	 
795.0	1.0	0.0	7.42853	7.37916	-5.38835	14.32201	26.83446	1.29705	0.77098	143.89622	136.23081	54.3433	0.32396	 	4.832646327E7	 	1.07878E-7	 	31542.807	36.9814	 
790.0	1.0	0.0	7.43037	7.37733	-5.41182	14.30398	26.77611	1.29379	0.77292	144.56398	136.71232	54.60349	0.32376	 	5.444172969E7	 	9.53124E-8	 	31357.699	37.0216	 
785.0	1.0	0.0	7.43221	7.37551	-5.43523	14.28595	26.71777	1.29052	0.77488	145.23099	137.19206	54.86347	0.32357	 	6.139992614E7	 	8.41136E-8	 	31172.369	37.066	 
780.0	1.0	0.0	7.43404	7.37368	-5.4586	14.26791	26.65944	1.28723	0.77686	145.89722	137.67001	55.12323	0.32337	 	6.932658054E7	 	7.41442E-8	 	30986.798	37.1142	 
775.0	1.0	0.0	7.43588	7.37187	-5.48192	14.24987	26.60113	1.28393	0.77886	146.56264	138.14615	55.38276	0.32318	 	7.836728586E7	 	6.52793E-8	 	30800.967	37.1662	 
770.0	1.0	0.0	7.43771	7.37005	-5.50519	14.23182	26.54282	1.28061	0.78088	147.22721	138.62044	55.64205	0.32299	 	8.869112456E7	 	5.74055E-8	 	30614.852	37.223	 
765.0	1.0	0.0	7.43954	7.36824	-5.5284	14.21378	26.48452	1.27728	0.78291	147.89089	139.09286	55.90107	0.32279	 	1.004947144E8	 	5.04201E-8	 	30428.432	37.284	 
760.0	1.0	0.0	7.44136	7.36643	-5.55158	14.19573	26.42624	1.27393	0.78497	148.55365	139.56338	56.15983	0.3226	 	1.140069951E8	 	4.42302E-8	 	30241.681	37.3502	 
755.0	1.0	0.0	7.44319	7.36463	-5.5747	14.17767	26.36797	1.27057	0.78705	149.21546	140.03198	56.4183	0.3224	 	1.294948985E8	 	3.87517E-8	 	30054.574	37.4214	 
750.0	1.0	0.0	7.445	7.36283	-5.59777	14.15962	26.30971	1.26719	0.78915	149.87628	140.49863	56.67647	0.32221	 	1.472700773E8	 	3.39087E-8	 	29867.084	37.498	 
745.0	1.0	0.0	7.44682	7.36103	-5.62079	14.14156	26.25146	1.26379	0.79127	150.53607	140.9633	56.93433	0.32202	 	1.676968984E8	 	2.96329E-8	 	29679.181	37.5806	 
740.0	1.0	0.0	7.44863	7.35924	-5.64377	14.1235	26.19323	1.26038	0.79341	151.1948	141.42596	57.19186	0.32182	 	1.912019553E8	 	2.58624E-8	 	29490.834	37.6694	 
735.0	1.0	0.0	7.45044	7.35745	-5.6667	14.10543	26.135	1.25696	0.79557	151.85244	141.8866	57.44905	0.32163	 	2.182854035E8	 	2.25417E-8	 	29302.012	37.7644	 
730.0	1.0	0.0	7.45225	7.35567	-5.68957	14.08736	26.07679	1.25351	0.79776	152.50895	142.34518	57.7059	0.32143	 	2.495344892E8	 	1.9621E-8	 	29112.678	37.8668	 
725.0	1.0	0.0	7.45406	7.35389	-5.7124	14.06929	26.01859	1.25006	0.79996	153.16429	142.80168	57.96237	0.32124	 	2.856397204E8	 	1.70555E-8	 	28922.796	37.9764	 
720.0	1.0	0.0	7.45586	7.35211	-5.73518	14.05121	25.96041	1.24658	0.80219	153.81843	143.25607	58.21847	0.32104	 	3.274142271E8	 	1.48048E-8	 	28732.325	38.0942	 
715.0	1.0	0.0	7.45766	7.35034	-5.75791	14.03313	25.90223	1.24309	0.80445	154.47134	143.70833	58.47418	0.32085	 	3.758169752E8	 	1.28331E-8	 	28541.221	38.2208	 
710.0	1.0	0.0	7.45945	7.34857	-5.78059	14.01505	25.84406	1.23959	0.80672	155.12298	144.15843	58.72948	0.32066	 	4.31980646E8	 	1.11082E-8	 	28349.44	38.3562	 
705.0	1.0	0.0	7.46124	7.34681	-5.80322	13.99697	25.7859	1.23606	0.80902	155.77332	144.60635	58.98436	0.32046	 	4.972451745E8	 	9.60111E-9	 	28156.931	38.5018	 
700.0	1.0	0.0	7.46303	7.34505	-5.8258	13.97888	25.72775	1.23252	0.81134	156.42231	145.05205	59.23881	0.32027	 	5.731981598E8	 	8.28632E-9	 	27963.641	38.658	 
695.0	1.0	0.0	7.46482	7.34329	-5.84834	13.96079	25.66961	1.22897	0.81369	157.06994	145.49553	59.49282	0.32007	 	6.617236384E8	 	7.1409E-9	 	27769.511	38.826	 
690.0	1.0	0.0	7.4666	7.34153	-5.87082	13.94269	25.61147	1.2254	0.81606	157.71615	145.93675	59.74637	0.31988	 	7.650610507E8	 	6.14447E-9	 	27574.478	39.0066	 
685.0	1.0	0.0	7.46838	7.33978	-5.89326	13.9246	25.55334	1.22181	0.81846	158.36093	146.37568	59.99944	0.31969	 	8.85876653E8	 	5.27894E-9	 	27378.476	39.2004	 
680.0	1.0	0.0	7.47016	7.33804	-5.91564	13.90649	25.49521	1.2182	0.82088	159.00422	146.81231	60.25203	0.31949	 	1.027350154E9	 	4.52824E-9	 	27181.429	39.4094	 
675.0	1.0	0.0	7.47193	7.3363	-5.93798	13.88839	25.43709	1.21458	0.82333	159.64601	147.24661	60.50412	0.3193	 	1.193280008E9	 	3.87812E-9	 	26983.257	39.6344	 
670.0	1.0	0.0	7.4737	7.33456	-5.96027	13.87028	25.37896	1.21095	0.8258	160.28625	147.67855	60.7557	0.3191	 	1.388211609E9	 	3.31598E-9	 	26783.872	39.877	 
665.0	1.0	0.0	7.47547	7.33282	-5.98251	13.85217	25.32084	1.20729	0.8283	160.92492	148.10812	61.00676	0.31891	 	1.617593657E9	 	2.83067E-9	 	26583.177	40.139	 
660.0	1.0	0.0	7.47724	7.33109	-6.00469	13.83406	25.26271	1.20362	0.83083	161.56197	148.53528	61.25728	0.31872	 	1.887969241E9	 	2.41237E-9	 	26381.068	40.4218	 
655.0	1.0	0.0	7.479	7.32937	-6.02683	13.81594	25.20458	1.19993	0.83338	162.19737	148.96002	61.50725	0.31852	 	2.20720978E9	 	2.0524E-9	 	26177.426	40.7284	 
650.0	1.0	0.0	7.48076	7.32764	-6.04893	13.79782	25.14645	1.19623	0.83596	162.83109	149.3823	61.75665	0.31833	 	2.584801984E9	 	1.74314E-9	 	25972.126	41.06	 
645.0	1.0	0.0	7.48251	7.32592	-6.07097	13.7797	25.0883	1.1925	0.83857	163.4631	149.80212	62.00548	0.31813	 	3.032200547E9	 	1.47789E-9	 	25765.025	41.4202	 
640.0	1.0	0.0	7.48426	7.32421	-6.09296	13.76157	25.03015	1.18877	0.84121	164.09336	150.21943	62.25371	0.31794	 	3.563262458E9	 	1.25078E-9	 	25555.966	41.8118	 
635.0	1.0	0.0	7.48601	7.3225	-6.1149	13.74344	24.97199	1.18501	0.84387	164.72184	150.63423	62.50135	0.31775	 	4.194782912E9	 	1.05666E-9	 	25344.777	42.2378	 
630.0	1.0	0.0	7.48776	7.32079	-6.1368	13.72531	24.91382	1.18124	0.84657	165.3485	151.04649	62.74836	0.31755	 	4.947157922E9	 	8.91027E-10	 	25131.264	42.7026	 
625.0	1.0	0.0	7.4895	7.31909	-6.15864	13.70717	24.85563	1.17745	0.84929	165.97331	151.45619	62.99475	0.31736	 	5.845205274E9	 	7.49956E-10	 	24915.212	43.2104	 
620.0	1.0	0.0	7.49124	7.31739	-6.18044	13.68904	24.79743	1.17364	0.85205	166.59624	151.8633	63.2405	0.31716	 	6.919183804E9	 	6.30023E-10	 	24696.381	43.7662	 
615.0	1.0	0.0	7.49298	7.31569	-6.20218	13.67089	24.73921	1.16982	0.85483	167.21725	152.2678	63.48559	0.31697	 	8.206061607E9	 	5.28248E-10	 	24474.502	44.3758	 
610.0	1.0	0.0	7.49471	7.314	-6.22388	13.65275	24.68097	1.16598	0.85765	167.83631	152.66967	63.73001	0.31678	 	9.751097373E9	 	4.42046E-10	 	24245.949	45.7106	 
605.0	1.0	0.0	7.49644	7.31231	-6.24553	13.6346	24.62271	1.16212	0.8605	168.45339	153.06889	63.97375	0.31658	 	1.16098E10	 	3.69173E-10	 	23991.057	50.9784	 
600.0	1.0	0.0	7.49817	7.31062	-6.26712	13.61645	24.56443	1.15824	0.86338	169.06846	153.46543	64.2168	0.31639	 	1.3850499999999998E10	 	3.07688E-10	 	23739.632	50.285	 
595.0	1.0	0.0	7.49989	7.30894	-6.28867	13.59829	24.50613	1.15435	0.86629	169.68147	153.85928	64.45914	0.31619	 	1.6557199999999998E10	 	2.55914E-10	 	23491.537	49.619	 
590.0	1.0	0.0	7.50162	7.30727	-6.31017	13.58013	24.4478	1.15044	0.86923	170.2924	154.25041	64.70076	0.316	 	1.98339E10	 	2.12405E-10	 	23246.637	48.98	 
585.0	1.0	0.0	7.50333	7.30559	-6.33162	13.56197	24.38945	1.14651	0.87221	170.90122	154.63881	64.94165	0.31581	 	2.3809099999999996E10	 	1.75917E-10	 	23004.81	48.3654	 
580.0	1.0	0.0	7.50505	7.30393	-6.35302	13.54381	24.33107	1.14257	0.87522	171.50789	155.02444	65.18179	0.31561	 	2.8642199999999996E10	 	1.4538E-10	 	22765.937	47.7746	 
575.0	1.0	0.0	7.50676	7.30226	-6.37437	13.52564	24.27267	1.1386	0.87827	172.11238	155.4073	65.42118	0.31542	 	3.45317E10	 	1.19879E-10	 	22529.907	47.206	 
570.0	1.0	0.0	7.50847	7.3006	-6.39567	13.50747	24.21424	1.13462	0.88135	172.71466	155.78736	65.65979	0.31522	 	4.17245E10	 	9.8628E-11	 	22296.613	46.6588	 
565.0	1.0	0.0	7.51017	7.29894	-6.41692	13.48929	24.15579	1.13062	0.88447	173.31469	156.1646	65.89762	0.31503	 	5.052959999999999E10	 	8.09586E-11	 	22065.957	46.1312	 
560.0	1.0	0.0	7.51187	7.29729	-6.43813	13.47112	24.0973	1.12661	0.88762	173.91244	156.53899	66.13466	0.31484	 	6.133349999999999E10	 	6.62998E-11	 	21837.843	45.6228	 
555.0	1.0	0.0	7.51357	7.29564	-6.45928	13.45294	24.0388	1.12257	0.89081	174.50789	156.91053	66.37089	0.31464	 	7.46219E10	 	5.41663E-11	 	21612.182	45.1322	 
550.0	1.0	0.0	7.51527	7.29399	-6.48038	13.43475	23.98026	1.11852	0.89404	175.10099	157.27919	66.60629	0.31445	 	9.10059E10	 	4.41465E-11	 	21388.889	44.6586	 
545.0	1.0	0.0	7.51696	7.29235	-6.50144	13.41657	23.9217	1.11445	0.89731	175.69173	157.64495	66.84087	0.31425	 	1.11257E11	 	3.58916E-11	 	21167.884	44.201	 
540.0	1.0	0.0	7.51865	7.29071	-6.52244	13.39838	23.86311	1.11035	0.90061	176.28005	158.00778	67.0746	0.31406	 	1.3635E11	 	2.91072E-11	 	20949.089	43.759	 
535.0	1.0	0.0	7.52034	7.28908	-6.5434	13.38018	23.8045	1.10624	0.90396	176.86594	158.36768	67.30747	0.31387	 	1.67525E11	 	2.3545E-11	 	20732.434	43.331	 
530.0	1.0	0.0	7.52202	7.28745	-6.5643	13.36199	23.74586	1.10211	0.90735	177.44936	158.72463	67.53947	0.31367	 	2.06355E11	 	1.89963E-11	 	20517.848	42.9172	 
525.0	1.0	0.0	7.5237	7.28582	-6.58516	13.34379	23.6872	1.09797	0.91078	178.03029	159.07859	67.77058	0.31348	 	2.54851E11	 	1.52857E-11	 	20305.268	42.516	 
520.0	1.0	0.0	7.52537	7.2842	-6.60596	13.32558	23.62852	1.0938	0.91425	178.60868	159.42957	68.0008	0.31328	 	3.15582E11	 	1.22668E-11	 	20094.631	42.1274	 
515.0	1.0	0.0	7.52705	7.28258	-6.62672	13.30738	23.56981	1.08961	0.91776	179.18451	159.77753	68.23012	0.31309	 	3.91847E11	 	9.81701E-12	 	19885.878	41.7506	 
510.0	1.0	0.0	7.52872	7.28096	-6.64743	13.28917	23.51109	1.0854	0.92132	179.75775	160.12246	68.45851	0.3129	 	4.87889E11	 	7.83449E-12	 	19678.954	41.3848	 
505.0	1.0	0.0	7.53038	7.27935	-6.66809	13.27096	23.45235	1.08117	0.92492	180.32836	160.46434	68.68597	0.3127	 	6.09184E11	 	6.23449E-12	 	19473.806	41.0296	 
500.0	1.0	0.0	7.53205	7.27774	-6.68869	13.25274	23.3936	1.07692	0.92857	180.89633	160.80315	68.91249	0.31251	 	7.62823E11	 	4.94682E-12	 	19270.382	40.6848	 
495.0	1.0	0.0	7.53371	7.27614	-6.70925	13.23452	23.33482	1.07265	0.93227	181.46161	161.13888	69.13806	0.31231	 	9.58011E11	 	3.91347E-12	 	19068.635	40.3494	 
490.0	1.0	0.0	7.53536	7.27454	-6.72976	13.2163	23.27604	1.06836	0.93601	182.02417	161.47151	69.36265	0.31212	 	1.20674E12	 	3.08662E-12	 	18868.519	40.0232	 
485.0	1.0	0.0	7.53702	7.27295	-6.75022	13.19807	23.21724	1.06405	0.93981	182.58399	161.80102	69.58627	0.31193	 	1.52468E12	 	2.42696E-12	 	18669.991	39.7056	 
480.0	1.0	0.0	7.53867	7.27135	-6.77063	13.17985	23.15844	1.05972	0.94365	183.14104	162.1274	69.8089	0.31173	 	1.93238E12	 	1.90228E-12	 	18473.009	39.3964	 
475.0	1.0	0.0	7.54031	7.26977	-6.79099	13.16161	23.09962	1.05536	0.94754	183.69528	162.45063	70.03052	0.31154	 	2.45687E12	 	1.48625E-12	 	18277.533	39.0952	 
470.0	1.0	0.0	7.54196	7.26818	-6.8113	13.14338	23.04081	1.05099	0.95149	184.24669	162.77069	70.25113	0.31134	 	3.13383E12	 	1.15741E-12	 	18083.525	38.8016	 
465.0	1.0	0.0	7.5436	7.2666	-6.83156	13.12514	22.98198	1.04659	0.95549	184.79524	163.08756	70.47071	0.31115	 	4.01052E12	 	8.98319E-13	 	17890.949	38.5152	 
460.0	1.0	0.0	7.54523	7.26503	-6.85177	13.1069	22.92315	1.04216	0.95954	185.3409	163.40124	70.68926	0.31096	 	5.14976E12	 	6.94853E-13	 	17699.772	38.2354	 
455.0	1.0	0.0	7.54687	7.26345	-6.87193	13.08866	22.86432	1.03772	0.96365	185.88364	163.7117	70.90675	0.31076	 	6.63535E12	 	5.35604E-13	 	17509.959	37.9626	 
450.0	1.0	0.0	7.5485	7.26188	-6.89204	13.07041	22.8055	1.03325	0.96782	186.42344	164.01894	71.12319	0.31057	 	8.57953E12	 	4.11388E-13	 	17321.479	37.696	 
445.0	1.0	0.0	7.55012	7.26032	-6.9121	13.05216	22.74667	1.02876	0.97204	186.96025	164.32293	71.33856	0.31037	 	1.11331E13	 	3.14837E-13	 	17134.303	37.4352	 
440.0	1.0	0.0	7.55175	7.25876	-6.93211	13.0339	22.68784	1.02425	0.97633	187.49407	164.62366	71.55284	0.31018	 	1.44996E13	 	2.40055E-13	 	16948.4	37.1806	 
435.0	1.0	0.0	7.55337	7.2572	-6.95207	13.01565	22.62902	1.01971	0.98067	188.02485	164.92112	71.76603	0.30999	 	1.89547E13	 	1.82345E-13	 	16763.744	36.9312	 
430.0	1.0	0.0	7.55498	7.25565	-6.97199	12.99739	22.57021	1.01515	0.98508	188.55257	165.21529	71.97811	0.30979	 	2.48732E13	 	1.37976E-13	 	16580.307	36.6874	 
425.0	1.0	0.0	7.5566	7.2541	-6.99185	12.97912	22.5114	1.01056	0.98955	189.07721	165.50616	72.18908	0.3096	 	3.27671E13	 	1.03991E-13	 	16398.065	36.4484	 
420.0	1.0	0.0	7.55821	7.25255	-7.01166	12.96086	22.4526	1.00595	0.99408	189.59874	165.79371	72.39893	0.3094	 	4.33382E13	 	7.80627E-14	 	16216.992	36.2146	 
415.0	1.0	0.0	7.55981	7.25101	-7.03142	12.94259	22.39381	1.00132	0.99868	190.11712	166.07794	72.60763	0.30921	 	5.7553E13	 	5.83582E-14	 	16037.066	35.9852	 
410.0	1.0	0.0	7.56142	7.24948	-7.05114	12.92431	22.33503	0.99666	1.00335	190.63235	166.35883	72.81519	0.30901	 	7.67482E13	 	4.34445E-14	 	15858.263	35.7606	 
405.0	1.0	0.0	7.56302	7.24794	-7.0708	12.90604	22.27625	0.99198	1.00809	191.14438	166.63637	73.02159	0.30882	 	1.02781E14	 	3.22033E-14	 	15680.563	35.54	 
400.0	1.0	0.0	7.56461	7.24641	-7.09041	12.88776	22.21749	0.98727	1.0129	191.65319	166.91054	73.22683	0.30863	 	1.3824199999999998E14	 	2.37661E-14	 	15503.943	35.324	 
395.0	1.0	0.0	7.56621	7.24489	-7.10997	12.86948	22.15874	0.98253	1.01778	192.15876	167.18134	73.43089	0.30843	 	1.86765E14	 	1.74609E-14	 	15328.384	35.1118	 
390.0	1.0	0.0	7.5678	7.24337	-7.12949	12.85119	22.1	0.97777	1.02273	192.66107	167.44875	73.63375	0.30824	 	2.5346599999999997E14	 	1.27696E-14	 	15153.866	34.9036	 
385.0	1.0	0.0	7.56938	7.24185	-7.14895	12.8329	22.04127	0.97298	1.02777	193.16008	167.71277	73.83543	0.30804	 	3.45589E14	 	9.29505E-15	 	14980.371	34.699	 
380.0	1.0	0.0	7.57096	7.24033	-7.16836	12.81461	21.98255	0.96817	1.03287	193.65578	167.97337	74.03589	0.30785	 	4.73436E14	 	6.73346E-15	 	14807.881	34.498	 
375.0	1.0	0.0	7.57254	7.23882	-7.18773	12.79631	21.92385	0.96333	1.03806	194.14814	168.23056	74.23514	0.30766	 	6.51737E14	 	4.85389E-15	 	14636.377	34.3008	 
370.0	1.0	0.0	7.57412	7.23732	-7.20704	12.77802	21.86515	0.95847	1.04333	194.63714	168.48431	74.43316	0.30746	 	9.01657E14	 	3.48143E-15	 	14465.845	34.1064	 
365.0	1.0	0.0	7.57569	7.23581	-7.2263	12.75971	21.80647	0.95358	1.04868	195.12276	168.73463	74.62994	0.30727	 	1.25377E15	 	2.48422E-15	 	14296.266	33.9158	 
360.0	1.0	0.0	7.57726	7.23432	-7.24551	12.74141	21.7478	0.94866	1.05412	195.60497	168.98151	74.82548	0.30707	 	1.7525E15	 	1.76334E-15	 	14127.625	33.7282	 
355.0	1.0	0.0	7.57883	7.23282	-7.26468	12.7231	21.68914	0.94371	1.05965	196.08375	169.22493	75.01977	0.30688	 	2.46271E15	 	1.24491E-15	 	13959.907	33.5436	 
350.0	1.0	0.0	7.58039	7.23133	-7.28379	12.70479	21.6305	0.93874	1.06526	196.55908	169.46488	75.21279	0.30669	 	3.47968E15	 	8.74059E-16	 	13793.098	33.3618	 
345.0	1.0	0.0	7.58195	7.22984	-7.30285	12.68648	21.57186	0.93374	1.07097	197.03094	169.70137	75.40454	0.30649	 	4.94417E15	 	6.10221E-16	 	13627.183	33.183	 
340.0	1.0	0.0	7.5835	7.22836	-7.32187	12.66816	21.51323	0.92871	1.07677	197.49931	169.93438	75.59502	0.3063	 	7.06538E15	 	4.23563E-16	 	13462.148	33.007	 
335.0	1.0	0.0	7.58506	7.22688	-7.34083	12.64984	21.45462	0.92365	1.08266	197.96417	170.1639	75.7842	0.3061	 	1.01561E16	 	2.9226E-16	 	13297.98	32.8336	 
330.0	1.0	0.0	7.5866	7.22541	-7.35974	12.63151	21.39601	0.91857	1.08865	198.4255	170.38994	75.97209	0.30591	 	1.4687E16	 	2.00438E-16	 	13134.666	32.6628	 
325.0	1.0	0.0	7.58815	7.22394	-7.37861	12.61319	21.33742	0.91345	1.09475	198.88328	170.61248	76.15868	0.30572	 	2.13705E16	 	1.3661E-16	 	12972.193	32.4946	 
320.0	1.0	0.0	7.58969	7.22247	-7.39742	12.59486	21.27883	0.90831	1.10094	199.33749	170.83152	76.34396	0.30552	 	3.12928E16	 	9.25139E-17	 	12810.55	32.3286	 
315.0	1.0	0.0	7.59123	7.221	-7.41618	12.57652	21.22025	0.90314	1.10725	199.78813	171.04705	76.52792	0.30533	 	4.612E16	 	6.22423E-17	 	12649.723	32.1654	 
310.0	1.0	0.0	7.59276	7.21955	-7.43489	12.55819	21.16168	0.89794	1.11366	200.23516	171.25908	76.71056	0.30513	 	6.8426300000000008E16	 	4.15953E-17	 	12489.703	32.004	 
305.0	1.0	0.0	7.5943	7.21809	-7.45356	12.53985	21.10312	0.89271	1.12018	200.67858	171.4676	76.89187	0.30494	 	1.02216E17	 	2.76062E-17	 	12330.476	31.8454	 
300.0	1.0	0.0	7.59582	7.21664	-7.47217	12.5215	21.04457	0.88745	1.12682	201.11837	171.67261	77.07184	0.30475	 	1.53765E17	 	1.81927E-17	 	12172.034	31.6884	 
295.0	1.0	0.0	7.59735	7.21519	-7.49073	12.50316	20.98602	0.88217	1.13357	201.55452	171.8741	77.25046	0.30455	 	2.3298E17	 	1.19023E-17	 	12014.365	31.5338	 
290.0	1.0	0.0	7.59887	7.21375	-7.50924	12.48481	20.92748	0.87685	1.14045	201.98701	172.07207	77.42774	0.30436	 	3.55616E17	 	7.7291E-18	 	11857.459	31.3812	 
285.0	1.0	0.0	7.60038	7.21231	-7.5277	12.46645	20.86894	0.8715	1.14744	202.41582	172.26653	77.60366	0.30416	 	5.46936E17	 	4.98082E-18	 	11701.306	31.2306	 
280.0	1.0	0.0	7.6019	7.21087	-7.54612	12.4481	20.81041	0.86612	1.15457	202.84096	172.45748	77.77823	0.30397	 	8.47756E17	 	3.18463E-18	 	11545.896	31.082	 
275.0	1.0	0.0	7.60341	7.20944	-7.56448	12.42974	20.75188	0.86072	1.16182	203.2624	172.64491	77.95143	0.30378	 	1.32458E18	 	2.0198E-18	 	11391.221	30.935	 
270.0	1.0	0.0	7.60491	7.20801	-7.58279	12.41138	20.69336	0.85528	1.16921	203.68015	172.82883	78.12326	0.30358	 	2.08666E18	 	1.27044E-18	 	11237.27	30.7902	 
265.0	1.0	0.0	7.60642	7.20659	-7.60105	12.39301	20.63485	0.84981	1.17674	204.09418	173.00924	78.29372	0.30339	 	3.31509E18	 	7.9231E-19	 	11084.035	30.647	 
260.0	1.0	0.0	7.60792	7.20517	-7.61926	12.37464	20.57634	0.8443	1.18441	204.50449	173.18614	78.4628	0.30319	 	5.31262E18	 	4.8981E-19	 	10931.508	30.5054	 
255.0	1.0	0.0	7.60941	7.20375	-7.63742	12.35627	20.51783	0.83877	1.19222	204.91108	173.35955	78.6305	0.303	 	8.59013E18	 	3.00085E-19	 	10779.68	30.3656	 
250.0	1.0	0.0	7.61091	7.20234	-7.65553	12.3379	20.45932	0.83321	1.20018	205.31393	173.52946	78.79683	0.30281	 	1.40178E19	 	1.82151E-19	 	10628.544	30.2272	 
245.0	1.0	0.0	7.61239	7.20093	-7.67359	12.31952	20.40082	0.82761	1.2083	205.71306	173.69589	78.96176	0.30261	 	2.30922E19	 	1.09516E-19	 	10478.09	30.0908	 
240.0	1.0	0.0	7.61388	7.19952	-7.6916	12.30114	20.34232	0.82198	1.21657	206.10844	173.85883	79.12532	0.30242	 	3.84127E19	 	6.52013E-20	 	10328.312	29.9556	 
235.0	1.0	0.0	7.61536	7.19812	-7.70956	12.28275	20.28382	0.81632	1.22501	206.50009	174.01831	79.28748	0.30222	 	6.45407E19	 	3.84277E-20	 	10179.203	29.8218	 
230.0	1.0	0.0	7.61684	7.19673	-7.72747	12.26437	20.22533	0.81062	1.23362	206.888	174.17432	79.44826	0.30203	 	1.0956499999999998E20	 	2.24136E-20	 	10030.755	29.6896	 
225.0	1.0	0.0	7.61831	7.19533	-7.74532	12.24598	20.16683	0.8049	1.2424	207.27218	174.32689	79.60765	0.30184	 	1.87985E20	 	1.29337E-20	 	9882.961	29.5588	 
220.0	1.0	0.0	7.61978	7.19394	-7.76313	12.22758	20.10834	0.79914	1.25135	207.65261	174.47602	79.76566	0.30164	 	3.26084E20	 	7.38136E-21	 	9735.814	29.4294	 
215.0	1.0	0.0	7.62125	7.19256	-7.78089	12.20918	20.04985	0.79334	1.26049	208.02932	174.62173	79.92228	0.30145	 	5.7205199999999993E20	 	4.1649E-21	 	9589.309	29.301	 
210.0	1.0	0.0	7.62272	7.19118	-7.7986	12.19078	19.99136	0.78751	1.26982	208.40231	174.76404	80.07751	0.30125	 	1.0153E21	 	2.3226E-21	 	9443.439	29.174	 
205.0	1.0	0.0	7.62418	7.1898	-7.81625	12.17238	19.93288	0.78165	1.27935	208.77159	174.90295	80.23137	0.30106	 	1.8237400000000001E21	 	1.27964E-21	 	9298.198	29.0482	 
200.0	1.0	0.0	7.62563	7.18843	-7.83386	12.15397	19.87439	0.77575	1.28907	209.13716	175.0385	80.38385	0.30087	 	3.31673E21	 	6.96267E-22	 	9153.581	28.9234	 
195.0	1.0	0.0	7.62708	7.18706	-7.85142	12.13556	19.81591	0.76982	1.29901	209.49903	175.17069	80.53495	0.30067	 	6.10947E21	 	3.73997E-22	 	9009.581	28.8	 
190.0	1.0	0.0	7.62853	7.18569	-7.86892	12.11715	19.75742	0.76385	1.30915	209.85724	175.29956	80.68469	0.30048	 	1.14032E22	 	1.98236E-22	 	8866.195	28.6772	 
185.0	1.0	0.0	7.62998	7.18433	-7.88638	12.09873	19.69894	0.75785	1.31952	210.21178	175.42512	80.83306	0.30028	 	2.15756E22	 	1.03641E-22	 	8723.415	28.556	 
180.0	1.0	0.0	7.63142	7.18297	-7.90378	12.08031	19.64046	0.75181	1.33012	210.56268	175.5474	80.98007	0.30009	 	4.1401099999999995E22	 	5.34216E-23	 	8581.239	28.4352	 
175.0	1.0	0.0	7.63286	7.18162	-7.92114	12.06189	19.58198	0.74574	1.34096	210.90996	175.66642	81.12574	0.2999	 	8.06077E22	 	2.71352E-23	 	8439.661	28.3156	 
170.0	1.0	0.0	7.63429	7.18027	-7.93844	12.04347	19.52349	0.73962	1.35204	211.25364	175.78223	81.27007	0.2997	 	1.5932E23	 	1.35758E-23	 	8298.678	28.1966	 
165.0	1.0	0.0	7.63573	7.17893	-7.95569	12.02504	19.46501	0.73348	1.36337	211.59376	175.89485	81.41307	0.29951	 	3.1983E23	 	6.68637E-24	 	8158.285	28.0786	 
160.0	1.0	0.0	7.63715	7.17758	-7.9729	12.0066	19.40653	0.72729	1.37497	211.93033	176.00431	81.55475	0.29931	 	6.5246E23	 	3.24019E-24	 	8018.478	27.9614	 
155.0	1.0	0.0	7.63858	7.17625	-7.99005	11.98817	19.34805	0.72107	1.38683	212.26341	176.11065	81.69512	0.29912	 	1.35338E24	 	1.54405E-24	 	7879.254	27.8448	 
150.0	1.0	0.0	7.64	7.17491	-8.00715	11.96973	19.28957	0.71481	1.39898	212.59301	176.2139	81.8342	0.29893	 	2.85612E24	 	7.23111E-25	 	7740.61	27.7288	 
145.0	1.0	0.0	7.64141	7.17358	-8.0242	11.95129	19.23109	0.70851	1.41141	212.91919	176.31413	81.972	0.29873	 	6.13604E24	 	3.32606E-25	 	7602.543	27.6134	 
140.0	1.0	0.0	7.64283	7.17226	-8.0412	11.93284	19.17261	0.70217	1.42415	213.24198	176.41135	82.10854	0.29854	 	1.34288E25	 	1.50161E-25	 	7465.051	27.4984	 
135.0	1.0	0.0	7.64423	7.17093	-8.05815	11.9144	19.11413	0.6958	1.4372	213.56143	176.50564	82.24383	0.29834	 	2.99587E25	 	6.64941E-26	 	7328.131	27.384	 
130.0	1.0	0.0	7.64564	7.16962	-8.07505	11.89594	19.05565	0.68938	1.45057	213.8776	176.59703	82.3779	0.29815	 	6.817920000000001E25	 	2.88603E-26	 	7191.781	27.27	 
125.0	1.0	0.0	7.64704	7.1683	-8.0919	11.87749	18.99718	0.68293	1.46428	214.19054	176.68558	82.51077	0.29796	 	1.5839800000000003E26	 	1.22683E-26	 	7056.0	27.1562	 
120.0	1.0	0.0	7.64844	7.16699	-8.1087	11.85903	18.9387	0.67643	1.47834	214.50031	176.77135	82.64245	0.29776	 	3.7597600000000004E26	 	5.10369E-27	 	6920.787	27.0426	 
115.0	1.0	0.0	7.64983	7.16569	-8.12545	11.84057	18.88022	0.6699	1.49276	214.80698	176.8544	82.77298	0.29757	 	9.125210000000001E26	 	2.07608E-27	 	6786.14	26.9294	 
110.0	1.0	0.0	7.65122	7.16438	-8.14214	11.82211	18.82174	0.66333	1.50756	215.11063	176.9348	82.90238	0.29737	 	2.2665999999999998E27	 	8.2505E-28	 	6652.059	26.8162	 
105.0	1.0	0.0	7.65261	7.16309	-8.15879	11.80364	18.76326	0.65671	1.52274	215.41132	177.01263	83.03069	0.29718	 	5.767089999999999E27	 	3.20033E-28	 	6518.544	26.703	 
100.0	1.0	0.0	7.65399	7.16179	-8.17539	11.78517	18.70478	0.65005	1.53834	215.70914	177.08795	83.15792	0.29698	 	1.50455E28	 	1.21049E-28	 	6385.596	26.5896	 
95.0	1.0	0.0	7.65537	7.1605	-8.19193	11.7667	18.6463	0.64335	1.55435	216.00419	177.16085	83.28413	0.29679	 	4.02875E28	 	4.46007E-29	 	6253.214	26.4764	 
90.0	1.0	0.0	7.65675	7.15921	-8.20842	11.74822	18.58782	0.63661	1.57081	216.29656	177.23141	83.40933	0.2966	 	1.10844E29	 	1.59905E-29	 	6121.401	26.3626	 
85.0	1.0	0.0	7.65812	7.15793	-8.22487	11.72974	18.52935	0.62983	1.58773	216.58635	177.29973	83.53358	0.2964	 	3.13709E29	 	5.57218E-30	 	5990.159	26.2484	 
80.0	1.0	0.0	7.65949	7.15665	-8.24126	11.71126	18.47087	0.623	1.60513	216.87368	177.36591	83.65692	0.29621	 	9.143970000000001E29	 	1.885E-30	 	5859.488	26.1342	 
75.0	1.0	0.0	7.66085	7.15538	-8.2576	11.69277	18.41239	0.61613	1.62303	217.15866	177.43005	83.77939	0.29601	 	2.74845E30	 	6.18251E-31	 	5729.393	26.019	 
70.0	1.0	0.0	7.66221	7.15411	-8.27389	11.67428	18.35391	0.60922	1.64145	217.44144	177.49226	83.90105	0.29582	 	8.53041E30	 	1.96336E-31	 	5599.876	25.9034	 
65.0	1.0	0.0	7.66357	7.15284	-8.29013	11.65579	18.29543	0.60226	1.66041	217.72215	177.55266	84.02194	0.29563	 	2.73778E31	 	6.02835E-32	 	5470.942	25.7868	 
60.0	1.0	0.0	7.66492	7.15158	-8.30632	11.63729	18.23695	0.59526	1.67994	218.00094	177.61139	84.14213	0.29543	 	9.0997E31	 	1.7869E-32	 	5342.595	25.6694	 
55.0	1.0	0.0	7.66627	7.15032	-8.32246	11.61879	18.17848	0.58821	1.70007	218.27797	177.66858	84.26168	0.29524	 	3.13727E32	 	5.10513E-33	 	5214.841	25.5508	 
50.0	1.0	0.0	7.66762	7.14907	-8.33855	11.60029	18.12	0.58112	1.72082	218.55342	177.72438	84.38065	0.29504	 	1.12386E33	 	1.40339E-33	 	5087.685	25.4312	 
45.0	1.0	0.0	7.66896	7.14781	-8.35459	11.58178	18.06152	0.57398	1.74223	218.82748	177.77894	84.49913	0.29485	 	4.19072E33	 	3.70535E-34	 	4961.136	25.3098	 
40.0	1.0	0.0	7.6703	7.14657	-8.37058	11.56328	18.00304	0.56679	1.76431	219.10036	177.83243	84.61718	0.29466	 	1.62974E34	 	9.37821E-35	 	4835.199	25.1874	 
35.0	1.0	0.0	7.67163	7.14532	-8.38651	11.54477	17.94456	0.55956	1.78712	219.37226	177.88503	84.73488	0.29446	 	6.62354E34	 	2.2707E-35	 	4709.886	25.0626	 
30.0	1.0	0.0	7.67296	7.14409	-8.4024	11.52625	17.88608	0.55228	1.81067	219.64343	177.93694	84.85235	0.29427	 	2.81935E35	 	5.24802E-36	 	4585.204	24.9364	 
25.0	1.0	0.0	7.67429	7.14285	-8.41823	 	17.82761	0.54495	1.83502	219.91412	177.98836	84.96966	0.29407	 	1.25982E36	 	1.15509E-36	 	4461.164	 	 
