T (C)	Fraction solid (wt)-TOTAL	Fraction liquid (wt)-LIQUID	Density (g/(cm)^3)-TOTAL	Molar volume (cm^3)-TOTAL	Volume change (%)-  	Average expansion coeff. (10e-6 1/K)-  	Thermal conductivity (W/(m*K))-TOTAL	Electrical resistivity (10e-6 Ohm*m)-TOTAL	Electrical conductivity (10e6 1/(Ohm*m))-TOTAL	Young's modulus (GPa)-TOTAL	Bulk modulus (GPa)-TOTAL	Shear modulus(GPa)-TOTAL	Poisson's ratio-TOTAL	Liquid viscosity (mPa s)-  	Total viscosity (mPa s)-  	Liquid diffusivity (10e-9 (m^2)/s)-  	Total diffusivity (10e-9 (m^2)/s)-  	Surface Tension (mN/m)-  	Enthalpy (J/mole)-TOTAL	Specific heat (J/(mole K))-TOTAL	Latent heat (J/mole)-TOTAL
1500.0	0.84865	0.15135	7.10955	7.71642	0.0	17.05809	34.94626	1.65334	0.60484	33.78639	79.61281	12.28834	0.37473	7.33229	1063.04178	1.1803	0.00814108	1733.77139	59555.139	 	0.0
1495.0	0.8742	0.1258	7.11593	7.70964	-0.0878267	16.90192	34.99696	1.64629	0.60743	38.36341	79.1291	13.99374	0.37073	7.36876	1246.86383	1.17115	0.00692129	1727.79765	59130.362	84.9554	202.733
1490.0	0.89472	0.10528	7.12164	7.7036	-0.1661	16.76807	35.02585	1.64028	0.60965	42.42702	78.81098	15.51286	0.36748	7.40605	1426.31947	1.16196	0.00603336	1721.92883	58748.91	76.2904	362.699
1485.0	0.91139	0.0886079	7.12686	7.69814	-0.23693	16.65158	35.03827	1.63505	0.6116	46.02755	78.62124	16.86247	0.36479	7.44414	1602.1151	1.15273	0.0053561	1716.17412	58400.357	69.7106	490.319
1480.0	0.9251	0.0749025	7.1317	7.69308	-0.30245	16.54737	35.03794	1.63042	0.61334	49.22316	78.53181	18.06298	0.36254	7.48271	1775.29887	1.14353	0.00481986	1710.5419	58077.261	64.6192	593.034
1475.0	0.93649	0.0635052	7.13624	7.68838	-0.36338	16.45378	35.02781	1.62624	0.61492	52.07128	78.52224	19.13491	0.36064	7.5223	1947.14464	1.13427	0.00438195	1705.02761	57773.986	60.655	676.477
1470.0	0.94607	0.0539282	7.14054	7.68393	-0.42107	16.36759	35.00991	1.62241	0.61637	54.62506	78.57639	20.09755	0.359	7.56225	2118.90338	1.12505	0.00401523	1699.6339	57486.374	57.5224	744.803
1465.0	0.95419	0.0458067	7.14465	7.6797	-0.47585	16.28805	34.98589	1.61887	0.61771	56.92755	78.68281	20.96661	0.35758	7.6032	2291.7174	1.11578	0.0037018	1694.35193	57211.334	55.008	801.098
1460.0	0.96114	0.0388643	7.14861	7.67564	-0.52853	16.21319	34.95689	1.61555	0.61898	59.01706	78.83206	21.75616	0.35633	7.64444	2466.65568	1.10657	0.00342937	1689.18205	56946.504	52.966	847.721
1455.0	0.96711	0.0328874	7.15243	7.67172	-0.57927	16.14269	34.92387	1.61241	0.62019	60.92441	79.01726	22.47757	0.35523	7.68659	2644.71016	1.09732	0.00318926	1684.11513	56690.059	51.289	886.497
1450.0	0.97229	0.027707	7.15614	7.66794	-0.62832	16.07593	34.88757	1.60942	0.62134	62.67608	79.23289	23.14064	0.35424	7.72968	2826.82656	1.08805	0.00297516	1679.1438	56440.568	49.8982	918.854
1445.0	0.97681	0.02319	7.15975	7.66425	-0.67605	16.01202	34.84851	1.60655	0.62245	64.29418	79.47436	23.75359	0.35336	7.77332	3013.87008	1.0788	0.00278242	1674.26661	56196.898	48.734	945.923
1440.0	0.98077	0.0192295	7.16329	7.66066	-0.72256	15.95077	34.80719	1.60378	0.62353	65.79755	79.73811	24.32342	0.35256	7.81786	3206.70519	1.06953	0.00260749	1669.4744	55958.146	47.7504	968.605
1435.0	0.98425	0.0157467	7.16675	7.65715	-0.76805	15.89168	34.76393	1.60109	0.62458	67.20039	80.02132	24.85544	0.35182	7.86294	3406.07666	1.0603	0.0024477	1664.76642	55723.619	46.9054	987.59
1430.0	0.98734	0.0126643	7.17014	7.65372	-0.81261	15.83455	34.71904	1.59846	0.6256	68.51728	80.32146	25.3551	0.35115	7.9089	3612.85478	1.05105	0.00230085	1660.13518	55492.679	46.188	1003.513
1425.0	0.99007	0.00993402	7.17347	7.65034	-0.85631	15.77919	34.67275	1.5959	0.62661	69.75714	80.63673	25.82573	0.35054	7.95537	3827.71748	1.04184	0.00216532	1655.57828	55264.896	45.5566	1016.8
1420.0	0.9925	0.00749818	7.17675	7.64703	-0.89927	15.72535	34.62529	1.59338	0.6276	70.93268	80.9652	26.27211	0.34996	8.00305	4051.63198	1.03259	0.00203963	1651.0875	55039.804	45.0184	1027.916
1415.0	0.99468	0.00531764	7.17998	7.64376	-0.94158	15.67279	34.57681	1.5909	0.62857	72.05147	81.30551	26.69708	0.34943	8.05128	4285.3799	1.02337	0.00192269	1646.66325	54817.071	44.5466	1037.19
1410.0	0.99664	0.00335835	7.18318	7.64054	-0.98329	15.6214	34.52746	1.58846	0.62954	73.12108	81.65645	27.10349	0.34892	8.10037	4529.83322	1.01416	0.00181354	1642.3003	54596.421	44.13	1044.894
1405.0	0.99841	0.00159351	7.18633	7.63737	-1.02446	15.57106	34.47735	1.58604	0.6305	74.14715	82.01698	27.49346	0.34845	8.15031	4785.83477	1.00495	0.00171143	1637.99445	54377.621	43.76	1051.259
1400.0	1.0	0.0	7.18945	7.63423	-1.06512	15.52167	34.42658	1.58365	0.63145	75.13459	82.38628	27.86884	0.348	 	5054.25898	 	0.00161571	 	54160.473	43.4296	1056.479
1395.0	1.0	0.0	7.19151	7.63204	-1.09353	15.50397	34.37045	1.58149	0.63231	75.61372	82.80552	28.05061	0.34781	 	5305.256	 	0.00153467	 	53907.995	50.4956	 
1390.0	1.0	0.0	7.19357	7.62985	-1.12189	15.48628	34.31432	1.57933	0.63318	76.09627	83.22742	28.23371	0.34761	 	5570.3407	 	0.00145726	 	53701.573	41.2844	 
1385.0	1.0	0.0	7.19563	7.62767	-1.1502	15.46858	34.25819	1.57717	0.63405	76.5822	83.65194	28.41811	0.34742	 	5850.3908	 	0.00138333	 	53495.539	41.2068	 
1380.0	1.0	0.0	7.19769	7.62548	-1.17847	15.45088	34.20205	1.57499	0.63492	77.07149	84.07904	28.60381	0.34722	 	6146.34395	 	0.00131275	 	53289.864	41.135	 
1375.0	1.0	0.0	7.19975	7.62331	-1.20669	15.43317	34.14592	1.57281	0.63581	77.56409	84.50866	28.79079	0.34703	 	6459.20218	 	0.00124539	 	53084.542	41.0644	 
1370.0	1.0	0.0	7.2018	7.62113	-1.23485	15.41546	34.08978	1.57062	0.63669	78.05997	84.94076	28.97905	0.34683	 	6790.0367	 	0.00118111	 	52879.571	40.9942	 
1365.0	1.0	0.0	7.20385	7.61896	-1.26297	15.39776	34.03364	1.56842	0.63758	78.5591	85.37529	29.16857	0.34664	 	7139.99306	 	0.00111981	 	52674.95	40.9242	 
1360.0	1.0	0.0	7.2059	7.6168	-1.29105	15.38004	33.9775	1.56622	0.63848	79.06145	85.81221	29.35933	0.34644	 	7510.29678	 	0.00106134	 	52470.678	40.8544	 
1355.0	1.0	0.0	7.20795	7.61463	-1.31907	15.36233	33.92136	1.56401	0.63938	79.56697	86.25146	29.55133	0.34625	 	7902.25939	 	0.00100561	 	52266.753	40.785	 
1350.0	1.0	0.0	7.20999	7.61248	-1.34704	15.34461	33.86522	1.56179	0.64029	80.07563	86.693	29.74456	0.34606	 	8317.28499	 	9.52497E-4	 	52063.175	40.7156	 
1345.0	1.0	0.0	7.21203	7.61032	-1.37497	15.32689	33.80908	1.55956	0.6412	80.58741	87.1368	29.93899	0.34586	 	8756.87731	 	9.01895E-4	 	51859.941	40.6468	 
1340.0	1.0	0.0	7.21407	7.60817	-1.40285	15.30917	33.75293	1.55733	0.64212	81.10226	87.58279	30.13463	0.34567	 	9222.64742	 	8.53701E-4	 	51657.05	40.5782	 
1335.0	1.0	0.0	7.21611	7.60602	-1.43067	15.29145	33.69679	1.55509	0.64305	81.62016	88.03094	30.33145	0.34547	 	9716.32199	 	8.07814E-4	 	51454.502	40.5096	 
1330.0	1.0	0.0	7.21814	7.60388	-1.45846	15.27372	33.64064	1.55284	0.64398	82.14106	88.4812	30.52945	0.34528	 	10239.75233	 	7.64137E-4	 	51252.294	40.4416	 
1325.0	1.0	0.0	7.22017	7.60174	-1.48619	15.25599	33.58449	1.55059	0.64492	82.66493	88.93352	30.72861	0.34508	 	10794.92411	 	7.22578E-4	 	51050.426	40.3736	 
1320.0	1.0	0.0	7.2222	7.5996	-1.51387	15.23826	33.52834	1.54833	0.64586	83.19174	89.38787	30.92891	0.34489	 	11383.96794	 	6.83046E-4	 	50848.895	40.3062	 
1315.0	1.0	0.0	7.22423	7.59747	-1.54151	15.22052	33.47219	1.54606	0.64681	83.72146	89.84419	31.13036	0.34469	 	12009.17085	 	6.45454E-4	 	50647.701	40.2388	 
1310.0	1.0	0.0	7.22626	7.59534	-1.56909	15.20279	33.41604	1.54378	0.64776	84.25404	90.30245	31.33293	0.3445	 	12672.98872	 	6.09719E-4	 	50446.842	40.1718	 
1305.0	1.0	0.0	7.22828	7.59322	-1.59663	15.18505	33.35989	1.54149	0.64872	84.78946	90.76259	31.53662	0.3443	 	13378.0598	 	5.7576E-4	 	50246.317	40.105	 
1300.0	1.0	0.0	7.2303	7.5911	-1.62412	15.16731	33.30373	1.5392	0.64969	85.32768	91.22458	31.74141	0.34411	 	14127.21937	 	5.43501E-4	 	50046.124	40.0386	 
1295.0	1.0	0.0	7.23231	7.58898	-1.65156	15.14956	33.24758	1.5369	0.65066	85.86867	91.68837	31.94728	0.34391	 	14923.51567	 	5.12865E-4	 	49846.261	39.9726	 
1290.0	1.0	0.0	7.23433	7.58686	-1.67895	15.13181	33.19142	1.53459	0.65164	86.41239	92.15391	32.15423	0.34372	 	15770.22727	 	4.83782E-4	 	49646.728	39.9066	 
1285.0	1.0	0.0	7.23634	7.58475	-1.70629	15.11406	33.13526	1.53227	0.65262	86.95881	92.62117	32.36225	0.34352	 	16670.88188	 	4.56181E-4	 	49447.523	39.841	 
1280.0	1.0	0.0	7.23835	7.58265	-1.73359	15.09631	33.0791	1.52995	0.65362	87.5079	93.09011	32.57132	0.34333	 	17629.27683	 	4.29997E-4	 	49248.643	39.776	 
1275.0	1.0	0.0	7.24036	7.58055	-1.76083	15.07856	33.02294	1.52762	0.65461	88.05961	93.56067	32.78142	0.34313	 	18649.50147	 	4.05166E-4	 	49050.089	39.7108	 
1270.0	1.0	0.0	7.24236	7.57845	-1.78803	15.0608	32.96678	1.52528	0.65562	88.61392	94.03282	32.99256	0.34294	 	19735.96137	 	3.81625E-4	 	48851.858	39.6462	 
1265.0	1.0	0.0	7.24437	7.57635	-1.81518	15.04304	32.91061	1.52293	0.65663	89.17079	94.50651	33.20471	0.34274	 	20893.40488	 	3.59316E-4	 	48653.948	39.582	 
1260.0	1.0	0.0	7.24637	7.57426	-1.84228	15.02528	32.85445	1.52058	0.65765	89.73018	94.9817	33.41786	0.34255	 	22126.95194	 	3.38181E-4	 	48456.358	39.518	 
1255.0	1.0	0.0	7.24836	7.57217	-1.86933	15.00751	32.79828	1.51821	0.65867	90.29207	95.45836	33.632	0.34235	 	23442.12556	 	3.18167E-4	 	48259.087	39.4542	 
1250.0	1.0	0.0	7.25036	7.57009	-1.89633	14.98975	32.74211	1.51584	0.6597	90.85642	95.93643	33.84712	0.34216	 	24844.88619	 	2.99221E-4	 	48062.133	39.3908	 
1245.0	1.0	0.0	7.25235	7.56801	-1.92329	14.97198	32.68594	1.51346	0.66074	91.42319	96.41589	34.06321	0.34196	 	26341.66915	 	2.81292E-4	 	47865.493	39.328	 
1240.0	1.0	0.0	7.25434	7.56593	-1.95019	14.95421	32.62977	1.51107	0.66178	91.99235	96.89668	34.28025	0.34177	 	27939.42558	 	2.64333E-4	 	47669.168	39.265	 
1235.0	1.0	0.0	7.25633	7.56386	-1.97705	14.93643	32.5736	1.50868	0.66283	92.56386	97.37876	34.49823	0.34157	 	29645.66716	 	2.48296E-4	 	47473.155	39.2026	 
1230.0	1.0	0.0	7.25832	7.56179	-2.00386	14.91865	32.51743	1.50627	0.66389	93.1377	97.8621	34.71714	0.34138	 	31468.51502	 	2.33138E-4	 	47277.452	39.1406	 
1225.0	1.0	0.0	7.2603	7.55973	-2.03061	14.90087	32.46125	1.50386	0.66495	93.71383	98.34665	34.93696	0.34118	 	33416.75313	 	2.18815E-4	 	47082.059	39.0786	 
1220.0	1.0	0.0	7.26228	7.55767	-2.05732	14.88309	32.40507	1.50144	0.66603	94.2922	98.83238	35.15769	0.34099	 	35499.88687	 	2.05288E-4	 	46886.972	39.0174	 
1215.0	1.0	0.0	7.26426	7.55561	-2.08399	14.86531	32.3489	1.49901	0.66711	94.8728	99.31924	35.37931	0.34079	 	37728.20706	 	1.92516E-4	 	46692.19	38.9564	 
1210.0	1.0	0.0	7.26623	7.55356	-2.1106	14.84752	32.29272	1.49657	0.66819	95.45558	99.8072	35.60181	0.3406	 	40112.86007	 	1.80463E-4	 	46497.712	38.8956	 
1205.0	1.0	0.0	7.2682	7.55151	-2.13716	14.82973	32.23654	1.49413	0.66929	96.04051	100.29621	35.82518	0.34041	 	42665.92475	 	1.69092E-4	 	46303.535	38.8354	 
1200.0	1.0	0.0	7.27017	7.54946	-2.16368	14.81194	32.18036	1.49167	0.67039	96.62756	100.78624	36.0494	0.34021	 	45400.49666	 	1.5837E-4	 	46109.658	38.7754	 
1195.0	1.0	0.0	7.27214	7.54742	-2.19014	14.79414	32.12417	1.48921	0.6715	97.21669	101.27724	36.27446	0.34002	 	48330.7806	 	1.48263E-4	 	45916.079	38.7158	 
1190.0	1.0	0.0	7.2741	7.54538	-2.21656	14.77634	32.06799	1.48674	0.67261	97.80787	101.76917	36.50036	0.33982	 	51472.19206	 	1.3874E-4	 	45722.795	38.6568	 
1185.0	1.0	0.0	7.27607	7.54335	-2.24293	14.75854	32.0118	1.48426	0.67374	98.40106	102.26201	36.72707	0.33963	 	54841.46871	 	1.29772E-4	 	45529.806	38.5978	 
1180.0	1.0	0.0	7.27803	7.54131	-2.26925	14.74074	31.95562	1.48177	0.67487	98.99623	102.7557	36.95458	0.33943	 	58456.79287	 	1.21328E-4	 	45337.108	38.5396	 
1175.0	1.0	0.0	7.27998	7.53929	-2.29552	14.72294	31.89943	1.47927	0.67601	99.59334	103.25021	37.18289	0.33924	 	62337.92613	 	1.13383E-4	 	45144.7	38.4816	 
1170.0	1.0	0.0	7.28194	7.53726	-2.32174	14.70513	31.84324	1.47677	0.67715	100.19237	103.74551	37.41197	0.33904	 	66506.35751	 	1.0591E-4	 	44952.581	38.4238	 
1165.0	1.0	0.0	7.28389	7.53524	-2.34792	14.68732	31.78705	1.47425	0.67831	100.79327	104.24154	37.64183	0.33885	 	70985.46642	 	9.8883E-5	 	44760.747	38.3668	 
1160.0	1.0	0.0	7.28584	7.53323	-2.37404	14.66951	31.73086	1.47173	0.67947	101.39602	104.73829	37.87244	0.33865	 	75800.7022	 	9.22795E-5	 	44569.197	38.31	 
1155.0	1.0	0.0	7.28778	7.53122	-2.40012	14.65169	31.67466	1.4692	0.68064	102.00057	105.2357	38.10379	0.33846	 	80979.78191	 	8.60764E-5	 	44377.928	38.2538	 
1150.0	1.0	0.0	7.28973	7.52921	-2.42614	14.63387	31.61847	1.46665	0.68182	102.6069	105.73374	38.33588	0.33826	 	86552.9084	 	8.0252E-5	 	44186.939	38.1978	 
1145.0	1.0	0.0	7.29167	7.5272	-2.45212	14.61605	31.56227	1.4641	0.68301	103.21497	106.23237	38.56868	0.33807	 	92553.01081	 	7.47857E-5	 	43996.227	38.1424	 
1140.0	1.0	0.0	7.29361	7.5252	-2.47805	14.59823	31.50607	1.46154	0.68421	103.82475	106.73156	38.80218	0.33787	 	99016.01013	 	6.96578E-5	 	43805.791	38.0872	 
1135.0	1.0	0.0	7.29554	7.52321	-2.50393	14.5804	31.44987	1.45897	0.68541	104.4362	107.23127	39.03638	0.33768	 	105981.1124	 	6.48496E-5	 	43615.627	38.0328	 
1130.0	1.0	0.0	7.29748	7.52121	-2.52976	14.56258	31.39367	1.4564	0.68663	105.04928	107.73146	39.27126	0.33748	 	113491.1326	 	6.03433E-5	 	43425.733	37.9788	 
1125.0	1.0	0.0	7.29941	7.51922	-2.55554	14.54475	31.33747	1.45381	0.68785	105.66397	108.2321	39.50681	0.33729	 	121592.8533	 	5.61219E-5	 	43236.108	37.925	 
1120.0	1.0	0.0	7.30134	7.51724	-2.58127	14.52691	31.28127	1.45121	0.68908	106.28023	108.73315	39.74302	0.33709	 	130337.4206	 	5.21694E-5	 	43046.748	37.872	 
1115.0	1.0	0.0	7.30326	7.51526	-2.60696	14.50908	31.22506	1.44861	0.69032	106.89803	109.23456	39.97987	0.3369	 	139780.7832	 	4.84703E-5	 	42857.652	37.8192	 
1110.0	1.0	0.0	7.30518	7.51328	-2.63259	14.49124	31.16886	1.44599	0.69157	107.51733	109.73632	40.21734	0.3367	 	149984.1784	 	4.50102E-5	 	42668.816	37.7672	 
1105.0	1.0	0.0	7.3071	7.5113	-2.65818	14.4734	31.11265	1.44337	0.69282	108.1381	110.23837	40.45544	0.33651	 	161014.6713	 	4.17751E-5	 	42480.239	37.7154	 
1100.0	1.0	0.0	7.30902	7.50933	-2.68371	14.45556	31.05644	1.44073	0.69409	108.7603	110.74069	40.69414	0.33631	 	172945.7517	 	3.87521E-5	 	42291.918	37.6642	 
1095.0	1.0	0.0	7.31094	7.50737	-2.7092	14.43771	31.00023	1.43809	0.69537	109.3839	111.24324	40.93344	0.33612	 	185857.9982	 	3.59285E-5	 	42103.85	37.6136	 
1090.0	1.0	0.0	7.31285	7.5054	-2.73464	14.41986	30.94402	1.43544	0.69665	110.00886	111.74598	41.17332	0.33592	 	199839.8142	 	3.32926E-5	 	41916.032	37.5636	 
1085.0	1.0	0.0	7.31476	7.50344	-2.76003	14.40201	30.88781	1.43278	0.69795	110.63516	112.24888	41.41376	0.33573	 	214988.2467	 	3.08333E-5	 	41728.463	37.5138	 
1080.0	1.0	0.0	7.31667	7.50149	-2.78537	14.38416	30.83159	1.4301	0.69925	111.26276	112.75191	41.65477	0.33553	 	231409.8967	 	2.85398E-5	 	41541.138	37.465	 
1075.0	1.0	0.0	7.31857	7.49954	-2.81066	14.36631	30.77538	1.42742	0.70056	111.89162	113.25502	41.89631	0.33534	 	249221.9319	 	2.64021E-5	 	41354.055	37.4166	 
1070.0	1.0	0.0	7.32047	7.49759	-2.83591	14.34845	30.71916	1.42473	0.70189	112.52171	113.75819	42.13839	0.33514	 	268553.2145	 	2.44107E-5	 	41167.211	37.3688	 
1065.0	1.0	0.0	7.32237	7.49565	-2.8611	14.33059	30.66294	1.42203	0.70322	113.15299	114.26138	42.38098	0.33495	 	289545.5581	 	2.25566E-5	 	40980.604	37.3214	 
1060.0	1.0	0.0	7.32427	7.4937	-2.88624	14.31272	30.60672	1.41932	0.70456	113.78544	114.76455	42.62408	0.33476	 	312355.1288	 	2.08313E-5	 	40794.229	37.275	 
1055.0	1.0	0.0	7.32616	7.49177	-2.91134	14.29486	30.5505	1.4166	0.70592	114.41901	115.26768	42.86768	0.33456	 	337154.0088	 	1.92267E-5	 	40608.085	37.2288	 
1050.0	1.0	0.0	7.32805	7.48984	-2.93639	14.27699	30.49428	1.41387	0.70728	115.05368	115.77072	43.11175	0.33437	 	364131.9419	 	1.77352E-5	 	40422.168	37.1834	 
1045.0	1.0	0.0	7.32994	7.48791	-2.96138	14.25912	30.43806	1.41113	0.70865	115.68941	116.27364	43.3563	0.33417	 	393498.2842	 	1.63497E-5	 	40236.475	37.1386	 
1040.0	1.0	0.0	7.33182	7.48598	-2.98633	14.24125	30.38183	1.40837	0.71004	116.32617	116.77642	43.6013	0.33398	 	425484.185	 	1.50632E-5	 	40051.002	37.0946	 
1035.0	1.0	0.0	7.3337	7.48406	-3.01123	14.22337	30.32561	1.40561	0.71143	116.96392	117.27901	43.84674	0.33378	 	460345.0274	 	1.38695E-5	 	39865.746	37.0512	 
1030.0	1.0	0.0	7.33558	7.48214	-3.03608	14.20549	30.26938	1.40284	0.71284	117.60262	117.78139	44.09262	0.33359	 	498363.1608	 	1.27625E-5	 	39680.704	37.0084	 
1025.0	1.0	0.0	7.33746	7.48023	-3.06088	14.18761	30.21315	1.40006	0.71426	118.24225	118.28351	44.33891	0.33339	 	539850.9633	 	1.17365E-5	 	39495.873	36.9662	 
1020.0	1.0	0.0	7.33933	7.47832	-3.08563	14.16973	30.15692	1.39727	0.71568	118.88277	118.78535	44.58561	0.3332	 	585154.2759	 	1.07861E-5	 	39311.248	36.925	 
1015.0	1.0	0.0	7.3412	7.47641	-3.11033	14.15184	30.10069	1.39447	0.71712	119.52415	119.28688	44.8327	0.333	 	634656.2561	 	9.90637E-6	 	39126.827	36.8842	 
1010.0	1.0	0.0	7.34307	7.47451	-3.13499	14.13395	30.04445	1.39165	0.71857	120.16635	119.78806	45.08018	0.33281	 	688781.7067	 	9.09248E-6	 	38942.605	36.8444	 
1005.0	1.0	0.0	7.34494	7.47261	-3.15959	14.11606	29.98822	1.38883	0.72003	120.80935	120.28885	45.32802	0.33261	 	748001.9412	 	8.34E-6	 	38758.579	36.8052	 
1000.0	1.0	0.0	7.3468	7.47072	-3.18414	14.09817	29.93198	1.386	0.7215	121.45309	120.78924	45.57622	0.33242	 	812840.2558	 	7.64471E-6	 	38574.744	36.767	 
995.0	1.0	0.0	7.34866	7.46883	-3.20865	14.08027	29.87574	1.38315	0.72299	122.09756	121.28917	45.82476	0.33222	 	883878.0909	 	7.00269E-6	 	38391.097	36.7294	 
990.0	1.0	0.0	7.35052	7.46694	-3.2331	14.06238	29.8195	1.3803	0.72448	122.74272	121.78864	46.07364	0.33203	 	961761.9717	 	6.41024E-6	 	38207.634	36.6926	 
985.0	1.0	0.0	7.35237	7.46506	-3.25751	14.04447	29.76326	1.37743	0.72599	123.38853	122.28759	46.32283	0.33183	 	1047211.335	 	5.86388E-6	 	38024.35	36.6568	 
980.0	1.0	0.0	7.35423	7.46318	-3.28187	14.02657	29.70702	1.37455	0.72751	124.03496	122.786	46.57232	0.33164	 	1141027.359	 	5.36036E-6	 	37841.242	36.6216	 
975.0	1.0	0.0	7.35607	7.4613	-3.30618	14.00867	29.65078	1.37167	0.72904	124.68197	123.28384	46.82211	0.33144	 	1244102.943	 	4.89663E-6	 	37658.304	36.5876	 
970.0	1.0	0.0	7.35792	7.45943	-3.33044	13.99076	29.59453	1.36877	0.73058	125.32954	123.78107	47.07219	0.33125	 	1357433.974	 	4.46984E-6	 	37475.533	36.5542	 
965.0	1.0	0.0	7.35976	7.45756	-3.35465	13.97285	29.53829	1.36586	0.73214	125.97763	124.27768	47.32253	0.33105	 	1482132.088	 	4.0773E-6	 	37292.923	36.522	 
960.0	1.0	0.0	7.3616	7.4557	-3.37881	13.95493	29.48204	1.36294	0.73371	126.62621	124.77361	47.57312	0.33086	 	1619439.108	 	3.71653E-6	 	37110.471	36.4904	 
955.0	1.0	0.0	7.36344	7.45384	-3.40292	13.93702	29.42579	1.36001	0.73529	127.27523	125.26885	47.82396	0.33066	 	1770743.41	 	3.38519E-6	 	36928.17	36.4602	 
950.0	1.0	0.0	7.36528	7.45198	-3.42698	13.9191	29.36954	1.35706	0.73688	127.92468	125.76336	48.07503	0.33047	 	1937598.483	 	3.08108E-6	 	36746.016	36.4308	 
945.0	1.0	0.0	7.36711	7.45013	-3.45099	13.90118	29.31329	1.35411	0.73849	128.57451	126.25712	48.32632	0.33027	 	2121744.0	 	2.80217E-6	 	36564.004	36.4024	 
940.0	1.0	0.0	7.36894	7.44828	-3.47495	13.88325	29.25704	1.35114	0.74011	129.22469	126.75008	48.57781	0.33008	 	2325129.76	 	2.54656E-6	 	36382.128	36.3752	 
935.0	1.0	0.0	7.37076	7.44643	-3.49887	13.86533	29.20078	1.34817	0.74175	129.87518	127.24223	48.82949	0.32988	 	2549942.909	 	2.31248E-6	 	36200.384	36.3488	 
930.0	1.0	0.0	7.37259	7.44459	-3.52273	13.8474	29.14453	1.34518	0.74339	130.52596	127.73353	49.08136	0.32969	 	2798638.937	 	2.09826E-6	 	36018.764	36.324	 
925.0	1.0	0.0	7.37441	7.44275	-3.54655	13.82947	29.08827	1.34218	0.74506	131.177	128.22395	49.33339	0.32949	 	3073976.978	 	1.90238E-6	 	35837.265	36.2998	 
920.0	1.0	0.0	7.37622	7.44092	-3.57031	13.81153	29.03201	1.33917	0.74673	131.82824	128.71347	49.58558	0.3293	 	3379060.078	 	1.7234E-6	 	35655.879	36.2772	 
915.0	1.0	0.0	7.37804	7.43909	-3.59403	13.7936	28.97575	1.33615	0.74842	132.47967	129.20204	49.83792	0.32911	 	3717381.151	 	1.55999E-6	 	35474.601	36.2556	 
910.0	1.0	0.0	7.37985	7.43726	-3.6177	13.77566	28.91949	1.33311	0.75012	133.13125	129.68965	50.09038	0.32891	 	4092875.489	 	1.41091E-6	 	35293.424	36.2354	 
905.0	1.0	0.0	7.38166	7.43544	-3.64131	13.75772	28.86323	1.33007	0.75184	133.78295	130.17626	50.34296	0.32872	 	4509980.815	 	1.27501E-6	 	35112.342	36.2164	 
900.0	1.0	0.0	7.38346	7.43362	-3.66488	13.73977	28.80697	1.32701	0.75357	134.43473	130.66185	50.59564	0.32852	 	4973706.024	 	1.15122E-6	 	34931.347	36.199	 
895.0	1.0	0.0	7.38527	7.43181	-3.6884	13.72183	28.7507	1.32394	0.75532	135.08656	131.14638	50.84842	0.32833	 	5489709.957	 	1.03857E-6	 	34750.434	36.1826	 
890.0	1.0	0.0	7.38707	7.43	-3.71187	13.70388	28.69444	1.32086	0.75708	135.7384	131.62983	51.10128	0.32813	 	6064391.758	 	9.36128E-7	 	34569.595	36.1678	 
885.0	1.0	0.0	7.38886	7.42819	-3.73529	13.68593	28.63817	1.31776	0.75886	136.39023	132.11217	51.35421	0.32794	 	6704994.619	 	8.4305E-7	 	34388.822	36.1546	 
880.0	1.0	0.0	7.39066	7.42639	-3.75866	13.66797	28.5819	1.31466	0.76065	137.042	132.59337	51.60719	0.32774	 	7419725.018	 	7.58551E-7	 	34208.108	36.1428	 
875.0	1.0	0.0	7.39245	7.42459	-3.78198	13.65002	28.52563	1.31154	0.76246	137.6937	133.0734	51.86021	0.32755	 	8217889.918	 	6.81907E-7	 	34027.444	36.1328	 
870.0	1.0	0.0	7.39424	7.42279	-3.80525	13.63206	28.46936	1.30841	0.76429	138.34527	133.55223	52.11326	0.32735	 	9110054.784	 	6.12448E-7	 	33846.824	36.124	 
865.0	1.0	0.0	7.39602	7.421	-3.82847	13.6141	28.41309	1.30527	0.76613	138.99669	134.02983	52.36633	0.32716	 	1.010822577E7	 	5.49555E-7	 	33666.237	36.1174	 
860.0	1.0	0.0	7.39781	7.41921	-3.85164	13.59613	28.35682	1.30211	0.76798	139.64793	134.50619	52.61941	0.32696	 	1.122606002E7	 	4.92659E-7	 	33485.676	36.1122	 
855.0	1.0	0.0	7.39959	7.41743	-3.87477	13.57817	28.30055	1.29894	0.76986	140.29895	134.98126	52.87248	0.32677	 	1.247910866E7	 	4.41235E-7	 	33305.131	36.109	 
850.0	1.0	0.0	7.40136	7.41565	-3.89784	13.5602	28.24427	1.29576	0.77175	140.94972	135.45502	53.12552	0.32657	 	1.388509787E7	 	3.94799E-7	 	33124.593	36.1076	 
845.0	1.0	0.0	7.40314	7.41387	-3.92086	13.54223	28.188	1.29257	0.77365	141.60021	135.92745	53.37854	0.32638	 	1.54642544E7	 	3.52905E-7	 	32944.052	36.1082	 
840.0	1.0	0.0	7.40491	7.4121	-3.94384	13.52425	28.13173	1.28936	0.77558	142.25037	136.39852	53.63151	0.32618	 	1.723968297E7	 	3.15146E-7	 	32763.497	36.111	 
835.0	1.0	0.0	7.40667	7.41033	-3.96676	13.50628	28.07545	1.28614	0.77752	142.90019	136.86819	53.88442	0.32599	 	1.92378043E7	 	2.81145E-7	 	32582.918	36.1158	 
830.0	1.0	0.0	7.40844	7.40856	-3.98963	13.4883	28.01918	1.28291	0.77948	143.54963	137.33645	54.13726	0.32579	 	2.148886409E7	 	2.50558E-7	 	32402.305	36.1226	 
825.0	1.0	0.0	7.4102	7.4068	-4.01246	13.47031	27.9629	1.27967	0.78145	144.19864	137.80326	54.39002	0.3256	 	2.402752526E7	 	2.23069E-7	 	32221.644	36.1322	 
820.0	1.0	0.0	7.41196	7.40504	-4.03524	13.45233	27.90663	1.27641	0.78345	144.84721	138.2686	54.64268	0.3254	 	2.689355765E7	 	1.98389E-7	 	32040.926	36.1436	 
815.0	1.0	0.0	7.41371	7.40329	-4.05796	13.43434	27.85035	1.27314	0.78546	145.4953	138.73245	54.89524	0.32521	 	3.013264249E7	 	1.76254E-7	 	31860.136	36.158	 
810.0	1.0	0.0	7.41547	7.40154	-4.08064	13.41635	27.79408	1.26985	0.78749	146.14287	139.19476	55.14767	0.32501	 	3.379731161E7	 	1.5642E-7	 	31679.262	36.1748	 
805.0	1.0	0.0	7.41722	7.39979	-4.10326	13.39836	27.7378	1.26656	0.78954	146.78989	139.65553	55.39997	0.32482	 	3.794804545E7	 	1.38668E-7	 	31498.29	36.1944	 
800.0	1.0	0.0	7.41896	7.39805	-4.12584	13.38037	27.68153	1.26325	0.79161	147.43633	140.11473	55.65213	0.32462	 	4.265455833E7	 	1.22795E-7	 	31317.206	36.2168	 
795.0	1.0	0.0	7.42071	7.39631	-4.14837	13.36237	27.62526	1.25992	0.7937	148.08215	140.57232	55.90413	0.32443	 	4.79973048E7	 	1.08618E-7	 	31135.995	36.2422	 
790.0	1.0	0.0	7.42245	7.39458	-4.17085	13.34437	27.56899	1.25658	0.79581	148.72733	141.02828	56.15596	0.32423	 	5.406924732E7	 	9.5969E-8	 	30954.641	36.2708	 
785.0	1.0	0.0	7.42419	7.39285	-4.19327	13.32637	27.51271	1.25323	0.79794	149.37182	141.48259	56.4076	0.32404	 	6.097793341E7	 	8.46957E-8	 	30773.128	36.3026	 
780.0	1.0	0.0	7.42592	7.39112	-4.21565	13.30837	27.45644	1.24987	0.80009	150.01561	141.93521	56.65905	0.32384	 	6.884793961E7	 	7.46597E-8	 	30591.438	36.338	 
775.0	1.0	0.0	7.42765	7.3894	-4.23798	13.29036	27.40017	1.24649	0.80225	150.65864	142.38614	56.9103	0.32365	 	7.782375087E7	 	6.57352E-8	 	30409.554	36.3768	 
770.0	1.0	0.0	7.42938	7.38768	-4.26026	13.27235	27.34391	1.24309	0.80444	151.3009	142.83533	57.16132	0.32346	 	8.807315754E7	 	5.78083E-8	 	30227.455	36.4198	 
765.0	1.0	0.0	7.43111	7.38596	-4.28249	13.25434	27.28764	1.23969	0.80666	151.94235	143.28277	57.41211	0.32326	 	9.979126855E7	 	5.07755E-8	 	30045.123	36.4664	 
760.0	1.0	0.0	7.43283	7.38425	-4.30467	13.23632	27.23138	1.23626	0.80889	152.58295	143.72842	57.66265	0.32307	 	1.132052592E8	 	4.45434E-8	 	29862.535	36.5176	 
755.0	1.0	0.0	7.43455	7.38255	-4.3268	13.21831	27.17511	1.23283	0.81114	153.22268	144.17227	57.91294	0.32287	 	1.285799958E8	 	3.90274E-8	 	29679.669	36.5732	 
750.0	1.0	0.0	7.43626	7.38084	-4.34888	13.20029	27.11885	1.22938	0.81342	153.8615	144.6143	58.16296	0.32268	 	1.462247089E8	 	3.41511E-8	 	29496.501	36.6336	 
745.0	1.0	0.0	7.43798	7.37914	-4.37091	13.18227	27.06259	1.22591	0.81572	154.49937	145.05446	58.41269	0.32248	 	1.665009216E8	 	2.98457E-8	 	29313.007	36.6988	 
740.0	1.0	0.0	7.43969	7.37745	-4.39289	13.16424	27.00633	1.22244	0.81804	155.13627	145.49275	58.66213	0.32229	 	1.898318834E8	 	2.6049E-8	 	29129.158	36.7698	 
735.0	1.0	0.0	7.44139	7.37575	-4.41482	13.14621	26.95008	1.21894	0.82038	155.77217	145.92914	58.91126	0.32209	 	2.167138126E8	 	2.27052E-8	 	28944.928	36.846	 
730.0	1.0	0.0	7.4431	7.37407	-4.4367	13.12818	26.89382	1.21543	0.82275	156.40702	146.36359	59.16008	0.3219	 	2.477293123E8	 	1.9764E-8	 	28760.284	36.9288	 
725.0	1.0	0.0	7.4448	7.37238	-4.45853	13.11015	26.83757	1.21191	0.82514	157.04081	146.7961	59.40856	0.3217	 	2.835634073E8	 	1.71804E-8	 	28575.196	37.0176	 
720.0	1.0	0.0	7.4465	7.3707	-4.48031	13.09212	26.78132	1.20837	0.82756	157.67348	147.22663	59.65669	0.32151	 	3.250227421E8	 	1.49138E-8	 	28389.627	37.1138	 
715.0	1.0	0.0	7.44819	7.36902	-4.50205	13.07408	26.72507	1.20482	0.83	158.30503	147.65516	59.90447	0.32131	 	3.730586001E8	 	1.2928E-8	 	28203.542	37.217	 
710.0	1.0	0.0	7.44988	7.36735	-4.52373	13.05604	26.66882	1.20125	0.83247	158.9354	148.08167	60.15188	0.32112	 	4.287945487E8	 	1.11907E-8	 	28016.901	37.3282	 
705.0	1.0	0.0	7.45157	7.36568	-4.54536	13.038	26.61257	1.19767	0.83496	159.56458	148.50614	60.39891	0.32092	 	4.935596926E8	 	9.67281E-9	 	27829.661	37.448	 
700.0	1.0	0.0	7.45325	7.36402	-4.56694	13.01995	26.55632	1.19407	0.83747	160.19252	148.92853	60.64555	0.32073	 	5.689287416E8	 	8.3485E-9	 	27641.776	37.577	 
695.0	1.0	0.0	7.45494	7.36235	-4.58847	13.00191	26.50008	1.19046	0.84001	160.81919	149.34884	60.89178	0.32053	 	6.567703668E8	 	7.19475E-9	 	27453.196	37.716	 
690.0	1.0	0.0	7.45662	7.3607	-4.60996	12.98386	26.44383	1.18683	0.84258	161.44457	149.76703	61.13759	0.32034	 	7.59305662E8	 	6.19105E-9	 	27263.869	37.8654	 
685.0	1.0	0.0	7.45829	7.35904	-4.63139	12.96581	26.38759	1.18318	0.84518	162.06862	150.18308	61.38297	0.32014	 	8.791789406E8	 	5.31916E-9	 	27073.736	38.0266	 
680.0	1.0	0.0	7.45996	7.35739	-4.65277	12.94775	26.33134	1.17952	0.8478	162.69131	150.59697	61.6279	0.31995	 	1.019543623E9	 	4.56291E-9	 	26882.735	38.2002	 
675.0	1.0	0.0	7.46163	7.35575	-4.6741	12.92969	26.27509	1.17585	0.85045	163.31261	151.00868	61.87239	0.31975	 	1.184166612E9	 	3.90797E-9	 	26690.797	38.3876	 
670.0	1.0	0.0	7.4633	7.3541	-4.69539	12.91163	26.21885	1.17215	0.85313	163.93248	151.41819	62.1164	0.31956	 	1.377555374E9	 	3.34163E-9	 	26497.848	38.5898	 
665.0	1.0	0.0	7.46496	7.35247	-4.71662	12.89357	26.1626	1.16845	0.85584	164.5509	151.82547	62.35993	0.31936	 	1.60511293E9	 	2.85268E-9	 	26303.807	38.8082	 
660.0	1.0	0.0	7.46662	7.35083	-4.7378	12.87551	26.10635	1.16472	0.85857	165.16783	152.2305	62.60298	0.31917	 	1.873327258E9	 	2.43122E-9	 	26108.585	39.0444	 
655.0	1.0	0.0	7.46828	7.3492	-4.75893	12.85744	26.05009	1.16099	0.86134	165.78324	152.63326	62.84551	0.31897	 	2.190003162E9	 	2.06852E-9	 	25912.084	39.3002	 
650.0	1.0	0.0	7.46993	7.34757	-4.78002	12.83937	25.99384	1.15723	0.86413	166.39709	153.03372	63.08754	0.31878	 	2.564546688E9	 	1.75691E-9	 	25714.198	39.5772	 
645.0	1.0	0.0	7.47158	7.34595	-4.80105	12.8213	25.93758	1.15346	0.86696	167.00937	153.43187	63.32903	0.31858	 	3.008314666E9	 	1.48963E-9	 	25514.808	39.878	 
640.0	1.0	0.0	7.47323	7.34433	-4.82203	12.80322	25.88131	1.14967	0.86981	167.62003	153.82769	63.56998	0.31839	 	3.535045124E9	 	1.26076E-9	 	25313.784	40.2048	 
635.0	1.0	0.0	7.47487	7.34272	-4.84297	12.78514	25.82504	1.14587	0.8727	168.22905	154.22115	63.81038	0.3182	 	4.16138838E9	 	1.06514E-9	 	25110.982	40.5604	 
630.0	1.0	0.0	7.47652	7.3411	-4.86385	12.76706	25.76877	1.14205	0.87562	168.83639	154.61224	64.05021	0.318	 	4.907563645E9	 	8.98216E-10	 	24906.241	40.9482	 
625.0	1.0	0.0	7.47815	7.3395	-4.88468	12.74898	25.71249	1.13821	0.87857	169.44202	155.00092	64.28947	0.31781	 	5.798172524E9	 	7.56039E-10	 	24699.383	41.3716	 
620.0	1.0	0.0	7.47979	7.33789	-4.90546	12.7309	25.6562	1.13436	0.88156	170.04592	155.38719	64.52814	0.31761	 	6.863208977E9	 	6.35161E-10	 	24490.211	41.8344	 
615.0	1.0	0.0	7.48142	7.33629	-4.9262	12.71281	25.59991	1.13049	0.88457	170.64804	155.77101	64.76621	0.31742	 	8.139315882E9	 	5.3258E-10	 	24278.501	42.342	 
610.0	1.0	0.0	7.48305	7.3347	-4.94688	12.69472	25.54361	1.1266	0.88763	171.24836	156.15238	65.00366	0.31722	 	9.671351795E9	 	4.45691E-10	 	24064.005	42.8992	 
605.0	1.0	0.0	7.48467	7.33311	-4.96751	12.67663	25.48731	1.1227	0.89071	171.84686	156.53126	65.24049	0.31703	 	1.15143E10	 	3.72234E-10	 	23844.979	43.8052	 
600.0	1.0	0.0	7.48629	7.33152	-4.9881	12.65853	25.43099	1.11878	0.89383	172.44349	156.90765	65.47668	0.31683	 	1.3735999999999998E10	 	3.10253E-10	 	23599.765	49.0428	 
595.0	1.0	0.0	7.48791	7.32993	-5.00863	12.64043	25.37467	1.11484	0.89699	173.03822	157.28151	65.71223	0.31664	 	1.6419599999999998E10	 	2.5806E-10	 	23357.786	48.3958	 
590.0	1.0	0.0	7.48953	7.32835	-5.02911	12.62233	25.31834	1.11088	0.90018	173.63104	157.65284	65.94711	0.31644	 	1.96681E10	 	2.14196E-10	 	23118.911	47.775	 
585.0	1.0	0.0	7.49114	7.32678	-5.04954	12.60423	25.262	1.10691	0.90341	174.2219	158.0216	66.18132	0.31625	 	2.3608899999999996E10	 	1.77408E-10	 	22883.017	47.1788	 
580.0	1.0	0.0	7.49275	7.3252	-5.06993	12.58613	25.20565	1.10292	0.90668	174.81077	158.38779	66.41485	0.31605	 	2.8399999999999996E10	 	1.4662E-10	 	22649.988	46.6058	 
575.0	1.0	0.0	7.49435	7.32363	-5.09026	12.56802	25.1493	1.09892	0.90999	175.39763	158.75137	66.64768	0.31586	 	3.4237999999999996E10	 	1.20907E-10	 	22419.713	46.055	 
570.0	1.0	0.0	7.49595	7.32207	-5.11054	12.54991	25.09293	1.09489	0.91333	175.98245	159.11234	66.8798	0.31566	 	4.13677E10	 	9.94788E-11	 	22192.089	45.5248	 
565.0	1.0	0.0	7.49755	7.32051	-5.13077	12.5318	25.03655	1.09085	0.91672	176.56519	159.47068	67.1112	0.31547	 	5.009489999999999E10	 	8.1661E-11	 	21967.016	45.0146	 
560.0	1.0	0.0	7.49915	7.31895	-5.15095	12.51368	24.98017	1.08679	0.92014	177.14583	159.82636	67.34187	0.31527	 	6.080289999999999E10	 	6.68783E-11	 	21744.401	44.523	 
555.0	1.0	0.0	7.50074	7.3174	-5.17109	12.49556	24.92378	1.08271	0.92361	177.72433	160.17936	67.57179	0.31508	 	7.39726E10	 	5.46418E-11	 	21524.157	44.0488	 
550.0	1.0	0.0	7.50233	7.31585	-5.19117	12.47744	24.86737	1.07862	0.92711	178.30066	160.52967	67.80096	0.31488	 	9.02093E10	 	4.45363E-11	 	21306.199	43.5916	 
545.0	1.0	0.0	7.50391	7.3143	-5.2112	12.45932	24.81096	1.0745	0.93066	178.87481	160.87728	68.02937	0.31469	 	1.10277E11	 	3.62105E-11	 	21090.449	43.15	 
540.0	1.0	0.0	7.50549	7.31276	-5.23118	12.44119	24.75454	1.07037	0.93426	179.44673	161.22215	68.257	0.31449	 	1.35143E11	 	2.93674E-11	 	20876.83	42.7238	 
535.0	1.0	0.0	7.50707	7.31122	-5.25111	12.42307	24.69811	1.06622	0.93789	180.01639	161.56428	68.48383	0.3143	 	1.66032E11	 	2.37567E-11	 	20665.273	42.3114	 
530.0	1.0	0.0	7.50865	7.30969	-5.27099	12.40494	24.64168	1.06205	0.94158	180.58378	161.90365	68.70987	0.3141	 	2.04506E11	 	1.91681E-11	 	20455.71	41.9126	 
525.0	1.0	0.0	7.51022	7.30816	-5.29082	12.3868	24.58523	1.05786	0.94531	181.14885	162.24024	68.93509	0.31391	 	2.52553E11	 	1.54248E-11	 	20248.076	41.5268	 
520.0	1.0	0.0	7.51179	7.30663	-5.3106	12.36867	24.52878	1.05365	0.94908	181.71159	162.57403	69.15949	0.31371	 	3.12719E11	 	1.23791E-11	 	20042.312	41.1528	 
515.0	1.0	0.0	7.51336	7.30511	-5.33033	12.35053	24.47233	1.04942	0.9529	182.27195	162.905	69.38306	0.31352	 	3.8827E11	 	9.90745E-12	 	19838.359	40.7906	 
510.0	1.0	0.0	7.51492	7.30359	-5.35001	12.33239	24.41586	1.04518	0.95677	182.82992	163.23314	69.60577	0.31332	 	4.83408E11	 	7.90712E-12	 	19636.163	40.4392	 
505.0	1.0	0.0	7.51648	7.30208	-5.36964	12.31425	24.35939	1.04091	0.96069	183.38546	163.55844	69.82763	0.31313	 	6.03554E11	 	6.29265E-12	 	19435.671	40.0984	 
500.0	1.0	0.0	7.51803	7.30056	-5.38922	12.2961	24.30292	1.03663	0.96467	183.93855	163.88087	70.04863	0.31293	 	7.55729E11	 	4.99326E-12	 	19236.835	39.7672	 
495.0	1.0	0.0	7.51958	7.29906	-5.40875	12.27795	24.24644	1.03232	0.96869	184.48915	164.20042	70.26874	0.31274	 	9.49046E11	 	3.95044E-12	 	19039.607	39.4456	 
490.0	1.0	0.0	7.52113	7.29755	-5.42823	12.2598	24.18995	1.028	0.97276	185.03724	164.51708	70.48796	0.31255	 	1.19538E12	 	3.11596E-12	 	18843.942	39.133	 
485.0	1.0	0.0	7.52268	7.29606	-5.44766	12.24165	24.13346	1.02365	0.97689	185.5828	164.83082	70.70628	0.31235	 	1.51023E12	 	2.45018E-12	 	18649.799	38.8286	 
480.0	1.0	0.0	7.52422	7.29456	-5.46703	12.22349	24.07697	1.01929	0.98108	186.12579	165.14163	70.92368	0.31216	 	1.91395E12	 	1.9206E-12	 	18457.136	38.5326	 
475.0	1.0	0.0	7.52576	7.29307	-5.48636	12.20534	24.02048	1.0149	0.98532	186.66618	165.4495	71.14017	0.31196	 	2.43329E12	 	1.50066E-12	 	18265.915	38.2442	 
470.0	1.0	0.0	7.52729	7.29158	-5.50564	12.18717	23.96398	1.0105	0.98961	187.20396	165.75442	71.35571	0.31177	 	3.10355E12	 	1.1687E-12	 	18076.098	37.9634	 
465.0	1.0	0.0	7.52883	7.2901	-5.52487	12.16901	23.90748	1.00607	0.99397	187.73909	166.05636	71.57031	0.31157	 	3.97151E12	 	9.07142E-13	 	17887.651	37.6894	 
460.0	1.0	0.0	7.53036	7.28862	-5.54404	12.15085	23.85098	1.00162	0.99838	188.27154	166.35532	71.78396	0.31138	 	5.09934E12	 	7.01723E-13	 	17700.54	37.4222	 
455.0	1.0	0.0	7.53188	7.28714	-5.56317	12.13268	23.79448	0.99715	1.00285	188.80129	166.65127	71.99664	0.31118	 	6.56996E12	 	5.40935E-13	 	17514.734	37.1612	 
450.0	1.0	0.0	7.5334	7.28567	-5.58225	12.11451	23.73798	0.99266	1.00739	189.32832	166.94421	72.20834	0.31099	 	8.4944E12	 	4.15511E-13	 	17330.2	36.9068	 
445.0	1.0	0.0	7.53492	7.2842	-5.60127	12.09633	23.68148	0.98815	1.01199	189.85259	167.23412	72.41906	0.31079	 	1.10219E13	 	3.18013E-13	 	17146.91	36.658	 
440.0	1.0	0.0	7.53644	7.28274	-5.62025	12.07816	23.62497	0.98362	1.01665	190.37408	167.52098	72.62878	0.3106	 	1.43538E13	 	2.42494E-13	 	16964.837	36.4146	 
435.0	1.0	0.0	7.53795	7.28128	-5.63917	12.05998	23.56847	0.97907	1.02138	190.89276	167.8048	72.83748	0.3104	 	1.87628E13	 	1.84211E-13	 	16783.952	36.177	 
430.0	1.0	0.0	7.53945	7.27982	-5.65804	12.0418	23.51197	0.97449	1.02618	191.40862	168.08554	73.04518	0.31021	 	2.46197E13	 	1.39397E-13	 	16604.231	35.9442	 
425.0	1.0	0.0	7.54096	7.27837	-5.67687	12.02362	23.45546	0.96989	1.03104	191.92162	168.3632	73.25184	0.31001	 	3.24307E13	 	1.0507E-13	 	16425.648	35.7166	 
420.0	1.0	0.0	7.54246	7.27692	-5.69564	12.00543	23.39896	0.96527	1.03598	192.43174	168.63777	73.45746	0.30982	 	4.28901E13	 	7.88781E-14	 	16248.18	35.4936	 
415.0	1.0	0.0	7.54396	7.27548	-5.71436	11.98724	23.34246	0.96063	1.04099	192.93895	168.90923	73.66204	0.30962	 	5.69538E13	 	5.89722E-14	 	16071.804	35.2752	 
410.0	1.0	0.0	7.54545	7.27403	-5.73304	11.96905	23.28596	0.95596	1.04607	193.44323	169.17758	73.86556	0.30943	 	7.59435E13	 	4.39048E-14	 	15896.498	35.0612	 
405.0	1.0	0.0	7.54694	7.2726	-5.75166	11.95086	23.22946	0.95127	1.05122	193.94456	169.44279	74.06801	0.30923	 	1.01695E14	 	3.2547E-14	 	15722.242	34.8512	 
400.0	1.0	0.0	7.54843	7.27116	-5.77023	11.93266	23.17296	0.94656	1.05646	194.44291	169.70487	74.26938	0.30904	 	1.3677199999999998E14	 	2.40216E-14	 	15549.014	34.6456	 
395.0	1.0	0.0	7.54991	7.26974	-5.78875	11.91446	23.11647	0.94183	1.06177	194.93826	169.9638	74.46967	0.30884	 	1.84764E14	 	1.76499E-14	 	15376.797	34.4434	 
390.0	1.0	0.0	7.5514	7.26831	-5.80722	11.89626	23.05997	0.93707	1.06716	195.43059	170.21956	74.66886	0.30865	 	2.50731E14	 	1.29089E-14	 	15205.57	34.2454	 
385.0	1.0	0.0	7.55287	7.26689	-5.82564	11.87806	23.00347	0.93229	1.07263	195.91987	170.47216	74.86695	0.30845	 	3.41832E14	 	9.3972E-15	 	15035.316	34.0508	 
380.0	1.0	0.0	7.55435	7.26547	-5.84401	11.85985	22.94698	0.92748	1.07819	196.40608	170.72157	75.06392	0.30826	 	4.68251E14	 	6.80801E-15	 	14866.018	33.8596	 
375.0	1.0	0.0	7.55582	7.26406	-5.86233	11.84164	22.89048	0.92265	1.08383	196.8892	170.96779	75.25977	0.30806	 	6.44546E14	 	4.90804E-15	 	14697.658	33.672	 
370.0	1.0	0.0	7.55728	7.26265	-5.8806	11.82343	22.83399	0.9178	1.08956	197.36921	171.21082	75.45449	0.30787	 	8.91633E14	 	3.52057E-15	 	14530.221	33.4874	 
365.0	1.0	0.0	7.55875	7.26124	-5.89882	11.80522	22.77749	0.91292	1.09538	197.84609	171.45063	75.64807	0.30767	 	1.23973E15	 	2.51236E-15	 	14363.691	33.306	 
360.0	1.0	0.0	7.56021	7.25984	-5.91698	11.787	22.721	0.90802	1.10129	198.31981	171.68723	75.8405	0.30748	 	1.73272E15	 	1.78347E-15	 	14198.053	33.1276	 
355.0	1.0	0.0	7.56166	7.25844	-5.9351	11.76878	22.6645	0.9031	1.1073	198.79036	171.92061	76.03177	0.30728	 	2.4347E15	 	1.25923E-15	 	14033.292	32.9522	 
350.0	1.0	0.0	7.56311	7.25705	-5.95317	11.75056	22.60801	0.89815	1.1134	199.25771	172.15076	76.22188	0.30709	 	3.43979E15	 	8.84195E-16	 	13869.394	32.7796	 
345.0	1.0	0.0	7.56456	7.25566	-5.97118	11.73234	22.55152	0.89317	1.1196	199.72185	172.37767	76.41082	0.3069	 	4.88704E15	 	6.17354E-16	 	13706.346	32.6096	 
340.0	1.0	0.0	7.56601	7.25427	-5.98915	11.71411	22.49502	0.88817	1.12591	200.18276	172.60133	76.59858	0.3067	 	6.9831E15	 	4.28553E-16	 	13544.134	32.4424	 
335.0	1.0	0.0	7.56745	7.25289	-6.00706	11.69588	22.43853	0.88315	1.13231	200.64041	172.82175	76.78514	0.30651	 	1.00369E16	 	2.95732E-16	 	13382.746	32.2776	 
330.0	1.0	0.0	7.56889	7.25151	-6.02493	11.67765	22.38203	0.8781	1.13882	201.0948	173.0389	76.97052	0.30631	 	1.45132E16	 	2.02838E-16	 	13222.169	32.1154	 
325.0	1.0	0.0	7.57032	7.25014	-6.04274	11.65942	22.32553	0.87302	1.14544	201.54591	173.2528	77.15469	0.30612	 	2.11156E16	 	1.38259E-16	 	13062.391	31.9556	 
320.0	1.0	0.0	7.57176	7.24877	-6.0605	11.64118	22.26903	0.86792	1.15218	201.99371	173.46344	77.33765	0.30592	 	3.09164E16	 	9.36401E-17	 	12903.4	31.7982	 
315.0	1.0	0.0	7.57318	7.2474	-6.07821	11.62294	22.21253	0.8628	1.15902	202.4382	173.6708	77.51939	0.30573	 	4.55607E16	 	6.30063E-17	 	12745.186	31.6428	 
310.0	1.0	0.0	7.57461	7.24604	-6.09587	11.6047	22.15603	0.85764	1.16599	202.87935	173.87489	77.69992	0.30553	 	6.7589600000000008E16	 	4.21102E-17	 	12587.737	31.4898	 
305.0	1.0	0.0	7.57603	7.24468	-6.11348	11.58646	22.09953	0.85246	1.17307	203.31715	174.07571	77.87921	0.30534	 	1.00956E17	 	2.79509E-17	 	12431.042	31.339	 
300.0	1.0	0.0	7.57745	7.24332	-6.13104	11.56821	22.04302	0.84726	1.18028	203.7516	174.27325	78.05727	0.30514	 	1.51853E17	 	1.84218E-17	 	12275.092	31.19	 
295.0	1.0	0.0	7.57886	7.24197	-6.14855	11.54996	21.98652	0.84202	1.18762	204.18266	174.46752	78.23409	0.30495	 	2.30058E17	 	1.20535E-17	 	12119.877	31.043	 
290.0	1.0	0.0	7.58027	7.24062	-6.16601	11.53171	21.93001	0.83676	1.19508	204.61034	174.6585	78.40967	0.30475	 	3.51118E17	 	7.82813E-18	 	11965.386	30.8982	 
285.0	1.0	0.0	7.58168	7.23928	-6.18342	11.51346	21.8735	0.83148	1.20268	205.03463	174.84621	78.58399	0.30456	 	5.39957E17	 	5.0452E-18	 	11811.61	30.7552	 
280.0	1.0	0.0	7.58308	7.23794	-6.20077	11.4952	21.81698	0.82616	1.21041	205.4555	175.03063	78.75707	0.30436	 	8.36843E17	 	3.22616E-18	 	11658.541	30.6138	 
275.0	1.0	0.0	7.58448	7.23661	-6.21808	11.47694	21.76047	0.82082	1.21829	205.87295	175.21178	78.92888	0.30417	 	1.30738E18	 	2.04638E-18	 	11506.168	30.4746	 
270.0	1.0	0.0	7.58587	7.23528	-6.23534	11.45868	21.70395	0.81545	1.22631	206.28698	175.38966	79.09942	0.30397	 	2.05932E18	 	1.28731E-18	 	11354.485	30.3366	 
265.0	1.0	0.0	7.58727	7.23395	-6.25254	11.44042	21.64743	0.81006	1.23448	206.69757	175.56426	79.26871	0.30378	 	3.27126E18	 	8.02926E-19	 	11203.482	30.2006	 
260.0	1.0	0.0	7.58865	7.23262	-6.26969	11.42215	21.5909	0.80463	1.24281	207.10471	175.73559	79.43672	0.30358	 	5.24173E18	 	4.96434E-19	 	11053.151	30.0662	 
255.0	1.0	0.0	7.59004	7.2313	-6.2868	11.40388	21.53437	0.79918	1.25129	207.50841	175.90366	79.60345	0.30339	 	8.47446E18	 	3.04181E-19	 	10903.485	29.9332	 
250.0	1.0	0.0	7.59142	7.22999	-6.30385	11.38561	21.47784	0.79369	1.25993	207.90865	176.06848	79.76892	0.30319	 	1.38273E19	 	1.84661E-19	 	10754.476	29.8018	 
245.0	1.0	0.0	7.5928	7.22868	-6.32085	11.36734	21.42131	0.78818	1.26874	208.30543	176.23004	79.9331	0.303	 	2.27754E19	 	1.11039E-19	 	10606.117	29.6718	 
240.0	1.0	0.0	7.59417	7.22737	-6.3378	11.34906	21.36477	0.78264	1.27772	208.69875	176.38835	80.09601	0.3028	 	3.78807E19	 	6.61169E-20	 	10458.399	29.5436	 
235.0	1.0	0.0	7.59554	7.22606	-6.3547	11.33078	21.30823	0.77707	1.28688	209.08861	176.54343	80.25763	0.30261	 	6.36384E19	 	3.89726E-20	 	10311.318	29.4162	 
230.0	1.0	0.0	7.59691	7.22476	-6.37155	11.3125	21.25168	0.77148	1.29622	209.47501	176.69529	80.41798	0.30241	 	1.0801799999999998E20	 	2.27346E-20	 	10164.866	29.2904	 
225.0	1.0	0.0	7.59827	7.22347	-6.38835	11.29421	21.19513	0.76585	1.30574	209.85794	176.84392	80.57704	0.30222	 	1.85305E20	 	1.31207E-20	 	10019.036	29.166	 
220.0	1.0	0.0	7.59963	7.22218	-6.40509	11.27593	21.13858	0.76019	1.31546	210.23742	176.98936	80.73482	0.30202	 	3.2139E20	 	7.48917E-21	 	9873.822	29.0428	 
215.0	1.0	0.0	7.60099	7.22089	-6.42179	11.25764	21.08202	0.7545	1.32538	210.61344	177.1316	80.89133	0.30183	 	5.6373499999999997E20	 	4.22635E-21	 	9729.22	28.9204	 
210.0	1.0	0.0	7.60234	7.2196	-6.43843	11.23935	21.02546	0.74878	1.33551	210.98602	177.27067	81.04655	0.30163	 	1.0003900000000001E21	 	2.35722E-21	 	9585.222	28.7996	 
205.0	1.0	0.0	7.60369	7.21832	-6.45503	11.22105	20.96889	0.74303	1.34584	211.35516	177.40658	81.2005	0.30144	 	1.79669E21	 	1.29891E-21	 	9441.823	28.6798	 
200.0	1.0	0.0	7.60503	7.21705	-6.47157	11.20275	20.91232	0.73725	1.35639	211.72087	177.53934	81.35318	0.30125	 	3.26701E21	 	7.06863E-22	 	9299.019	28.5608	 
195.0	1.0	0.0	7.60638	7.21577	-6.48806	11.18445	20.85575	0.73144	1.36717	212.08316	177.66899	81.5046	0.30105	 	6.01694E21	 	3.79749E-22	 	9156.804	28.443	 
190.0	1.0	0.0	7.60771	7.2145	-6.50451	11.16615	20.79917	0.72559	1.37818	212.44204	177.79552	81.65474	0.30086	 	1.12286E22	 	2.01317E-22	 	9015.173	28.3262	 
185.0	1.0	0.0	7.60905	7.21324	-6.5209	11.14785	20.74259	0.71972	1.38943	212.79753	177.91898	81.80363	0.30066	 	2.12419E22	 	1.05269E-22	 	8874.122	28.2102	 
180.0	1.0	0.0	7.61038	7.21198	-6.53724	11.12954	20.686	0.71381	1.40093	213.14965	178.03938	81.95127	0.30047	 	4.07538E22	 	5.42701E-23	 	8733.647	28.095	 
175.0	1.0	0.0	7.6117	7.21072	-6.55353	11.11123	20.6294	0.70787	1.41269	213.49842	178.15675	82.09767	0.30027	 	7.933379999999999E22	 	2.7571E-23	 	8593.744	27.9806	 
170.0	1.0	0.0	7.61303	7.20947	-6.56976	11.09292	20.5728	0.7019	1.42471	213.84386	178.27111	82.24282	0.30008	 	1.5677499999999998E23	 	1.37963E-23	 	8454.408	27.8672	 
165.0	1.0	0.0	7.61435	7.20822	-6.58595	11.07461	20.5162	0.69589	1.437	214.186	178.3825	82.38675	0.29988	 	3.14663E23	 	6.79617E-24	 	8315.638	27.754	 
160.0	1.0	0.0	7.61566	7.20698	-6.60209	11.05629	20.45959	0.68986	1.44958	214.52486	178.49094	82.52946	0.29969	 	6.418E23	 	3.29401E-24	 	8177.428	27.642	 
155.0	1.0	0.0	7.61697	7.20573	-6.61817	11.03797	20.40297	0.68379	1.46245	214.86047	178.59648	82.67097	0.29949	 	1.33102E24	 	1.57E-24	 	8039.777	27.5302	 
150.0	1.0	0.0	7.61828	7.2045	-6.6342	11.01965	20.34635	0.67768	1.47562	215.19288	178.69914	82.81128	0.2993	 	2.80838E24	 	7.35403E-25	 	7902.682	27.419	 
145.0	1.0	0.0	7.61959	7.20326	-6.65019	11.00132	20.28973	0.67154	1.48911	215.5221	178.79897	82.95041	0.2991	 	6.03228E24	 	3.38328E-25	 	7766.14	27.3084	 
140.0	1.0	0.0	7.62089	7.20203	-6.66612	10.983	20.23309	0.66537	1.50292	215.8482	178.89601	83.08838	0.29891	 	1.3199100000000002E25	 	1.52774E-25	 	7630.149	27.1982	 
135.0	1.0	0.0	7.62218	7.20081	-6.682	10.96467	20.17645	0.65916	1.51708	216.1712	178.99031	83.2252	0.29871	 	2.944E25	 	6.76657E-26	 	7494.708	27.0882	 
130.0	1.0	0.0	7.62348	7.19959	-6.69783	10.94633	20.11981	0.65292	1.53158	216.49117	179.08191	83.36089	0.29852	 	6.6984400000000005E25	 	2.93751E-26	 	7359.816	26.9784	 
125.0	1.0	0.0	7.62477	7.19837	-6.71361	10.928	20.06315	0.64664	1.54645	216.80814	179.17086	83.49547	0.29832	 	1.5558800000000002E26	 	1.24898E-26	 	7225.471	26.869	 
120.0	1.0	0.0	7.62605	7.19716	-6.72933	10.90966	20.00649	0.64033	1.56169	217.12219	179.25722	83.62897	0.29813	 	3.6922400000000003E26	 	5.19703E-27	 	7091.672	26.7598	 
115.0	1.0	0.0	7.62733	7.19595	-6.74501	10.89132	19.94983	0.63398	1.57733	217.43336	179.34104	83.76139	0.29793	 	8.959260000000001E26	 	2.11453E-27	 	6958.42	26.6504	 
110.0	1.0	0.0	7.62861	7.19474	-6.76064	10.87298	19.89315	0.6276	1.59337	217.74173	179.4224	83.89278	0.29774	 	2.22486E27	 	8.40531E-28	 	6825.715	26.541	 
105.0	1.0	0.0	7.62989	7.19354	-6.77621	10.85464	19.83647	0.62118	1.60984	218.04737	179.50134	84.02315	0.29754	 	5.6595E27	 	3.26116E-28	 	6693.556	26.4318	 
100.0	1.0	0.0	7.63116	7.19234	-6.79173	10.83629	19.77978	0.61472	1.62675	218.35036	179.57796	84.15254	0.29735	 	1.47612E28	 	1.23381E-28	 	6561.946	26.322	 
95.0	1.0	0.0	7.63242	7.19115	-6.80721	10.81794	19.72308	0.60823	1.64412	218.65077	179.65232	84.28098	0.29715	 	3.9516E28	 	4.54715E-29	 	6430.885	26.2122	 
90.0	1.0	0.0	7.63369	7.18996	-6.82263	10.79959	19.66638	0.6017	1.66196	218.94871	179.72449	84.4085	0.29696	 	1.08693E29	 	1.63069E-29	 	6300.376	26.1018	 
85.0	1.0	0.0	7.63495	7.18877	-6.838	10.78123	19.60966	0.59513	1.6803	219.24427	179.79458	84.53514	0.29676	 	3.0753700000000003E29	 	5.684E-30	 	6170.42	25.9912	 
80.0	1.0	0.0	7.6362	7.18759	-6.85331	10.76287	19.55294	0.58852	1.69916	219.53754	179.86267	84.66094	0.29657	 	8.9616E29	 	1.92336E-30	 	6041.021	25.8798	 
75.0	1.0	0.0	7.63745	7.18641	-6.86858	10.74451	19.49621	0.58188	1.71857	219.82866	179.92885	84.78594	0.29637	 	2.69287E30	 	6.31013E-31	 	5912.182	25.7678	 
70.0	1.0	0.0	7.6387	7.18524	-6.8838	10.72615	19.43946	0.5752	1.73853	220.11773	179.99324	84.91019	0.29618	 	8.35543E30	 	2.00448E-31	 	5783.908	25.6548	 
65.0	1.0	0.0	7.63995	7.18407	-6.89896	10.70779	19.38271	0.56848	1.75909	220.40489	180.05594	85.03375	0.29598	 	2.68081E31	 	6.15645E-32	 	5656.204	25.5408	 
60.0	1.0	0.0	7.64119	7.1829	-6.91408	10.68942	19.32595	0.56172	1.78026	220.69028	180.11708	85.15665	0.29579	 	8.90757E31	 	1.82544E-32	 	5529.074	25.426	 
55.0	1.0	0.0	7.64242	7.18174	-6.92914	10.67105	19.26917	0.55492	1.80208	220.97404	180.17678	85.27897	0.2956	 	3.0700499999999998E32	 	5.21692E-33	 	5402.525	25.3098	 
50.0	1.0	0.0	7.64366	7.18058	-6.94415	10.65268	19.21239	0.54808	1.82457	221.25635	180.23518	85.40076	0.2954	 	1.09941E33	 	1.4346E-33	 	5276.564	25.1922	 
45.0	1.0	0.0	7.64489	7.17943	-6.95911	10.6343	19.15559	0.5412	1.84776	221.53738	180.29243	85.5221	0.29521	 	4.09817E33	 	3.78904E-34	 	5151.2	25.0728	 
40.0	1.0	0.0	7.64611	7.17828	-6.97402	10.61593	19.09878	0.53427	1.8717	221.81732	180.34868	85.64305	0.29501	 	1.5931900000000002E34	 	9.5934E-35	 	5026.44	24.952	 
35.0	1.0	0.0	7.64733	7.17713	-6.98888	10.59754	19.04196	0.52731	1.89641	222.09636	180.40409	85.76369	0.29482	 	6.47261E34	 	2.32364E-35	 	4902.295	24.829	 
30.0	1.0	0.0	7.64855	7.17599	-7.00368	10.57916	18.98512	0.52031	1.92193	222.37474	180.45886	85.8841	0.29462	 	2.7540699999999996E35	 	5.37241E-36	 	4778.775	24.704	 
25.0	1.0	0.0	7.64976	7.17485	-7.01844	 	18.92827	0.51326	1.94831	222.65267	180.51317	86.00439	0.29443	 	1.2301699999999998E36	 	1.18293E-36	 	4655.893	 	 
