T (C)	Fraction solid (wt)-TOTAL	Fraction liquid (wt)-LIQUID	Density (g/(cm)^3)-TOTAL	Molar volume (cm^3)-TOTAL	Volume change (%)-  	Average expansion coeff. (10e-6 1/K)-  	Thermal conductivity (W/(m*K))-TOTAL	Electrical resistivity (10e-6 Ohm*m)-TOTAL	Electrical conductivity (10e6 1/(Ohm*m))-TOTAL	Young's modulus (GPa)-TOTAL	Bulk modulus (GPa)-TOTAL	Shear modulus(GPa)-TOTAL	Poisson's ratio-TOTAL	Liquid viscosity (mPa s)-  	Total viscosity (mPa s)-  	Liquid diffusivity (10e-9 (m^2)/s)-  	Total diffusivity (10e-9 (m^2)/s)-  	Surface Tension (mN/m)-  	Enthalpy (J/mole)-TOTAL	Specific heat (J/(mole K))-TOTAL	Latent heat (J/mole)-TOTAL
1500.0	0.75153	0.24847	7.173	7.7347	0.0	17.32434	34.89687	1.65568	0.60398	21.30126	84.92389	7.66674	0.3892	7.49675	660.11582	1.15441	0.0131103	1766.96773	61071.498	 	0.0
1495.0	0.80017	0.19983	7.18288	7.72425	-0.13506	17.05355	35.09799	1.64155	0.60918	27.64719	83.74971	10.0041	0.38179	7.52912	880.136	1.1462	0.00980519	1761.62949	60449.941	124.311	399.722
1490.0	0.83783	0.16217	7.19125	7.71551	-0.24803	16.835	35.24141	1.63025	0.6134	33.53185	82.91532	12.18454	0.376	7.56219	1100.54864	1.13796	0.00781928	1756.33123	59923.158	105.357	705.221
1485.0	0.86748	0.13252	7.19853	7.70797	-0.34558	16.65287	35.34193	1.621	0.6169	38.85959	82.33297	14.168	0.37139	7.59589	1317.79606	1.1297	0.0065117	1751.10452	59465.635	91.5046	942.003
1480.0	0.89115	0.10885	7.20499	7.70133	-0.43136	16.4985	35.41038	1.61327	0.61986	43.62361	81.94168	15.94831	0.36766	7.63049	1530.74621	1.12138	0.00558988	1745.96361	59059.415	81.244	1128.025
1475.0	0.91034	0.0896606	7.21086	7.69534	-0.50885	16.3636	35.4545	1.60666	0.62241	47.86868	81.69584	17.5396	0.36459	7.66561	1739.87056	1.11306	0.00490398	1740.92141	58691.913	73.5004	1275.865
1470.0	0.92608	0.0739212	7.21625	7.68988	-0.5794	16.24501	35.48007	1.60091	0.62464	51.64941	81.56401	18.96041	0.36203	7.70154	1946.11454	1.1047	0.00437173	1735.97558	58354.03	67.5766	1394.621
1465.0	0.93914	0.0608604	7.2213	7.68481	-0.645	16.1379	35.49111	1.59583	0.62663	55.02657	81.52162	20.23223	0.35987	7.73788	2150.7508	1.09636	0.00394443	1731.13025	58039.19	62.968	1490.867
1460.0	0.95009	0.0499103	7.22605	7.68006	-0.70645	16.04047	35.49076	1.59125	0.62844	58.05517	81.55106	21.37479	0.35803	7.77525	2355.10005	1.08795	0.00359181	1726.37906	57742.529	59.3322	1569.461
1455.0	0.95934	0.040655	7.23057	7.67556	-0.76453	15.95077	35.48129	1.58708	0.63009	60.78222	81.63915	22.40511	0.35644	7.8133	2560.37124	1.07953	0.00329432	1721.71784	57460.472	56.4114	1633.979
1450.0	0.96724	0.0327586	7.2349	7.67128	-0.81996	15.86713	35.46448	1.58324	0.63162	63.25331	81.77503	23.33991	0.35505	7.85231	2767.90224	1.07106	0.0030385	1717.14248	57190.156	54.0632	1687.285
1445.0	0.97403	0.0259708	7.23908	7.66716	-0.87322	15.78841	35.44174	1.57966	0.63305	65.50618	81.95057	24.19307	0.35382	7.89196	2978.91874	1.06258	0.00281507	1712.64672	56929.434	52.1444	1731.534
1440.0	0.9799	0.0200968	7.24313	7.66318	-0.92466	15.71372	35.41409	1.57629	0.6344	67.57104	82.15948	24.97576	0.35273	7.93219	3194.50003	1.05412	0.00261745	1708.22693	56676.649	50.557	1768.38
1435.0	0.98502	0.0149831	7.24707	7.65932	-0.97458	15.64239	35.38239	1.5731	0.63569	69.47467	82.39668	25.69791	0.35176	7.973	3415.73534	1.04566	0.00244078	1703.87808	56430.489	49.232	1799.132
1430.0	0.98949	0.0105063	7.25092	7.65556	-1.02311	15.5741	35.34729	1.57005	0.63692	71.23835	82.65824	26.36744	0.35088	8.01504	3643.61079	1.03713	0.00228143	1699.59103	56189.907	48.1164	1824.835
1425.0	0.99343	0.00656779	7.25468	7.6519	-1.07052	15.50819	35.30933	1.56713	0.63811	72.88155	82.94073	26.99161	0.35008	8.05766	3879.14356	1.02862	0.00213662	1695.36546	55954.062	47.169	1846.325
1420.0	0.99691	0.00308832	7.25837	7.64831	-1.11693	15.44437	35.26895	1.5643	0.63926	74.42008	83.24148	27.57634	0.34935	8.1008	4123.30771	1.02013	0.00200418	1691.19825	55722.269	46.3586	1864.285
1415.0	1.0	0.0	7.26199	7.64479	-1.16243	15.38244	35.2265	1.56156	0.64038	75.86708	83.55831	28.12654	0.34867	 	4377.05545	 	0.00188242	 	55493.968	45.6602	1879.271
1410.0	1.0	0.0	7.26406	7.64262	-1.19048	15.36528	35.16887	1.55949	0.64124	76.33674	83.96808	28.30472	0.34848	 	4590.4762	 	0.00178958	 	55232.085	52.3766	 
1405.0	1.0	0.0	7.26612	7.64045	-1.21849	15.34813	35.11124	1.55741	0.64209	76.80987	84.38061	28.48424	0.34829	 	4815.6691	 	0.00170083	 	55025.267	41.3636	 
1400.0	1.0	0.0	7.26817	7.63829	-1.24645	15.33096	35.05361	1.55532	0.64295	77.28644	84.79586	28.66509	0.34809	 	5053.35541	 	0.001616	 	54818.832	41.287	 
1395.0	1.0	0.0	7.27023	7.63613	-1.27436	15.3138	34.99597	1.55323	0.64382	77.76641	85.21378	28.84726	0.3479	 	5304.30488	 	0.00153495	 	54612.755	41.2154	 
1390.0	1.0	0.0	7.27228	7.63398	-1.30222	15.29663	34.93834	1.55113	0.64469	78.24974	85.63432	29.03072	0.34771	 	5569.33922	 	0.00145752	 	54407.027	41.1456	 
1385.0	1.0	0.0	7.27433	7.63182	-1.33004	15.27946	34.8807	1.54902	0.64557	78.73642	86.05745	29.21548	0.34751	 	5849.33599	 	0.00138358	 	54201.647	41.076	 
1380.0	1.0	0.0	7.27638	7.62968	-1.35782	15.26228	34.82306	1.5469	0.64645	79.22639	86.4831	29.40152	0.34732	 	6145.23262	 	0.00131299	 	53996.612	41.007	 
1375.0	1.0	0.0	7.27842	7.62753	-1.38554	15.2451	34.76543	1.54478	0.64734	79.71963	86.91123	29.58882	0.34712	 	6458.03095	 	0.00124561	 	53791.921	40.9382	 
1370.0	1.0	0.0	7.28047	7.62539	-1.41322	15.22792	34.70779	1.54265	0.64823	80.21611	87.3418	29.77737	0.34693	 	6788.80194	 	0.00118133	 	53587.573	40.8696	 
1365.0	1.0	0.0	7.28251	7.62325	-1.44085	15.21073	34.65015	1.54052	0.64913	80.71578	87.77475	29.96717	0.34674	 	7138.69093	 	0.00112001	 	53383.568	40.801	 
1360.0	1.0	0.0	7.28455	7.62112	-1.46844	15.19354	34.59251	1.53837	0.65004	81.21862	88.21006	30.15819	0.34654	 	7508.92316	 	0.00106154	 	53179.902	40.7332	 
1355.0	1.0	0.0	7.28658	7.61899	-1.49598	15.17635	34.53486	1.53622	0.65095	81.72459	88.64766	30.35044	0.34635	 	7900.8099	 	0.0010058	 	52976.576	40.6652	 
1350.0	1.0	0.0	7.28862	7.61686	-1.52347	15.15916	34.47722	1.53407	0.65186	82.23365	89.08751	30.54389	0.34616	 	8315.75494	 	9.52673E-4	 	52773.588	40.5976	 
1345.0	1.0	0.0	7.29065	7.61474	-1.55091	15.14196	34.41958	1.5319	0.65278	82.74578	89.52957	30.73853	0.34596	 	8755.2617	 	9.02062E-4	 	52570.936	40.5304	 
1340.0	1.0	0.0	7.29268	7.61262	-1.57831	15.12475	34.36193	1.52973	0.65371	83.26093	89.97379	30.93435	0.34577	 	9220.9409	 	8.53859E-4	 	52368.619	40.4634	 
1335.0	1.0	0.0	7.29471	7.61051	-1.60567	15.10755	34.30429	1.52755	0.65464	83.77908	90.42013	31.13134	0.34557	 	9714.51885	 	8.07964E-4	 	52166.636	40.3966	 
1330.0	1.0	0.0	7.29673	7.60839	-1.63297	15.09034	34.24664	1.52537	0.65558	84.30019	90.86854	31.32949	0.34538	 	10237.84646	 	7.6428E-4	 	51964.985	40.3302	 
1325.0	1.0	0.0	7.29875	7.60628	-1.66023	15.07313	34.18899	1.52317	0.65652	84.82423	91.31898	31.52879	0.34519	 	10792.90897	 	7.22713E-4	 	51763.665	40.264	 
1320.0	1.0	0.0	7.30077	7.60418	-1.68744	15.05591	34.13135	1.52097	0.65747	85.35116	91.77141	31.72922	0.34499	 	11381.83654	 	6.83174E-4	 	51562.675	40.198	 
1315.0	1.0	0.0	7.30279	7.60208	-1.71461	15.03869	34.0737	1.51876	0.65843	85.88095	92.22577	31.93076	0.3448	 	12006.91571	 	6.45575E-4	 	51362.012	40.1326	 
1310.0	1.0	0.0	7.30481	7.59998	-1.74173	15.02147	34.01605	1.51655	0.65939	86.41356	92.68203	32.13342	0.34461	 	12670.60183	 	6.09834E-4	 	51161.677	40.067	 
1305.0	1.0	0.0	7.30682	7.59789	-1.7688	15.00424	33.95839	1.51432	0.66036	86.94897	93.14014	32.33717	0.34441	 	13375.53258	 	5.75869E-4	 	50961.666	40.0022	 
1300.0	1.0	0.0	7.30883	7.5958	-1.79582	14.98701	33.90074	1.51209	0.66133	87.48713	93.60007	32.54201	0.34422	 	14124.54261	 	5.43604E-4	 	50761.979	39.9374	 
1295.0	1.0	0.0	7.31084	7.59371	-1.8228	14.96978	33.84309	1.50986	0.66232	88.02801	94.06176	32.74792	0.34402	 	14920.67951	 	5.12963E-4	 	50562.614	39.873	 
1290.0	1.0	0.0	7.31285	7.59163	-1.84973	14.95254	33.78544	1.50761	0.6633	88.57158	94.52517	32.95489	0.34383	 	15767.22114	 	4.83874E-4	 	50363.57	39.8088	 
1285.0	1.0	0.0	7.31485	7.58955	-1.87662	14.9353	33.72778	1.50536	0.66429	89.1178	94.99026	33.1629	0.34364	 	16667.69442	 	4.56268E-4	 	50164.845	39.745	 
1280.0	1.0	0.0	7.31685	7.58747	-1.90345	14.91806	33.67012	1.50309	0.66529	89.66665	95.457	33.37195	0.34344	 	17625.89587	 	4.3008E-4	 	49966.438	39.6814	 
1275.0	1.0	0.0	7.31885	7.5854	-1.93024	14.90082	33.61247	1.50083	0.6663	90.21808	95.92533	33.58203	0.34325	 	18645.91392	 	4.05244E-4	 	49768.347	39.6182	 
1270.0	1.0	0.0	7.32085	7.58333	-1.95699	14.88357	33.55481	1.49855	0.66731	90.77207	96.39521	33.79311	0.34306	 	19732.15319	 	3.81698E-4	 	49570.57	39.5554	 
1265.0	1.0	0.0	7.32284	7.58127	-1.98368	14.86631	33.49715	1.49627	0.66833	91.32858	96.86661	34.0052	0.34286	 	20889.36097	 	3.59385E-4	 	49373.106	39.4928	 
1260.0	1.0	0.0	7.32483	7.57921	-2.01033	14.84906	33.43949	1.49397	0.66936	91.88757	97.33948	34.21827	0.34267	 	22122.65606	 	3.38247E-4	 	49175.954	39.4304	 
1255.0	1.0	0.0	7.32682	7.57715	-2.03694	14.8318	33.38183	1.49167	0.67039	92.44901	97.81378	34.43231	0.34247	 	23437.56026	 	3.18229E-4	 	48979.111	39.3686	 
1250.0	1.0	0.0	7.32881	7.57509	-2.06349	14.81453	33.32417	1.48936	0.67143	93.01286	98.28947	34.64732	0.34228	 	24840.03267	 	2.9928E-4	 	48782.576	39.307	 
1245.0	1.0	0.0	7.33079	7.57304	-2.09	14.79727	33.26651	1.48705	0.67247	93.57911	98.7665	34.86328	0.34209	 	26336.50718	 	2.81348E-4	 	48586.348	39.2456	 
1240.0	1.0	0.0	7.33277	7.571	-2.11646	14.78	33.20884	1.48472	0.67353	94.1477	99.24485	35.08017	0.34189	 	27933.93338	 	2.64385E-4	 	48390.424	39.1848	 
1235.0	1.0	0.0	7.33475	7.56895	-2.14288	14.76272	33.15118	1.48239	0.67459	94.7186	99.72446	35.29799	0.3417	 	29639.82127	 	2.48345E-4	 	48194.804	39.124	 
1230.0	1.0	0.0	7.33673	7.56691	-2.16925	14.74545	33.09351	1.48005	0.67565	95.29179	100.20529	35.51673	0.34151	 	31462.29012	 	2.33184E-4	 	47999.485	39.0638	 
1225.0	1.0	0.0	7.3387	7.56488	-2.19557	14.72817	33.03585	1.4777	0.67673	95.86722	100.68731	35.73636	0.34131	 	33410.12195	 	2.18859E-4	 	47804.466	39.0038	 
1220.0	1.0	0.0	7.34068	7.56285	-2.22184	14.71089	32.97818	1.47535	0.67781	96.44487	101.17048	35.95689	0.34112	 	35492.81997	 	2.05329E-4	 	47609.744	38.9444	 
1215.0	1.0	0.0	7.34265	7.56082	-2.24807	14.6936	32.92051	1.47298	0.67889	97.0247	101.65476	36.17829	0.34092	 	37720.67266	 	1.92555E-4	 	47415.319	38.885	 
1210.0	1.0	0.0	7.34461	7.55879	-2.27425	14.67631	32.86284	1.47061	0.67999	97.60667	102.1401	36.40055	0.34073	 	40104.82386	 	1.80499E-4	 	47221.187	38.8264	 
1205.0	1.0	0.0	7.34658	7.55677	-2.30038	14.65902	32.80517	1.46823	0.68109	98.19076	102.62647	36.62367	0.34054	 	42657.34964	 	1.69126E-4	 	47027.348	38.7678	 
1200.0	1.0	0.0	7.34854	7.55475	-2.32647	14.64172	32.7475	1.46584	0.6822	98.77692	103.11383	36.84762	0.34034	 	45391.34259	 	1.58402E-4	 	46833.799	38.7098	 
1195.0	1.0	0.0	7.3505	7.55274	-2.35251	14.62442	32.68983	1.46344	0.68332	99.36513	103.60214	37.07241	0.34015	 	48321.00422	 	1.48293E-4	 	46640.539	38.652	 
1190.0	1.0	0.0	7.35246	7.55073	-2.3785	14.60712	32.63216	1.46104	0.68445	99.95535	104.09137	37.298	0.33996	 	51461.74649	 	1.38769E-4	 	46447.565	38.5948	 
1185.0	1.0	0.0	7.35441	7.54872	-2.40444	14.58981	32.57448	1.45862	0.68558	100.54754	104.58146	37.5244	0.33976	 	54830.3032	 	1.29798E-4	 	46254.875	38.538	 
1180.0	1.0	0.0	7.35636	7.54672	-2.43034	14.5725	32.51681	1.4562	0.68672	101.14168	105.07239	37.7516	0.33957	 	58444.85243	 	1.21353E-4	 	46062.468	38.4814	 
1175.0	1.0	0.0	7.35831	7.54472	-2.45619	14.55519	32.45913	1.45377	0.68787	101.73773	105.56411	37.97957	0.33937	 	62325.15122	 	1.13406E-4	 	45870.342	38.4252	 
1170.0	1.0	0.0	7.36026	7.54272	-2.48199	14.53787	32.40145	1.45133	0.68903	102.33565	106.0566	38.2083	0.33918	 	66492.68354	 	1.05931E-4	 	45678.493	38.3698	 
1165.0	1.0	0.0	7.3622	7.54073	-2.50775	14.52055	32.34378	1.44888	0.69019	102.93541	106.5498	38.43779	0.33899	 	70970.82336	 	9.89034E-5	 	45486.921	38.3144	 
1160.0	1.0	0.0	7.36415	7.53874	-2.53346	14.50323	32.2861	1.44642	0.69136	103.53698	107.04369	38.66802	0.33879	 	75785.01405	 	9.22986E-5	 	45295.622	38.2598	 
1155.0	1.0	0.0	7.36609	7.53676	-2.55912	14.4859	32.22842	1.44395	0.69254	104.14032	107.53822	38.89899	0.3386	 	80962.96615	 	8.60942E-5	 	45104.596	38.2052	 
1150.0	1.0	0.0	7.36802	7.53478	-2.58473	14.46857	32.17074	1.44148	0.69373	104.74541	108.03336	39.13066	0.33841	 	86534.87538	 	8.02687E-5	 	44913.839	38.1514	 
1145.0	1.0	0.0	7.36996	7.5328	-2.6103	14.45124	32.11305	1.43899	0.69493	105.3522	108.52907	39.36304	0.33821	 	92533.66311	 	7.48013E-5	 	44723.349	38.098	 
1140.0	1.0	0.0	7.37189	7.53083	-2.63582	14.4339	32.05537	1.4365	0.69614	105.96066	109.02532	39.59612	0.33802	 	98995.24179	 	6.96724E-5	 	44533.124	38.045	 
1135.0	1.0	0.0	7.37382	7.52886	-2.66129	14.41656	31.99769	1.434	0.69735	106.57076	109.52207	39.82987	0.33782	 	105958.8081	 	6.48632E-5	 	44343.162	37.9924	 
1130.0	1.0	0.0	7.37574	7.52689	-2.68672	14.39922	31.94	1.43149	0.69858	107.18246	110.01927	40.06429	0.33763	 	113467.167	 	6.0356E-5	 	44153.46	37.9404	 
1125.0	1.0	0.0	7.37767	7.52493	-2.7121	14.38187	31.88232	1.42897	0.69981	107.79574	110.51691	40.29937	0.33744	 	121567.0895	 	5.61338E-5	 	43964.016	37.8888	 
1120.0	1.0	0.0	7.37959	7.52297	-2.73743	14.36452	31.82463	1.42644	0.70105	108.41055	111.01493	40.53509	0.33724	 	130309.7097	 	5.21804E-5	 	43774.828	37.8376	 
1115.0	1.0	0.0	7.38151	7.52101	-2.76271	14.34716	31.76694	1.4239	0.7023	109.02687	111.5133	40.77144	0.33705	 	139750.9628	 	4.84806E-5	 	43585.892	37.7872	 
1110.0	1.0	0.0	7.38342	7.51906	-2.78795	14.32981	31.70925	1.42135	0.70356	109.64465	112.012	41.00841	0.33686	 	149952.0713	 	4.50198E-5	 	43397.207	37.737	 
1105.0	1.0	0.0	7.38534	7.51711	-2.81313	14.31245	31.65157	1.41879	0.70482	110.26388	112.51097	41.24598	0.33666	 	160980.0839	 	4.17841E-5	 	43208.769	37.6876	 
1100.0	1.0	0.0	7.38725	7.51517	-2.83828	14.29508	31.59387	1.41623	0.7061	110.8845	113.01019	41.48415	0.33647	 	172908.4727	 	3.87604E-5	 	43020.576	37.6386	 
1095.0	1.0	0.0	7.38916	7.51323	-2.86337	14.27772	31.53618	1.41365	0.70739	111.50649	113.50963	41.7229	0.33627	 	185817.7966	 	3.59363E-5	 	42832.626	37.59	 
1090.0	1.0	0.0	7.39106	7.51129	-2.88842	14.26035	31.47849	1.41107	0.70868	112.12982	114.00924	41.96222	0.33608	 	199796.4373	 	3.32999E-5	 	42644.915	37.5422	 
1085.0	1.0	0.0	7.39297	7.50935	-2.91341	14.24297	31.4208	1.40847	0.70999	112.75445	114.50899	42.20209	0.33589	 	214941.4183	 	3.084E-5	 	42457.441	37.4948	 
1080.0	1.0	0.0	7.39487	7.50742	-2.93837	14.2256	31.3631	1.40587	0.7113	113.38035	115.00885	42.44251	0.33569	 	231359.314	 	2.8546E-5	 	42270.201	37.448	 
1075.0	1.0	0.0	7.39676	7.5055	-2.96327	14.20822	31.30541	1.40325	0.71263	114.00748	115.50878	42.68346	0.3355	 	249167.2633	 	2.64079E-5	 	42083.191	37.402	 
1070.0	1.0	0.0	7.39866	7.50358	-2.98813	14.19083	31.24771	1.40063	0.71396	114.63581	116.00875	42.92493	0.33531	 	268494.0966	 	2.44161E-5	 	41896.409	37.3564	 
1065.0	1.0	0.0	7.40055	7.50166	-3.01294	14.17344	31.19001	1.398	0.71531	115.2653	116.50873	43.1669	0.33511	 	289481.5922	 	2.25616E-5	 	41709.853	37.3112	 
1060.0	1.0	0.0	7.40244	7.49974	-3.0377	14.15605	31.13232	1.39536	0.71666	115.89593	117.00867	43.40937	0.33492	 	312285.8773	 	2.0836E-5	 	41523.517	37.2672	 
1055.0	1.0	0.0	7.40433	7.49783	-3.06241	14.13866	31.07462	1.3927	0.71803	116.52766	117.50855	43.65233	0.33472	 	337078.991	 	1.9231E-5	 	41337.4	37.2234	 
1050.0	1.0	0.0	7.40621	7.49592	-3.08708	14.12126	31.01692	1.39004	0.7194	117.16046	118.00834	43.89575	0.33453	 	364050.6297	 	1.77392E-5	 	41151.498	37.1804	 
1045.0	1.0	0.0	7.4081	7.49402	-3.1117	14.10386	30.95921	1.38737	0.72079	117.79429	118.50799	44.13963	0.33434	 	393410.0966	 	1.63533E-5	 	40965.809	37.1378	 
1040.0	1.0	0.0	7.40998	7.49212	-3.13627	14.08646	30.90151	1.38469	0.72218	118.42911	119.00748	44.38395	0.33414	 	425388.4828	 	1.50666E-5	 	40780.327	37.0964	 
1035.0	1.0	0.0	7.41185	7.49022	-3.16079	14.06905	30.84381	1.382	0.72359	119.0649	119.50677	44.62871	0.33395	 	460241.1067	 	1.38726E-5	 	40595.05	37.0554	 
1030.0	1.0	0.0	7.41373	7.48833	-3.18527	14.05164	30.7861	1.3793	0.72501	119.70162	120.00583	44.87389	0.33376	 	498250.2459	 	1.27654E-5	 	40409.975	37.015	 
1025.0	1.0	0.0	7.4156	7.48644	-3.2097	14.03423	30.7284	1.37658	0.72644	120.33924	120.50463	45.11948	0.33356	 	539728.1991	 	1.17391E-5	 	40225.098	36.9754	 
1020.0	1.0	0.0	7.41747	7.48455	-3.23408	14.01681	30.67069	1.37386	0.72788	120.97773	121.00314	45.36546	0.33337	 	585020.7186	 	1.07886E-5	 	40040.414	36.9368	 
1015.0	1.0	0.0	7.41933	7.48267	-3.25841	13.99939	30.61299	1.37113	0.72933	121.61704	121.50131	45.61182	0.33317	 	634510.8638	 	9.90864E-6	 	39855.921	36.8986	 
1010.0	1.0	0.0	7.42119	7.48079	-3.2827	13.98196	30.55528	1.36839	0.73079	122.25716	121.99913	45.85856	0.33298	 	688623.3281	 	9.09457E-6	 	39671.614	36.8614	 
1005.0	1.0	0.0	7.42305	7.47892	-3.30694	13.96454	30.49757	1.36563	0.73226	122.89803	122.49655	46.10565	0.33279	 	747829.3032	 	8.34192E-6	 	39487.49	36.8248	 
1000.0	1.0	0.0	7.42491	7.47705	-3.33113	13.94711	30.43986	1.36287	0.73375	123.53964	122.99355	46.35309	0.33259	 	812651.9497	 	7.64648E-6	 	39303.544	36.7892	 
995.0	1.0	0.0	7.42677	7.47518	-3.35527	13.92967	30.38215	1.3601	0.73524	124.18194	123.4901	46.60086	0.3324	 	883672.5569	 	7.00432E-6	 	39119.771	36.7546	 
990.0	1.0	0.0	7.42862	7.47331	-3.37937	13.91223	30.32443	1.35731	0.73675	124.82491	123.98615	46.84896	0.33221	 	961537.4813	 	6.41173E-6	 	38936.169	36.7204	 
985.0	1.0	0.0	7.43047	7.47145	-3.40342	13.89479	30.26672	1.35452	0.73827	125.4685	124.48169	47.09736	0.33201	 	1046965.971	 	5.86525E-6	 	38752.732	36.6874	 
980.0	1.0	0.0	7.43231	7.4696	-3.42742	13.87735	30.20901	1.35171	0.7398	126.1127	124.97667	47.34606	0.33182	 	1140758.995	 	5.36162E-6	 	38569.455	36.6554	 
975.0	1.0	0.0	7.43416	7.46775	-3.45137	13.8599	30.15129	1.3489	0.74135	126.75745	125.47108	47.59504	0.33162	 	1243809.215	 	4.89778E-6	 	38386.335	36.624	 
970.0	1.0	0.0	7.436	7.4659	-3.47527	13.84245	30.09357	1.34607	0.7429	127.40274	125.96487	47.84429	0.33143	 	1357112.258	 	4.47089E-6	 	38203.366	36.5938	 
965.0	1.0	0.0	7.43784	7.46405	-3.49913	13.825	30.03586	1.34323	0.74447	128.04852	126.45801	48.09381	0.33124	 	1481779.462	 	4.07827E-6	 	38020.544	36.5644	 
960.0	1.0	0.0	7.43967	7.46221	-3.52294	13.80754	29.97814	1.34038	0.74606	128.69476	126.95049	48.34357	0.33104	 	1619052.32	 	3.71742E-6	 	37837.863	36.5362	 
955.0	1.0	0.0	7.44151	7.46037	-3.5467	13.79008	29.92042	1.33752	0.74765	129.34144	127.44225	48.59356	0.33085	 	1770318.838	 	3.386E-6	 	37655.319	36.5088	 
950.0	1.0	0.0	7.44334	7.45854	-3.57041	13.77261	29.8627	1.33465	0.74926	129.98851	127.93329	48.84377	0.33066	 	1937132.088	 	3.08182E-6	 	37472.905	36.4828	 
945.0	1.0	0.0	7.44516	7.45671	-3.59408	13.75515	29.80498	1.33177	0.75088	130.63594	128.42355	49.0942	0.33046	 	2121231.275	 	2.80285E-6	 	37290.617	36.4576	 
940.0	1.0	0.0	7.44699	7.45488	-3.6177	13.73767	29.74726	1.32888	0.75251	131.28371	128.91302	49.34482	0.33027	 	2324565.67	 	2.54718E-6	 	37108.449	36.4336	 
935.0	1.0	0.0	7.44881	7.45306	-3.64127	13.7202	29.68953	1.32597	0.75416	131.93177	129.40167	49.59563	0.33007	 	2549321.828	 	2.31304E-6	 	36926.395	36.4108	 
930.0	1.0	0.0	7.45063	7.45124	-3.66479	13.70272	29.63181	1.32306	0.75582	132.58009	129.88946	49.8466	0.32988	 	2797954.571	 	2.09877E-6	 	36744.449	36.3892	 
925.0	1.0	0.0	7.45244	7.44942	-3.68826	13.68524	29.57408	1.32013	0.7575	133.22864	130.37637	50.09774	0.32969	 	3073222.279	 	1.90285E-6	 	36562.605	36.3688	 
920.0	1.0	0.0	7.45426	7.44761	-3.71169	13.66776	29.51636	1.31719	0.75919	133.87739	130.86236	50.34902	0.32949	 	3378227.148	 	1.72382E-6	 	36380.857	36.3496	 
915.0	1.0	0.0	7.45607	7.4458	-3.73507	13.65027	29.45863	1.31425	0.76089	134.5263	131.3474	50.60044	0.3293	 	3716461.133	 	1.56037E-6	 	36199.198	36.3318	 
910.0	1.0	0.0	7.45788	7.444	-3.7584	13.63278	29.4009	1.31128	0.76261	135.17534	131.83148	50.85198	0.32911	 	4091858.44	 	1.41126E-6	 	36017.621	36.3154	 
905.0	1.0	0.0	7.45968	7.4422	-3.78168	13.61528	29.34318	1.30831	0.76434	135.82448	132.31455	51.10364	0.32891	 	4508855.562	 	1.27533E-6	 	35836.12	36.3002	 
900.0	1.0	0.0	7.46148	7.4404	-3.80492	13.59778	29.28545	1.30533	0.76609	136.47369	132.79659	51.35538	0.32872	 	4972460.002	 	1.15151E-6	 	35654.687	36.2866	 
895.0	1.0	0.0	7.46328	7.43861	-3.82811	13.58028	29.22772	1.30233	0.76785	137.12292	133.27758	51.60722	0.32852	 	5488329.024	 	1.03883E-6	 	35473.315	36.2744	 
890.0	1.0	0.0	7.46508	7.43682	-3.85124	13.56278	29.16999	1.29932	0.76963	137.77215	133.75747	51.85912	0.32833	 	6062859.98	 	9.36364E-7	 	35291.996	36.2638	 
885.0	1.0	0.0	7.46687	7.43503	-3.87434	13.54527	29.11225	1.2963	0.77142	138.42135	134.23625	52.11109	0.32814	 	6703294.024	 	8.43263E-7	 	35110.722	36.2548	 
880.0	1.0	0.0	7.46866	7.43325	-3.89738	13.52776	29.05452	1.29327	0.77323	139.07047	134.71388	52.3631	0.32794	 	7417835.321	 	7.58744E-7	 	34929.486	36.2472	 
875.0	1.0	0.0	7.47045	7.43147	-3.92037	13.51024	28.99679	1.29023	0.77506	139.7195	135.19034	52.61515	0.32775	 	8215788.2	 	6.82081E-7	 	34748.277	36.2418	 
870.0	1.0	0.0	7.47223	7.42969	-3.94332	13.49273	28.93906	1.28717	0.7769	140.36839	135.6656	52.86722	0.32756	 	9107715.12	 	6.12605E-7	 	34567.089	36.2376	 
865.0	1.0	0.0	7.47401	7.42792	-3.96622	13.47521	28.88132	1.2841	0.77875	141.01711	136.13963	53.11931	0.32736	 	1.010561882E7	 	5.49697E-7	 	34385.911	36.2356	 
860.0	1.0	0.0	7.47579	7.42616	-3.98907	13.45768	28.82359	1.28102	0.78063	141.66564	136.61241	53.37139	0.32717	 	1.122315252E7	 	4.92787E-7	 	34204.735	36.2352	 
855.0	1.0	0.0	7.47757	7.42439	-4.01187	13.44015	28.76585	1.27793	0.78252	142.31393	137.0839	53.62345	0.32697	 	1.247586287E7	 	4.4135E-7	 	34023.549	36.2372	 
850.0	1.0	0.0	7.47934	7.42263	-4.03463	13.42262	28.70812	1.27483	0.78442	142.96195	137.55408	53.87549	0.32678	 	1.388147095E7	 	3.94902E-7	 	33842.345	36.2408	 
845.0	1.0	0.0	7.48111	7.42088	-4.05734	13.40509	28.65038	1.27171	0.78634	143.60967	138.02292	54.12749	0.32659	 	1.546019765E7	 	3.52998E-7	 	33661.111	36.2468	 
840.0	1.0	0.0	7.48288	7.41912	-4.07999	13.38755	28.59265	1.26858	0.78828	144.25706	138.4904	54.37944	0.32639	 	1.723514097E7	 	3.15229E-7	 	33479.837	36.2548	 
835.0	1.0	0.0	7.48464	7.41737	-4.1026	13.37001	28.53491	1.26543	0.79024	144.90409	138.95648	54.63132	0.3262	 	1.923271391E7	 	2.81219E-7	 	33298.51	36.2654	 
830.0	1.0	0.0	7.4864	7.41563	-4.12517	13.35246	28.47718	1.26228	0.79222	145.55072	139.42114	54.88313	0.32601	 	2.148315331E7	 	2.50624E-7	 	33117.119	36.2782	 
825.0	1.0	0.0	7.48816	7.41389	-4.14768	13.33491	28.41944	1.25911	0.79421	146.19692	139.88436	55.13485	0.32581	 	2.402111187E7	 	2.23129E-7	 	32935.652	36.2934	 
820.0	1.0	0.0	7.48992	7.41215	-4.17015	13.31736	28.3617	1.25593	0.79622	146.84265	140.34611	55.38647	0.32562	 	2.688634772E7	 	1.98442E-7	 	32754.095	36.3114	 
815.0	1.0	0.0	7.49167	7.41042	-4.19257	13.29981	28.30397	1.25273	0.79825	147.48789	140.80636	55.63797	0.32542	 	3.012452852E7	 	1.76301E-7	 	32572.435	36.332	 
810.0	1.0	0.0	7.49342	7.40869	-4.21494	13.28225	28.24624	1.24953	0.8003	148.1326	141.26508	55.88935	0.32523	 	3.378817045E7	 	1.56463E-7	 	32390.657	36.3556	 
805.0	1.0	0.0	7.49517	7.40696	-4.23726	13.26469	28.1885	1.24631	0.80237	148.77675	141.72225	56.14059	0.32504	 	3.793773588E7	 	1.38706E-7	 	32208.747	36.382	 
800.0	1.0	0.0	7.49691	7.40524	-4.25953	13.24712	28.13077	1.24307	0.80446	149.4203	142.17785	56.39168	0.32484	 	4.26429182E7	 	1.22829E-7	 	32026.689	36.4116	 
795.0	1.0	0.0	7.49865	7.40352	-4.28176	13.22955	28.07304	1.23983	0.80657	150.06323	142.63184	56.64261	0.32465	 	4.798414771E7	 	1.08648E-7	 	31844.466	36.4446	 
790.0	1.0	0.0	7.50039	7.4018	-4.30393	13.21198	28.01531	1.23656	0.80869	150.70549	143.08421	56.89336	0.32446	 	5.405435873E7	 	9.59954E-8	 	31662.062	36.4808	 
785.0	1.0	0.0	7.50212	7.40009	-4.32606	13.19441	27.95758	1.23329	0.81084	151.34707	143.53492	57.14392	0.32426	 	6.09610661E7	 	8.47191E-8	 	31479.458	36.5208	 
780.0	1.0	0.0	7.50386	7.39838	-4.34814	13.17683	27.89985	1.23	0.81301	151.98792	143.98395	57.39428	0.32407	 	6.882880836E7	 	7.46804E-8	 	31296.635	36.5646	 
775.0	1.0	0.0	7.50559	7.39668	-4.37017	13.15925	27.84212	1.2267	0.81519	152.62801	144.43128	57.64443	0.32387	 	7.780202617E7	 	6.57536E-8	 	31113.573	36.6124	 
770.0	1.0	0.0	7.50731	7.39498	-4.39216	13.14166	27.7844	1.22339	0.8174	153.26732	144.87688	57.89436	0.32368	 	8.804845825E7	 	5.78245E-8	 	30930.251	36.6644	 
765.0	1.0	0.0	7.50903	7.39328	-4.41409	13.12407	27.72667	1.22006	0.81963	153.9058	145.32072	58.14405	0.32349	 	9.976315326E7	 	5.07898E-8	 	30746.646	36.721	 
760.0	1.0	0.0	7.51075	7.39159	-4.43598	13.10648	27.66895	1.21671	0.82189	154.54343	145.76279	58.39348	0.32329	 	1.13173216E8	 	4.4556E-8	 	30562.736	36.782	 
755.0	1.0	0.0	7.51247	7.3899	-4.45782	13.08888	27.61123	1.21336	0.82416	155.18017	146.20305	58.64266	0.3231	 	1.285434303E8	 	3.90385E-8	 	30378.494	36.8484	 
750.0	1.0	0.0	7.51418	7.38821	-4.47961	13.07129	27.55351	1.20999	0.82646	155.81599	146.64148	58.89156	0.32291	 	1.461829298E8	 	3.41609E-8	 	30193.895	36.9198	 
745.0	1.0	0.0	7.5159	7.38653	-4.50135	13.05368	27.4958	1.2066	0.82878	156.45087	147.07807	59.14018	0.32271	 	1.664531241E8	 	2.98543E-8	 	30008.91	36.997	 
740.0	1.0	0.0	7.5176	7.38485	-4.52305	13.03608	27.43808	1.2032	0.83112	157.08476	147.51277	59.38849	0.32252	 	1.897771292E8	 	2.60565E-8	 	29823.509	37.0802	 
735.0	1.0	0.0	7.51931	7.38318	-4.54469	13.01847	27.38037	1.19979	0.83348	157.71763	147.94558	59.6365	0.32232	 	2.16651006E8	 	2.27118E-8	 	29637.66	37.1698	 
730.0	1.0	0.0	7.52101	7.38151	-4.56629	13.00086	27.32266	1.19636	0.83587	158.34946	148.37646	59.88418	0.32213	 	2.47657172E8	 	1.97698E-8	 	29451.33	37.266	 
725.0	1.0	0.0	7.52271	7.37984	-4.58784	12.98324	27.26495	1.19291	0.83828	158.9802	148.80539	60.13153	0.32194	 	2.83480433E8	 	1.71854E-8	 	29264.48	37.37	 
720.0	1.0	0.0	7.5244	7.37818	-4.60934	12.96562	27.20724	1.18945	0.84072	159.60984	149.23235	60.37852	0.32174	 	3.249271746E8	 	1.49182E-8	 	29077.073	37.4814	 
715.0	1.0	0.0	7.5261	7.37652	-4.63079	12.948	27.14954	1.18598	0.84318	160.23833	149.65732	60.62516	0.32155	 	3.729483732E8	 	1.29319E-8	 	28889.067	37.6012	 
710.0	1.0	0.0	7.52779	7.37487	-4.65219	12.93038	27.09184	1.18249	0.84567	160.86565	150.08027	60.87143	0.32136	 	4.286672321E8	 	1.1194E-8	 	28700.415	37.7304	 
705.0	1.0	0.0	7.52947	7.37321	-4.67355	12.91275	27.03413	1.17899	0.84818	161.49176	150.50117	61.11731	0.32116	 	4.934124234E8	 	9.67569E-9	 	28511.07	37.869	 
700.0	1.0	0.0	7.53115	7.37157	-4.69485	12.89511	26.97643	1.17547	0.85072	162.11663	150.92001	61.36279	0.32097	 	5.687581419E8	 	8.35101E-9	 	28320.98	38.018	 
695.0	1.0	0.0	7.53284	7.36992	-4.71611	12.87748	26.91873	1.17194	0.85329	162.74023	151.33677	61.60787	0.32077	 	6.565724452E8	 	7.19692E-9	 	28130.087	38.1786	 
690.0	1.0	0.0	7.53451	7.36828	-4.73732	12.85984	26.86104	1.16839	0.85588	163.36252	151.75141	61.85252	0.32058	 	7.590756941E8	 	6.19292E-9	 	27938.33	38.3514	 
685.0	1.0	0.0	7.53619	7.36664	-4.75848	12.8422	26.80334	1.16483	0.85849	163.98349	152.16392	62.09674	0.32039	 	8.789113256E8	 	5.32078E-9	 	27745.643	38.5374	 
680.0	1.0	0.0	7.53786	7.36501	-4.77959	12.82455	26.74564	1.16125	0.86114	164.60308	152.57428	62.34051	0.32019	 	1.01923171E9	 	4.56431E-9	 	27551.952	38.7382	 
675.0	1.0	0.0	7.53952	7.36338	-4.80066	12.8069	26.68794	1.15766	0.86381	165.22128	152.98246	62.58383	0.32	 	1.18380249E9	 	3.90917E-9	 	27357.179	38.9546	 
670.0	1.0	0.0	7.54119	7.36176	-4.82167	12.78925	26.63024	1.15405	0.86652	165.83805	153.38844	62.82668	0.31981	 	1.377129617E9	 	3.34266E-9	 	27161.238	39.1882	 
665.0	1.0	0.0	7.54285	7.36013	-4.84264	12.7716	26.57254	1.15042	0.86925	166.45336	153.79219	63.06904	0.31961	 	1.604614289E9	 	2.85357E-9	 	26964.032	39.4412	 
660.0	1.0	0.0	7.54451	7.35852	-4.86356	12.75394	26.51484	1.14678	0.87201	167.06718	154.19371	63.31091	0.31942	 	1.87274228E9	 	2.43198E-9	 	26765.46	39.7144	 
655.0	1.0	0.0	7.54617	7.3569	-4.88443	12.73627	26.45714	1.14312	0.8748	167.67947	154.59296	63.55228	0.31922	 	2.189315736E9	 	2.06917E-9	 	26565.405	40.011	 
650.0	1.0	0.0	7.54782	7.35529	-4.90525	12.71861	26.39943	1.13945	0.87762	168.29022	154.98992	63.79312	0.31903	 	2.563737482E9	 	1.75746E-9	 	26363.743	40.3324	 
645.0	1.0	0.0	7.54947	7.35369	-4.92602	12.70094	26.34172	1.13576	0.88047	168.89937	155.38458	64.03344	0.31884	 	3.007360436E9	 	1.4901E-9	 	26160.333	40.682	 
640.0	1.0	0.0	7.55111	7.35208	-4.94674	12.68327	26.28401	1.13206	0.88335	169.50691	155.77691	64.27321	0.31864	 	3.53391788E9	 	1.26117E-9	 	25955.022	41.0622	 
635.0	1.0	0.0	7.55276	7.35048	-4.96742	12.66559	26.22629	1.12834	0.88626	170.1128	156.16688	64.51243	0.31845	 	4.160054343E9	 	1.06548E-9	 	25747.637	41.477	 
630.0	1.0	0.0	7.55439	7.34889	-4.98804	12.64791	26.16857	1.1246	0.88921	170.71701	156.55449	64.75108	0.31826	 	4.905981978E9	 	8.98505E-10	 	25537.989	41.9296	 
625.0	1.0	0.0	7.55603	7.3473	-5.00862	12.63023	26.11085	1.12085	0.89218	171.31952	156.9397	64.98916	0.31806	 	5.796293755E9	 	7.56284E-10	 	25325.864	42.425	 
620.0	1.0	0.0	7.55766	7.34571	-5.02915	12.61254	26.05312	1.11708	0.89519	171.92028	157.32251	65.22664	0.31787	 	6.860973058E9	 	6.35368E-10	 	25111.025	42.9678	 
615.0	1.0	0.0	7.55929	7.34412	-5.04963	12.59485	25.99538	1.11329	0.89824	172.51927	157.70288	65.46352	0.31767	 	8.136649781E9	 	5.32755E-10	 	24893.205	43.564	 
610.0	1.0	0.0	7.56092	7.34254	-5.07006	12.57716	25.93764	1.10949	0.90132	173.11646	158.08079	65.69979	0.31748	 	9.668166501E9	 	4.45838E-10	 	24655.58	47.525	 
605.0	1.0	0.0	7.56255	7.34097	-5.09044	12.55947	25.87989	1.10567	0.90443	173.71182	158.45624	65.93543	0.31729	 	1.15105E10	 	3.72357E-10	 	24410.07	49.102	 
600.0	1.0	0.0	7.56417	7.3394	-5.11077	12.54177	25.82213	1.10183	0.90758	174.30531	158.82919	66.17044	0.31709	 	1.3731399999999998E10	 	3.10357E-10	 	24167.751	48.4638	 
595.0	1.0	0.0	7.56578	7.33783	-5.13106	12.52406	25.76437	1.09798	0.91077	174.89692	159.19963	66.40479	0.3169	 	1.6414099999999998E10	 	2.58146E-10	 	23928.496	47.851	 
590.0	1.0	0.0	7.5674	7.33626	-5.1513	12.50636	25.7066	1.09411	0.91399	175.48659	159.56754	66.63849	0.31671	 	1.96614E10	 	2.14268E-10	 	23692.187	47.2618	 
585.0	1.0	0.0	7.56901	7.3347	-5.17148	12.48865	25.64882	1.09022	0.91725	176.07432	159.9329	66.87151	0.31651	 	2.3600899999999996E10	 	1.77469E-10	 	23458.708	46.6958	 
580.0	1.0	0.0	7.57062	7.33314	-5.19162	12.47094	25.59103	1.08631	0.92054	176.66006	160.29568	67.10384	0.31632	 	2.8390399999999996E10	 	1.4667E-10	 	23227.954	46.1508	 
575.0	1.0	0.0	7.57222	7.33159	-5.21171	12.45322	25.53324	1.08239	0.92388	177.24379	160.65588	67.33548	0.31612	 	3.4226299999999996E10	 	1.20948E-10	 	22999.823	45.6262	 
570.0	1.0	0.0	7.57382	7.33004	-5.23175	12.4355	25.47544	1.07845	0.92725	177.82548	161.01347	67.56641	0.31593	 	4.13534E10	 	9.9513E-11	 	22774.219	45.1208	 
565.0	1.0	0.0	7.57542	7.32849	-5.25174	12.41778	25.41762	1.0745	0.93067	178.40509	161.36843	67.79662	0.31574	 	5.007759999999999E10	 	8.16893E-11	 	22551.051	44.6336	 
560.0	1.0	0.0	7.57701	7.32695	-5.27169	12.40005	25.35981	1.07052	0.93412	178.9826	161.72074	68.0261	0.31554	 	6.078169999999999E10	 	6.69017E-11	 	22330.233	44.1636	 
555.0	1.0	0.0	7.57861	7.32541	-5.29158	12.38232	25.30198	1.06653	0.93762	179.55797	162.07039	68.25484	0.31535	 	7.39466E10	 	5.4661E-11	 	22111.683	43.71	 
550.0	1.0	0.0	7.58019	7.32388	-5.31142	12.36459	25.24414	1.06252	0.94116	180.13119	162.41736	68.48282	0.31516	 	9.01775E10	 	4.4552E-11	 	21895.325	43.2716	 
545.0	1.0	0.0	7.58178	7.32234	-5.33122	12.34685	25.1863	1.05849	0.94474	180.70221	162.76163	68.71003	0.31496	 	1.10238E11	 	3.62233E-11	 	21681.084	42.8482	 
540.0	1.0	0.0	7.58336	7.32082	-5.35097	12.32911	25.12845	1.05444	0.94837	181.27101	163.10318	68.93647	0.31477	 	1.35094E11	 	2.93778E-11	 	21468.892	42.4384	 
535.0	1.0	0.0	7.58494	7.31929	-5.37067	12.31137	25.07059	1.05038	0.95204	181.83756	163.44199	69.16212	0.31457	 	1.65973E11	 	2.37652E-11	 	21258.682	42.042	 
530.0	1.0	0.0	7.58652	7.31777	-5.39032	12.29362	25.01273	1.04629	0.95576	182.40184	163.77805	69.38697	0.31438	 	2.04432E11	 	1.9175E-11	 	21050.392	41.658	 
525.0	1.0	0.0	7.58809	7.31626	-5.40992	12.27587	24.95486	1.04219	0.95952	182.96381	164.11134	69.61101	0.31419	 	2.52461E11	 	1.54304E-11	 	20843.962	41.286	 
520.0	1.0	0.0	7.58966	7.31475	-5.42947	12.25812	24.89698	1.03807	0.96333	183.52344	164.44185	69.83422	0.31399	 	3.12605E11	 	1.23836E-11	 	20639.336	40.9252	 
515.0	1.0	0.0	7.59122	7.31324	-5.44897	12.24036	24.8391	1.03393	0.96718	184.08071	164.76955	70.0566	0.3138	 	3.88127E11	 	9.91109E-12	 	20436.459	40.5754	 
510.0	1.0	0.0	7.59278	7.31173	-5.46842	12.2226	24.78121	1.02977	0.97109	184.63558	165.09442	70.27814	0.31361	 	4.83229E11	 	7.91004E-12	 	20235.282	40.2354	 
505.0	1.0	0.0	7.59434	7.31023	-5.48783	12.20484	24.72331	1.02559	0.97505	185.18803	165.41647	70.49882	0.31341	 	6.0333E11	 	6.29499E-12	 	20035.756	39.9052	 
500.0	1.0	0.0	7.5959	7.30873	-5.50718	12.18707	24.66542	1.02139	0.97905	185.73804	165.73565	70.71863	0.31322	 	7.55446E11	 	4.99513E-12	 	19837.834	39.5844	 
495.0	1.0	0.0	7.59745	7.30724	-5.52649	12.16931	24.60751	1.01718	0.98311	186.28556	166.05197	70.93756	0.31302	 	9.48688E11	 	3.95193E-12	 	19641.472	39.2724	 
490.0	1.0	0.0	7.599	7.30575	-5.54575	12.15153	24.54961	1.01294	0.98723	186.83058	166.3654	71.15561	0.31283	 	1.19492E12	 	3.11714E-12	 	19446.629	38.9686	 
485.0	1.0	0.0	7.60055	7.30427	-5.56495	12.13376	24.4917	1.00868	0.99139	187.37307	166.67594	71.37275	0.31264	 	1.50966E12	 	2.45112E-12	 	19253.265	38.6728	 
480.0	1.0	0.0	7.60209	7.30278	-5.58411	12.11598	24.43379	1.0044	0.99562	187.913	166.98355	71.58898	0.31244	 	1.91322E12	 	1.92134E-12	 	19061.34	38.385	 
475.0	1.0	0.0	7.60363	7.30131	-5.60322	12.09819	24.37587	1.00011	0.99989	188.45035	167.28824	71.80429	0.31225	 	2.43235E12	 	1.50124E-12	 	18870.82	38.104	 
470.0	1.0	0.0	7.60516	7.29983	-5.62228	12.08041	24.31796	0.99579	1.00423	188.98508	167.58997	72.01867	0.31206	 	3.10234E12	 	1.16916E-12	 	18681.669	37.8302	 
465.0	1.0	0.0	7.60669	7.29836	-5.64129	12.06262	24.26004	0.99145	1.00862	189.51717	167.88875	72.23211	0.31186	 	3.96996E12	 	9.07498E-13	 	18493.855	37.5628	 
460.0	1.0	0.0	7.60822	7.29689	-5.66026	12.04482	24.20212	0.98709	1.01308	190.04659	168.18455	72.44459	0.31167	 	5.09733E12	 	7.02E-13	 	18307.345	37.302	 
455.0	1.0	0.0	7.60975	7.29543	-5.67917	12.02703	24.14421	0.98271	1.01759	190.57332	168.47737	72.65611	0.31147	 	6.56735E12	 	5.4115E-13	 	18122.109	37.0472	 
450.0	1.0	0.0	7.61127	7.29397	-5.69803	12.00923	24.08629	0.97831	1.02217	191.09732	168.76718	72.86665	0.31128	 	8.49101E12	 	4.15677E-13	 	17938.118	36.7982	 
445.0	1.0	0.0	7.61279	7.29252	-5.71685	11.99142	24.02837	0.97389	1.02681	191.61859	169.05397	73.07621	0.31109	 	1.10175E13	 	3.18141E-13	 	17755.345	36.5546	 
440.0	1.0	0.0	7.61431	7.29107	-5.73561	11.97362	23.97045	0.96944	1.03152	192.13708	169.33773	73.28477	0.31089	 	1.4348E13	 	2.42592E-13	 	17573.763	36.3164	 
435.0	1.0	0.0	7.61582	7.28962	-5.75433	11.95581	23.91253	0.96498	1.03629	192.65277	169.61845	73.49233	0.3107	 	1.87551E13	 	1.84286E-13	 	17393.346	36.0834	 
430.0	1.0	0.0	7.61733	7.28817	-5.773	11.93799	23.85462	0.96049	1.04113	193.16564	169.89612	73.69887	0.31051	 	2.46095E13	 	1.39454E-13	 	17214.07	35.8552	 
425.0	1.0	0.0	7.61883	7.28673	-5.79161	11.92018	23.7967	0.95598	1.04604	193.67567	170.17071	73.90439	0.31031	 	3.24173E13	 	1.05114E-13	 	17035.911	35.6318	 
420.0	1.0	0.0	7.62033	7.2853	-5.81018	11.90236	23.73879	0.95145	1.05103	194.18282	170.44223	74.10887	0.31012	 	4.28723E13	 	7.8911E-14	 	16858.847	35.4128	 
415.0	1.0	0.0	7.62183	7.28387	-5.8287	11.88453	23.68087	0.9469	1.05608	194.68708	170.71065	74.31231	0.30992	 	5.69299E13	 	5.89969E-14	 	16682.856	35.1982	 
410.0	1.0	0.0	7.62333	7.28244	-5.84717	11.8667	23.62296	0.94232	1.06121	195.18842	170.97596	74.51469	0.30973	 	7.59114E13	 	4.39234E-14	 	16507.918	34.9876	 
405.0	1.0	0.0	7.62482	7.28101	-5.86559	11.84887	23.56505	0.93772	1.06641	195.68681	171.23816	74.71601	0.30954	 	1.01652E14	 	3.25608E-14	 	16334.011	34.7814	 
400.0	1.0	0.0	7.62631	7.27959	-5.88396	11.83104	23.50714	0.9331	1.07169	196.18224	171.49724	74.91625	0.30934	 	1.3671299999999998E14	 	2.40319E-14	 	16161.118	34.5786	 
395.0	1.0	0.0	7.62779	7.27817	-5.90229	11.8132	23.44923	0.92846	1.07705	196.67467	171.75317	75.11541	0.30915	 	1.84684E14	 	1.76576E-14	 	15989.219	34.3798	 
390.0	1.0	0.0	7.62927	7.27676	-5.92056	11.79536	23.39132	0.92379	1.08249	197.1641	172.00596	75.31348	0.30896	 	2.50622E14	 	1.29146E-14	 	15818.296	34.1846	 
385.0	1.0	0.0	7.63075	7.27535	-5.93878	11.77752	23.33342	0.9191	1.08802	197.65048	172.25559	75.51045	0.30876	 	3.41682E14	 	9.40132E-15	 	15648.332	33.9928	 
380.0	1.0	0.0	7.63223	7.27395	-5.95696	11.75967	23.27551	0.91439	1.09363	198.13381	172.50206	75.70631	0.30857	 	4.68045E14	 	6.81102E-15	 	15479.31	33.8044	 
375.0	1.0	0.0	7.6337	7.27254	-5.97508	11.74182	23.21761	0.90965	1.09932	198.61406	172.74534	75.90105	0.30837	 	6.44259E14	 	4.91023E-15	 	15311.214	33.6192	 
370.0	1.0	0.0	7.63517	7.27115	-5.99316	11.72397	23.15971	0.90489	1.1051	199.09121	172.98544	76.09466	0.30818	 	8.91233E14	 	3.52215E-15	 	15144.029	33.437	 
365.0	1.0	0.0	7.63663	7.26975	-6.01118	11.70611	23.1018	0.90011	1.11098	199.56524	173.22235	76.28714	0.30799	 	1.23917E15	 	2.5135E-15	 	14977.74	33.2578	 
360.0	1.0	0.0	7.63809	7.26836	-6.02916	11.68825	23.0439	0.8953	1.11694	200.03612	173.45606	76.47847	0.30779	 	1.73193E15	 	1.78428E-15	 	14812.331	33.0818	 
355.0	1.0	0.0	7.63955	7.26697	-6.04708	11.67039	22.986	0.89047	1.12301	200.50385	173.68655	76.66865	0.3076	 	2.43358E15	 	1.25981E-15	 	14647.79	32.9082	 
350.0	1.0	0.0	7.641	7.26559	-6.06496	11.65252	22.9281	0.88561	1.12917	200.96839	173.91383	76.85767	0.30741	 	3.4382E15	 	8.84604E-16	 	14484.101	32.7378	 
345.0	1.0	0.0	7.64245	7.26421	-6.08279	11.63465	22.8702	0.88073	1.13542	201.42973	174.13788	77.04552	0.30721	 	4.88477E15	 	6.17642E-16	 	14321.253	32.5696	 
340.0	1.0	0.0	7.6439	7.26284	-6.10057	11.61678	22.8123	0.87582	1.14179	201.88785	174.3587	77.2322	0.30702	 	6.97982E15	 	4.28755E-16	 	14159.232	32.4042	 
335.0	1.0	0.0	7.64534	7.26147	-6.1183	11.5989	22.7544	0.87089	1.14825	202.34273	174.57629	77.41769	0.30682	 	1.00321E16	 	2.95872E-16	 	13998.025	32.2414	 
330.0	1.0	0.0	7.64678	7.2601	-6.13597	11.58102	22.6965	0.86593	1.15482	202.79436	174.79063	77.60199	0.30663	 	1.45062E16	 	2.02935E-16	 	13837.621	32.0808	 
325.0	1.0	0.0	7.64822	7.25874	-6.1536	11.56313	22.6386	0.86095	1.16151	203.24272	175.00173	77.78509	0.30644	 	2.11054E16	 	1.38326E-16	 	13678.009	31.9224	 
320.0	1.0	0.0	7.64965	7.25738	-6.17118	11.54525	22.5807	0.85594	1.1683	203.68778	175.20958	77.96699	0.30624	 	3.09014E16	 	9.36856E-17	 	13519.176	31.7666	 
315.0	1.0	0.0	7.65108	7.25602	-6.18871	11.52736	22.5228	0.85091	1.17521	204.12955	175.41417	78.14768	0.30605	 	4.55384E16	 	6.30372E-17	 	13361.112	31.6128	 
310.0	1.0	0.0	7.65251	7.25467	-6.2062	11.50946	22.4649	0.84585	1.18224	204.56799	175.61551	78.32715	0.30586	 	6.7556300000000008E16	 	4.2131E-17	 	13203.806	31.4612	 
305.0	1.0	0.0	7.65393	7.25332	-6.22363	11.49157	22.407	0.84076	1.18939	205.0031	175.81358	78.5054	0.30566	 	1.00906E17	 	2.79648E-17	 	13047.248	31.3116	 
300.0	1.0	0.0	7.65535	7.25198	-6.24101	11.47366	22.34909	0.83565	1.19667	205.43486	176.00839	78.68242	0.30547	 	1.51777E17	 	1.8431E-17	 	12891.428	31.164	 
295.0	1.0	0.0	7.65676	7.25063	-6.25834	11.45576	22.29119	0.83052	1.20407	205.86326	176.19994	78.8582	0.30527	 	2.29941E17	 	1.20596E-17	 	12736.335	31.0186	 
290.0	1.0	0.0	7.65818	7.2493	-6.27562	11.43785	22.23328	0.82535	1.21161	206.28829	176.38822	79.03274	0.30508	 	3.50939E17	 	7.83212E-18	 	12581.962	30.8746	 
285.0	1.0	0.0	7.65958	7.24797	-6.29286	11.41994	22.17537	0.82016	1.21928	206.70994	176.57324	79.20604	0.30489	 	5.39679E17	 	5.0478E-18	 	12428.297	30.733	 
280.0	1.0	0.0	7.66099	7.24664	-6.31004	11.40203	22.11746	0.81494	1.22709	207.12819	176.75499	79.37809	0.30469	 	8.36408E17	 	3.22783E-18	 	12275.333	30.5928	 
275.0	1.0	0.0	7.66239	7.24531	-6.32717	11.38411	22.05955	0.80969	1.23504	207.54303	176.93348	79.54888	0.3045	 	1.30669E18	 	2.04745E-18	 	12123.061	30.4544	 
270.0	1.0	0.0	7.66379	7.24399	-6.34426	11.36619	22.00164	0.80442	1.24313	207.95446	177.10871	79.71842	0.30431	 	2.05823E18	 	1.28799E-18	 	11971.472	30.3178	 
265.0	1.0	0.0	7.66518	7.24267	-6.36129	11.34827	21.94372	0.79912	1.25138	208.36247	177.28068	79.88669	0.30411	 	3.26951E18	 	8.03355E-19	 	11820.558	30.1828	 
260.0	1.0	0.0	7.66657	7.24136	-6.37827	11.33034	21.88581	0.79379	1.25978	208.76704	177.4494	80.0537	0.30392	 	5.23891E18	 	4.96701E-19	 	11670.311	30.0494	 
255.0	1.0	0.0	7.66796	7.24005	-6.39521	11.31241	21.82789	0.78843	1.26834	209.16819	177.61486	80.21945	0.30372	 	8.46985E18	 	3.04346E-19	 	11520.724	29.9174	 
250.0	1.0	0.0	7.66934	7.23874	-6.41209	11.29447	21.76997	0.78304	1.27707	209.56589	177.77708	80.38392	0.30353	 	1.38197E19	 	1.84763E-19	 	11371.789	29.787	 
245.0	1.0	0.0	7.67072	7.23744	-6.42893	11.27654	21.71204	0.77763	1.28596	209.96015	177.93607	80.54712	0.30334	 	2.27628E19	 	1.11101E-19	 	11223.499	29.658	 
240.0	1.0	0.0	7.6721	7.23614	-6.44571	11.25859	21.65412	0.77219	1.29503	210.35096	178.09182	80.70904	0.30314	 	3.78596E19	 	6.61539E-20	 	11075.847	29.5304	 
235.0	1.0	0.0	7.67347	7.23485	-6.46245	11.24065	21.59619	0.76671	1.30427	210.73833	178.24435	80.86969	0.30295	 	6.36024E19	 	3.89946E-20	 	10928.826	29.4042	 
230.0	1.0	0.0	7.67484	7.23356	-6.47913	11.2227	21.53826	0.76121	1.3137	211.12225	178.39367	81.02907	0.30276	 	1.0795699999999998E20	 	2.27475E-20	 	10782.429	29.2794	 
225.0	1.0	0.0	7.67621	7.23227	-6.49577	11.20475	21.48032	0.75568	1.32331	211.50272	178.53978	81.18717	0.30256	 	1.85199E20	 	1.31283E-20	 	10636.651	29.1556	 
220.0	1.0	0.0	7.67757	7.23099	-6.51236	11.1868	21.42239	0.75012	1.33313	211.87975	178.68271	81.34399	0.30237	 	3.2120299999999997E20	 	7.49353E-21	 	10491.485	29.0332	 
215.0	1.0	0.0	7.67893	7.22971	-6.52889	11.16884	21.36445	0.74453	1.34314	212.25334	178.82246	81.49955	0.30217	 	5.6340399999999993E20	 	4.22883E-21	 	10346.925	28.912	 
210.0	1.0	0.0	7.68028	7.22843	-6.54538	11.15088	21.3065	0.7389	1.35336	212.6235	178.95904	81.65383	0.30198	 	9.997949999999999E20	 	2.35862E-21	 	10202.966	28.7918	 
205.0	1.0	0.0	7.68163	7.22716	-6.56181	11.13291	21.24856	0.73325	1.36379	212.99023	179.09248	81.80684	0.30179	 	1.79561E21	 	1.29969E-21	 	10059.603	28.6726	 
200.0	1.0	0.0	7.68298	7.22589	-6.5782	11.11495	21.19061	0.72757	1.37444	213.35355	179.22279	81.95858	0.30159	 	3.26503E21	 	7.07291E-22	 	9916.829	28.5548	 
195.0	1.0	0.0	7.68432	7.22463	-6.59454	11.09697	21.13266	0.72185	1.38532	213.71346	179.34999	82.10906	0.3014	 	6.01326E21	 	3.79981E-22	 	9774.641	28.4376	 
190.0	1.0	0.0	7.68566	7.22337	-6.61082	11.079	21.0747	0.71611	1.39644	214.06998	179.4741	82.25828	0.30121	 	1.1221699999999998E22	 	2.01442E-22	 	9633.033	28.3216	 
185.0	1.0	0.0	7.687	7.22212	-6.62706	11.06102	21.01674	0.71033	1.4078	214.42313	179.59513	82.40625	0.30101	 	2.1228599999999997E22	 	1.05335E-22	 	9492.002	28.2062	 
180.0	1.0	0.0	7.68833	7.22086	-6.64325	11.04304	20.95878	0.70452	1.4194	214.77291	179.71312	82.55297	0.30082	 	4.072809999999999E22	 	5.43044E-23	 	9351.542	28.092	 
175.0	1.0	0.0	7.68966	7.21962	-6.65939	11.02506	20.90082	0.69868	1.43127	215.11936	179.8281	82.69846	0.30062	 	7.92831E22	 	2.75886E-23	 	9211.649	27.9786	 
170.0	1.0	0.0	7.69099	7.21837	-6.67547	11.00707	20.84285	0.69281	1.44341	215.4625	179.94008	82.84271	0.30043	 	1.5667299999999998E23	 	1.38052E-23	 	9072.321	27.8656	 
165.0	1.0	0.0	7.69231	7.21713	-6.69151	10.98908	20.78487	0.6869	1.45582	215.80234	180.04909	82.98574	0.30024	 	3.14457E23	 	6.80062E-24	 	8933.554	27.7534	 
160.0	1.0	0.0	7.69363	7.21589	-6.7075	10.97108	20.7269	0.68096	1.46851	216.13892	180.15518	83.12755	0.30004	 	6.41376E23	 	3.29619E-24	 	8795.344	27.642	 
155.0	1.0	0.0	7.69494	7.21466	-6.72343	10.95308	20.66892	0.67499	1.48151	216.47226	180.25837	83.26817	0.29985	 	1.33013E24	 	1.57104E-24	 	8657.688	27.5312	 
150.0	1.0	0.0	7.69625	7.21343	-6.73932	10.93508	20.61093	0.66898	1.49481	216.80241	180.35869	83.4076	0.29966	 	2.80648E24	 	7.35901E-25	 	8520.584	27.4208	 
145.0	1.0	0.0	7.69756	7.21221	-6.75516	10.91708	20.55294	0.66294	1.50843	217.12939	180.4562	83.54585	0.29946	 	6.02815E24	 	3.38559E-25	 	8384.03	27.3108	 
140.0	1.0	0.0	7.69886	7.21099	-6.77094	10.89907	20.49495	0.65687	1.52237	217.45326	180.55092	83.68294	0.29927	 	1.31899E25	 	1.5288E-25	 	8248.023	27.2014	 
135.0	1.0	0.0	7.70016	7.20977	-6.78668	10.88106	20.43695	0.65076	1.53666	217.77404	180.64291	83.81889	0.29908	 	2.9419400000000004E25	 	6.77131E-26	 	8112.561	27.0924	 
130.0	1.0	0.0	7.70146	7.20856	-6.80237	10.86304	20.37895	0.64462	1.55131	218.09179	180.73221	83.95371	0.29888	 	6.69369E25	 	2.9396E-26	 	7977.644	26.9834	 
125.0	1.0	0.0	7.70275	7.20735	-6.818	10.84502	20.32094	0.63844	1.56632	218.40657	180.81887	84.08742	0.29869	 	1.55477E26	 	1.24988E-26	 	7843.27	26.8748	 
120.0	1.0	0.0	7.70404	7.20614	-6.83359	10.827	20.26292	0.63223	1.58171	218.71842	180.90295	84.22005	0.29849	 	3.6895600000000006E26	 	5.20081E-27	 	7709.438	26.7664	 
115.0	1.0	0.0	7.70533	7.20494	-6.84912	10.80898	20.20491	0.62598	1.5975	219.02742	180.98451	84.35162	0.2983	 	8.952660000000001E26	 	2.11609E-27	 	7576.148	26.658	 
110.0	1.0	0.0	7.70661	7.20374	-6.86461	10.79095	20.14688	0.6197	1.61369	219.33362	181.0636	84.48215	0.29811	 	2.2232E27	 	8.41158E-28	 	7443.4	26.5496	 
105.0	1.0	0.0	7.70788	7.20255	-6.88005	10.77292	20.08886	0.61338	1.63032	219.63709	181.14029	84.61167	0.29791	 	5.65523E27	 	3.26363E-28	 	7311.195	26.441	 
100.0	1.0	0.0	7.70916	7.20136	-6.89543	10.75488	20.03082	0.60702	1.64739	219.93792	181.21465	84.74021	0.29772	 	1.47499E28	 	1.23476E-28	 	7179.533	26.3324	 
95.0	1.0	0.0	7.71043	7.20017	-6.91077	10.73685	19.97278	0.60063	1.66493	220.23618	181.28676	84.8678	0.29753	 	3.94853E28	 	4.55067E-29	 	7048.415	26.2236	 
90.0	1.0	0.0	7.71169	7.19899	-6.92605	10.7188	19.91474	0.5942	1.68295	220.53198	181.35671	84.99447	0.29733	 	1.0860700000000002E29	 	1.63198E-29	 	6917.844	26.1142	 
85.0	1.0	0.0	7.71296	7.19781	-6.94129	10.70076	19.85668	0.58773	1.70147	220.82539	181.42456	85.12027	0.29714	 	3.0729200000000003E29	 	5.68853E-30	 	6787.821	26.0046	 
80.0	1.0	0.0	7.71422	7.19664	-6.95647	10.68271	19.79863	0.58122	1.72051	221.11653	181.49042	85.24522	0.29694	 	8.95436E29	 	1.92491E-30	 	6658.35	25.8942	 
75.0	1.0	0.0	7.71547	7.19547	-6.97161	10.66466	19.74056	0.57468	1.7401	221.40551	181.55438	85.36939	0.29675	 	2.69066E30	 	6.31531E-31	 	6529.434	25.7832	 
70.0	1.0	0.0	7.71672	7.1943	-6.98669	10.6466	19.68249	0.5681	1.76027	221.69245	181.61654	85.4928	0.29656	 	8.348489999999999E30	 	2.00615E-31	 	6401.076	25.6716	 
65.0	1.0	0.0	7.71797	7.19314	-7.00173	10.62854	19.62441	0.56148	1.78102	221.97747	181.67702	85.61551	0.29636	 	2.67855E31	 	6.16165E-32	 	6273.281	25.559	 
60.0	1.0	0.0	7.71921	7.19198	-7.01671	10.61048	19.56632	0.55482	1.8024	222.26073	181.73594	85.73757	0.29617	 	8.89995E31	 	1.827E-32	 	6146.055	25.4452	 
55.0	1.0	0.0	7.72045	7.19082	-7.03164	10.59242	19.50823	0.54812	1.82443	222.54236	181.79342	85.85904	0.29598	 	3.0673799999999998E32	 	5.22145E-33	 	6019.404	25.3302	 
50.0	1.0	0.0	7.72169	7.18967	-7.04653	10.57435	19.45012	0.54138	1.84714	222.82252	181.8496	85.97999	0.29578	 	1.09844E33	 	1.43586E-33	 	5893.334	25.214	 
45.0	1.0	0.0	7.72292	7.18852	-7.06136	10.55628	19.39201	0.5346	1.87057	223.1014	181.90462	86.10047	0.29559	 	4.0945E33	 	3.79243E-34	 	5767.853	25.0962	 
40.0	1.0	0.0	7.72415	7.18738	-7.07614	10.5382	19.33389	0.52778	1.89474	223.37918	181.95864	86.22057	0.29539	 	1.5917400000000002E34	 	9.60214E-35	 	5642.969	24.9768	 
35.0	1.0	0.0	7.72537	7.18624	-7.09087	10.52013	19.27576	0.52092	1.91969	223.65606	182.01183	86.34035	0.2952	 	6.46663E34	 	2.32579E-35	 	5518.691	24.8556	 
30.0	1.0	0.0	7.7266	7.18511	-7.10556	10.50204	19.21763	0.51401	1.94547	223.93226	182.06436	86.45991	0.29501	 	2.75148E35	 	5.37746E-36	 	5395.031	24.732	 
25.0	1.0	0.0	7.72781	7.18397	-7.12019	 	19.15948	0.50707	1.97211	224.20801	182.11643	86.57933	0.29481	 	1.2289899999999999E36	 	1.18406E-36	 	5272.0	 	 
