T (C)	Fraction solid (wt)-TOTAL	Fraction liquid (wt)-LIQUID	Density (g/(cm)^3)-TOTAL	Molar volume (cm^3)-TOTAL	Volume change (%)-  	Average expansion coeff. (10e-6 1/K)-  	Thermal conductivity (W/(m*K))-TOTAL	Electrical resistivity (10e-6 Ohm*m)-TOTAL	Electrical conductivity (10e6 1/(Ohm*m))-TOTAL	Young's modulus (GPa)-TOTAL	Bulk modulus (GPa)-TOTAL	Shear modulus(GPa)-TOTAL	Poisson's ratio-TOTAL	Liquid viscosity (mPa s)-  	Total viscosity (mPa s)-  	Liquid diffusivity (10e-9 (m^2)/s)-  	Total diffusivity (10e-9 (m^2)/s)-  	Surface Tension (mN/m)-  	Enthalpy (J/mole)-TOTAL	Specific heat (J/(mole K))-TOTAL	Latent heat (J/mole)-TOTAL
1500.0	1.0E-4	0.9999	6.99717	7.84906	0.0	22.53681	32.43018	1.78161	0.56129	9.37364E-14	104.07417	3.12547E-14	0.49956	7.18587	7.18587	1.20435	1.20435	1780.45876	67812.337	 	0.0
1498.9	1.0E-4	0.9999	6.99801	7.84814	-0.0116651	22.52457	32.41374	1.78142	0.56135	1.09943E-13	104.11679	3.66585E-14	0.49956	7.19961	7.19961	1.20131	1.20131	1780.96174	67762.163	45.76	0.987
1495.0	0.28107	0.71893	7.04281	7.79812	-0.64896	20.99515	32.93146	1.74955	0.57158	0.28581	90.84492	0.0979735	0.4586	7.22899	29.06069	1.19379	0.29696	1774.82689	64846.621	746.897	2741.651
1490.0	0.48228	0.51772	7.07618	7.76131	-1.11794	19.89333	33.2917	1.72572	0.57947	2.54927	81.43496	0.89207	0.42885	7.26571	186.48207	1.1844	0.0461465	1768.93558	62678.986	433.527	4685.828
1485.0	0.6014	0.3986	7.09694	7.73869	-1.40617	19.23776	33.48927	1.71068	0.58456	6.29001	75.99714	2.22888	0.41102	7.30243	460.28428	1.1751	0.018643	1764.51345	61320.682	271.661	5821.277
1480.0	0.67956	0.32044	7.11145	7.72289	-1.60736	18.79699	33.60217	1.70008	0.58821	10.42317	72.55619	3.72471	0.39919	7.33838	785.35988	1.16602	0.0108952	1761.12991	60364.507	191.235	6555.194
1475.0	0.73447	0.26553	7.12234	7.71115	-1.75694	18.48365	33.66609	1.69201	0.59101	14.42231	70.25901	5.18492	0.39079	7.37449	1126.7344	1.157	0.00757258	1758.51172	59635.583	145.785	7062.453
1470.0	0.77497	0.22503	7.13103	7.70182	-1.87587	18.24591	33.69885	1.68553	0.59328	18.10241	68.67273	6.53739	0.38453	7.41023	1469.942	1.14813	0.0057879	1756.47832	59046.819	117.753	7430.143
1465.0	0.80594	0.19406	7.13821	7.69413	-1.97382	18.05991	33.71083	1.6801	0.5952	21.42159	67.55965	7.76324	0.37968	7.44618	1809.81983	1.13931	0.00468747	1754.90234	58550.2	99.3238	7706.273
1460.0	0.83031	0.16969	7.14439	7.68753	-2.05788	17.90811	33.70821	1.6754	0.59687	24.39973	66.77526	8.86737	0.37582	7.48178	2145.80467	1.13062	0.00394215	1753.6929	58117.187	86.6026	7919.378
1455.0	0.84992	0.15008	7.14982	7.68176	-2.13142	17.7822	33.69508	1.67122	0.59837	27.07292	66.22931	9.86148	0.37266	7.5176	2478.95037	1.12199	0.00340252	1752.78135	57729.793	77.4788	8087.442
1450.0	0.86601	0.13399	7.15471	7.67658	-2.19742	17.67481	33.67405	1.66742	0.59973	29.48229	65.86108	10.75971	0.37003	7.55337	2811.13479	1.11345	0.00299177	1752.11637	57376.137	70.7312	8222.342
1445.0	0.87943	0.12057	7.15919	7.67185	-2.25766	17.58153	33.64696	1.66392	0.60099	31.66461	65.62938	11.57496	0.36781	7.58907	3144.24492	1.10499	0.00266705	1751.65774	57048.073	65.6128	8332.219
1440.0	0.89074	0.10926	7.16334	7.66747	-2.31349	17.49903	33.6152	1.66065	0.60217	33.65583	65.50396	12.3201	0.36589	7.62471	3480.62587	1.09663	0.00240229	1751.37388	56739.842	61.6462	8422.829
1435.0	0.90043	0.0995745	7.16723	7.66338	-2.3656	17.42561	33.5797	1.65755	0.6033	35.48169	65.46423	13.00434	0.36423	7.66063	3821.991	1.0883	0.00218134	1751.23894	56447.263	58.5158	8498.35
1430.0	0.90877	0.0912253	7.17092	7.65951	-2.41486	17.3591	33.54119	1.6546	0.60438	37.16748	65.49371	13.63686	0.36276	7.69647	4170.3471	1.08006	0.00199328	1751.23275	56167.235	56.0056	8561.877
1425.0	0.91605	0.0839529	7.17443	7.65583	-2.46175	17.29832	33.50021	1.65176	0.60542	38.73333	65.58026	14.22499	0.36145	7.73258	4527.50682	1.07186	0.00183064	1751.33828	55897.415	53.964	8615.751
1421.55	0.92052	0.0794769	7.17677	7.6534	-2.49278	17.25954	33.47078	1.64986	0.60611	39.75015	65.66856	14.6072	0.36064	7.7576	4779.37391	1.06624	0.00173065	1751.46621	55716.524	 	8648.158
1420.0	0.92379	0.0762108	7.17841	7.65167	-2.51472	17.22112	33.46083	1.64883	0.60649	40.45656	65.65386	14.87293	0.36007	7.77208	4927.72562	1.06327	0.00167701	1751.57417	55620.599	55.3632	8677.172
1419.31	0.92517	0.0748299	7.17911	7.65094	-2.52408	17.20507	33.45618	1.64839	0.60665	40.76082	65.65142	14.98742	0.35983	7.77878	4993.50955	1.06192	0.00165424	1751.62532	55578.317	 	8689.609
1419.31	0.92517	0.0748299	7.1791	7.65094	-2.52411	17.20501	33.45616	1.64839	0.60665	40.76097	65.65155	14.98748	0.35983	7.77878	4993.51049	1.06192	0.00165424	1751.62532	55578.136	 	8689.789
1415.0	0.9329	0.0671007	7.18325	7.64661	-2.57931	17.11272	33.42537	1.64571	0.60764	42.53089	65.67609	15.65389	0.35848	7.81883	5400.70028	1.05379	0.00152562	1752.00731	55326.596	58.8006	8756.326
1410.0	0.9403	0.0596991	7.18758	7.64209	-2.63681	17.02231	33.38582	1.64278	0.60873	44.35233	65.78289	16.34037	0.35714	7.86531	5871.27255	1.04446	0.00139919	1752.54822	55051.266	55.066	8817.352
1405.0	0.94642	0.0535831	7.19154	7.63798	-2.68916	16.94493	33.34311	1.63999	0.60976	45.9756	65.95423	16.95267	0.356	7.91152	6344.61147	1.03528	0.00129096	1753.17751	54789.463	52.3606	8865.39
1400.0	0.95155	0.0484471	7.19522	7.63418	-2.73758	16.87747	33.29799	1.63732	0.61075	47.44335	66.17555	17.50669	0.35501	7.95778	6825.5154	1.02619	0.00119643	1753.88264	54537.87	50.3186	8903.754
1395.0	0.95593	0.0440744	7.19867	7.63061	-2.78306	16.81736	33.25097	1.63474	0.61172	48.78712	66.4365	18.01419	0.35413	8.0038	7317.84262	1.01724	0.0011126	1754.65449	54294.151	48.7438	8934.777
1390.0	0.95969	0.0403068	7.20195	7.62724	-2.82606	16.76351	33.20247	1.63222	0.61266	50.0306	66.72978	18.48402	0.35335	8.0502	7825.0946	1.00835	0.00103736	1755.48368	54056.61	47.5082	8960.152
1385.0	0.96297	0.0370261	7.2051	7.624	-2.86731	16.71394	33.15274	1.62975	0.61359	51.19367	67.04934	18.92364	0.35264	8.09638	8350.43604	0.99958	9.69173E-4	1756.36553	53823.963	46.5294	8981.157
1380.0	0.96587	0.0341261	7.20813	7.62089	-2.90699	16.66827	33.10207	1.62733	0.6145	52.29363	67.39074	19.33953	0.35199	8.14322	8897.35427	0.99084	9.06855E-4	1757.29387	53595.029	45.7868	8998.973
1375.0	0.97038	0.0296155	7.2116	7.6173	-2.95266	16.60598	33.0544	1.62475	0.61548	53.81269	67.68828	19.91499	0.35106	8.21743	9559.66746	0.97892	8.41474E-4	1758.43383	53338.422	51.3214	9044.98
1370.0	0.97683	0.0231679	7.21567	7.61306	-3.00672	16.52039	33.0105	1.62197	0.61653	55.86969	67.93554	20.69565	0.34979	8.34561	10372.50564	0.96096	7.73179E-4	1759.95638	53053.852	56.914	9119.466
1365.0	0.98143	0.0185651	7.21931	7.60927	-3.05499	16.44996	32.96294	1.61937	0.61752	57.52357	68.25344	21.32354	0.34883	8.47498	11154.41829	0.94341	7.16792E-4	1761.51925	52793.009	52.1686	9170.738
1360.0	0.98486	0.01514	7.22267	7.60577	-3.09961	16.38906	32.91299	1.61687	0.61848	58.91372	68.61735	21.85137	0.34806	8.60435	11929.17854	0.92639	6.68193E-4	1763.11126	52547.353	49.1312	9207.331
1355.0	0.9875	0.0124968	7.22584	7.60246	-3.14169	16.33469	32.86147	1.61445	0.61941	60.12639	69.01281	22.31182	0.34741	8.73413	12712.67362	0.90983	6.25092E-4	1764.72505	52311.843	47.102	9234.284
1350.0	0.9896	0.0103985	7.22888	7.59931	-3.18191	16.28505	32.80883	1.61208	0.62032	61.2145	69.43118	22.72496	0.34686	8.8648	13515.7438	0.89367	5.86145E-4	1766.35573	52083.457	45.6772	9254.615
1345.0	0.99131	0.00869287	7.23181	7.59626	-3.22078	16.2388	32.75539	1.60973	0.62122	62.2127	69.86686	23.10394	0.34637	8.99607	14346.50027	0.87792	5.50503E-4	1768.00095	51860.283	44.6348	9270.235
1340.0	0.99272	0.00728066	7.23467	7.59329	-3.25861	16.19511	32.70133	1.60741	0.62212	63.14416	70.31617	23.45756	0.34592	9.12758	15211.50363	0.86259	5.17594E-4	1769.65907	51641.051	43.8464	9282.408
1335.0	0.99391	0.0060924	7.23747	7.59039	-3.29555	16.15353	32.64681	1.60511	0.62301	64.02509	70.77657	23.79198	0.34552	9.26057	16116.35137	0.84757	4.8702E-4	1771.3262	51424.887	43.2328	9292.007
1330.0	0.99492	0.00507838	7.24021	7.58754	-3.33182	16.11355	32.59192	1.60281	0.6239	64.86706	71.24618	24.1116	0.34514	9.39397	17066.02282	0.83294	4.58489E-4	1773.003	51211.17	42.7434	9299.648
1325.0	0.9958	0.00420437	7.24291	7.58474	-3.36749	16.07494	32.53673	1.60052	0.6248	65.67871	71.72369	24.41971	0.34479	9.52862	18065.5953	0.8186	4.3177E-4	1774.68686	50999.448	42.3444	9305.782
1320.0	0.99656	0.00344241	7.24558	7.58198	-3.40265	16.03748	32.4813	1.59824	0.62569	66.46602	72.20808	24.71858	0.34445	9.6642	19119.52864	0.8046	4.06693E-4	1776.37741	50789.382	42.0132	9310.744
1315.0	0.99723	0.00277174	7.24821	7.57926	-3.43736	16.001	32.42567	1.59595	0.62658	67.23416	72.69855	25.01018	0.34414	9.80112	20232.81565	0.79087	3.83109E-4	1778.07374	50580.715	41.7334	9314.788
1310.0	0.99782	0.0021789	7.25082	7.57656	-3.47169	15.96533	32.36988	1.59367	0.62748	67.98708	73.19445	25.29603	0.34383	9.93909	21410.33666	0.77743	3.60899E-4	1779.7754	50373.247	41.4936	9318.111
1305.0	0.99835	0.00164936	7.2534	7.57389	-3.50568	15.93035	32.31394	1.59139	0.62838	68.72767	73.69528	25.57721	0.34353	10.0786	22656.97956	0.76425	3.39964E-4	1781.48107	50166.821	41.2852	9320.867
1300.0	0.99883	0.00117378	7.25596	7.57125	-3.53934	15.89604	32.25786	1.5891	0.62929	69.45812	74.20065	25.85457	0.34325	10.21925	23978.34633	0.75134	3.20212E-4	1783.19139	49961.311	41.102	9323.18
1295.0	0.99926	7.44911E-4	7.2585	7.56863	-3.57272	15.86228	32.20168	1.58682	0.63019	70.18038	74.71022	26.12884	0.34297	10.36156	25379.78313	0.73867	3.01569E-4	1784.90505	49756.615	40.9392	9325.147
1290.0	0.99965	3.54965E-4	7.26103	7.56603	-3.60584	15.82901	32.14539	1.58453	0.6311	70.89622	75.22367	26.4007	0.3427	10.50513	26867.38714	0.72625	2.83963E-4	1786.62203	49552.651	40.7928	9326.849
1285.0	1.0	0.0	7.26353	7.56345	-3.63871	15.79619	32.08903	1.58223	0.63202	71.60711	75.74075	26.67072	0.34243	 	28447.88851	 	2.67329E-4	 	49349.35	40.6602	9328.352
1280.0	1.0	0.0	7.26562	7.56128	-3.66639	15.77827	32.0308	1.58002	0.6329	72.19947	76.27094	26.89534	0.34223	 	30080.51659	 	2.52008E-4	 	49172.961	35.2778	 
1275.0	1.0	0.0	7.2677	7.55911	-3.69402	15.76034	31.97257	1.5778	0.63379	72.7952	76.80333	27.12128	0.34203	 	31818.3084	 	2.37478E-4	 	48974.579	39.6764	 
1270.0	1.0	0.0	7.26979	7.55695	-3.72161	15.74242	31.91435	1.57558	0.63469	73.39424	77.33788	27.34852	0.34183	 	33668.74655	 	2.23701E-4	 	48776.054	39.705	 
1265.0	1.0	0.0	7.27187	7.55478	-3.74915	15.72449	31.85612	1.57334	0.63559	73.99655	77.87453	27.57705	0.34163	 	35639.89503	 	2.10644E-4	 	48577.757	39.6594	 
1260.0	1.0	0.0	7.27394	7.55263	-3.77663	15.70656	31.7979	1.5711	0.6365	74.60209	78.41323	27.80685	0.34143	 	37740.44808	 	1.98273E-4	 	48379.684	39.6146	 
1255.0	1.0	0.0	7.27602	7.55047	-3.80407	15.68863	31.73967	1.56885	0.63741	75.21082	78.95391	28.0379	0.34123	 	39979.78349	 	1.86557E-4	 	48181.833	39.5702	 
1250.0	1.0	0.0	7.27809	7.54832	-3.83146	15.6707	31.68145	1.56659	0.63833	75.82268	79.49653	28.27019	0.34104	 	42368.02078	 	1.75465E-4	 	47984.203	39.526	 
1245.0	1.0	0.0	7.28016	7.54618	-3.8588	15.65277	31.62322	1.56432	0.63925	76.43764	80.04104	28.50371	0.34084	 	44916.08465	 	1.64968E-4	 	47786.79	39.4826	 
1240.0	1.0	0.0	7.28223	7.54403	-3.8861	15.63484	31.565	1.56205	0.64019	77.05565	80.58737	28.73844	0.34064	 	47635.77428	 	1.55037E-4	 	47589.592	39.4396	 
1235.0	1.0	0.0	7.28429	7.5419	-3.91334	15.61691	31.50677	1.55976	0.64112	77.67667	81.13549	28.97435	0.34044	 	50539.8391	 	1.45646E-4	 	47392.608	39.3968	 
1230.0	1.0	0.0	7.28635	7.53976	-3.94054	15.59898	31.44855	1.55747	0.64207	78.30065	81.68533	29.21144	0.34024	 	53642.06149	 	1.36768E-4	 	47195.834	39.3548	 
1225.0	1.0	0.0	7.28841	7.53763	-3.96769	15.58104	31.39033	1.55517	0.64302	78.92755	82.23685	29.4497	0.34004	 	56957.34732	 	1.28378E-4	 	46999.268	39.3132	 
1220.0	1.0	0.0	7.29047	7.5355	-3.99478	15.56311	31.3321	1.55286	0.64397	79.55733	82.78999	29.68909	0.33984	 	60501.82496	 	1.20454E-4	 	46802.907	39.2722	 
1215.0	1.0	0.0	7.29253	7.53338	-4.02183	15.54517	31.27388	1.55054	0.64494	80.18995	83.3447	29.92962	0.33964	 	64292.95371	 	1.12972E-4	 	46606.749	39.2316	 
1210.0	1.0	0.0	7.29458	7.53126	-4.04884	15.52724	31.21566	1.54821	0.64591	80.82535	83.90092	30.17126	0.33944	 	68349.64244	 	1.0591E-4	 	46410.791	39.1916	 
1205.0	1.0	0.0	7.29663	7.52915	-4.07579	15.5093	31.15744	1.54588	0.64688	81.46349	84.45862	30.41399	0.33924	 	72692.37976	 	9.92468E-5	 	46215.031	39.152	 
1200.0	1.0	0.0	7.29867	7.52703	-4.10269	15.49136	31.09921	1.54353	0.64787	82.10434	85.01774	30.65781	0.33904	 	77343.37659	 	9.29631E-5	 	46019.465	39.1132	 
1195.0	1.0	0.0	7.30072	7.52493	-4.12955	15.47342	31.04099	1.54118	0.64885	82.74785	85.57822	30.90269	0.33885	 	82326.72259	 	8.70395E-5	 	45824.091	39.0748	 
1190.0	1.0	0.0	7.30276	7.52282	-4.15635	15.45548	30.98277	1.53881	0.64985	83.39397	86.14002	31.14862	0.33865	 	87668.55792	 	8.14576E-5	 	45628.905	39.0372	 
1185.0	1.0	0.0	7.3048	7.52072	-4.18311	15.43754	30.92455	1.53644	0.65085	84.04266	86.70309	31.39558	0.33845	 	93397.26169	 	7.62E-5	 	45433.905	39.0	 
1180.0	1.0	0.0	7.30684	7.51863	-4.20982	15.4196	30.86633	1.53406	0.65186	84.69388	87.26737	31.64356	0.33825	 	99543.65916	 	7.12498E-5	 	45239.088	38.9634	 
1175.0	1.0	0.0	7.30887	7.51653	-4.23648	15.40166	30.80811	1.53167	0.65288	85.34758	87.83282	31.89254	0.33805	 	106141.2494	 	6.65911E-5	 	45044.45	38.9276	 
1170.0	1.0	0.0	7.3109	7.51444	-4.26309	15.38372	30.74989	1.52928	0.6539	86.00372	88.39939	32.14251	0.33785	 	113226.4558	 	6.22086E-5	 	44849.989	38.8922	 
1165.0	1.0	0.0	7.31293	7.51236	-4.28966	15.36577	30.69167	1.52687	0.65494	86.66226	88.96703	32.39345	0.33765	 	120838.9015	 	5.80877E-5	 	44655.701	38.8576	 
1160.0	1.0	0.0	7.31496	7.51028	-4.31617	15.34783	30.63345	1.52445	0.65597	87.32314	89.5357	32.64534	0.33745	 	129021.7131	 	5.42145E-5	 	44461.583	38.8236	 
1155.0	1.0	0.0	7.31698	7.5082	-4.34264	15.32988	30.57523	1.52203	0.65702	87.98634	90.10533	32.89817	0.33725	 	137821.8548	 	5.05758E-5	 	44267.631	38.7904	 
1150.0	1.0	0.0	7.319	7.50613	-4.36906	15.31194	30.51701	1.51959	0.65807	88.6518	90.67589	33.15192	0.33705	 	147290.4971	 	4.71588E-5	 	44073.842	38.7578	 
1145.0	1.0	0.0	7.32102	7.50406	-4.39542	15.29399	30.45879	1.51715	0.65913	89.31948	91.24733	33.40658	0.33685	 	157483.4232	 	4.39515E-5	 	43880.213	38.7258	 
1140.0	1.0	0.0	7.32304	7.50199	-4.42174	15.27604	30.40057	1.51469	0.6602	89.98934	91.81959	33.66213	0.33666	 	168461.4775	 	4.09425E-5	 	43686.739	38.6948	 
1135.0	1.0	0.0	7.32505	7.49993	-4.44802	15.25809	30.34236	1.51223	0.66128	90.66134	92.39264	33.91855	0.33646	 	180291.0616	 	3.81207E-5	 	43493.417	38.6644	 
1130.0	1.0	0.0	7.32706	7.49787	-4.47424	15.24014	30.28414	1.50976	0.66236	91.33542	92.96642	34.17584	0.33626	 	193044.6807	 	3.54759E-5	 	43300.243	38.6348	 
1125.0	1.0	0.0	7.32907	7.49582	-4.50041	15.22219	30.22593	1.50727	0.66345	92.01155	93.54088	34.43396	0.33606	 	206801.5499	 	3.29979E-5	 	43107.213	38.606	 
1120.0	1.0	0.0	7.33108	7.49377	-4.52654	15.20424	30.16771	1.50478	0.66455	92.68968	94.11599	34.69291	0.33586	 	221648.2628	 	3.06775E-5	 	42914.324	38.5778	 
1115.0	1.0	0.0	7.33308	7.49172	-4.55261	15.18629	30.1095	1.50228	0.66566	93.36978	94.69169	34.95267	0.33566	 	237679.533	 	2.85057E-5	 	42721.571	38.5506	 
1110.0	1.0	0.0	7.33508	7.48968	-4.57864	15.16834	30.05129	1.49977	0.66677	94.05179	95.26794	35.21323	0.33546	 	254999.015	 	2.64739E-5	 	42528.949	38.5244	 
1105.0	1.0	0.0	7.33708	7.48764	-4.60462	15.15038	29.99307	1.49725	0.66789	94.73567	95.8447	35.47457	0.33526	 	273720.2138	 	2.4574E-5	 	42336.455	38.4988	 
1100.0	1.0	0.0	7.33907	7.4856	-4.63055	15.13243	29.93486	1.49472	0.66902	95.42138	96.42191	35.73667	0.33506	 	293967.4936	 	2.27985E-5	 	42144.085	38.474	 
1095.0	1.0	0.0	7.34106	7.48357	-4.65643	15.11447	29.87666	1.49217	0.67016	96.10888	96.99952	35.99951	0.33486	 	315877.1978	 	2.11399E-5	 	41951.832	38.4506	 
1090.0	1.0	0.0	7.34305	7.48154	-4.68226	15.09651	29.81845	1.48962	0.67131	96.79812	97.57751	36.26309	0.33466	 	339598.8919	 	1.95913E-5	 	41759.694	38.4276	 
1085.0	1.0	0.0	7.34504	7.47952	-4.70805	15.07856	29.76024	1.48706	0.67247	97.48906	98.15581	36.52738	0.33447	 	365296.7451	 	1.81463E-5	 	41567.665	38.4058	 
1080.0	1.0	0.0	7.34702	7.4775	-4.73378	15.0606	29.70204	1.48449	0.67363	98.18166	98.73439	36.79237	0.33427	 	393151.066	 	1.67986E-5	 	41375.74	38.385	 
1075.0	1.0	0.0	7.34901	7.47548	-4.75947	15.04264	29.64384	1.48191	0.67481	98.87586	99.3132	37.05805	0.33407	 	423360.0116	 	1.55423E-5	 	41183.914	38.3652	 
1070.0	1.0	0.0	7.35098	7.47347	-4.78511	15.02468	29.58564	1.47932	0.67599	99.57164	99.8922	37.32439	0.33387	 	456141.4899	 	1.43718E-5	 	40992.182	38.3464	 
1065.0	1.0	0.0	7.35296	7.47146	-4.8107	15.00672	29.52745	1.47671	0.67718	100.26894	100.47134	37.59139	0.33367	 	491735.2795	 	1.32819E-5	 	40800.539	38.3286	 
1060.0	1.0	0.0	7.35493	7.46946	-4.83624	14.98876	29.46926	1.4741	0.67838	100.96772	101.05058	37.85902	0.33347	 	530405.3927	 	1.22675E-5	 	40608.978	38.3122	 
1055.0	1.0	0.0	7.35691	7.46746	-4.86173	14.9708	29.41107	1.47148	0.67959	101.66794	101.62988	38.12726	0.33327	 	572442.712	 	1.13241E-5	 	40417.495	38.2966	 
1050.0	1.0	0.0	7.35887	7.46546	-4.88717	14.95283	29.35289	1.46884	0.68081	102.36956	102.20918	38.39612	0.33307	 	618167.9335	 	1.04469E-5	 	40226.084	38.2822	 
1045.0	1.0	0.0	7.36084	7.46347	-4.91256	14.93487	29.29471	1.4662	0.68203	103.07253	102.78845	38.66556	0.33287	 	667934.8549	 	9.63202E-6	 	40034.739	38.269	 
1040.0	1.0	0.0	7.3628	7.46148	-4.93791	14.9169	29.23654	1.46355	0.68327	103.77681	103.36765	38.93557	0.33267	 	722134.052	 	8.8753E-6	 	39843.453	38.2572	 
1035.0	1.0	0.0	7.36476	7.45949	-4.9632	14.89894	29.17837	1.46088	0.68452	104.48235	103.94673	39.20614	0.33247	 	781196.9918	 	8.17304E-6	 	39652.22	38.2466	 
1030.0	1.0	0.0	7.36672	7.45751	-4.98845	14.88097	29.12021	1.4582	0.68578	105.18912	104.52566	39.47724	0.33228	 	845600.6373	 	7.5217E-6	 	39461.034	38.2372	 
1025.0	1.0	0.0	7.36867	7.45553	-5.01365	14.863	29.06206	1.45551	0.68704	105.89706	105.10437	39.74887	0.33208	 	915872.6073	 	6.91794E-6	 	39269.889	38.229	 
1020.0	1.0	0.0	7.37062	7.45356	-5.0388	14.84503	29.00392	1.45281	0.68832	106.60615	105.68285	40.02101	0.33188	 	992596.9618	 	6.35862E-6	 	39078.776	38.2226	 
1015.0	1.0	0.0	7.37257	7.45159	-5.0639	14.82706	28.94578	1.4501	0.68961	107.31632	106.26104	40.29364	0.33168	 	1076420.694	 	5.84078E-6	 	38887.689	38.2174	 
1010.0	1.0	0.0	7.37452	7.44962	-5.08895	14.80909	28.88766	1.44738	0.6909	108.02754	106.8389	40.56674	0.33148	 	1168061.019	 	5.36165E-6	 	38696.62	38.2138	 
1005.0	1.0	0.0	7.37646	7.44766	-5.11396	14.79112	28.82955	1.44465	0.69221	108.73977	107.41639	40.84031	0.33128	 	1268313.571	 	4.9186E-6	 	38505.563	38.2114	 
1000.0	1.0	0.0	7.3784	7.4457	-5.13891	14.77315	28.77145	1.4419	0.69353	109.45296	107.99346	41.11432	0.33108	 	1378061.612	 	4.50918E-6	 	38314.508	38.211	 
995.0	1.0	0.0	7.38034	7.44375	-5.16382	14.75518	28.71336	1.43914	0.69486	110.16708	108.57009	41.38875	0.33088	 	1498286.407	 	4.13107E-6	 	38123.449	38.2118	 
990.0	1.0	0.0	7.38227	7.44179	-5.18868	14.7372	28.65529	1.43637	0.6962	110.88207	109.14623	41.6636	0.33068	 	1630078.91	 	3.7821E-6	 	37932.376	38.2146	 
985.0	1.0	0.0	7.38421	7.43985	-5.21349	14.71923	28.59724	1.43359	0.69755	111.59789	109.72183	41.93885	0.33048	 	1774652.929	 	3.46024E-6	 	37741.28	38.2192	 
980.0	1.0	0.0	7.38614	7.4379	-5.23824	14.70126	28.53921	1.4308	0.69891	112.31451	110.29686	42.21447	0.33028	 	1933359.997	 	3.16357E-6	 	37550.154	38.2252	 
975.0	1.0	0.0	7.38806	7.43596	-5.26296	14.68328	28.48119	1.42799	0.70028	113.03187	110.87127	42.49045	0.33009	 	2107706.146	 	2.8903E-6	 	37358.987	38.2334	 
970.0	1.0	0.0	7.38999	7.43403	-5.28762	14.6653	28.4232	1.42518	0.70167	113.74994	111.44503	42.76679	0.32989	 	2299370.881	 	2.63877E-6	 	37167.771	38.2432	 
965.0	1.0	0.0	7.39191	7.4321	-5.31223	14.64732	28.36524	1.42234	0.70306	114.46867	112.0181	43.04346	0.32969	 	2510228.628	 	2.40739E-6	 	36976.494	38.2554	 
960.0	1.0	0.0	7.39383	7.43017	-5.33679	14.62935	28.3073	1.4195	0.70447	115.18801	112.59043	43.32044	0.32949	 	2742373.026	 	2.1947E-6	 	36785.147	38.2694	 
955.0	1.0	0.0	7.39574	7.42824	-5.36131	14.61137	28.24939	1.41664	0.70589	115.90794	113.16199	43.59772	0.32929	 	2998144.443	 	1.99933E-6	 	36593.718	38.2858	 
950.0	1.0	0.0	7.39765	7.42632	-5.38578	14.59339	28.19151	1.41377	0.70733	116.6284	113.73274	43.87528	0.32909	 	3280161.182	 	1.82E-6	 	36402.198	38.304	 
945.0	1.0	0.0	7.39956	7.42441	-5.41019	14.5754	28.13367	1.41089	0.70877	117.34934	114.30264	44.15312	0.32889	 	3591354.904	 	1.6555E-6	 	36210.573	38.325	 
940.0	1.0	0.0	7.40147	7.42249	-5.43456	14.55742	28.07586	1.40799	0.71023	118.07074	114.87165	44.4312	0.32869	 	3935010.863	 	1.50472E-6	 	36018.833	38.348	 
935.0	1.0	0.0	7.40337	7.42059	-5.45888	14.53944	28.01809	1.40508	0.7117	118.79254	115.43973	44.70952	0.32849	 	4314813.664	 	1.36661E-6	 	35826.964	38.3738	 
930.0	1.0	0.0	7.40528	7.41868	-5.48316	14.52146	27.96037	1.40215	0.71319	119.5147	116.00684	44.98806	0.32829	 	4734899.328	 	1.24021E-6	 	35634.953	38.4022	 
925.0	1.0	0.0	7.40717	7.41678	-5.50738	14.50347	27.9027	1.39921	0.71469	120.23718	116.57296	45.2668	0.32809	 	5199914.613	 	1.12461E-6	 	35442.787	38.4332	 
920.0	1.0	0.0	7.40907	7.41488	-5.53155	14.48549	27.84507	1.39625	0.7162	120.95994	117.13802	45.54573	0.3279	 	5715084.643	 	1.01896E-6	 	35250.452	38.467	 
915.0	1.0	0.0	7.41096	7.41299	-5.55568	14.4675	27.7875	1.39328	0.71773	121.68293	117.70201	45.82483	0.3277	 	6286290.092	 	9.22494E-7	 	35057.933	38.5038	 
910.0	1.0	0.0	7.41285	7.4111	-5.57975	14.44951	27.72999	1.3903	0.71927	122.40611	118.26488	46.10409	0.3275	 	6920155.359	 	8.3447E-7	 	34865.215	38.5436	 
905.0	1.0	0.0	7.41474	7.40921	-5.60378	14.43152	27.67254	1.3873	0.72083	123.12943	118.8266	46.38349	0.3273	 	7624149.389	 	7.54216E-7	 	34672.28	38.587	 
900.0	1.0	0.0	7.41662	7.40733	-5.62776	14.41353	27.61515	1.38428	0.7224	123.85287	119.38712	46.66301	0.3271	 	8406701.066	 	6.81106E-7	 	34479.113	38.6334	 
895.0	1.0	0.0	7.4185	7.40545	-5.65169	14.39554	27.55784	1.38125	0.72398	124.57636	119.94642	46.94264	0.3269	 	9277331.428	 	6.14557E-7	 	34285.696	38.6834	 
890.0	1.0	0.0	7.42038	7.40358	-5.67557	14.37755	27.5006	1.3782	0.72559	125.29988	120.50445	47.22235	0.3267	 	1.024680528E7	 	5.54031E-7	 	34092.01	38.7372	 
885.0	1.0	0.0	7.42226	7.40171	-5.6994	14.35956	27.44344	1.37513	0.7272	126.02337	121.06118	47.50215	0.3265	 	1.132730528E7	 	4.99028E-7	 	33898.036	38.7948	 
880.0	1.0	0.0	7.42413	7.39984	-5.72318	14.34157	27.38636	1.37205	0.72884	126.7468	121.61657	47.782	0.3263	 	1.253263193E7	 	4.49087E-7	 	33703.753	38.8566	 
875.0	1.0	0.0	7.426	7.39798	-5.74691	14.32358	27.32938	1.36895	0.73049	127.47012	122.17058	48.0619	0.3261	 	1.387843373E7	 	4.0378E-7	 	33509.14	38.9226	 
870.0	1.0	0.0	7.42786	7.39612	-5.7706	14.30558	27.27248	1.36583	0.73216	128.19329	122.72318	48.34183	0.3259	 	1.538247211E7	 	3.62714E-7	 	33314.174	38.9932	 
865.0	1.0	0.0	7.42973	7.39426	-5.79424	14.28759	27.21568	1.36269	0.73384	128.91627	123.27434	48.62176	0.32571	 	1.706492695E7	 	3.25523E-7	 	33118.832	39.0684	 
860.0	1.0	0.0	7.43159	7.39241	-5.81782	14.26959	27.15899	1.35954	0.73554	129.63902	123.82402	48.9017	0.32551	 	1.894874907E7	 	2.91873E-7	 	32923.089	39.1486	 
855.0	1.0	0.0	7.43345	7.39057	-5.84136	14.2516	27.1024	1.35637	0.73726	130.36148	124.37217	49.18161	0.32531	 	2.106006753E7	 	2.61453E-7	 	32726.917	39.2344	 
850.0	1.0	0.0	7.4353	7.38872	-5.86485	14.2336	27.04593	1.35317	0.739	131.08363	124.91878	49.46148	0.32511	 	2.34286606E7	 	2.33979E-7	 	32530.29	39.3254	 
845.0	1.0	0.0	7.43715	7.38688	-5.88829	14.2156	26.98957	1.34996	0.74076	131.80542	125.4638	49.7413	0.32491	 	2.608850121E7	 	2.09188E-7	 	32333.177	39.4226	 
840.0	1.0	0.0	7.439	7.38505	-5.91168	14.1976	26.93333	1.34673	0.74254	132.5268	126.00719	50.02106	0.32471	 	2.907838907E7	 	1.8684E-7	 	32135.546	39.5262	 
835.0	1.0	0.0	7.44085	7.38321	-5.93502	14.1796	26.87722	1.34348	0.74433	133.24773	126.54893	50.30073	0.32451	 	3.244268433E7	 	1.66713E-7	 	31937.365	39.6362	 
830.0	1.0	0.0	7.44269	7.38138	-5.95832	14.1616	26.82124	1.34021	0.74615	133.96818	127.08898	50.5803	0.32431	 	3.623215993E7	 	1.48603E-7	 	31738.598	39.7534	 
825.0	1.0	0.0	7.44453	7.37956	-5.98156	14.1436	26.7654	1.33692	0.74799	134.68809	127.6273	50.85975	0.32411	 	4.050499304E7	 	1.32324E-7	 	31539.208	39.878	 
820.0	1.0	0.0	7.44637	7.37774	-6.00476	14.1256	26.70969	1.33361	0.74984	135.40743	128.16387	51.13907	0.32391	 	4.532791966E7	 	1.17707E-7	 	31339.153	40.011	 
815.0	1.0	0.0	7.4482	7.37592	-6.02791	14.10759	26.65413	1.33028	0.75172	136.12616	128.69864	51.41824	0.32371	 	5.077758086E7	 	1.04593E-7	 	31138.391	40.1524	 
810.0	1.0	0.0	7.45003	7.37411	-6.051	14.08959	26.59871	1.32692	0.75362	136.84423	129.23158	51.69725	0.32352	 	5.694209438E7	 	9.28414E-8	 	30936.877	40.3028	 
805.0	1.0	0.0	7.45186	7.3723	-6.07405	14.07158	26.54344	1.32355	0.75554	137.5616	129.76266	51.97608	0.32332	 	6.392289151E7	 	8.23208E-8	 	30734.56	40.4634	 
800.0	1.0	0.0	7.45369	7.3705	-6.09705	14.05358	26.48832	1.32015	0.75749	138.27823	130.29185	52.25471	0.32312	 	7.183686688E7	 	7.29121E-8	 	30531.388	40.6344	 
795.0	1.0	0.0	7.45551	7.36869	-6.12	14.03557	26.43336	1.31673	0.75946	138.99407	130.81911	52.53313	0.32292	 	8.081889744E7	 	6.45069E-8	 	30327.305	40.8166	 
790.0	1.0	0.0	7.45733	7.3669	-6.14291	14.01756	26.37855	1.31329	0.76145	139.7091	131.34441	52.81132	0.32272	 	9.102479796E7	 	5.70061E-8	 	30122.249	41.0112	 
785.0	1.0	0.0	7.45915	7.3651	-6.16576	13.99955	26.3239	1.30983	0.76346	140.42325	131.86772	53.08927	0.32252	 	1.026347933E8	 	5.03198E-8	 	29916.155	41.2188	 
780.0	1.0	0.0	7.46096	7.36331	-6.18856	13.98155	26.26941	1.30634	0.76549	141.1365	132.38901	53.36696	0.32232	 	1.158576026E8	 	4.43662E-8	 	29708.951	41.4408	 
775.0	1.0	0.0	7.46277	7.36153	-6.21132	13.96354	26.21507	1.30284	0.76756	141.84879	132.90823	53.64437	0.32212	 	1.309352511E8	 	3.90709E-8	 	29500.561	41.678	 
770.0	1.0	0.0	7.46458	7.35974	-6.23403	13.94552	26.1609	1.29931	0.76964	142.5601	133.42537	53.92149	0.32192	 	1.481487446E8	 	3.43665E-8	 	29290.901	41.932	 
765.0	1.0	0.0	7.46638	7.35797	-6.25668	13.92751	26.10688	1.29576	0.77175	143.27037	133.94039	54.1983	0.32172	 	1.678247727E8	 	3.01919E-8	 	29079.882	42.2038	 
760.0	1.0	0.0	7.46818	7.35619	-6.27929	13.9095	26.05301	1.29218	0.77389	143.97956	134.45325	54.47479	0.32152	 	1.903436369E8	 	2.64918E-8	 	28867.405	42.4954	 
755.0	1.0	0.0	7.46998	7.35442	-6.30185	13.89149	25.9993	1.28858	0.77605	144.68764	134.96393	54.75094	0.32133	 	2.161486413E8	 	2.32162E-8	 	28653.362	42.8086	 
750.0	1.0	0.0	7.47177	7.35265	-6.32436	13.87347	25.94574	1.28496	0.77823	145.39456	135.4724	55.02674	0.32113	 	2.457572312E8	 	2.03198E-8	 	28437.637	43.145	 
745.0	1.0	0.0	7.47357	7.35089	-6.34682	13.85546	25.89232	1.28132	0.78044	146.10028	135.97861	55.30216	0.32093	 	2.797742241E8	 	1.7762E-8	 	28220.102	43.507	 
740.0	1.0	0.0	7.47536	7.34913	-6.36924	13.83744	25.83905	1.27766	0.78268	146.80476	136.48255	55.5772	0.32073	 	3.189075498E8	 	1.55059E-8	 	28000.617	43.897	 
735.0	1.0	0.0	7.47714	7.34738	-6.3916	13.81942	25.78591	1.27397	0.78495	147.50795	136.98418	55.85183	0.32053	 	3.63987003E8	 	1.35184E-8	 	27779.029	44.3176	 
730.0	1.0	0.0	7.47892	7.34563	-6.41391	13.8014	25.7329	1.27027	0.78724	148.20983	137.48347	56.12605	0.32033	 	4.159866177E8	 	1.17699E-8	 	27555.168	44.7722	 
725.0	1.0	0.0	7.4807	7.34388	-6.43618	13.78339	25.68002	1.26654	0.78955	148.91033	137.98039	56.39983	0.32013	 	4.760514063E8	 	1.02336E-8	 	27328.848	45.264	 
720.0	1.0	0.0	7.48248	7.34213	-6.4584	13.76537	25.62725	1.26279	0.7919	149.60944	138.47491	56.67316	0.31993	 	5.455293617E8	 	8.88553E-9	 	27099.863	45.797	 
715.0	1.0	0.0	7.48425	7.34039	-6.48056	13.74735	25.57459	1.25902	0.79427	150.30709	138.967	56.94603	0.31973	 	6.260098201E8	 	7.70422E-9	 	26867.986	46.3754	 
710.0	1.0	0.0	7.48602	7.33866	-6.50268	13.72932	25.52202	1.25523	0.79667	151.00326	139.45663	57.21841	0.31953	 	7.19369523E8	 	6.67044E-9	 	26632.965	47.0042	 
705.0	1.0	0.0	7.48779	7.33693	-6.52475	13.7113	25.46954	1.25142	0.79909	151.69789	139.94377	57.4903	0.31933	 	8.278280112E8	 	5.76703E-9	 	26391.693	48.2544	 
700.0	1.0	0.0	7.48956	7.3352	-6.54677	13.69328	25.41714	1.24759	0.80155	152.39096	140.42839	57.76167	0.31914	 	9.540143528E8	 	4.97865E-9	 	26119.661	54.4064	 
695.0	1.0	0.0	7.49132	7.33347	-6.56874	13.67526	25.3648	1.24374	0.80403	153.08241	140.91046	58.03252	0.31894	 	1.101047658E9	 	4.29164E-9	 	25851.156	53.701	 
690.0	1.0	0.0	7.49308	7.33175	-6.59067	13.65723	25.31252	1.23987	0.80654	153.77222	141.38995	58.30282	0.31874	 	1.272634392E9	 	3.69383E-9	 	25586.047	53.0218	 
685.0	1.0	0.0	7.49483	7.33003	-6.61254	13.63921	25.26027	1.23598	0.80907	154.46033	141.86684	58.57256	0.31854	 	1.473186198E9	 	3.17441E-9	 	25324.214	52.3666	 
680.0	1.0	0.0	7.49658	7.32832	-6.63436	13.62118	25.20805	1.23208	0.81163	155.14671	142.34109	58.84172	0.31834	 	1.707962793E9	 	2.72376E-9	 	25065.538	51.7352	 
675.0	1.0	0.0	7.49833	7.32661	-6.65614	13.60315	25.15584	1.22816	0.81422	155.83131	142.81268	59.11029	0.31814	 	1.983245589E9	 	2.33339E-9	 	24809.91	51.1256	 
670.0	1.0	0.0	7.50008	7.32491	-6.67787	13.58512	25.10363	1.22423	0.81684	156.5141	143.28158	59.37826	0.31794	 	2.306549014E9	 	1.99574E-9	 	24557.224	50.5372	 
665.0	1.0	0.0	7.50182	7.32321	-6.69954	13.5671	25.0514	1.22028	0.81949	157.19504	143.74776	59.6456	0.31774	 	2.6868782E9	 	1.70416E-9	 	24307.38	49.9688	 
660.0	1.0	0.0	7.50356	7.32151	-6.72117	13.54907	24.99914	1.21631	0.82216	157.87408	144.21118	59.91231	0.31754	 	3.135043786E9	 	1.45276E-9	 	24060.283	49.4194	 
655.0	1.0	0.0	7.5053	7.31981	-6.74275	13.53103	24.94682	1.21233	0.82486	158.55118	144.67184	60.17836	0.31734	 	3.664047212E9	 	1.23636E-9	 	23815.841	48.8884	 
650.0	1.0	0.0	7.50703	7.31812	-6.76428	13.513	24.89444	1.20834	0.82758	159.22631	145.12969	60.44374	0.31714	 	4.289553203E9	 	1.05038E-9	 	23573.969	48.3744	 
645.0	1.0	0.0	7.50876	7.31644	-6.78576	13.49497	24.84197	1.20433	0.83034	159.89943	145.5847	60.70844	0.31695	 	5.030470289E9	 	8.90824E-10	 	23334.585	47.8768	 
640.0	1.0	0.0	7.51049	7.31476	-6.8072	13.47694	24.7894	1.20031	0.83312	160.57049	146.03687	60.97243	0.31675	 	5.909665453E9	 	7.54164E-10	 	23097.609	47.3952	 
635.0	1.0	0.0	7.51221	7.31308	-6.82858	13.4589	24.73672	1.19628	0.83592	161.23945	146.48614	61.23571	0.31655	 	6.954845691E9	 	6.37319E-10	 	22862.968	46.9282	 
630.0	1.0	0.0	7.51393	7.3114	-6.84991	13.44087	24.6839	1.19224	0.83876	161.90628	146.93251	61.49826	0.31635	 	8.199647625E9	 	5.3759E-10	 	22630.591	46.4754	 
625.0	1.0	0.0	7.51565	7.30973	-6.8712	13.42283	24.63093	1.18819	0.84162	162.57094	147.37593	61.76006	0.31615	 	9.684987094E9	 	4.52623E-10	 	22400.41	46.0362	 
620.0	1.0	0.0	7.51736	7.30807	-6.89243	13.4048	24.57779	1.18413	0.8445	163.23338	147.8164	62.0211	0.31595	 	1.14607E10	 	3.80363E-10	 	22172.359	45.6102	 
615.0	1.0	0.0	7.51907	7.3064	-6.91362	13.38676	24.52447	1.18006	0.84741	163.89357	148.25387	62.28137	0.31575	 	1.3587799999999998E10	 	3.19024E-10	 	21946.377	45.1964	 
610.0	1.0	0.0	7.52078	7.30474	-6.93476	13.36872	24.47096	1.17598	0.85035	164.55146	148.68833	62.54084	0.31555	 	1.6140699999999998E10	 	2.67054E-10	 	21722.407	44.794	 
605.0	1.0	0.0	7.52248	7.30309	-6.95585	13.35068	24.41722	1.1719	0.85332	165.20703	149.11974	62.7995	0.31535	 	1.92109E10	 	2.23104E-10	 	21500.391	44.4032	 
600.0	1.0	0.0	7.52419	7.30144	-6.97689	13.33264	24.36326	1.16781	0.85631	165.86022	149.54809	63.05734	0.31515	 	2.29108E10	 	1.8601E-10	 	21280.276	44.023	 
595.0	1.0	0.0	7.52588	7.29979	-6.99788	13.3146	24.30906	1.16371	0.85932	166.511	149.97334	63.31434	0.31495	 	2.7378699999999996E10	 	1.54764E-10	 	21062.011	43.653	 
590.0	1.0	0.0	7.52758	7.29815	-7.01882	13.29656	24.2546	1.1596	0.86236	167.15933	150.39548	63.57049	0.31476	 	3.2785399999999996E10	 	1.28497E-10	 	20845.547	43.2928	 
585.0	1.0	0.0	7.52927	7.29651	-7.03971	13.27852	24.19987	1.15549	0.86543	167.80517	150.81447	63.82576	0.31456	 	3.93425E10	 	1.0646E-10	 	20630.837	42.942	 
580.0	1.0	0.0	7.53096	7.29487	-7.06055	13.26047	24.14486	1.15138	0.86852	168.44849	151.2303	64.08016	0.31436	 	4.731199999999999E10	 	8.80119E-11	 	20417.837	42.6	 
575.0	1.0	0.0	7.53265	7.29324	-7.08135	13.24243	24.08956	1.14726	0.87164	169.08924	151.64294	64.33365	0.31416	 	5.701959999999999E10	 	7.25997E-11	 	20206.503	42.2668	 
570.0	1.0	0.0	7.53433	7.29161	-7.10209	13.22438	24.03396	1.14313	0.87479	169.72739	152.05236	64.58623	0.31396	 	6.88715E10	 	5.9752E-11	 	19996.796	41.9414	 
565.0	1.0	0.0	7.53601	7.28998	-7.12279	13.20634	23.97805	1.13901	0.87796	170.36289	152.45854	64.83789	0.31376	 	8.33744E10	 	4.90654E-11	 	19788.676	41.624	 
560.0	1.0	0.0	7.53768	7.28836	-7.14344	13.18829	23.92182	1.13487	0.88116	170.99572	152.86146	65.08859	0.31356	 	1.01163E11	 	4.01964E-11	 	19582.105	41.3142	 
555.0	1.0	0.0	7.53935	7.28675	-7.16404	13.17024	23.86526	1.13073	0.88438	171.62583	153.26109	65.33834	0.31336	 	1.23034E11	 	3.28526E-11	 	19377.047	41.0116	 
550.0	1.0	0.0	7.54102	7.28513	-7.18458	13.15219	23.80838	1.12659	0.88763	172.25318	153.65741	65.58712	0.31316	 	1.4999E11	 	2.67857E-11	 	19173.469	40.7156	 
545.0	1.0	0.0	7.54269	7.28353	-7.20508	13.13415	23.75116	1.12245	0.89091	172.87774	154.0504	65.83491	0.31296	 	1.83295E11	 	2.17856E-11	 	18971.336	40.4266	 
540.0	1.0	0.0	7.54435	7.28192	-7.22553	13.1161	23.6936	1.1183	0.89422	173.49946	154.44003	66.08169	0.31277	 	2.24548E11	 	1.76745E-11	 	18770.618	40.1436	 
535.0	1.0	0.0	7.54601	7.28032	-7.24594	13.09804	23.63571	1.11414	0.89755	174.11832	154.82628	66.32746	0.31257	 	2.75778E11	 	1.43027E-11	 	18571.283	39.867	 
530.0	1.0	0.0	7.54767	7.27872	-7.26629	13.07999	23.57747	1.10999	0.90091	174.73427	155.20914	66.57219	0.31237	 	3.39563E11	 	1.15442E-11	 	18373.302	39.5962	 
525.0	1.0	0.0	7.54932	7.27713	-7.28659	13.06194	23.5189	1.10582	0.9043	175.34728	155.58857	66.81588	0.31217	 	4.19193E11	 	9.29303E-12	 	18176.648	39.3308	 
520.0	1.0	0.0	7.55097	7.27554	-7.30685	13.04389	23.45999	1.10165	0.90773	175.95731	155.96456	67.0585	0.31197	 	5.18872E11	 	7.46073E-12	 	17981.294	39.0708	 
515.0	1.0	0.0	7.55262	7.27395	-7.32705	13.02583	23.40075	1.09748	0.91118	176.56433	156.33708	67.30005	0.31177	 	6.43995E11	 	5.97328E-12	 	17787.212	38.8164	 
510.0	1.0	0.0	7.55426	7.27237	-7.34721	13.00778	23.34118	1.0933	0.91466	177.16829	156.70611	67.54051	0.31157	 	8.01499E11	 	4.76901E-12	 	17594.379	38.5666	 
505.0	1.0	0.0	7.5559	7.27079	-7.36731	12.98972	23.28128	1.08912	0.91818	177.76916	157.07164	67.77987	0.31137	 	1.00033E12	 	3.79669E-12	 	17402.769	38.322	 
500.0	1.0	0.0	7.55754	7.26922	-7.38737	12.97166	23.22107	1.08492	0.92172	178.36691	157.43363	68.0181	0.31117	 	1.25208E12	 	3.01384E-12	 	17212.361	38.0816	 
495.0	1.0	0.0	7.55917	7.26765	-7.40738	12.95361	23.16055	1.08072	0.92531	178.9615	157.79208	68.2552	0.31097	 	1.57176E12	 	2.38532E-12	 	17023.131	37.846	 
490.0	1.0	0.0	7.5608	7.26608	-7.42734	12.93555	23.09974	1.07652	0.92892	179.55289	158.14696	68.49116	0.31077	 	1.97895E12	 	1.88218E-12	 	16835.058	37.6146	 
485.0	1.0	0.0	7.56242	7.26452	-7.44725	12.91749	23.03863	1.0723	0.93258	180.14105	158.49825	68.72595	0.31058	 	2.49922E12	 	1.4806E-12	 	16648.121	37.3874	 
480.0	1.0	0.0	7.56405	7.26296	-7.46711	12.89943	22.97724	1.06807	0.93626	180.72594	158.84593	68.95957	0.31038	 	3.16606E12	 	1.16104E-12	 	16462.3	37.1642	 
475.0	1.0	0.0	7.56567	7.2614	-7.48692	12.88137	22.91559	1.06384	0.93999	181.30753	159.18998	69.192	0.31018	 	4.02353E12	 	9.07545E-13	 	16277.575	36.945	 
470.0	1.0	0.0	7.56728	7.25985	-7.50668	12.8633	22.85369	1.05959	0.94376	181.88579	159.53039	69.42323	0.30998	 	5.12974E12	 	7.07078E-13	 	16093.927	36.7296	 
465.0	1.0	0.0	7.5689	7.25831	-7.5264	12.84524	22.79154	1.05533	0.94757	182.46067	159.86713	69.65324	0.30978	 	6.56165E12	 	5.49058E-13	 	15911.339	36.5176	 
460.0	1.0	0.0	7.57051	7.25676	-7.54606	12.82718	22.72917	1.05106	0.95142	183.03215	160.20018	69.88202	0.30958	 	8.42149E12	 	4.24904E-13	 	15729.793	36.3092	 
455.0	1.0	0.0	7.57211	7.25522	-7.56567	12.80911	22.66659	1.04677	0.95532	183.60019	160.52953	70.10955	0.30938	 	1.08456E13	 	3.27683E-13	 	15549.272	36.1042	 
450.0	1.0	0.0	7.57372	7.25369	-7.58524	12.79105	22.60381	1.04247	0.95926	184.16475	160.85517	70.33583	0.30918	 	1.40164E13	 	2.51813E-13	 	15369.758	35.9028	 
445.0	1.0	0.0	7.57532	7.25216	-7.60476	12.77298	22.54085	1.03816	0.96325	184.72581	161.17706	70.56084	0.30898	 	1.81791E13	 	1.9281E-13	 	15191.237	35.7042	 
440.0	1.0	0.0	7.57691	7.25063	-7.62422	12.75491	22.47772	1.03382	0.96728	185.28334	161.4952	70.78457	0.30878	 	2.36641E13	 	1.47088E-13	 	15013.692	35.509	 
435.0	1.0	0.0	7.57851	7.2491	-7.64364	12.73684	22.41445	1.02947	0.97137	185.83729	161.80957	71.00699	0.30858	 	3.0919E13	 	1.11786E-13	 	14837.109	35.3166	 
430.0	1.0	0.0	7.5801	7.24758	-7.66301	12.71878	22.35104	1.0251	0.97551	186.38763	162.12015	71.22811	0.30839	 	4.05519E13	 	8.46297E-14	 	14661.473	35.1272	 
425.0	1.0	0.0	7.58168	7.24607	-7.68233	12.70071	22.28752	1.02072	0.9797	186.93434	162.42693	71.44791	0.30819	 	5.33932E13	 	6.3819E-14	 	14486.77	34.9406	 
420.0	1.0	0.0	7.58327	7.24455	-7.7016	12.68264	22.22389	1.01631	0.98395	187.47739	162.72989	71.66637	0.30799	 	7.05803E13	 	4.79325E-14	 	14312.986	34.7568	 
415.0	1.0	0.0	7.58484	7.24304	-7.72082	12.66456	22.16018	1.01188	0.98826	188.01673	163.02901	71.88349	0.30779	 	9.3679E13	 	3.58532E-14	 	14140.108	34.5756	 
410.0	1.0	0.0	7.58642	7.24154	-7.74	12.64649	22.09641	1.00742	0.99263	188.55235	163.32428	72.09924	0.30759	 	1.24854E14	 	2.67056E-14	 	13968.122	34.3972	 
405.0	1.0	0.0	7.58799	7.24004	-7.75912	12.62842	22.03258	1.00295	0.99706	189.0842	163.61569	72.31362	0.30739	 	1.67109E14	 	1.98067E-14	 	13797.016	34.2212	 
400.0	1.0	0.0	7.58956	7.23854	-7.77819	12.61034	21.96871	0.99845	1.00156	189.61227	163.90322	72.52662	0.30719	 	2.24636E14	 	1.46258E-14	 	13626.778	34.0476	 
395.0	1.0	0.0	7.59113	7.23705	-7.79722	12.59227	21.90483	0.99392	1.00612	190.13651	164.18686	72.73822	0.30699	 	3.03306E14	 	1.07518E-14	 	13457.396	33.8764	 
390.0	1.0	0.0	7.59269	7.23556	-7.81619	12.57419	21.84093	0.98937	1.01075	190.65691	164.4666	72.94841	0.30679	 	4.11386E14	 	7.86773E-15	 	13288.858	33.7076	 
385.0	1.0	0.0	7.59425	7.23407	-7.83512	12.55612	21.77705	0.98479	1.01545	191.17342	164.74241	73.15719	0.30659	 	5.6056899999999994E14	 	5.73037E-15	 	13121.152	33.5412	 
380.0	1.0	0.0	7.59581	7.23259	-7.854	12.53804	21.71319	0.98018	1.02022	191.68603	165.0143	73.36453	0.30639	 	7.67478E14	 	4.15369E-15	 	12954.268	33.3768	 
375.0	1.0	0.0	7.59736	7.23111	-7.87282	12.51996	21.64936	0.97555	1.02507	192.19471	165.28225	73.57042	0.3062	 	1.05586E15	 	2.99609E-15	 	12788.194	33.2148	 
370.0	1.0	0.0	7.59891	7.22964	-7.8916	12.50188	21.58558	0.97088	1.02999	192.69942	165.54624	73.77487	0.306	 	1.45984E15	 	2.15028E-15	 	12622.921	33.0546	 
365.0	1.0	0.0	7.60045	7.22817	-7.91033	12.4838	21.52186	0.96619	1.035	193.20015	165.80626	73.97785	0.3058	 	2.02864E15	 	1.53534E-15	 	12458.438	32.8966	 
360.0	1.0	0.0	7.602	7.2267	-7.92901	12.46572	21.45821	0.96146	1.04009	193.69686	166.06232	74.17935	0.3056	 	2.83376E15	 	1.09051E-15	 	12294.735	32.7406	 
355.0	1.0	0.0	7.60353	7.22524	-7.94764	12.44764	21.39464	0.9567	1.04526	194.18952	166.31438	74.37937	0.3054	 	3.97953E15	 	7.70403E-16	 	12131.802	32.5866	 
350.0	1.0	0.0	7.60507	7.22378	-7.96622	12.42956	21.33116	0.95191	1.05052	194.67813	166.56246	74.57789	0.3052	 	5.61911E15	 	5.41268E-16	 	11969.63	32.4344	 
345.0	1.0	0.0	7.6066	7.22233	-7.98476	12.41147	21.26778	0.94709	1.05587	195.16264	166.80653	74.7749	0.305	 	7.9786E15	 	3.78141E-16	 	11808.209	32.2842	 
340.0	1.0	0.0	7.60813	7.22088	-8.00324	12.39339	21.20451	0.94223	1.06131	195.64304	167.04659	74.9704	0.3048	 	1.13938E16	 	2.62654E-16	 	11647.53	32.1358	 
335.0	1.0	0.0	7.60965	7.21943	-8.02167	12.3753	21.14136	0.93734	1.06685	196.1193	167.28263	75.16437	0.3046	 	1.63665E16	 	1.8136E-16	 	11487.585	31.989	 
330.0	1.0	0.0	7.61118	7.21799	-8.04006	12.35722	21.07833	0.93241	1.07249	196.5914	167.51465	75.35681	0.3044	 	2.36511E16	 	1.24469E-16	 	11328.365	31.844	 
325.0	1.0	0.0	7.61269	7.21655	-8.05839	12.33913	21.01543	0.92745	1.07823	197.05932	167.74264	75.5477	0.3042	 	3.4388900000000004E16	 	8.48942E-17	 	11169.861	31.7008	 
320.0	1.0	0.0	7.61421	7.21511	-8.07668	12.32104	20.95266	0.92245	1.08407	197.52304	167.96659	75.73703	0.30401	 	5.03185E16	 	5.75339E-17	 	11012.065	31.5592	 
315.0	1.0	0.0	7.61572	7.21368	-8.09491	12.30296	20.89003	0.91742	1.09002	197.98253	168.18649	75.92481	0.30381	 	7.41049E16	 	3.87372E-17	 	10854.969	31.4192	 
310.0	1.0	0.0	7.61723	7.21225	-8.1131	12.28487	20.82755	0.91235	1.09607	198.43778	168.40236	76.11102	0.30361	 	1.09862E17	 	2.59071E-17	 	10698.566	31.2806	 
305.0	1.0	0.0	7.61873	7.21083	-8.13124	12.26678	20.76521	0.90724	1.10224	198.88877	168.61417	76.29565	0.30341	 	1.63987E17	 	1.72075E-17	 	10542.847	31.1438	 
300.0	1.0	0.0	7.62023	7.20941	-8.14933	12.24868	20.70302	0.9021	1.10853	199.33548	168.82193	76.47869	0.30321	 	2.46493E17	 	1.13488E-17	 	10387.805	31.0084	 
295.0	1.0	0.0	7.62173	7.208	-8.16737	12.23059	20.64098	0.89691	1.11494	199.7779	169.02563	76.66014	0.30301	 	3.73177E17	 	7.43079E-18	 	10233.433	30.8744	 
290.0	1.0	0.0	7.62322	7.20658	-8.18536	12.2125	20.57909	0.89169	1.12146	200.216	169.22528	76.83999	0.30281	 	5.69145E17	 	4.82934E-18	 	10079.723	30.742	 
285.0	1.0	0.0	7.62471	7.20518	-8.2033	12.19441	20.51736	0.88644	1.12811	200.64978	169.42088	77.01824	0.30261	 	8.74614E17	 	3.11474E-18	 	9926.669	30.6108	 
280.0	1.0	0.0	7.6262	7.20377	-8.22119	12.17631	20.45577	0.88114	1.13489	201.07922	169.61242	77.19487	0.30241	 	1.35451E18	 	1.99318E-18	 	9774.264	30.481	 
275.0	1.0	0.0	7.62768	7.20237	-8.23903	12.15822	20.39434	0.87581	1.14181	201.50431	169.7999	77.36989	0.30221	 	2.11453E18	 	1.26524E-18	 	9622.502	30.3524	 
270.0	1.0	0.0	7.62916	7.20097	-8.25683	12.14012	20.33306	0.87043	1.14886	201.92503	169.98334	77.54329	0.30201	 	3.32818E18	 	7.96525E-19	 	9471.375	30.2254	 
265.0	1.0	0.0	7.63063	7.19958	-8.27457	12.12202	20.27193	0.86502	1.15604	202.34138	170.16273	77.71506	0.30182	 	5.28276E18	 	4.97198E-19	 	9320.878	30.0994	 
260.0	1.0	0.0	7.63211	7.19819	-8.29226	12.10393	20.21095	0.85957	1.16337	202.75334	170.33808	77.88519	0.30162	 	8.45821E18	 	3.07651E-19	 	9171.005	29.9746	 
255.0	1.0	0.0	7.63358	7.19681	-8.30991	12.08583	20.15011	0.85408	1.17085	203.16092	170.50939	78.0537	0.30142	 	1.36636E19	 	1.88659E-19	 	9021.749	29.8512	 
250.0	1.0	0.0	7.63504	7.19543	-8.32751	12.06773	20.08941	0.84855	1.17848	203.56409	170.67667	78.22056	0.30122	 	2.22759E19	 	1.14625E-19	 	8873.105	29.7288	 
245.0	1.0	0.0	7.6365	7.19405	-8.34505	12.04963	20.02886	0.84298	1.18627	203.96287	170.83993	78.38578	0.30102	 	3.66607E19	 	6.89829E-20	 	8725.067	29.6076	 
240.0	1.0	0.0	7.63796	7.19268	-8.36255	12.03153	19.96844	0.83737	1.19421	204.35724	170.99918	78.54936	0.30082	 	6.09232E19	 	4.11101E-20	 	8577.63	29.4874	 
235.0	1.0	0.0	7.63942	7.19131	-8.38	12.01342	19.90816	0.83172	1.20232	204.7472	171.15442	78.7113	0.30062	 	1.0226E20	 	2.42534E-20	 	8430.789	29.3682	 
230.0	1.0	0.0	7.64087	7.18994	-8.39739	11.99532	19.84801	0.82603	1.2106	205.13276	171.30568	78.87159	0.30042	 	1.7342E20	 	1.41607E-20	 	8284.538	29.2502	 
225.0	1.0	0.0	7.64231	7.18858	-8.41474	11.97722	19.78798	0.82031	1.21906	205.51392	171.45296	79.03024	0.30022	 	2.9723299999999997E20	 	8.17993E-21	 	8138.873	29.133	 
220.0	1.0	0.0	7.64376	7.18722	-8.43204	11.95911	19.72808	0.81454	1.22769	205.89067	171.59628	79.18725	0.30002	 	5.1503999999999993E20	 	4.67331E-21	 	7993.789	29.0168	 
215.0	1.0	0.0	7.6452	7.18587	-8.44929	11.94101	19.66829	0.80873	1.2365	206.26303	171.73566	79.34261	0.29983	 	9.02557E20	 	2.63977E-21	 	7849.281	28.9016	 
210.0	1.0	0.0	7.64663	7.18452	-8.46649	11.9229	19.60862	0.80288	1.24551	206.631	171.87111	79.49633	0.29963	 	1.60012E21	 	1.47373E-21	 	7705.346	28.787	 
205.0	1.0	0.0	7.64807	7.18317	-8.48365	11.90479	19.54906	0.797	1.25471	206.99459	172.00265	79.64841	0.29943	 	2.87097E21	 	8.12872E-22	 	7561.978	28.6736	 
200.0	1.0	0.0	7.6495	7.18183	-8.50075	11.88668	19.4896	0.79107	1.26411	207.35381	172.13031	79.79886	0.29923	 	5.21521E21	 	4.42806E-22	 	7419.174	28.5608	 
195.0	1.0	0.0	7.65092	7.18049	-8.5178	11.86858	19.43024	0.7851	1.27372	207.70869	172.2541	79.94769	0.29903	 	9.59517E21	 	2.38133E-22	 	7276.93	28.4488	 
190.0	1.0	0.0	7.65235	7.17916	-8.53481	11.85047	19.37099	0.77909	1.28355	208.05923	172.37407	80.09488	0.29883	 	1.78875E22	 	1.26374E-22	 	7135.243	28.3374	 
185.0	1.0	0.0	7.65376	7.17782	-8.55176	11.83235	19.31182	0.77304	1.29359	208.40546	172.49022	80.24047	0.29863	 	3.3802799999999996E22	 	6.61519E-23	 	6994.109	28.2268	 
180.0	1.0	0.0	7.65518	7.1765	-8.56866	11.81424	19.25275	0.76695	1.30387	208.7474	172.6026	80.38444	0.29843	 	6.478189999999999E22	 	3.41409E-23	 	6853.524	28.117	 
175.0	1.0	0.0	7.65659	7.17517	-8.58552	11.79613	19.19375	0.76082	1.31437	209.08507	172.71123	80.52682	0.29823	 	1.25968E23	 	1.73641E-23	 	6713.486	28.0076	 
170.0	1.0	0.0	7.658	7.17386	-8.60233	11.77802	19.13484	0.75465	1.32512	209.41851	172.81615	80.66761	0.29803	 	2.4864599999999998E23	 	8.69875E-24	 	6573.993	27.8986	 
165.0	1.0	0.0	7.6594	7.17254	-8.61908	11.7599	19.07601	0.74843	1.33612	209.74774	172.9174	80.80682	0.29783	 	4.98475E23	 	4.29009E-24	 	6435.04	27.7906	 
160.0	1.0	0.0	7.6608	7.17123	-8.63579	11.74179	19.01724	0.74218	1.34738	210.0728	173.01502	80.94447	0.29764	 	1.0155000000000001E24	 	2.08183E-24	 	6296.627	27.6826	 
155.0	1.0	0.0	7.6622	7.16992	-8.65245	11.72367	18.95855	0.73588	1.35891	210.39374	173.10905	81.08057	0.29744	 	2.10345E24	 	9.93458E-25	 	6158.751	27.5752	 
150.0	1.0	0.0	7.66359	7.16862	-8.66906	11.70556	18.89992	0.72955	1.37072	210.71058	173.19953	81.21514	0.29724	 	4.43262E24	 	4.6593E-25	 	6021.41	27.4682	 
145.0	1.0	0.0	7.66498	7.16732	-8.68562	11.68744	18.84135	0.72317	1.38281	211.02339	173.28652	81.34819	0.29704	 	9.5089E24	 	2.14629E-25	 	5884.603	27.3614	 
140.0	1.0	0.0	7.66637	7.16602	-8.70213	11.66932	18.78284	0.71674	1.3952	211.33221	173.37007	81.47974	0.29684	 	2.07789E25	 	9.70446E-26	 	5748.329	27.2548	 
135.0	1.0	0.0	7.66775	7.16473	-8.71859	11.6512	18.72439	0.71028	1.40789	211.6371	173.45023	81.60982	0.29664	 	4.62843E25	 	4.30401E-26	 	5612.585	27.1488	 
130.0	1.0	0.0	7.66913	7.16344	-8.735	11.63308	18.66598	0.70377	1.42091	211.93813	173.52707	81.73845	0.29644	 	1.05165E26	 	1.87104E-26	 	5477.372	27.0426	 
125.0	1.0	0.0	7.67051	7.16216	-8.75136	11.61496	18.60763	0.69723	1.43426	212.23535	173.60065	81.86565	0.29624	 	2.4392800000000004E26	 	7.96658E-27	 	5342.689	26.9366	 
120.0	1.0	0.0	7.67188	7.16088	-8.76767	11.59684	18.54932	0.69063	1.44794	212.52884	173.67104	81.99145	0.29604	 	5.7802400000000006E26	 	3.3197E-27	 	5208.536	26.8306	 
115.0	1.0	0.0	7.67325	7.1596	-8.78393	11.57872	18.49105	0.684	1.46199	212.81868	173.73832	82.11588	0.29584	 	1.4005E27	 	1.35271E-27	 	5074.913	26.7246	 
110.0	1.0	0.0	7.67461	7.15833	-8.80015	11.56059	18.43282	0.67732	1.4764	213.10495	173.80255	82.23897	0.29564	 	3.47257E27	 	5.38523E-28	 	4941.821	26.6184	 
105.0	1.0	0.0	7.67597	7.15706	-8.81631	11.54247	18.37463	0.6706	1.4912	213.38776	173.86383	82.36076	0.29545	 	8.81958E27	 	2.09268E-28	 	4809.261	26.512	 
100.0	1.0	0.0	7.67733	7.15579	-8.83243	11.52434	18.31648	0.66383	1.5064	213.66718	173.92224	82.48129	0.29525	 	2.29664E28	 	7.93007E-29	 	4677.234	26.4054	 
95.0	1.0	0.0	7.67868	7.15453	-8.84849	11.50622	18.25835	0.65702	1.52202	213.94334	173.97788	82.60059	0.29505	 	6.138020000000001E28	 	2.92741E-29	 	4545.741	26.2986	 
90.0	1.0	0.0	7.68003	7.15328	-8.86451	11.48809	18.20026	0.65017	1.53806	214.21635	174.03085	82.7187	0.29485	 	1.6854700000000003E29	 	1.05161E-29	 	4414.785	26.1912	 
85.0	1.0	0.0	7.68137	7.15202	-8.88047	11.46996	18.1422	0.64327	1.55456	214.48633	174.08127	82.83569	0.29465	 	4.76059E29	 	3.6719E-30	 	4284.369	26.0832	 
80.0	1.0	0.0	7.68272	7.15077	-8.89639	11.45183	18.08417	0.63632	1.57153	214.75341	174.12923	82.9516	0.29445	 	1.3847499999999998E30	 	1.24473E-30	 	4154.495	25.9748	 
75.0	1.0	0.0	7.68406	7.14953	-8.91226	11.43371	18.02616	0.62933	1.58898	215.01775	174.17488	83.06647	0.29425	 	4.15335E30	 	4.09123E-31	 	4025.168	25.8654	 
70.0	1.0	0.0	7.68539	7.14829	-8.92807	11.41557	17.96817	0.6223	1.60695	215.27949	174.21834	83.18038	0.29405	 	1.28626E31	 	1.30209E-31	 	3896.391	25.7554	 
65.0	1.0	0.0	7.68672	7.14705	-8.94384	11.39744	17.91021	0.61521	1.62545	215.5388	174.25975	83.29339	0.29385	 	4.11886E31	 	4.00699E-32	 	3768.169	25.6444	 
60.0	1.0	0.0	7.68805	7.14582	-8.95956	11.37931	17.85226	0.60808	1.64451	215.79586	174.29926	83.40556	0.29365	 	1.3658299999999999E32	 	1.1905E-32	 	3640.507	25.5324	 
55.0	1.0	0.0	7.68937	7.14459	-8.97523	11.36118	17.79434	0.60091	1.66415	216.05086	174.33704	83.51697	0.29345	 	4.6976799999999995E32	 	3.40938E-33	 	3513.412	25.419	 
50.0	1.0	0.0	7.69069	7.14336	-8.99085	11.34305	17.73643	0.59368	1.6844	216.30401	174.37326	83.6277	0.29326	 	1.67869E33	 	9.39551E-34	 	3386.891	25.3042	 
45.0	1.0	0.0	7.69201	7.14214	-9.00642	11.32491	17.67855	0.58641	1.70528	216.55554	174.40809	83.73784	0.29306	 	6.2437E33	 	2.487E-34	 	3260.95	25.1882	 
40.0	1.0	0.0	7.69332	7.14092	-9.02194	11.30678	17.62068	0.57909	1.72684	216.80568	174.44175	83.84747	0.29286	 	2.4217600000000003E34	 	6.31114E-35	 	3135.598	25.0704	 
35.0	1.0	0.0	7.69463	7.1397	-9.03741	11.28864	17.56282	0.57172	1.7491	217.0547	174.47443	83.9567	0.29266	 	9.81576E34	 	1.53223E-35	 	3010.845	24.9506	 
30.0	1.0	0.0	7.69593	7.13849	-9.05284	11.27051	17.50498	0.5643	1.77209	217.30287	174.50637	84.06564	0.29246	 	4.16645E35	 	3.55122E-36	 	2886.7	24.829	 
25.0	1.0	0.0	7.69723	7.13729	-9.06821	 	17.44715	0.55684	1.79586	217.55049	174.53781	84.1744	0.29226	 	1.85638E36	 	7.8389E-37	 	2763.175	 	 
