T (C)	Fraction solid (wt)-TOTAL	Fraction liquid (wt)-LIQUID	Density (g/(cm)^3)-TOTAL	Molar volume (cm^3)-TOTAL	Volume change (%)-  	Average expansion coeff. (10e-6 1/K)-  	Thermal conductivity (W/(m*K))-TOTAL	Electrical resistivity (10e-6 Ohm*m)-TOTAL	Electrical conductivity (10e6 1/(Ohm*m))-TOTAL	Young's modulus (GPa)-TOTAL	Bulk modulus (GPa)-TOTAL	Shear modulus(GPa)-TOTAL	Poisson's ratio-TOTAL	Liquid viscosity (mPa s)-  	Total viscosity (mPa s)-  	Liquid diffusivity (10e-9 (m^2)/s)-  	Total diffusivity (10e-9 (m^2)/s)-  	Surface Tension (mN/m)-  	Enthalpy (J/mole)-TOTAL	Specific heat (J/(mole K))-TOTAL	Latent heat (J/mole)-TOTAL
1500.0	0.0	1.0	7.09815	7.88746	0.0	28.70907	30.32491	1.9053	0.52485	0.0	110.27472	0.0	0.49674	6.90192	6.90192	1.2539	1.2539	1800.96833	64163.97	 	0.0
1495.0	0.0	1.0	7.10205	7.88313	-0.0549124	28.66638	30.24915	1.90469	0.52502	0.0	110.45733	0.0	0.49674	6.96388	6.96388	1.23924	1.23924	1802.88434	63945.759	43.6422	0.0
1490.0	0.0	1.0	7.10594	7.87881	-0.10967	28.62379	30.17338	1.90407	0.52519	0.0	110.63994	0.0	0.49674	7.02675	7.02675	1.22468	1.22468	1804.7984	63727.992	43.5534	0.0
1485.0	0.0	1.0	7.10983	7.87451	-0.16428	28.58131	30.09762	1.90345	0.52536	0.0	110.82255	0.0	0.49674	7.09055	7.09055	1.21022	1.21022	1806.7105	63510.666	43.4652	0.0
1480.0	0.0	1.0	7.11371	7.87021	-0.21873	28.53892	30.02186	1.90283	0.52553	0.0	111.00517	0.0	0.49674	7.1553	7.1553	1.19585	1.19585	1808.62062	63293.778	43.3776	0.0
1475.0	0.0	1.0	7.11758	7.86593	-0.27304	28.49664	29.9461	1.9022	0.52571	0.0	111.18778	0.0	0.49674	7.22102	7.22102	1.18159	1.18159	1810.52872	63077.326	43.2904	0.0
1470.0	0.0	1.0	7.12145	7.86166	-0.32719	28.45446	29.87033	1.90157	0.52588	0.0	111.37039	0.0	0.49674	7.28772	7.28772	1.16743	1.16743	1812.4348	62861.307	43.2038	0.0
1465.0	0.0	1.0	7.12531	7.8574	-0.38118	28.41239	29.79457	1.90094	0.52606	0.0	111.553	0.0	0.49674	7.35543	7.35543	1.15336	1.15336	1814.33881	62645.719	43.1176	0.0
1460.0	0.0	1.0	7.12916	7.85315	-0.43503	28.37043	29.71881	1.9003	0.52623	0.0	111.73561	0.0	0.49674	7.42417	7.42417	1.1394	1.1394	1816.24073	62430.558	43.0322	0.0
1455.0	0.0	1.0	7.13301	7.84892	-0.48872	28.32857	29.64304	1.89966	0.52641	0.0	111.91822	0.0	0.49674	7.49395	7.49395	1.12553	1.12553	1818.14053	62215.822	42.9472	0.0
1450.0	0.0	1.0	7.13685	7.84469	-0.54226	28.28681	29.56728	1.89902	0.52659	0.0	112.10083	0.0	0.49674	7.56479	7.56479	1.11176	1.11176	1820.03819	62001.555	42.8534	0.0
1445.0	0.0	1.0	7.14068	7.84048	-0.59565	28.24517	29.49152	1.89837	0.52677	0.0	112.28344	0.0	0.49674	7.63673	7.63673	1.0981	1.0981	1821.93368	61787.832	42.7446	0.0
1440.0	0.0	1.0	7.14451	7.83628	-0.64888	28.20364	29.41576	1.89772	0.52695	0.0	112.46605	0.0	0.49674	7.70977	7.70977	1.08453	1.08453	1823.82697	61574.641	42.6382	0.0
1435.0	0.0	1.0	7.14833	7.8321	-0.70197	28.16222	29.33999	1.89707	0.52713	0.0	112.64866	0.0	0.49674	7.78395	7.78395	1.07106	1.07106	1825.71803	61361.978	42.5326	0.0
1430.0	0.0	1.0	7.15214	7.82792	-0.7549	28.12092	29.26423	1.89642	0.52731	0.0	112.83127	0.0	0.49674	7.85928	7.85928	1.05769	1.05769	1827.60682	61149.841	42.4274	0.0
1425.0	0.0	1.0	7.15595	7.82376	-0.80767	28.07973	29.18847	1.89576	0.52749	0.0	113.01388	0.0	0.49674	7.93579	7.93579	1.04441	1.04441	1829.49333	60938.226	42.323	0.0
1420.0	0.0	1.0	7.15974	7.81961	-0.8603	28.03865	29.1127	1.89509	0.52768	0.0	113.19649	0.0	0.49674	8.01351	8.01351	1.03124	1.03124	1831.37751	60727.13	42.2192	0.0
1415.0	0.0	1.0	7.16354	7.81547	-0.91277	27.99769	29.03694	1.89443	0.52786	0.0	113.3791	0.0	0.49674	8.09245	8.09245	1.01816	1.01816	1833.25933	60516.548	42.1164	0.0
1410.0	0.0	1.0	7.16732	7.81134	-0.96509	27.95685	28.96118	1.89376	0.52805	0.0	113.56171	0.0	0.49674	8.17265	8.17265	1.00519	1.00519	1835.13877	60306.478	42.014	0.0
1405.0	0.0	1.0	7.1711	7.80723	-1.01726	27.91612	28.88541	1.89308	0.52824	0.0	113.74432	0.0	0.49674	8.25412	8.25412	0.99231	0.99231	1837.01579	60096.915	41.9126	0.0
1403.17	0.0	1.0	7.17248	7.80572	-1.03632	27.90124	28.85767	1.89284	0.52831	0.0	113.81119	0.0	0.49674	8.28428	8.28428	0.98762	0.98762	1837.70244	60020.326	41.8355	0.0
1400.0	0.10755	0.89245	7.19008	7.78651	-1.27996	27.29988	29.03719	1.87758	0.5326	0.0112333	113.30117	0.00378969	0.48209	8.34393	11.3979	0.9787	0.71647	1837.69699	58630.15	438.641	1257.702
1395.0	0.24923	0.75077	7.21366	7.76107	-1.6024	26.51532	29.27219	1.85694	0.53852	0.32951	112.67137	0.11265	0.4626	8.43934	65.89815	0.96475	0.12355	1837.7255	56769.699	372.09	2909.595
1390.0	0.36119	0.63881	7.23287	7.74045	-1.86389	25.89275	29.45291	1.84001	0.54347	1.47489	112.23069	0.50963	0.44703	8.53604	266.14029	0.95096	0.0305005	1837.7874	55259.834	301.973	4211.396
1385.0	0.45114	0.54886	7.24885	7.72338	-2.08028	25.39021	29.59234	1.82584	0.54769	3.63547	111.93285	1.26726	0.43438	8.63403	664.80825	0.93734	0.0121735	1837.87811	54009.654	250.036	5254.009
1380.0	0.52444	0.47556	7.26243	7.7089	-2.26385	24.97494	29.69918	1.81378	0.55133	6.71352	111.74353	2.35731	0.42398	8.73284	1270.74128	0.92394	0.00634953	1837.9947	52955.607	210.809	6100.979
1375.0	0.58492	0.41508	7.27408	7.69647	-2.42149	24.62876	29.77987	1.8034	0.55451	10.49316	111.63839	3.70701	0.41531	8.83331	2070.54902	0.91067	0.00388506	1838.1326	52052.19	180.683	6797.809
1370.0	0.63539	0.36461	7.28431	7.68561	-2.5591	24.33596	29.83942	1.79434	0.55731	14.74384	111.60061	5.23569	0.40801	8.93466	3043.55938	0.89761	0.00263501	1838.28843	51266.107	157.217	7377.788
1365.0	0.67791	0.32209	7.29339	7.67595	-2.68164	24.08322	29.88141	1.78637	0.5598	19.26804	111.61534	6.87262	0.4018	9.03722	4169.99394	0.88472	0.00191737	1838.46084	50572.682	138.685	7865.592
1360.0	0.71409	0.28591	7.30154	7.66731	-2.79114	23.86527	29.90898	1.77927	0.56203	23.90592	111.67386	8.55945	0.39646	9.14108	5432.84491	0.872	0.00146719	1838.64491	49953.318	123.873	8279.813
1355.0	0.7451	0.2549	7.30897	7.65941	-2.89128	23.67214	29.92435	1.77291	0.56404	28.54728	111.76641	10.25523	0.39184	9.24625	6820.89727	0.85944	0.00116504	1838.84095	49393.807	111.902	8634.657
1350.0	0.77189	0.22811	7.31581	7.65218	-2.98305	23.50127	29.92955	1.76716	0.56588	33.10947	111.88819	11.92871	0.38781	9.3527	8326.18459	0.84705	9.51479E-4	1839.0445	48883.159	102.13	8941.112
1345.0	0.7952	0.2048	7.32216	7.64543	-3.06861	23.34677	29.926	1.76193	0.56756	37.54015	112.03314	13.55968	0.38426	9.46053	9944.85605	0.83481	7.94158E-4	1839.25613	48412.773	94.0772	9207.775
1340.25	0.8164	0.1836	7.3283	7.63886	-3.15189	23.19323	29.92088	1.75705	0.56913	41.9725	112.17927	15.19633	0.38101	9.5642	11686.4301	0.82334	6.73824E-4	1839.46001	47979.44	 	9447.98
1340.0	0.81769	0.18231	7.32866	7.63846	-3.15691	23.18328	29.92251	1.75669	0.56925	42.19966	112.18253	15.28077	0.38081	9.56871	11792.43008	0.82283	6.67664E-4	1839.44561	47955.163	91.522	9462.13
1335.0	0.84239	0.15761	7.33596	7.63062	-3.25641	22.98644	29.95026	1.74962	0.57155	46.81874	112.266	17.00043	0.37699	9.65713	14041.4488	0.81277	5.58987E-4	1839.17594	47481.073	94.818	9733.429
1330.0	0.86395	0.13605	7.3429	7.62316	-3.35095	22.80235	29.96432	1.74336	0.5736	51.2771	112.38683	18.66498	0.37362	9.74693	16444.5422	0.80277	4.75816E-4	1838.91842	47040.187	88.1772	9971.988
1325.0	0.88293	0.11707	7.34957	7.61598	-3.44199	22.62695	29.9671	1.73776	0.57545	55.58986	112.53714	20.27911	0.37062	9.8379	19011.22219	0.79287	4.10293E-4	1838.67135	46626.546	82.7282	10183.76
1320.0	0.89975	0.10025	7.35603	7.60906	-3.52974	22.45975	29.96047	1.73271	0.57713	59.7662	112.71176	21.84545	0.36793	9.93074	21750.34111	0.783	3.57501E-4	1838.42696	46235.967	78.1158	10372.925
1315.0	0.9148	0.085201	7.36236	7.60227	-3.61578	22.29624	29.94591	1.72811	0.57867	63.84686	112.90537	23.37859	0.3655	10.02469	24679.12183	0.77323	3.14086E-4	1838.18935	45864.468	74.2998	10543.464
1310.0	0.92836	0.0716423	7.36859	7.5956	-3.7003	22.13589	29.92472	1.72389	0.58008	67.87386	113.11481	24.89359	0.36328	10.12023	27814.67451	0.76352	2.77802E-4	1837.95258	45509.113	71.071	10698.31
1309.62	0.92929	0.0707068	7.36904	7.59511	-3.70657	22.12406	29.92276	1.72359	0.58018	68.1671	113.13131	25.00399	0.36312	10.12736	28056.30415	0.7628	2.75343E-4	1837.93529	45483.15	 	10709.162
1305.0	0.94437	0.0556257	7.37628	7.58735	-3.80498	21.91513	29.91234	1.71916	0.58168	73.08025	113.31492	26.85426	0.36068	10.23769	31644.33831	0.75237	2.4341E-4	1838.49345	45117.639	78.2948	10889.724
1300.0	0.95898	0.0410244	7.38377	7.57929	-3.90707	21.70026	29.89292	1.71482	0.58315	78.7718	113.52946	28.99679	0.35828	10.35889	35775.23783	0.74121	2.14622E-4	1839.09617	44741.761	75.1756	11065.987
1295.0	0.97208	0.0279178	7.39097	7.57154	-4.00536	21.49493	29.86664	1.71088	0.5845	85.28808	113.75776	31.44605	0.3561	10.48239	40191.01115	0.73015	1.90434E-4	1839.69072	44382.899	71.7724	11225.677
1290.0	0.98397	0.0160316	7.39797	7.564	-4.10098	21.29593	29.83502	1.70723	0.58574	92.72877	113.9967	34.24021	0.35409	10.60825	44925.99598	0.71919	1.6982E-4	1840.27818	44038.085	68.9628	11371.759
1286.84	0.99089	0.00910867	7.40229	7.55934	-4.16012	21.17314	29.8126	1.70506	0.58649	97.19135	114.15261	35.91946	0.35291	10.68956	48088.85248	0.71228	1.58331E-4	1840.64198	43826.734	 	11457.84
1286.84	0.99089	0.00910867	7.40229	7.55934	-4.16012	21.17314	29.8126	1.70506	0.58649	97.19135	114.15261	35.91946	0.35291	10.68956	48088.85878	0.71228	1.58331E-4	1840.64198	43826.734	 	11457.84
1285.0	0.99332	0.00667506	7.40423	7.55731	-4.18579	21.12756	29.79306	1.70417	0.5868	98.67042	114.25722	36.47813	0.35246	10.71634	49730.13393	0.70966	1.52924E-4	1840.36454	43711.115	65.394	11500.435
1280.0	1.0	0.0	7.40967	7.55163	-4.25775	20.99634	29.73982	1.70174	0.58763	102.23922	114.53903	37.83189	0.35123	 	54491.65077	 	1.39114E-4	 	43399.74	62.275	11613.951
1275.0	1.0	0.0	7.41231	7.54895	-4.29184	20.97787	29.67119	1.70018	0.58817	102.65149	114.84407	37.99015	0.35103	 	58224.47959	 	1.29776E-4	 	43124.037	55.1406	 
1270.0	1.0	0.0	7.41494	7.54626	-4.32587	20.95942	29.60255	1.69862	0.58871	103.06344	115.14791	38.14834	0.35082	 	62239.78261	 	1.21012E-4	 	42935.337	37.74	 
1265.0	1.0	0.0	7.41758	7.54358	-4.35985	20.94099	29.53392	1.69705	0.58926	103.47506	115.45058	38.30647	0.35062	 	66560.89314	 	1.12789E-4	 	42746.948	37.6778	 
1260.0	1.0	0.0	7.42021	7.54091	-4.39377	20.92257	29.46529	1.69548	0.5898	103.88637	115.75206	38.46452	0.35042	 	71213.22963	 	1.05078E-4	 	42558.858	37.618	 
1255.0	1.0	0.0	7.42284	7.53823	-4.42764	20.90418	29.39666	1.69389	0.59036	104.29735	116.05236	38.62249	0.35022	 	76224.49582	 	9.78494E-5	 	42371.066	37.5584	 
1250.0	1.0	0.0	7.42547	7.53557	-4.46145	20.88581	29.32803	1.6923	0.59091	104.708	116.35149	38.7804	0.35001	 	81624.90142	 	9.10766E-5	 	42183.568	37.4996	 
1245.0	1.0	0.0	7.42809	7.53291	-4.49521	20.86746	29.25939	1.6907	0.59147	105.11833	116.64945	38.93823	0.34981	 	87447.40555	 	8.47334E-5	 	41996.364	37.4408	 
1240.0	1.0	0.0	7.43071	7.53025	-4.52891	20.84913	29.19076	1.6891	0.59203	105.52834	116.94625	39.09599	0.34961	 	93727.98545	 	7.87951E-5	 	41809.449	37.383	 
1235.0	1.0	0.0	7.43333	7.52759	-4.56256	20.83082	29.12213	1.68748	0.5926	105.93802	117.24188	39.25368	0.3494	 	100505.9332	 	7.32385E-5	 	41622.823	37.3252	 
1230.0	1.0	0.0	7.43595	7.52494	-4.59615	20.81252	29.05349	1.68586	0.59317	106.34737	117.53635	39.41129	0.3492	 	107824.1837	 	6.80413E-5	 	41436.483	37.268	 
1225.0	1.0	0.0	7.43856	7.5223	-4.62969	20.79425	28.98486	1.68423	0.59374	106.75639	117.82967	39.56883	0.349	 	115729.6769	 	6.31826E-5	 	41250.43	37.2106	 
1220.0	1.0	0.0	7.44118	7.51966	-4.66317	20.776	28.91622	1.6826	0.59432	107.16508	118.12184	39.72629	0.34879	 	124273.7592	 	5.86423E-5	 	41064.663	37.1534	 
1215.0	1.0	0.0	7.44379	7.51702	-4.6966	20.75776	28.84759	1.68095	0.5949	107.57345	118.41286	39.88368	0.34859	 	133512.6272	 	5.44015E-5	 	40879.182	37.0962	 
1210.0	1.0	0.0	7.44639	7.51439	-4.72997	20.73955	28.77895	1.6793	0.59549	107.98148	118.70274	40.04099	0.34839	 	143507.8191	 	5.04425E-5	 	40693.986	37.0392	 
1205.0	1.0	0.0	7.449	7.51176	-4.76328	20.72136	28.71031	1.67764	0.59608	108.38918	118.99148	40.19823	0.34818	 	154326.7597	 	4.67481E-5	 	40509.075	36.9822	 
1200.0	1.0	0.0	7.4516	7.50914	-4.79655	20.70318	28.64168	1.67597	0.59667	108.79655	119.27909	40.35539	0.34798	 	166043.3642	 	4.33024E-5	 	40324.448	36.9254	 
1195.0	1.0	0.0	7.4542	7.50652	-4.82976	20.68503	28.57304	1.67429	0.59727	109.20359	119.56556	40.51248	0.34778	 	178738.7089	 	4.00902E-5	 	40140.104	36.8688	 
1190.0	1.0	0.0	7.4568	7.5039	-4.86291	20.6669	28.5044	1.67261	0.59787	109.6103	119.85091	40.66949	0.34757	 	192501.7743	 	3.70972E-5	 	39956.044	36.812	 
1185.0	1.0	0.0	7.4594	7.50129	-4.89601	20.64878	28.43576	1.67092	0.59847	110.01667	120.13513	40.82642	0.34737	 	207430.2727	 	3.43097E-5	 	39772.266	36.7556	 
1180.0	1.0	0.0	7.46199	7.49869	-4.92905	20.63069	28.36713	1.66922	0.59908	110.42271	120.41823	40.98328	0.34717	 	223631.5658	 	3.1715E-5	 	39588.771	36.699	 
1175.0	1.0	0.0	7.46458	7.49608	-4.96204	20.61261	28.29849	1.66751	0.5997	110.82841	120.70021	41.14006	0.34696	 	241223.6869	 	2.93009E-5	 	39405.557	36.6428	 
1170.0	1.0	0.0	7.46717	7.49349	-4.99498	20.59456	28.22985	1.66579	0.60032	111.23377	120.98108	41.29676	0.34676	 	260336.4779	 	2.7056E-5	 	39222.625	36.5864	 
1165.0	1.0	0.0	7.46975	7.49089	-5.02786	20.57652	28.16121	1.66407	0.60094	111.6388	121.26084	41.45338	0.34656	 	281112.8554	 	2.49695E-5	 	39039.973	36.5304	 
1160.0	1.0	0.0	7.47233	7.4883	-5.06069	20.55851	28.09257	1.66233	0.60156	112.04349	121.53949	41.60993	0.34636	 	303710.2217	 	2.30313E-5	 	38857.601	36.4744	 
1155.0	1.0	0.0	7.47491	7.48572	-5.09347	20.54051	28.02393	1.66059	0.6022	112.44784	121.81705	41.7664	0.34615	 	328302.0383	 	2.12318E-5	 	38675.509	36.4184	 
1150.0	1.0	0.0	7.47749	7.48314	-5.12619	20.52254	27.95528	1.65884	0.60283	112.85185	122.0935	41.92279	0.34595	 	355079.5809	 	1.95619E-5	 	38493.697	36.3624	 
1145.0	1.0	0.0	7.48007	7.48056	-5.15885	20.50458	27.88664	1.65708	0.60347	113.25552	122.36885	42.07909	0.34575	 	384253.8997	 	1.80132E-5	 	38312.163	36.3068	 
1140.0	1.0	0.0	7.48264	7.47799	-5.19147	20.48665	27.818	1.65531	0.60412	113.65885	122.64312	42.23532	0.34554	 	416058.0091	 	1.65776E-5	 	38130.907	36.2512	 
1135.0	1.0	0.0	7.48521	7.47542	-5.22403	20.46873	27.74936	1.65354	0.60476	114.06184	122.9163	42.39147	0.34534	 	450749.3355	 	1.52476E-5	 	37949.929	36.1956	 
1130.0	1.0	0.0	7.48778	7.47286	-5.25653	20.45083	27.68071	1.65175	0.60542	114.46449	123.18839	42.54754	0.34514	 	488612.4566	 	1.40161E-5	 	37769.228	36.1402	 
1125.0	1.0	0.0	7.49035	7.4703	-5.28899	20.43296	27.61207	1.64996	0.60608	114.8668	123.4594	42.70353	0.34493	 	529962.1674	 	1.28764E-5	 	37588.804	36.0848	 
1120.0	1.0	0.0	7.49291	7.46774	-5.32139	20.4151	27.54343	1.64815	0.60674	115.26876	123.72933	42.85944	0.34473	 	575146.9152	 	1.18224E-5	 	37408.656	36.0296	 
1115.0	1.0	0.0	7.49547	7.46519	-5.35373	20.39726	27.47478	1.64634	0.60741	115.67037	123.99819	43.01527	0.34453	 	624552.651	 	1.08481E-5	 	37228.783	35.9746	 
1110.0	1.0	0.0	7.49803	7.46264	-5.38602	20.37945	27.40614	1.64452	0.60808	116.07164	124.26598	43.17102	0.34432	 	678607.1493	 	9.94804E-6	 	37049.186	35.9194	 
1105.0	1.0	0.0	7.50058	7.4601	-5.41826	20.36165	27.33749	1.64269	0.60876	116.47257	124.5327	43.32669	0.34412	 	737784.8591	 	9.11703E-6	 	36869.864	35.8644	 
1100.0	1.0	0.0	7.50314	7.45756	-5.45045	20.34387	27.26885	1.64085	0.60944	116.87315	124.79835	43.48227	0.34392	 	802612.3528	 	8.35024E-6	 	36690.816	35.8096	 
1095.0	1.0	0.0	7.50569	7.45503	-5.48258	20.32611	27.2002	1.639	0.61013	117.27338	125.06295	43.63777	0.34371	 	873674.4534	 	7.64312E-6	 	36512.041	35.755	 
1090.0	1.0	0.0	7.50824	7.4525	-5.51467	20.30838	27.13155	1.63714	0.61082	117.67327	125.32648	43.79319	0.34351	 	951621.1274	 	6.99143E-6	 	36333.54	35.7002	 
1085.0	1.0	0.0	7.51078	7.44997	-5.54669	20.29066	27.0629	1.63528	0.61152	118.0728	125.58897	43.94853	0.34331	 	1037175.247	 	6.3912E-6	 	36155.312	35.6456	 
1080.0	1.0	0.0	7.51333	7.44745	-5.57867	20.27296	26.99426	1.6334	0.61222	118.47199	125.8504	44.10378	0.3431	 	1131141.337	 	5.83869E-6	 	35977.355	35.5914	 
1075.0	1.0	0.0	7.51587	7.44493	-5.61059	20.25528	26.92561	1.63151	0.61293	118.87083	126.11078	44.25895	0.3429	 	1234415.435	 	5.33045E-6	 	35799.671	35.5368	 
1070.0	1.0	0.0	7.51841	7.44242	-5.64246	20.23762	26.85696	1.62962	0.61364	119.26931	126.37013	44.41404	0.3427	 	1347996.226	 	4.8632E-6	 	35622.257	35.4828	 
1065.0	1.0	0.0	7.52094	7.43991	-5.67428	20.21998	26.78831	1.62771	0.61436	119.66745	126.62843	44.56904	0.3425	 	1472997.609	 	4.43394E-6	 	35445.115	35.4284	 
1060.0	1.0	0.0	7.52348	7.4374	-5.70605	20.20237	26.71966	1.6258	0.61508	120.06523	126.88569	44.72396	0.34229	 	1610662.909	 	4.03981E-6	 	35268.242	35.3746	 
1055.0	1.0	0.0	7.52601	7.4349	-5.73776	20.18477	26.65101	1.62387	0.61581	120.46266	127.14192	44.87879	0.34209	 	1762380.952	 	3.67819E-6	 	35091.64	35.3204	 
1050.0	1.0	0.0	7.52854	7.4324	-5.76942	20.16719	26.58236	1.62193	0.61655	120.85974	127.39712	45.03354	0.34189	 	1929704.254	 	3.34661E-6	 	34915.306	35.2668	 
1045.0	1.0	0.0	7.53106	7.42991	-5.80103	20.14963	26.51371	1.61999	0.61729	121.25646	127.65129	45.1882	0.34168	 	2114369.647	 	3.04278E-6	 	34739.241	35.213	 
1040.0	1.0	0.0	7.53359	7.42742	-5.83258	20.13209	26.44505	1.61803	0.61803	121.65283	127.90443	45.34278	0.34148	 	2318321.65	 	2.76457E-6	 	34563.445	35.1592	 
1035.0	1.0	0.0	7.53611	7.42494	-5.86409	20.11457	26.3764	1.61607	0.61879	122.04884	128.15656	45.49727	0.34128	 	2543739.006	 	2.50999E-6	 	34387.916	35.1058	 
1030.0	1.0	0.0	7.53863	7.42245	-5.89554	20.09707	26.30775	1.61409	0.61954	122.44449	128.40766	45.65168	0.34107	 	2793064.811	 	2.27719E-6	 	34212.654	35.0524	 
1025.0	1.0	0.0	7.54114	7.41998	-5.92694	20.07959	26.23909	1.61211	0.62031	122.83979	128.65776	45.806	0.34087	 	3069040.779	 	2.06447E-6	 	34037.66	34.9988	 
1020.0	1.0	0.0	7.54366	7.41751	-5.95829	20.06213	26.17044	1.61011	0.62108	123.23474	128.90684	45.96024	0.34067	 	3374746.21	 	1.87023E-6	 	33862.931	34.9458	 
1015.0	1.0	0.0	7.54617	7.41504	-5.98959	20.04468	26.10179	1.6081	0.62185	123.62932	129.15491	46.11438	0.34046	 	3713642.38	 	1.69298E-6	 	33688.468	34.8926	 
1010.0	1.0	0.0	7.54868	7.41257	-6.02083	20.02726	26.03313	1.60609	0.62263	124.02354	129.40197	46.26844	0.34026	 	4089623.124	 	1.53137E-6	 	33514.27	34.8396	 
1005.0	1.0	0.0	7.55118	7.41011	-6.05203	20.00986	25.96447	1.60406	0.62342	124.41741	129.64804	46.42242	0.34006	 	4507072.539	 	1.38412E-6	 	33340.337	34.7866	 
1000.0	1.0	0.0	7.55369	7.40766	-6.08317	19.99248	25.89582	1.60202	0.62421	124.81091	129.8931	46.5763	0.33985	 	4970930.871	 	1.25005E-6	 	33166.668	34.7338	 
995.0	1.0	0.0	7.55619	7.4052	-6.11426	19.97512	25.82716	1.59997	0.62501	125.20406	130.13717	46.7301	0.33965	 	5486769.801	 	1.12808E-6	 	32993.263	34.681	 
990.0	1.0	0.0	7.55869	7.40275	-6.1453	19.95778	25.7585	1.59791	0.62582	125.59684	130.38025	46.88381	0.33945	 	6060878.572	 	1.0172E-6	 	32820.121	34.6284	 
985.0	1.0	0.0	7.56118	7.40031	-6.17629	19.94046	25.68985	1.59584	0.62663	125.98926	130.62234	47.03743	0.33924	 	6700362.577	 	9.16475E-7	 	32647.241	34.576	 
980.0	1.0	0.0	7.56368	7.39787	-6.20723	19.92315	25.62119	1.59375	0.62745	126.38132	130.86344	47.19096	0.33904	 	7413256.349	 	8.25051E-7	 	32474.624	34.5234	 
975.0	1.0	0.0	7.56617	7.39543	-6.23811	19.90587	25.55253	1.59166	0.62827	126.77302	131.10356	47.3444	0.33884	 	8208653.157	 	7.42133E-7	 	32302.268	34.4712	 
970.0	1.0	0.0	7.56866	7.393	-6.26895	19.88861	25.48387	1.58956	0.62911	127.16435	131.34269	47.49775	0.33864	 	9096853.795	 	6.6699E-7	 	32130.174	34.4188	 
965.0	1.0	0.0	7.57114	7.39057	-6.29973	19.87137	25.41521	1.58744	0.62995	127.55531	131.58085	47.65101	0.33843	 	1.008953758E7	 	5.98947E-7	 	31958.34	34.3668	 
960.0	1.0	0.0	7.57363	7.38815	-6.33047	19.85414	25.34655	1.58531	0.63079	127.94591	131.81804	47.80419	0.33823	 	1.119995905E7	 	5.37386E-7	 	31786.766	34.3148	 
955.0	1.0	0.0	7.57611	7.38573	-6.36115	19.83694	25.27789	1.58317	0.63164	128.33615	132.05425	47.95727	0.33803	 	1.244317447E7	 	4.81734E-7	 	31615.452	34.2628	 
950.0	1.0	0.0	7.57859	7.38331	-6.39178	19.81976	25.20922	1.58102	0.6325	128.72602	132.28949	48.11026	0.33782	 	1.383630288E7	 	4.31466E-7	 	31444.397	34.211	 
945.0	1.0	0.0	7.58107	7.3809	-6.42236	19.80259	25.14056	1.57886	0.63337	129.11552	132.52377	48.26316	0.33762	 	1.539882735E7	 	3.861E-7	 	31273.601	34.1592	 
940.0	1.0	0.0	7.58354	7.37849	-6.4529	19.78545	25.0719	1.57669	0.63424	129.50465	132.75709	48.41597	0.33742	 	1.715294281E7	 	3.45193E-7	 	31103.062	34.1078	 
935.0	1.0	0.0	7.58601	7.37609	-6.48338	19.76832	25.00323	1.5745	0.63512	129.89342	132.98945	48.56869	0.33721	 	1.912395835E7	 	3.0834E-7	 	30932.781	34.0562	 
930.0	1.0	0.0	7.58848	7.37369	-6.51381	19.75122	24.93457	1.5723	0.63601	130.28181	133.22085	48.72132	0.33701	 	2.134076265E7	 	2.75167E-7	 	30762.758	34.0046	 
925.0	1.0	0.0	7.59095	7.37129	-6.54419	19.73414	24.8659	1.57009	0.63691	130.66984	133.45129	48.87386	0.33681	 	2.383636341E7	 	2.45334E-7	 	30592.99	33.9536	 
920.0	1.0	0.0	7.59341	7.3689	-6.57452	19.71707	24.79724	1.56787	0.63781	131.05749	133.68079	49.0263	0.3366	 	2.66485128E7	 	2.18529E-7	 	30423.479	33.9022	 
915.0	1.0	0.0	7.59587	7.36651	-6.6048	19.70003	24.72857	1.56563	0.63872	131.44478	133.90934	49.17865	0.3364	 	2.982043385E7	 	1.94466E-7	 	30254.223	33.8512	 
910.0	1.0	0.0	7.59833	7.36413	-6.63503	19.683	24.65991	1.56339	0.63964	131.83169	134.13694	49.33091	0.3362	 	3.340166462E7	 	1.72885E-7	 	30085.222	33.8002	 
905.0	1.0	0.0	7.60079	7.36175	-6.66521	19.666	24.59124	1.56113	0.64056	132.21823	134.36361	49.48307	0.33599	 	3.744904059E7	 	1.53549E-7	 	29916.476	33.7492	 
900.0	1.0	0.0	7.60325	7.35937	-6.69534	19.64901	24.52257	1.55885	0.6415	132.6044	134.58933	49.63515	0.33579	 	4.202783909E7	 	1.3624E-7	 	29747.983	33.6986	 
895.0	1.0	0.0	7.6057	7.357	-6.72542	19.63205	24.4539	1.55657	0.64244	132.99019	134.81411	49.78713	0.33559	 	4.721311396E7	 	1.2076E-7	 	29579.744	33.6478	 
890.0	1.0	0.0	7.60815	7.35463	-6.75545	19.6151	24.38523	1.55427	0.64339	133.37561	135.03797	49.93901	0.33539	 	5.3091254E7	 	1.0693E-7	 	29411.757	33.5974	 
885.0	1.0	0.0	7.61059	7.35226	-6.78543	19.59817	24.31656	1.55196	0.64435	133.76066	135.26089	50.0908	0.33518	 	5.976180466E7	 	9.45862E-8	 	29244.023	33.5468	 
880.0	1.0	0.0	7.61304	7.3499	-6.81536	19.58127	24.24789	1.54964	0.64531	134.14533	135.48288	50.2425	0.33498	 	6.733960005E7	 	8.35799E-8	 	29076.541	33.4964	 
875.0	1.0	0.0	7.61548	7.34755	-6.84524	19.56438	24.17922	1.5473	0.64629	134.52963	135.70395	50.3941	0.33478	 	7.595726119E7	 	7.37762E-8	 	28909.309	33.4464	 
870.0	1.0	0.0	7.61792	7.34519	-6.87507	19.54751	24.11055	1.54495	0.64727	134.91354	135.9241	50.5456	0.33457	 	8.576812669E7	 	6.50525E-8	 	28742.329	33.396	 
865.0	1.0	0.0	7.62036	7.34285	-6.90486	19.53067	24.04188	1.54258	0.64826	135.29709	136.14333	50.69702	0.33437	 	9.694969515E7	 	5.7298E-8	 	28575.598	33.3462	 
860.0	1.0	0.0	7.62279	7.3405	-6.93459	19.51384	23.9732	1.54021	0.64926	135.68025	136.36164	50.84833	0.33417	 	1.097076736E8	 	5.04124E-8	 	28409.118	33.296	 
855.0	1.0	0.0	7.62522	7.33816	-6.96428	19.49703	23.90453	1.53782	0.65027	136.06303	136.57904	50.99955	0.33396	 	1.242807443E8	 	4.43047E-8	 	28242.886	33.2464	 
850.0	1.0	0.0	7.62765	7.33582	-6.99391	19.48025	23.83585	1.53541	0.65129	136.44544	136.79553	51.15068	0.33376	 	1.409461854E8	 	3.8893E-8	 	28076.902	33.1968	 
845.0	1.0	0.0	7.63008	7.33349	-7.0235	19.46348	23.76718	1.53299	0.65232	136.82747	137.0111	51.30171	0.33356	 	1.600265052E8	 	3.41032E-8	 	27911.167	33.147	 
840.0	1.0	0.0	7.63251	7.33116	-7.05304	19.44673	23.6985	1.53056	0.65336	137.20912	137.22578	51.45264	0.33335	 	1.818972853E8	 	2.98686E-8	 	27745.679	33.0976	 
835.0	1.0	0.0	7.63493	7.32883	-7.08252	19.43	23.62983	1.52811	0.6544	137.59038	137.43955	51.60347	0.33315	 	2.069964628E8	 	2.6129E-8	 	27580.438	33.0482	 
830.0	1.0	0.0	7.63735	7.32651	-7.11196	19.41329	23.56115	1.52565	0.65546	137.97127	137.65242	51.75421	0.33295	 	2.35835332E8	 	2.28303E-8	 	27415.443	32.999	 
825.0	1.0	0.0	7.63977	7.32419	-7.14136	19.39661	23.49247	1.52318	0.65652	138.35177	137.86439	51.90485	0.33274	 	2.690116007E8	 	1.9924E-8	 	27250.693	32.95	 
820.0	1.0	0.0	7.64218	7.32188	-7.1707	19.37994	23.42379	1.52069	0.6576	138.7319	138.07547	52.0554	0.33254	 	3.072249066E8	 	1.73664E-8	 	27086.189	32.9008	 
815.0	1.0	0.0	7.64459	7.31957	-7.19999	19.36329	23.35511	1.51818	0.65868	139.11163	138.28565	52.20584	0.33234	 	3.512952825E8	 	1.51183E-8	 	26921.929	32.852	 
810.0	1.0	0.0	7.647	7.31726	-7.22924	19.34666	23.28643	1.51567	0.65978	139.49099	138.49495	52.35619	0.33213	 	4.021851612E8	 	1.31447E-8	 	26757.913	32.8032	 
805.0	1.0	0.0	7.64941	7.31496	-7.25844	19.33005	23.21775	1.51313	0.66088	139.86996	138.70336	52.50644	0.33193	 	4.610256377E8	 	1.14141E-8	 	26594.141	32.7544	 
800.0	1.0	0.0	7.65181	7.31266	-7.28758	19.31346	23.14907	1.51058	0.662	140.24855	138.91089	52.65659	0.33173	 	5.291478548E8	 	9.89852E-9	 	26430.611	32.706	 
795.0	1.0	0.0	7.65422	7.31036	-7.31669	19.29689	23.08039	1.50802	0.66312	140.62675	139.11753	52.80664	0.33153	 	6.081205689E8	 	8.57293E-9	 	26267.323	32.6576	 
790.0	1.0	0.0	7.65662	7.30807	-7.34574	19.28034	23.01171	1.50544	0.66426	141.00457	139.3233	52.95659	0.33132	 	6.997951775E8	 	7.41499E-9	 	26104.277	32.6092	 
785.0	1.0	0.0	7.65902	7.30578	-7.37474	19.26381	22.94302	1.50285	0.6654	141.382	139.52819	53.10645	0.33112	 	8.063597734E8	 	6.40479E-9	 	25941.471	32.5612	 
780.0	1.0	0.0	7.66141	7.3035	-7.4037	19.2473	22.87434	1.50024	0.66656	141.75904	139.7322	53.2562	0.33092	 	9.304041315E8	 	5.52466E-9	 	25778.906	32.513	 
775.0	1.0	0.0	7.6638	7.30122	-7.43261	19.23081	22.80565	1.49761	0.66773	142.1357	139.93535	53.40586	0.33071	 	1.074997962E9	 	4.75886E-9	 	25616.58	32.4652	 
770.0	1.0	0.0	7.66619	7.29894	-7.46147	19.21434	22.73697	1.49497	0.66891	142.51196	140.13763	53.55541	0.33051	 	1.243785284E9	 	4.09344E-9	 	25454.494	32.4172	 
765.0	1.0	0.0	7.66858	7.29667	-7.49028	19.19789	22.66828	1.49231	0.6701	142.88784	140.33904	53.70486	0.33031	 	1.441098418E9	 	3.51603E-9	 	25292.645	32.3698	 
760.0	1.0	0.0	7.67097	7.2944	-7.51905	19.18146	22.59959	1.48964	0.6713	143.26333	140.53959	53.85422	0.3301	 	1.672095905E9	 	3.01571E-9	 	25131.034	32.3222	 
755.0	1.0	0.0	7.67335	7.29214	-7.54777	19.16505	22.53091	1.48695	0.67252	143.63843	140.73927	54.00347	0.3299	 	1.942929634E9	 	2.58277E-9	 	24969.661	32.2746	 
750.0	1.0	0.0	7.67573	7.28987	-7.57644	19.14866	22.46222	1.48424	0.67375	144.01315	140.9381	54.15262	0.3297	 	2.260947705E9	 	2.20869E-9	 	24808.523	32.2276	 
745.0	1.0	0.0	7.67811	7.28762	-7.60506	19.13229	22.39353	1.48152	0.67498	144.38747	141.13607	54.30167	0.32949	 	2.634941081E9	 	1.88594E-9	 	24647.621	32.1804	 
740.0	1.0	0.0	7.68048	7.28536	-7.63364	19.11593	22.32484	1.47878	0.67623	144.76139	141.33319	54.45062	0.32929	 	3.075443982E9	 	1.60788E-9	 	24486.954	32.1334	 
735.0	1.0	0.0	7.68286	7.28311	-7.66216	19.0996	22.25615	1.47602	0.6775	145.13493	141.52946	54.59946	0.32909	 	3.595100371E9	 	1.36868E-9	 	24326.521	32.0866	 
730.0	1.0	0.0	7.68523	7.28087	-7.69065	19.08329	22.18746	1.47325	0.67877	145.50808	141.72489	54.74821	0.32888	 	4.209111836E9	 	1.16322E-9	 	24166.321	32.04	 
725.0	1.0	0.0	7.68759	7.27862	-7.71908	19.067	22.11876	1.47046	0.68006	145.88083	141.91946	54.89685	0.32868	 	4.935785935E9	 	9.87021E-10	 	24006.354	31.9934	 
720.0	1.0	0.0	7.68996	7.27638	-7.74747	19.05073	22.05007	1.46765	0.68136	146.25318	142.1132	55.04539	0.32848	 	5.79720872E9	 	8.36147E-10	 	23846.619	31.947	 
715.0	1.0	0.0	7.69232	7.27415	-7.77581	19.03447	21.98138	1.46482	0.68268	146.62515	142.30609	55.19383	0.32827	 	6.820071079E9	 	7.07165E-10	 	23687.115	31.9008	 
710.0	1.0	0.0	7.69468	7.27192	-7.8041	19.01824	21.91268	1.46198	0.684	146.99672	142.49814	55.34216	0.32807	 	8.036685939E9	 	5.97076E-10	 	23527.841	31.8548	 
705.0	1.0	0.0	7.69704	7.26969	-7.83235	19.00203	21.84399	1.45912	0.68534	147.36789	142.68936	55.49039	0.32787	 	9.486242769E9	 	5.03266E-10	 	23368.796	31.809	 
700.0	1.0	0.0	7.6994	7.26747	-7.86055	18.98583	21.77529	1.45624	0.6867	147.73867	142.87975	55.63852	0.32767	 	1.12164E10	 	4.23462E-10	 	23209.98	31.7632	 
695.0	1.0	0.0	7.70175	7.26524	-7.8887	18.96966	21.70659	1.45335	0.68807	148.10906	143.0693	55.78654	0.32746	 	1.3284999999999998E10	 	3.55687E-10	 	23051.391	31.7178	 
690.0	1.0	0.0	7.7041	7.26303	-7.91681	18.95351	21.63789	1.45043	0.68945	148.47904	143.25803	55.93446	0.32726	 	1.5762799999999998E10	 	2.98227E-10	 	22893.029	31.6724	 
685.0	1.0	0.0	7.70645	7.26081	-7.94487	18.93737	21.56919	1.4475	0.69085	148.84863	143.44593	56.08227	0.32706	 	1.87363E10	 	2.49596E-10	 	22734.892	31.6274	 
680.0	1.0	0.0	7.7088	7.25861	-7.97288	18.92126	21.50049	1.44454	0.69226	149.21782	143.633	56.22998	0.32685	 	2.2311E10	 	2.08511E-10	 	22576.98	31.5824	 
675.0	1.0	0.0	7.71114	7.2564	-8.00085	18.90516	21.43179	1.44157	0.69369	149.58662	143.81926	56.37758	0.32665	 	2.6616799999999996E10	 	1.73863E-10	 	22419.292	31.5376	 
670.0	1.0	0.0	7.71348	7.2542	-8.02877	18.88909	21.36309	1.43858	0.69513	149.95501	144.00469	56.52508	0.32645	 	3.1812999999999996E10	 	1.44698E-10	 	22261.826	31.4932	 
665.0	1.0	0.0	7.71582	7.252	-8.05664	18.87304	21.29439	1.43557	0.69659	150.32301	144.18931	56.67248	0.32624	 	3.8096E10	 	1.20193E-10	 	22104.581	31.449	 
660.0	1.0	0.0	7.71815	7.2498	-8.08447	18.857	21.22569	1.43254	0.69806	150.6906	144.37312	56.81977	0.32604	 	4.57082E10	 	9.96424E-11	 	21947.556	31.405	 
655.0	1.0	0.0	7.72049	7.24761	-8.11225	18.84099	21.15698	1.42949	0.69955	151.0578	144.55611	56.96695	0.32584	 	5.494919999999999E10	 	8.24411E-11	 	21790.75	31.3612	 
650.0	1.0	0.0	7.72282	7.24542	-8.13999	18.82499	21.08828	1.42642	0.70105	151.42459	144.7383	57.11403	0.32563	 	6.619029999999999E10	 	6.80714E-11	 	21634.16	31.318	 
645.0	1.0	0.0	7.72515	7.24324	-8.16768	18.80901	21.01957	1.42334	0.70257	151.79099	144.91967	57.261	0.32543	 	7.9893E10	 	5.60908E-11	 	21477.787	31.2746	 
640.0	1.0	0.0	7.72747	7.24106	-8.19533	18.79306	20.95087	1.42023	0.70411	152.15698	145.10025	57.40786	0.32523	 	9.663139999999998E10	 	4.61223E-11	 	21321.628	31.2318	 
635.0	1.0	0.0	7.7298	7.23888	-8.22293	18.77712	20.88216	1.4171	0.70567	152.52257	145.28002	57.55462	0.32502	 	1.17122E11	 	3.78448E-11	 	21165.682	31.1892	 
630.0	1.0	0.0	7.73212	7.23671	-8.25048	18.76121	20.81345	1.41395	0.70724	152.88775	145.45899	57.70127	0.32482	 	1.4226E11	 	3.09859E-11	 	21009.946	31.1472	 
625.0	1.0	0.0	7.73444	7.23454	-8.27799	18.74531	20.74474	1.41078	0.70883	153.25254	145.63716	57.84781	0.32462	 	1.73168E11	 	2.53145E-11	 	20854.42	31.1052	 
620.0	1.0	0.0	7.73676	7.23237	-8.30545	18.72943	20.67603	1.40759	0.71044	153.61692	145.81453	57.99425	0.32442	 	2.11256E11	 	2.06349E-11	 	20699.101	31.0638	 
615.0	1.0	0.0	7.73907	7.23021	-8.33287	18.71358	20.60732	1.40437	0.71206	153.98089	145.99112	58.14057	0.32421	 	2.58299E11	 	1.67823E-11	 	20543.986	31.023	 
610.0	1.0	0.0	7.74138	7.22805	-8.36024	18.69774	20.53861	1.40114	0.71371	154.34446	146.16691	58.28679	0.32401	 	3.16537E11	 	1.36175E-11	 	20389.074	30.9824	 
605.0	1.0	0.0	7.74369	7.2259	-8.38757	18.68192	20.46989	1.39788	0.71537	154.70763	146.34191	58.4329	0.32381	 	3.88806E11	 	1.10236E-11	 	20234.362	30.9424	 
600.0	1.0	0.0	7.746	7.22374	-8.41485	18.66613	20.40118	1.39461	0.71705	155.07039	146.51613	58.57891	0.3236	 	4.78701E11	 	8.90248E-12	 	20079.847	30.903	 
595.0	1.0	0.0	7.7483	7.2216	-8.44209	18.65035	20.33246	1.39131	0.71875	155.43274	146.68956	58.7248	0.3234	 	5.90795E11	 	7.17207E-12	 	19925.526	30.8642	 
590.0	1.0	0.0	7.7506	7.21945	-8.46928	18.63459	20.26375	1.38798	0.72047	155.79468	146.86221	58.87059	0.3232	 	7.30918E11	 	5.76374E-12	 	19771.397	30.8258	 
585.0	1.0	0.0	7.7529	7.21731	-8.49643	18.61885	20.19503	1.38464	0.72221	156.15622	147.03409	59.01626	0.32299	 	9.06519E11	 	4.62033E-12	 	19617.454	30.7886	 
580.0	1.0	0.0	7.7552	7.21517	-8.52353	18.60314	20.12631	1.38127	0.72397	156.51735	147.20518	59.16183	0.32279	 	1.12715E12	 	3.69428E-12	 	19463.695	30.7518	 
575.0	1.0	0.0	7.75749	7.21304	-8.55059	18.58744	20.05759	1.37788	0.72575	156.87807	147.3755	59.30728	0.32259	 	1.40509E12	 	2.94616E-12	 	19310.114	30.7162	 
570.0	1.0	0.0	7.75979	7.21091	-8.5776	18.57176	19.98887	1.37447	0.72755	157.23839	147.54504	59.45263	0.32238	 	1.75614E12	 	2.34332E-12	 	19156.707	30.6814	 
565.0	1.0	0.0	7.76208	7.20878	-8.60457	18.5561	19.92015	1.37103	0.72938	157.59829	147.71382	59.59787	0.32218	 	2.20075E12	 	1.85882E-12	 	19003.468	30.6478	 
560.0	1.0	0.0	7.76436	7.20666	-8.63149	18.54046	19.85143	1.36757	0.73122	157.95779	147.88182	59.74299	0.32198	 	2.76541E12	 	1.47045E-12	 	18850.392	30.6152	 
555.0	1.0	0.0	7.76665	7.20454	-8.65837	18.52484	19.78271	1.36408	0.73309	158.31687	148.04906	59.88801	0.32177	 	3.48455E12	 	1.15998E-12	 	18697.47	30.5844	 
550.0	1.0	0.0	7.76893	7.20242	-8.68521	18.50924	19.71399	1.36057	0.73498	158.67554	148.21553	60.03292	0.32157	 	4.40305E12	 	9.12457E-13	 	18544.538	30.5864	 
545.0	1.0	0.0	7.77121	7.20031	-8.712	18.49366	19.64526	1.35704	0.7369	159.0338	148.38125	60.17771	0.32137	 	5.57959E12	 	7.15677E-13	 	18391.367	30.6342	 
540.0	1.0	0.0	7.77349	7.1982	-8.73875	18.4781	19.57653	1.35348	0.73883	159.39165	148.5462	60.32239	0.32116	 	7.09114E12	 	5.59682E-13	 	18238.502	30.573	 
535.0	1.0	0.0	7.77576	7.19609	-8.76545	18.46256	19.50781	1.3499	0.7408	159.74909	148.71039	60.46696	0.32096	 	9.03896E12	 	4.36375E-13	 	18085.939	30.5126	 
530.0	1.0	0.0	7.77804	7.19399	-8.79211	18.44704	19.43908	1.34629	0.74278	160.10612	148.87383	60.61142	0.32076	 	1.15567E13	 	3.39195E-13	 	17933.675	30.4528	 
525.0	1.0	0.0	7.78031	7.19189	-8.81872	18.43154	19.37035	1.34266	0.74479	160.46273	149.03652	60.75577	0.32056	 	1.48213E13	 	2.62836E-13	 	17781.706	30.3938	 
520.0	1.0	0.0	7.78257	7.18979	-8.84529	18.41606	19.30162	1.339	0.74683	160.81893	149.19845	60.90001	0.32035	 	1.90678E13	 	2.03021E-13	 	17630.03	30.3352	 
515.0	1.0	0.0	7.78484	7.1877	-8.87182	18.4006	19.23289	1.33531	0.74889	161.17471	149.35963	61.04413	0.32015	 	2.46096E13	 	1.56312E-13	 	17478.643	30.2774	 
510.0	1.0	0.0	7.7871	7.18561	-8.8983	18.38516	19.16416	1.3316	0.75098	161.53008	149.52007	61.18814	0.31995	 	3.18656E13	 	1.19952E-13	 	17327.543	30.22	 
505.0	1.0	0.0	7.78936	7.18353	-8.92474	18.36974	19.09542	1.32786	0.75309	161.88504	149.67976	61.33204	0.31974	 	4.13984E13	 	9.17417E-14	 	17176.727	30.1632	 
500.0	1.0	0.0	7.79162	7.18145	-8.95114	18.35434	19.02669	1.32409	0.75523	162.23958	149.83871	61.47582	0.31954	 	5.39653E13	 	6.99256E-14	 	17026.193	30.1068	 
495.0	1.0	0.0	7.79388	7.17937	-8.97749	18.33896	18.95795	1.3203	0.7574	162.5937	149.99691	61.61949	0.31934	 	7.05902E13	 	5.31114E-14	 	16875.939	30.0508	 
490.0	1.0	0.0	7.79613	7.17729	-9.0038	18.3236	18.88922	1.31648	0.7596	162.94741	150.15438	61.76305	0.31913	 	9.26624E13	 	4.0197E-14	 	16725.962	29.9954	 
485.0	1.0	0.0	7.79838	7.17522	-9.03006	18.30826	18.82048	1.31263	0.76183	163.3007	150.31111	61.90649	0.31893	 	1.22073E14	 	3.03124E-14	 	16576.26	29.9404	 
480.0	1.0	0.0	7.80063	7.17315	-9.05629	18.29293	18.75174	1.30875	0.76409	163.65357	150.46711	62.04982	0.31873	 	1.61409E14	 	2.2774E-14	 	16426.831	29.8858	 
475.0	1.0	0.0	7.80288	7.17109	-9.08247	18.27763	18.683	1.30485	0.76637	164.00603	150.62237	62.19304	0.31852	 	2.14218E14	 	1.70458E-14	 	16277.674	29.8314	 
470.0	1.0	0.0	7.80512	7.16903	-9.1086	18.26235	18.61426	1.30091	0.76869	164.35806	150.7769	62.33614	0.31832	 	2.85391E14	 	1.27093E-14	 	16128.787	29.7774	 
465.0	1.0	0.0	7.80736	7.16697	-9.1347	18.24709	18.54552	1.29695	0.77104	164.70968	150.9307	62.47912	0.31812	 	3.8169E14	 	9.43887E-15	 	15980.168	29.7238	 
460.0	1.0	0.0	7.8096	7.16491	-9.16075	18.23184	18.47677	1.29296	0.77342	165.06088	151.08378	62.62199	0.31791	 	5.1251299999999994E14	 	6.98192E-15	 	15831.815	29.6706	 
455.0	1.0	0.0	7.81184	7.16286	-9.18675	18.21662	18.40803	1.28894	0.77583	165.41166	151.23613	62.76475	0.31771	 	6.90966E14	 	5.14341E-15	 	15683.728	29.6174	 
450.0	1.0	0.0	7.81407	7.16081	-9.21272	18.20142	18.33928	1.28488	0.77828	165.76202	151.38776	62.90739	0.31751	 	9.35412E14	 	3.77322E-15	 	15535.904	29.5648	 
445.0	1.0	0.0	7.8163	7.15877	-9.23864	18.18623	18.27054	1.2808	0.78076	166.11196	151.53867	63.04991	0.31731	 	1.27169E15	 	2.75626E-15	 	15388.343	29.5122	 
440.0	1.0	0.0	7.81853	7.15673	-9.26452	18.17107	18.20179	1.27669	0.78328	166.46148	151.68886	63.19232	0.3171	 	1.73632E15	 	2.00465E-15	 	15241.043	29.46	 
435.0	1.0	0.0	7.82076	7.15469	-9.29036	18.15593	18.13304	1.27254	0.78583	166.81058	151.83834	63.33462	0.3169	 	2.38116E15	 	1.45152E-15	 	15094.003	29.408	 
430.0	1.0	0.0	7.82298	7.15266	-9.31615	18.1408	18.06429	1.26837	0.78842	167.15925	151.9871	63.47679	0.3167	 	3.28018E15	 	1.04625E-15	 	14947.222	29.3562	 
425.0	1.0	0.0	7.82521	7.15062	-9.3419	18.1257	17.99554	1.26416	0.79104	167.50751	152.13514	63.61885	0.31649	 	4.53941E15	 	7.50647E-16	 	14800.699	29.3046	 
420.0	1.0	0.0	7.82743	7.1486	-9.36761	18.11062	17.92678	1.25992	0.7937	167.85534	152.28248	63.7608	0.31629	 	6.31157E15	 	5.36014E-16	 	14654.434	29.253	 
415.0	1.0	0.0	7.82964	7.14657	-9.39328	18.09555	17.85803	1.25565	0.7964	168.20275	152.4291	63.90262	0.31609	 	8.81771E15	 	3.80903E-16	 	14508.424	29.202	 
410.0	1.0	0.0	7.83186	7.14455	-9.41891	18.08051	17.78928	1.25134	0.79914	168.54973	152.57503	64.04434	0.31588	 	1.23794E16	 	2.69341E-16	 	14362.67	29.1508	 
405.0	1.0	0.0	7.83407	7.14253	-9.44449	18.06548	17.72052	1.247	0.80192	168.89629	152.72024	64.18593	0.31568	 	1.7466900000000002E16	 	1.89494E-16	 	14217.17	29.1	 
400.0	1.0	0.0	7.83628	7.14052	-9.47003	18.05048	17.65176	1.24263	0.80475	169.24243	152.86475	64.3274	0.31548	 	2.47717E16	 	1.3263E-16	 	14071.924	29.0492	 
395.0	1.0	0.0	7.83849	7.13851	-9.49553	18.03549	17.583	1.23822	0.80761	169.58814	153.00857	64.46876	0.31527	 	3.5315500000000004E16	 	9.23413E-17	 	13926.931	28.9986	 
390.0	1.0	0.0	7.84069	7.1365	-9.52099	18.02053	17.51424	1.23378	0.81052	169.93343	153.15168	64.61	0.31507	 	5.06171E16	 	6.39443E-17	 	13782.191	28.948	 
385.0	1.0	0.0	7.8429	7.13449	-9.54641	18.00558	17.44548	1.22931	0.81347	170.2783	153.2941	64.75112	0.31487	 	7.29465E16	 	4.40359E-17	 	13637.703	28.8976	 
380.0	1.0	0.0	7.8451	7.13249	-9.57178	17.99065	17.37672	1.22479	0.81646	170.62273	153.43582	64.89213	0.31466	 	1.05716E17	 	3.01549E-17	 	13493.466	28.8474	 
375.0	1.0	0.0	7.8473	7.13049	-9.59711	17.97575	17.30795	1.22025	0.81951	170.96674	153.57685	65.03301	0.31446	 	1.54087E17	 	2.05304E-17	 	13349.48	28.7972	 
370.0	1.0	0.0	7.84949	7.1285	-9.62241	17.96086	17.23918	1.21566	0.8226	171.31033	153.71719	65.17378	0.31426	 	2.25909E17	 	1.38952E-17	 	13205.745	28.747	 
365.0	1.0	0.0	7.85169	7.12651	-9.64766	17.94599	17.17042	1.21104	0.82573	171.65349	153.85684	65.31442	0.31405	 	3.33201E17	 	9.34767E-18	 	13062.26	28.697	 
360.0	1.0	0.0	7.85388	7.12452	-9.67286	17.93115	17.10165	1.20639	0.82892	171.99622	153.9958	65.45495	0.31385	 	4.94474E17	 	6.24956E-18	 	12919.024	28.6472	 
355.0	1.0	0.0	7.85607	7.12253	-9.69803	17.91632	17.03288	1.20169	0.83216	172.33852	154.13408	65.59536	0.31365	 	7.38433E17	 	4.15183E-18	 	12776.038	28.5972	 
350.0	1.0	0.0	7.85825	7.12055	-9.72316	17.90151	16.96411	1.19696	0.83545	172.6804	154.27167	65.73565	0.31345	 	1.10987E18	 	2.74035E-18	 	12633.301	28.5474	 
345.0	1.0	0.0	7.86044	7.11857	-9.74824	17.88673	16.89533	1.19219	0.83879	173.02185	154.40858	65.87582	0.31324	 	1.67918E18	 	1.79673E-18	 	12490.813	28.4976	 
340.0	1.0	0.0	7.86262	7.1166	-9.77329	17.87196	16.82656	1.18738	0.84219	173.36287	154.54481	66.01587	0.31304	 	2.55774E18	 	1.17003E-18	 	12348.574	28.4478	 
335.0	1.0	0.0	7.8648	7.11463	-9.79829	17.85721	16.75778	1.18253	0.84565	173.70346	154.68037	66.1558	0.31284	 	3.92301E18	 	7.5662E-19	 	12206.583	28.3982	 
330.0	1.0	0.0	7.86698	7.11266	-9.82325	17.84248	16.68901	1.17764	0.84916	174.04362	154.81525	66.29561	0.31263	 	6.05987E18	 	4.8579E-19	 	12064.841	28.3484	 
325.0	1.0	0.0	7.86915	7.11069	-9.84817	17.82778	16.62023	1.17271	0.85273	174.38335	154.94946	66.4353	0.31243	 	9.42896E18	 	3.09623E-19	 	11923.348	28.2986	 
320.0	1.0	0.0	7.87132	7.10873	-9.87305	17.81309	16.55145	1.16774	0.85635	174.72266	155.08299	66.57487	0.31223	 	1.47809E19	 	1.95862E-19	 	11782.103	28.249	 
315.0	1.0	0.0	7.87349	7.10677	-9.89789	17.79842	16.48267	1.16273	0.86005	175.06153	155.21586	66.71432	0.31202	 	2.33485E19	 	1.22947E-19	 	11641.106	28.1994	 
310.0	1.0	0.0	7.87566	7.10481	-9.92269	17.78377	16.41388	1.15767	0.8638	175.39997	155.34806	66.85365	0.31182	 	3.71724E19	 	7.65678E-20	 	11500.358	28.1496	 
305.0	1.0	0.0	7.87783	7.10286	-9.94745	17.76914	16.3451	1.15258	0.86762	175.73799	155.47959	66.99286	0.31162	 	5.96591E19	 	4.72989E-20	 	11359.859	28.0998	 
300.0	1.0	0.0	7.87999	7.10091	-9.97217	17.75453	16.27631	1.14744	0.87151	176.07557	155.61045	67.13195	0.31141	 	9.65421E19	 	2.8976E-20	 	11219.608	28.0502	 
295.0	1.0	0.0	7.88215	7.09897	-9.99685	17.73994	16.20753	1.14226	0.87546	176.41272	155.74066	67.27091	0.31121	 	1.57557E20	 	1.76E-20	 	11079.607	28.0002	 
290.0	1.0	0.0	7.88431	7.09702	-10.02149	17.72537	16.13874	1.13703	0.87948	176.74944	155.87021	67.40975	0.31101	 	2.5937799999999997E20	 	1.05969E-20	 	10939.855	27.9504	 
285.0	1.0	0.0	7.88646	7.09508	-10.04609	17.71082	16.06995	1.13176	0.88358	177.08573	155.99909	67.54848	0.3108	 	4.3083399999999993E20	 	6.32307E-21	 	10800.353	27.9004	 
280.0	1.0	0.0	7.88862	7.09314	-10.07064	17.69629	16.00116	1.12644	0.88775	177.42158	156.12733	67.68708	0.3106	 	7.22221E20	 	3.73817E-21	 	10661.1	27.8506	 
275.0	1.0	0.0	7.89077	7.09121	-10.09516	17.68178	15.93236	1.12108	0.892	177.75701	156.2549	67.82556	0.3104	 	1.22215E21	 	2.18909E-21	 	10522.098	27.8004	 
270.0	1.0	0.0	7.89292	7.08928	-10.11964	17.66729	15.86357	1.11567	0.89632	178.092	156.38183	67.96391	0.3102	 	2.08825E21	 	1.26947E-21	 	10383.347	27.7502	 
265.0	1.0	0.0	7.89506	7.08735	-10.14408	17.65282	15.79477	1.11022	0.90073	178.42657	156.5081	68.10215	0.30999	 	3.60384E21	 	7.28827E-22	 	10244.847	27.7	 
260.0	1.0	0.0	7.89721	7.08543	-10.16848	17.63837	15.72597	1.10471	0.90521	178.76069	156.63373	68.24026	0.30979	 	6.28338E21	 	4.14136E-22	 	10106.6	27.6494	 
255.0	1.0	0.0	7.89935	7.08351	-10.19284	17.62394	15.65717	1.09916	0.90978	179.09439	156.75871	68.37825	0.30959	 	1.10711E22	 	2.32837E-22	 	9968.604	27.5992	 
250.0	1.0	0.0	7.90149	7.08159	-10.21716	17.60953	15.58837	1.09356	0.91444	179.42766	156.88305	68.51612	0.30938	 	1.9719399999999998E22	 	1.29485E-22	 	9830.862	27.5484	 
245.0	1.0	0.0	7.90363	7.07967	-10.24144	17.59514	15.51957	1.08791	0.91919	179.76049	157.00674	68.65387	0.30918	 	3.5516799999999996E22	 	7.12046E-23	 	9693.374	27.4976	 
240.0	1.0	0.0	7.90576	7.07776	-10.26568	17.58077	15.45076	1.08221	0.92403	180.09289	157.12979	68.79149	0.30898	 	6.4707399999999994E22	 	3.87059E-23	 	9556.141	27.4466	 
235.0	1.0	0.0	7.9079	7.07585	-10.28988	17.56642	15.38195	1.07646	0.92897	180.42485	157.25221	68.92899	0.30877	 	1.19289E23	 	2.07911E-23	 	9419.164	27.3954	 
230.0	1.0	0.0	7.91003	7.07395	-10.31404	17.55209	15.31314	1.07066	0.934	180.75639	157.37398	69.06637	0.30857	 	2.22601E23	 	1.10321E-23	 	9282.443	27.3442	 
225.0	1.0	0.0	7.91215	7.07204	-10.33816	17.53777	15.24433	1.0648	0.93914	181.08749	157.49513	69.20362	0.30837	 	4.2062199999999994E23	 	5.78036E-24	 	9145.979	27.2928	 
220.0	1.0	0.0	7.91428	7.07014	-10.36224	17.52348	15.17552	1.0589	0.94438	181.41816	157.61564	69.34076	0.30816	 	8.051199999999999E23	 	2.98954E-24	 	9009.775	27.2408	 
215.0	1.0	0.0	7.9164	7.06825	-10.38629	17.50921	15.10671	1.05293	0.94973	181.74839	157.73552	69.47777	0.30796	 	1.56173E24	 	1.52558E-24	 	8873.83	27.189	 
210.0	1.0	0.0	7.91852	7.06636	-10.41029	17.49496	15.03789	1.04692	0.95518	182.0782	157.85477	69.61465	0.30776	 	3.0712E24	 	7.67823E-25	 	8738.146	27.1368	 
205.0	1.0	0.0	7.92064	7.06446	-10.43426	17.48072	14.96908	1.04085	0.96076	182.40757	157.9734	69.75142	0.30755	 	6.12563E24	 	3.80978E-25	 	8602.725	27.0842	 
200.0	1.0	0.0	7.92276	7.06258	-10.45819	17.46651	14.90026	1.03472	0.96645	182.73651	158.0914	69.88806	0.30735	 	1.23974E25	 	1.86275E-25	 	8467.568	27.0314	 
195.0	1.0	0.0	7.92487	7.06069	-10.48208	17.45232	14.83144	1.02854	0.97226	183.06501	158.20878	70.02458	0.30715	 	2.54714E25	 	8.97054E-26	 	8332.676	26.9784	 
190.0	1.0	0.0	7.92699	7.05881	-10.50593	17.43814	14.76261	1.02229	0.97819	183.39309	158.32554	70.16097	0.30695	 	5.31528E25	 	4.25287E-26	 	8198.051	26.925	 
185.0	1.0	0.0	7.9291	7.05693	-10.52974	17.42399	14.69379	1.016	0.98426	183.72073	158.44168	70.29725	0.30674	 	1.12713E26	 	1.98391E-26	 	8063.695	26.8712	 
180.0	1.0	0.0	7.9312	7.05506	-10.55351	17.40986	14.62496	1.00964	0.99046	184.04794	158.55721	70.4334	0.30654	 	2.43009E26	 	9.10135E-27	 	7929.609	26.8172	 
175.0	1.0	0.0	7.93331	7.05319	-10.57725	17.39574	14.55613	1.00322	0.99679	184.37473	158.67213	70.56943	0.30634	 	5.329890000000001E26	 	4.10385E-27	 	7795.796	26.7626	 
170.0	1.0	0.0	7.93541	7.05132	-10.60094	17.38165	14.4873	0.99674	1.00327	184.70108	158.78643	70.70533	0.30613	 	1.1899E27	 	1.81772E-27	 	7662.258	26.7076	 
165.0	1.0	0.0	7.93751	7.04945	-10.6246	17.36757	14.41847	0.9902	1.0099	185.027	158.90012	70.84111	0.30593	 	2.7056E27	 	7.90398E-28	 	7528.996	26.6524	 
160.0	1.0	0.0	7.93961	7.04759	-10.64822	17.35352	14.34964	0.98359	1.01668	185.35249	159.01321	70.97677	0.30573	 	6.269789999999999E27	 	3.37188E-28	 	7396.013	26.5966	 
155.0	1.0	0.0	7.94171	7.04573	-10.6718	17.33948	14.2808	0.97692	1.02362	185.67755	159.1257	71.11231	0.30552	 	1.48172E28	 	1.41031E-28	 	7263.312	26.5402	 
150.0	1.0	0.0	7.9438	7.04387	-10.69535	17.32547	14.21196	0.97019	1.03072	186.00218	159.23758	71.24773	0.30532	 	3.57362E28	 	5.77927E-29	 	7130.895	26.4834	 
145.0	1.0	0.0	7.94589	7.04202	-10.71885	17.31147	14.14312	0.9634	1.038	186.32638	159.34886	71.38302	0.30512	 	8.802230000000001E28	 	2.3186E-29	 	6998.765	26.426	 
140.0	1.0	0.0	7.94798	7.04017	-10.74232	17.2975	14.07428	0.95653	1.04544	186.65016	159.45955	71.5182	0.30491	 	2.21592E29	 	9.1E-30	 	6866.925	26.368	 
135.0	1.0	0.0	7.95007	7.03832	-10.76575	17.28354	14.00543	0.9496	1.05307	186.97351	159.56964	71.65325	0.30471	 	5.706080000000001E29	 	3.49115E-30	 	6735.378	26.3094	 
130.0	1.0	0.0	7.95215	7.03647	-10.78914	17.26961	13.93659	0.9426	1.06089	187.29643	159.67914	71.78818	0.30451	 	1.5042199999999999E30	 	1.3081E-30	 	6604.127	26.2502	 
125.0	1.0	0.0	7.95423	7.03463	-10.8125	17.25569	13.86774	0.93553	1.06891	187.61893	159.78805	71.92299	0.3043	 	4.0631099999999996E30	 	4.78272E-31	 	6473.176	26.1902	 
120.0	1.0	0.0	7.95631	7.03279	-10.83581	17.2418	13.79889	0.92839	1.07713	187.941	159.89637	72.05767	0.3041	 	1.12559E31	 	1.70476E-31	 	6342.528	26.1296	 
115.0	1.0	0.0	7.95839	7.03096	-10.85909	17.22792	13.73004	0.92118	1.08556	188.26265	160.00411	72.19224	0.3039	 	3.2011499999999997E31	 	5.91807E-32	 	6212.188	26.068	 
110.0	1.0	0.0	7.96047	7.02912	-10.88234	17.21406	13.66118	0.9139	1.09421	188.58388	160.11127	72.32669	0.30369	 	9.35573E31	 	1.99884E-32	 	6082.16	26.0056	 
105.0	1.0	0.0	7.96254	7.02729	-10.90554	17.20023	13.59232	0.90654	1.10309	188.90469	160.21785	72.46102	0.30349	 	2.81298E32	 	6.56122E-33	 	5952.448	25.9424	 
100.0	1.0	0.0	7.96461	7.02547	-10.92871	17.18641	13.52346	0.89911	1.11221	189.22508	160.32386	72.59523	0.30329	 	8.71098E32	 	2.09075E-33	 	5823.056	25.8784	 
95.0	1.0	0.0	7.96668	7.02364	-10.95184	17.17261	13.4546	0.8916	1.12158	189.54506	160.42929	72.72932	0.30309	 	2.7816500000000003E33	 	6.45965E-34	 	5693.991	25.813	 
90.0	1.0	0.0	7.96875	7.02182	-10.97494	17.15883	13.38574	0.88402	1.1312	189.86461	160.53415	72.86329	0.30288	 	9.17112E33	 	1.93264E-34	 	5565.257	25.7468	 
85.0	1.0	0.0	7.97081	7.02	-10.99799	17.14508	13.31687	0.87636	1.14109	190.18375	160.63845	72.99715	0.30268	 	3.1261500000000003E34	 	5.59168E-35	 	5436.859	25.6796	 
80.0	1.0	0.0	7.97287	7.01818	-11.02101	17.13134	13.248	0.86861	1.15126	190.50248	160.74219	73.13089	0.30248	 	1.10326E35	 	1.56232E-35	 	5308.804	25.611	 
75.0	1.0	0.0	7.97493	7.01637	-11.04399	17.11762	13.17913	0.86079	1.16172	190.8208	160.84536	73.26451	0.30227	 	4.0371599999999994E35	 	4.20898E-36	 	5181.098	25.5412	 
70.0	1.0	0.0	7.97699	7.01456	-11.06694	17.10392	13.11026	0.85288	1.17249	191.13871	160.94798	73.39802	0.30207	 	1.53424E36	 	1.09164E-36	 	5053.749	25.4698	 
65.0	1.0	0.0	7.97905	7.01276	-11.08985	17.09024	13.04139	0.8449	1.18358	191.45621	161.05005	73.53141	0.30187	 	6.06536E36	 	2.72107E-37	 	4926.762	25.3974	 
60.0	1.0	0.0	7.9811	7.01095	-11.11272	17.07659	12.97251	0.83682	1.195	191.77331	161.15157	73.6647	0.30166	 	2.49885E37	 	6.50709E-38	 	4800.147	25.323	 
55.0	1.0	0.0	7.98315	7.00915	-11.13556	17.06295	12.90363	0.82866	1.20676	192.09001	161.25255	73.79786	0.30146	 	1.0748799999999999E38	 	1.49004E-38	 	4673.91	25.2474	 
50.0	1.0	0.0	7.9852	7.00735	-11.15836	17.04933	12.83475	0.82042	1.21889	192.40631	161.35298	73.93092	0.30126	 	4.8371299999999994E38	 	3.26064E-39	 	4548.062	25.1696	 
45.0	1.0	0.0	7.98725	7.00556	-11.18112	17.03573	12.76586	0.81208	1.2314	192.72221	161.45288	74.06387	0.30105	 	2.28217E39	 	6.8041E-40	 	4422.61	25.0904	 
40.0	1.0	0.0	7.98929	7.00376	-11.20385	17.02215	12.69697	0.80366	1.24431	193.03772	161.55225	74.1967	0.30085	 	1.13142E40	 	1.35088E-40	 	4297.566	25.0088	 
35.0	1.0	0.0	7.99133	7.00197	-11.22654	17.00859	12.62808	0.79514	1.25764	193.35285	161.65109	74.32943	0.30065	 	5.9083E40	 	2.54558E-41	 	4172.94	24.9252	 
30.0	1.0	0.0	7.99337	7.00019	-11.2492	16.99505	12.55919	0.78653	1.27141	193.66759	161.74941	74.46206	0.30044	 	3.2582200000000003E41	 	4.54113E-42	 	4048.743	24.8394	 
25.0	1.0	0.0	7.99541	6.9984	-11.27182	 	12.4903	0.77782	1.28564	193.98195	161.84721	74.59457	0.30024	 	1.9026899999999998E42	 	7.64808E-43	 	3924.987	 	 
