T (C)	Fraction solid (wt)-TOTAL	Fraction liquid (wt)-LIQUID	Density (g/(cm)^3)-TOTAL	Molar volume (cm^3)-TOTAL	Volume change (%)-  	Average expansion coeff. (10e-6 1/K)-  	Thermal conductivity (W/(m*K))-TOTAL	Electrical resistivity (10e-6 Ohm*m)-TOTAL	Electrical conductivity (10e6 1/(Ohm*m))-TOTAL	Young's modulus (GPa)-TOTAL	Bulk modulus (GPa)-TOTAL	Shear modulus(GPa)-TOTAL	Poisson's ratio-TOTAL	Liquid viscosity (mPa s)-  	Total viscosity (mPa s)-  	Liquid diffusivity (10e-9 (m^2)/s)-  	Total diffusivity (10e-9 (m^2)/s)-  	Surface Tension (mN/m)-  	Enthalpy (J/mole)-TOTAL	Specific heat (J/(mole K))-TOTAL	Latent heat (J/mole)-TOTAL
1500.0	0.0	1.0	6.99174	7.88515	0.0	25.18284	31.5514	1.83124	0.54608	0.0	104.88556	0.0	0.4997	6.90975	6.90975	1.25248	1.25248	1806.52645	66134.422	 	0.0
1495.0	0.0	1.0	6.99561	7.88078	-0.0553832	25.12892	31.47287	1.83063	0.54626	0.0	105.06992	0.0	0.4997	6.96968	6.96968	1.23821	1.23821	1808.46623	65912.262	44.432	0.0
1490.0	0.0	1.0	6.99948	7.87643	-0.11061	25.07502	31.39433	1.83002	0.54644	0.0	105.25429	0.0	0.4997	7.03049	7.03049	1.22403	1.22403	1810.40319	65690.666	44.3192	0.0
1485.0	0.0	1.0	7.00334	7.87208	-0.16568	25.02114	31.31579	1.82941	0.54663	0.0	105.43866	0.0	0.4997	7.09217	7.09217	1.20994	1.20994	1812.3373	65469.628	44.2076	0.0
1480.0	0.0	1.0	7.0072	7.86775	-0.2206	24.96729	31.23725	1.82879	0.54681	0.0	105.62303	0.0	0.4997	7.15475	7.15475	1.19595	1.19595	1814.26852	65249.144	44.0968	0.0
1476.32	0.0	1.0	7.01003	7.86458	-0.26092	24.92767	31.17946	1.82834	0.54695	0.0	105.7587	0.0	0.4997	7.20137	7.20137	1.18571	1.18571	1815.68775	65087.236	44.0057	0.018
1475.0	0.0988909	0.90111	7.02835	7.84405	-0.5212	24.28535	31.47253	1.80994	0.5525	0.0044082	101.11582	0.00148399	0.48525	7.20724	8.43875	1.18385	1.01108	1814.80642	64053.867	782.411	975.34
1470.0	0.37572	0.62428	7.08088	7.7859	-1.25867	22.4786	32.32115	1.75738	0.56903	0.95572	88.15366	0.33085	0.44434	7.2306	64.01946	1.17665	0.1329	1811.86235	61117.498	587.274	3692.322
1465.0	0.53919	0.46081	7.11347	7.75035	-1.70957	21.3966	32.83544	1.72489	0.57975	4.16316	80.60923	1.4661	0.41981	7.25489	246.20445	1.16935	0.034457	1809.31572	59312.383	361.023	5278.594
1460.0	0.64471	0.35529	7.13576	7.72627	-2.01491	20.68285	33.16557	1.70281	0.58726	8.68671	75.86958	3.09406	0.40377	7.27989	511.80041	1.16198	0.0165281	1807.08258	58085.175	245.442	6287.496
1455.0	0.71738	0.28262	7.15215	7.70874	-2.23717	20.17934	33.38443	1.68677	0.59285	13.54582	72.73351	4.86347	0.39261	7.30567	812.29502	1.15454	0.0103838	1805.09916	57184.253	180.184	6970.648
1450.0	0.76971	0.23029	7.16487	7.69522	-2.40871	19.80418	33.53069	1.67455	0.59718	18.22055	70.59507	6.58031	0.38448	7.33183	1120.6902	1.14709	0.00750454	1803.3226	56484.378	139.975	7453.297
1445.0	0.80887	0.19113	7.1752	7.68438	-2.54621	19.51518	33.62869	1.66483	0.60066	22.5207	69.10676	8.1696	0.37832	7.35881	1426.33287	1.13957	0.00587932	1801.71089	55913.992	114.077	7807.02
1440.0	0.83904	0.16096	7.18387	7.67533	-2.66094	19.28374	33.69268	1.65683	0.60356	26.39825	68.06349	9.60969	0.37352	7.38655	1725.65001	1.13198	0.0048454	1800.23939	55431.548	96.4888	8073.359
1435.0	0.86285	0.13715	7.19138	7.66754	-2.75972	19.09259	33.73214	1.65006	0.60604	29.87145	67.33629	10.90451	0.36968	7.41465	2018.66776	1.1244	0.00412998	1798.88743	55011.087	84.0922	8278.267
1430.0	0.882	0.118	7.19802	7.66071	-2.84636	18.93206	33.75344	1.64419	0.6082	32.97977	66.84151	12.06681	0.36655	7.44365	2306.78393	1.11674	0.00360357	1797.63344	54635.696	75.0782	8438.655
1429.14	0.88502	0.11498	7.19914	7.65957	-2.86084	18.90552	33.75596	1.64324	0.60856	33.49658	66.77105	12.26037	0.36605	7.4486	2357.08697	1.11544	0.00352488	1797.42308	54573.88	 	8463.39
1425.0	0.90086	0.0991388	7.20478	7.6538	-2.93404	18.76766	33.7475	1.63965	0.60988	36.45211	66.71073	13.36539	0.36368	7.47767	2668.77996	1.1084	0.00310563	1796.15092	54237.789	79.5814	8622.105
1424.91	0.90118	0.0988202	7.2049	7.65368	-2.93545	18.76516	33.74726	1.63958	0.60991	36.51392	66.71055	13.38851	0.36363	7.47838	2675.64611	1.10823	0.00309749	1796.12119	54230.677	 	8625.226
1420.0	0.91362	0.0863761	7.20975	7.64861	-2.99977	18.66035	33.71629	1.63634	0.61112	39.11036	66.86731	14.36047	0.36174	7.51331	3000.73055	1.09989	0.00275394	1794.71932	53888.628	69.8322	8757.35
1415.0	0.92405	0.0759503	7.21429	7.64389	-3.0596	18.56802	33.68018	1.63326	0.61227	41.46297	67.08353	15.2425	0.36011	7.5494	3329.9761	1.0914	0.00247432	1793.38421	53566.912	64.3432	8865.688
1410.0	0.93272	0.0672763	7.21852	7.6395	-3.11531	18.48603	33.64047	1.63034	0.61337	43.57088	67.34322	16.0338	0.35872	7.58583	3660.16429	1.08295	0.00224444	1792.13402	53266.002	60.182	8953.756
1405.0	0.94003	0.0599684	7.22251	7.63537	-3.16772	18.4123	33.59792	1.62756	0.61442	45.4757	67.63735	16.74964	0.35751	7.6226	3994.03969	1.07452	0.00205071	1790.95611	52981.329	56.9346	9026.113
1403.82	0.9416	0.0584043	7.22343	7.63442	-3.1798	18.39558	33.58758	1.62692	0.61466	45.90094	67.71058	16.90954	0.35725	7.6313	4073.70702	1.07254	0.0020092	1790.68394	52916.207	 	9041.325
1400.0	0.94903	0.0509713	7.22771	7.63	-3.23577	18.29592	33.55972	1.62455	0.61555	47.86301	67.90562	17.64779	0.35606	7.68023	4397.43865	1.06328	0.00185704	1791.03488	52671.973	61.8712	9123.678
1395.0	0.95702	0.04298	7.23275	7.62481	-3.30159	18.18469	33.5196	1.62164	0.61666	50.12421	68.201	18.49951	0.35474	7.74506	4815.98375	1.05123	0.00169058	1791.51484	52374.695	59.4556	9209.687
1393.87	0.97709	0.0229104	7.24361	7.61532	-3.42197	17.87397	33.59876	1.61672	0.61854	54.95117	67.48314	20.32973	0.3515	7.75989	5296.02096	1.04851	0.0015363	1791.62659	52222.549	 	9313.959
1390.0	0.98317	0.0168298	7.24812	7.61099	-3.4769	17.77548	33.57553	1.61408	0.61955	56.84115	67.64905	21.04572	0.35042	7.80912	5658.15519	1.03948	0.00143464	1791.96632	52016.679	71.6032	9356.952
1385.0	0.98967	0.0103338	7.25348	7.60586	-3.54197	17.66359	33.54109	1.61088	0.62078	59.00821	67.91019	21.86743	0.34923	7.87422	6125.74306	1.02779	0.00132115	1792.44598	51764.771	50.3816	9398.623
1380.0	0.9949	0.00510109	7.25841	7.60117	-3.60141	17.56625	33.50255	1.60787	0.62194	60.90366	68.21362	22.58676	0.34822	7.94094	6595.07923	1.01608	0.00122343	1792.96184	51525.851	47.784	9427.817
1375.92	0.99841	0.00159371	7.26214	7.59762	-3.64646	17.49571	33.46861	1.60554	0.62285	62.27863	68.48639	23.10888	0.3475	7.99646	6981.40784	1.00653	0.00115288	1793.4064	51338.618	 	9444.421
1375.0	0.99867	0.00132697	7.2627	7.59706	-3.65356	17.4882	33.45845	1.60512	0.623	62.44892	68.56858	23.17337	0.34743	8.00907	7056.97105	1.00439	0.0011399	1793.508	51298.732	45.4238	9445.718
1370.0	1.0	0.0	7.26568	7.59407	-3.69147	17.44877	33.40314	1.6029	0.62387	63.34454	69.01789	23.51261	0.34703	 	7477.70496	 	0.0010725	 	51084.261	42.8942	9451.471
1365.0	1.0	0.0	7.26794	7.5917	-3.7215	17.43088	33.344	1.60086	0.62466	63.8619	69.49171	23.70813	0.34684	 	7874.26208	 	0.00101538	 	50829.549	50.9424	 
1360.0	1.0	0.0	7.27021	7.58934	-3.75147	17.41298	33.28486	1.59881	0.62546	64.38284	69.9682	23.90503	0.34664	 	8294.55892	 	9.60991E-4	 	50629.434	40.023	 
1355.0	1.0	0.0	7.27247	7.58698	-3.78139	17.39508	33.22572	1.59675	0.62627	64.90731	70.44729	24.10331	0.34644	 	8740.17231	 	9.09204E-4	 	50429.572	39.9724	 
1350.0	1.0	0.0	7.27473	7.58462	-3.81127	17.37719	33.16658	1.59469	0.62708	65.43527	70.92893	24.30294	0.34624	 	9212.79383	 	8.59912E-4	 	50229.957	39.923	 
1345.0	1.0	0.0	7.27698	7.58227	-3.8411	17.35929	33.10744	1.59262	0.6279	65.96668	71.41307	24.5039	0.34604	 	9714.23895	 	8.13012E-4	 	50030.589	39.8736	 
1340.0	1.0	0.0	7.27924	7.57992	-3.87088	17.34139	33.0483	1.59054	0.62872	66.5015	71.89965	24.7062	0.34585	 	10246.4568	 	7.68401E-4	 	49831.466	39.8246	 
1335.0	1.0	0.0	7.28149	7.57758	-3.90062	17.32349	32.98916	1.58845	0.62955	67.03969	72.38862	24.9098	0.34565	 	10811.54092	 	7.25982E-4	 	49632.588	39.7756	 
1330.0	1.0	0.0	7.28374	7.57524	-3.9303	17.30558	32.93002	1.58635	0.63038	67.5812	72.87993	25.11471	0.34545	 	11411.74084	 	6.8566E-4	 	49433.951	39.7274	 
1325.0	1.0	0.0	7.28599	7.5729	-3.95994	17.28768	32.87088	1.58425	0.63121	68.12601	73.37352	25.32089	0.34525	 	12049.47468	 	6.47345E-4	 	49235.556	39.679	 
1320.0	1.0	0.0	7.28823	7.57057	-3.98953	17.26978	32.81174	1.58214	0.63205	68.67406	73.86935	25.52834	0.34506	 	12727.3429	 	6.1095E-4	 	49037.401	39.631	 
1315.0	1.0	0.0	7.29048	7.56824	-4.01907	17.25187	32.75259	1.58002	0.6329	69.22531	74.36735	25.73705	0.34486	 	13448.14318	 	5.76389E-4	 	48839.484	39.5834	 
1310.0	1.0	0.0	7.29272	7.56591	-4.04857	17.23396	32.69345	1.5779	0.63375	69.77973	74.86748	25.94699	0.34466	 	14214.88667	 	5.43582E-4	 	48641.804	39.536	 
1305.0	1.0	0.0	7.29496	7.56359	-4.07801	17.21606	32.63431	1.57577	0.63461	70.33728	75.36969	26.15816	0.34446	 	15030.81563	 	5.12451E-4	 	48444.359	39.489	 
1300.0	1.0	0.0	7.29719	7.56127	-4.10741	17.19815	32.57517	1.57362	0.63548	70.89791	75.87393	26.37053	0.34426	 	15899.4227	 	4.8292E-4	 	48247.148	39.4422	 
1295.0	1.0	0.0	7.29943	7.55896	-4.13676	17.18024	32.51603	1.57148	0.63634	71.46158	76.38014	26.58411	0.34407	 	16824.47187	 	4.54918E-4	 	48050.169	39.3958	 
1290.0	1.0	0.0	7.30166	7.55665	-4.16606	17.16232	32.45689	1.56932	0.63722	72.02826	76.88827	26.79886	0.34387	 	17810.02128	 	4.28374E-4	 	47853.421	39.3496	 
1285.0	1.0	0.0	7.30389	7.55434	-4.19532	17.14441	32.39775	1.56716	0.6381	72.5979	77.39828	27.01478	0.34367	 	18860.44823	 	4.03222E-4	 	47656.903	39.3036	 
1280.0	1.0	0.0	7.30612	7.55204	-4.22453	17.1265	32.3386	1.56498	0.63898	73.17047	77.91011	27.23185	0.34347	 	19980.4763	 	3.79397E-4	 	47460.612	39.2582	 
1275.0	1.0	0.0	7.30834	7.54974	-4.25368	17.10858	32.27946	1.5628	0.63988	73.74592	78.42371	27.45005	0.34327	 	21175.20512	 	3.56839E-4	 	47264.547	39.213	 
1270.0	1.0	0.0	7.31056	7.54744	-4.28279	17.09067	32.22032	1.56062	0.64077	74.32421	78.93904	27.66938	0.34308	 	22450.14276	 	3.35487E-4	 	47068.706	39.1682	 
1265.0	1.0	0.0	7.31278	7.54515	-4.31186	17.07275	32.16117	1.55842	0.64168	74.90531	79.45605	27.88982	0.34288	 	23811.2412	 	3.15285E-4	 	46873.088	39.1236	 
1260.0	1.0	0.0	7.315	7.54286	-4.34087	17.05483	32.10203	1.55622	0.64258	75.48917	79.97469	28.11136	0.34268	 	25264.93511	 	2.96178E-4	 	46677.691	39.0794	 
1255.0	1.0	0.0	7.31722	7.54058	-4.36984	17.03691	32.04289	1.554	0.6435	76.07576	80.4949	28.33397	0.34248	 	26818.18422	 	2.78114E-4	 	46482.513	39.0356	 
1250.0	1.0	0.0	7.31943	7.5383	-4.39876	17.01899	31.98374	1.55178	0.64442	76.66502	81.01664	28.55765	0.34229	 	28478.51975	 	2.61043E-4	 	46287.552	38.9922	 
1245.0	1.0	0.0	7.32164	7.53602	-4.42763	17.00107	31.9246	1.54955	0.64535	77.25694	81.53987	28.78237	0.34209	 	30254.09523	 	2.44916E-4	 	46092.807	38.949	 
1240.0	1.0	0.0	7.32385	7.53375	-4.45645	16.98315	31.86546	1.54732	0.64628	77.85145	82.06454	29.00814	0.34189	 	32153.7422	 	2.29687E-4	 	45898.276	38.9062	 
1235.0	1.0	0.0	7.32606	7.53148	-4.48523	16.96522	31.80631	1.54507	0.64722	78.44853	82.59059	29.23493	0.34169	 	34187.03125	 	2.15313E-4	 	45703.957	38.8638	 
1230.0	1.0	0.0	7.32826	7.52922	-4.51395	16.9473	31.74717	1.54282	0.64816	79.04814	83.11798	29.46272	0.34149	 	36364.33897	 	2.0175E-4	 	45509.847	38.822	 
1225.0	1.0	0.0	7.33046	7.52696	-4.54263	16.92937	31.68802	1.54056	0.64912	79.65023	83.64667	29.69151	0.3413	 	38696.92144	 	1.88958E-4	 	45315.945	38.7804	 
1220.0	1.0	0.0	7.33266	7.5247	-4.57126	16.91145	31.62888	1.53829	0.65007	80.25476	84.17661	29.92128	0.3411	 	41196.99492	 	1.76899E-4	 	45122.249	38.7392	 
1215.0	1.0	0.0	7.33486	7.52244	-4.59984	16.89352	31.56973	1.53601	0.65104	80.8617	84.70775	30.15201	0.3409	 	43877.82449	 	1.65534E-4	 	44928.756	38.6986	 
1210.0	1.0	0.0	7.33705	7.52019	-4.62838	16.87559	31.51059	1.53372	0.65201	81.47101	85.24004	30.38369	0.3407	 	46753.82148	 	1.5483E-4	 	44735.464	38.6584	 
1205.0	1.0	0.0	7.33925	7.51795	-4.65686	16.85766	31.45144	1.53142	0.65299	82.08264	85.77345	30.61631	0.3405	 	49840.65067	 	1.44751E-4	 	44542.371	38.6186	 
1200.0	1.0	0.0	7.34144	7.51571	-4.6853	16.83973	31.3923	1.52912	0.65397	82.69656	86.30792	30.84986	0.34031	 	53155.34818	 	1.35265E-4	 	44349.475	38.5792	 
1195.0	1.0	0.0	7.34362	7.51347	-4.71369	16.82179	31.33315	1.52681	0.65496	83.31273	86.84342	31.0843	0.34011	 	56716.45141	 	1.26342E-4	 	44156.773	38.5404	 
1190.0	1.0	0.0	7.34581	7.51123	-4.74204	16.80386	31.27401	1.52448	0.65596	83.93111	87.37989	31.31965	0.33991	 	60544.14205	 	1.17951E-4	 	43964.263	38.502	 
1185.0	1.0	0.0	7.34799	7.509	-4.77033	16.78592	31.21486	1.52215	0.65696	84.55165	87.91729	31.55587	0.33971	 	64660.40386	 	1.10065E-4	 	43771.942	38.4642	 
1180.0	1.0	0.0	7.35017	7.50677	-4.79858	16.76799	31.15571	1.51981	0.65798	85.17433	88.45558	31.79295	0.33952	 	69089.19665	 	1.02657E-4	 	43579.809	38.4266	 
1175.0	1.0	0.0	7.35235	7.50455	-4.82677	16.75005	31.09657	1.51747	0.65899	85.7991	88.99471	32.03089	0.33932	 	73856.64832	 	9.56997E-5	 	43387.859	38.39	 
1170.0	1.0	0.0	7.35452	7.50233	-4.85492	16.73211	31.03742	1.51511	0.66002	86.42591	89.53464	32.26966	0.33912	 	78991.26695	 	8.91701E-5	 	43196.092	38.3534	 
1165.0	1.0	0.0	7.3567	7.50012	-4.88303	16.71417	30.97827	1.51274	0.66105	87.05474	90.07533	32.50926	0.33892	 	84524.17513	 	8.30443E-5	 	43004.504	38.3176	 
1160.0	1.0	0.0	7.35887	7.4979	-4.91108	16.69623	30.91913	1.51037	0.66209	87.68555	90.61673	32.74966	0.33872	 	90489.36915	 	7.73002E-5	 	42813.092	38.2824	 
1155.0	1.0	0.0	7.36103	7.49569	-4.93909	16.67829	30.85998	1.50798	0.66314	88.31829	91.1588	32.99086	0.33853	 	96924.00573	 	7.19166E-5	 	42621.853	38.2478	 
1150.0	1.0	0.0	7.3632	7.49349	-4.96704	16.66034	30.80083	1.50559	0.66419	88.95292	91.7015	33.23283	0.33833	 	103868.7194	 	6.68733E-5	 	42430.785	38.2136	 
1145.0	1.0	0.0	7.36536	7.49129	-4.99495	16.6424	30.74168	1.50318	0.66525	89.58941	92.24478	33.47558	0.33813	 	111367.9743	 	6.21511E-5	 	42239.886	38.1798	 
1140.0	1.0	0.0	7.36752	7.48909	-5.02282	16.62445	30.68254	1.50077	0.66632	90.22772	92.78861	33.71907	0.33793	 	119470.4539	 	5.77317E-5	 	42049.151	38.147	 
1135.0	1.0	0.0	7.36968	7.4869	-5.05063	16.60651	30.62339	1.49835	0.6674	90.86781	93.33294	33.9633	0.33774	 	128229.4936	 	5.35979E-5	 	41858.577	38.1148	 
1130.0	1.0	0.0	7.37184	7.48471	-5.0784	16.58856	30.56424	1.49592	0.66849	91.50963	93.87772	34.20825	0.33754	 	137703.5605	 	4.97331E-5	 	41668.163	38.0828	 
1125.0	1.0	0.0	7.37399	7.48252	-5.10611	16.57061	30.50509	1.49348	0.66958	92.15316	94.42293	34.45391	0.33734	 	147956.7869	 	4.61217E-5	 	41477.904	38.0518	 
1120.0	1.0	0.0	7.37614	7.48034	-5.13378	16.55266	30.44594	1.49103	0.67068	92.79835	94.96851	34.70026	0.33714	 	159059.5625	 	4.27489E-5	 	41287.797	38.0214	 
1115.0	1.0	0.0	7.37829	7.47816	-5.1614	16.53471	30.38679	1.48857	0.67179	93.44516	95.51443	34.9473	0.33694	 	171089.1941	 	3.96005E-5	 	41097.838	37.9918	 
1110.0	1.0	0.0	7.38044	7.47599	-5.18898	16.51676	30.32765	1.4861	0.6729	94.09356	96.06064	35.195	0.33675	 	184130.6385	 	3.66632E-5	 	40908.026	37.9624	 
1105.0	1.0	0.0	7.38258	7.47382	-5.2165	16.4988	30.2685	1.48362	0.67403	94.7435	96.60711	35.44335	0.33655	 	198277.3202	 	3.39242E-5	 	40718.355	37.9342	 
1100.0	1.0	0.0	7.38472	7.47165	-5.24398	16.48085	30.20935	1.48113	0.67516	95.39495	97.15379	35.69234	0.33635	 	213632.0416	 	3.13717E-5	 	40528.822	37.9066	 
1095.0	1.0	0.0	7.38686	7.46949	-5.27141	16.46289	30.1502	1.47864	0.6763	96.04788	97.70064	35.94195	0.33615	 	230307.9987	 	2.89942E-5	 	40339.423	37.8798	 
1090.0	1.0	0.0	7.38899	7.46733	-5.29879	16.44493	30.09106	1.47613	0.67745	96.70223	98.24763	36.19217	0.33595	 	248429.9152	 	2.6781E-5	 	40150.156	37.8534	 
1085.0	1.0	0.0	7.39113	7.46518	-5.32612	16.42698	30.03191	1.47361	0.67861	97.35797	98.79472	36.44299	0.33576	 	268135.308	 	2.47218E-5	 	39961.015	37.8282	 
1080.0	1.0	0.0	7.39326	7.46303	-5.3534	16.40902	29.97276	1.47108	0.67977	98.01507	99.34186	36.69439	0.33556	 	289575.9032	 	2.28071E-5	 	39771.997	37.8036	 
1075.0	1.0	0.0	7.39539	7.46088	-5.38064	16.39106	29.91362	1.46854	0.68095	98.67348	99.88902	36.94636	0.33536	 	312919.2188	 	2.10277E-5	 	39583.098	37.7798	 
1070.0	1.0	0.0	7.39751	7.45873	-5.40783	16.37309	29.85447	1.466	0.68213	99.33317	100.43616	37.19887	0.33516	 	338350.337	 	1.93751E-5	 	39394.313	37.757	 
1065.0	1.0	0.0	7.39963	7.45659	-5.43497	16.35513	29.79533	1.46344	0.68332	99.9941	100.98324	37.45193	0.33497	 	366073.8897	 	1.78411E-5	 	39205.638	37.735	 
1060.0	1.0	0.0	7.40175	7.45446	-5.46206	16.33717	29.73619	1.46087	0.68452	100.65623	101.53021	37.70551	0.33477	 	396316.2842	 	1.64181E-5	 	39017.069	37.7138	 
1055.0	1.0	0.0	7.40387	7.45233	-5.4891	16.3192	29.67704	1.45829	0.68573	101.31952	102.07705	37.95961	0.33457	 	429328.201	 	1.50989E-5	 	38828.601	37.6936	 
1050.0	1.0	0.0	7.40599	7.4502	-5.5161	16.30124	29.6179	1.4557	0.68695	101.98393	102.62372	38.21419	0.33437	 	465387.3973	 	1.38765E-5	 	38640.229	37.6744	 
1045.0	1.0	0.0	7.4081	7.44807	-5.54304	16.28327	29.55877	1.4531	0.68818	102.64943	103.17017	38.46927	0.33417	 	504801.8593	 	1.27447E-5	 	38451.949	37.656	 
1040.0	1.0	0.0	7.41021	7.44595	-5.56994	16.2653	29.49963	1.45049	0.68942	103.31598	103.71637	38.7248	0.33398	 	547913.3456	 	1.16974E-5	 	38263.755	37.6388	 
1035.0	1.0	0.0	7.41232	7.44383	-5.59679	16.24733	29.4405	1.44787	0.69067	103.98353	104.26229	38.9808	0.33378	 	595101.3769	 	1.07289E-5	 	38075.643	37.6224	 
1030.0	1.0	0.0	7.41442	7.44172	-5.6236	16.22936	29.38137	1.44524	0.69193	104.65206	104.80788	39.23723	0.33358	 	646787.7298	 	9.83375E-6	 	37887.607	37.6072	 
1025.0	1.0	0.0	7.41653	7.43961	-5.65035	16.21139	29.32224	1.4426	0.69319	105.32152	105.3531	39.49409	0.33338	 	703441.5034	 	9.00707E-6	 	37699.642	37.593	 
1020.0	1.0	0.0	7.41863	7.4375	-5.67706	16.19342	29.26312	1.43995	0.69447	105.99188	105.89793	39.75136	0.33319	 	765584.8359	 	8.24408E-6	 	37511.742	37.58	 
1015.0	1.0	0.0	7.42072	7.4354	-5.70371	16.17544	29.204	1.43728	0.69576	106.6631	106.44233	40.00903	0.33299	 	833799.3615	 	7.54035E-6	 	37323.902	37.568	 
1010.0	1.0	0.0	7.42282	7.4333	-5.73032	16.15747	29.14488	1.43461	0.69706	107.33513	106.98625	40.26709	0.33279	 	908733.5074	 	6.89172E-6	 	37136.115	37.5574	 
1005.0	1.0	0.0	7.42491	7.43121	-5.75689	16.13949	29.08577	1.43192	0.69836	108.00795	107.52967	40.52551	0.33259	 	991110.7497	 	6.29428E-6	 	36948.375	37.548	 
1000.0	1.0	0.0	7.427	7.42912	-5.7834	16.12151	29.02667	1.42922	0.69968	108.68151	108.07254	40.78429	0.33239	 	1081738.961	 	5.74439E-6	 	36760.677	37.5396	 
995.0	1.0	0.0	7.42909	7.42703	-5.80986	16.10353	28.96757	1.42651	0.70101	109.35577	108.61484	41.04341	0.3322	 	1181521.004	 	5.23861E-6	 	36573.013	37.5328	 
990.0	1.0	0.0	7.43117	7.42495	-5.83628	16.08555	28.90848	1.42379	0.70235	110.0307	109.15652	41.30286	0.332	 	1291466.746	 	4.77374E-6	 	36385.377	37.5272	 
985.0	1.0	0.0	7.43325	7.42287	-5.86265	16.06757	28.84941	1.42106	0.7037	110.70627	109.69755	41.56262	0.3318	 	1412706.705	 	4.34677E-6	 	36197.762	37.523	 
980.0	1.0	0.0	7.43533	7.4208	-5.88897	16.04959	28.79033	1.41832	0.70506	111.38242	110.2379	41.82269	0.3316	 	1546507.546	 	3.95492E-6	 	36010.16	37.5204	 
975.0	1.0	0.0	7.43741	7.41872	-5.91524	16.03161	28.73128	1.41556	0.70643	112.05914	110.77753	42.08303	0.33141	 	1694289.72	 	3.59555E-6	 	35822.566	37.5188	 
970.0	1.0	0.0	7.43948	7.41666	-5.94146	16.01362	28.67223	1.4128	0.70782	112.73636	111.3164	42.34365	0.33121	 	1857647.538	 	3.26623E-6	 	35634.969	37.5194	 
965.0	1.0	0.0	7.44155	7.41459	-5.96764	15.99564	28.61319	1.41002	0.70921	113.41407	111.85449	42.60453	0.33101	 	2038372.045	 	2.96467E-6	 	35447.364	37.521	 
960.0	1.0	0.0	7.44362	7.41253	-5.99377	15.97765	28.55417	1.40723	0.71062	114.09222	112.39175	42.86565	0.33081	 	2238477.121	 	2.68875E-6	 	35259.741	37.5246	 
955.0	1.0	0.0	7.44569	7.41048	-6.01985	15.95966	28.49517	1.40442	0.71204	114.77078	112.92816	43.127	0.33061	 	2460229.276	 	2.43648E-6	 	35072.092	37.5298	 
950.0	1.0	0.0	7.44775	7.40842	-6.04588	15.94167	28.43618	1.40161	0.71347	115.4497	113.46368	43.38857	0.33042	 	2706181.705	 	2.20602E-6	 	34884.409	37.5366	 
945.0	1.0	0.0	7.44981	7.40637	-6.07186	15.92368	28.37722	1.39878	0.71491	116.12895	113.99827	43.65034	0.33022	 	2979213.252	 	1.99566E-6	 	34696.681	37.5456	 
940.0	1.0	0.0	7.45187	7.40433	-6.09779	15.90569	28.31827	1.39594	0.71637	116.8085	114.5319	43.91229	0.33002	 	3282573.033	 	1.80379E-6	 	34508.901	37.556	 
935.0	1.0	0.0	7.45392	7.40229	-6.12368	15.8877	28.25935	1.39308	0.71783	117.4883	115.06455	44.17442	0.32982	 	3619931.585	 	1.62895E-6	 	34321.057	37.5688	 
930.0	1.0	0.0	7.45597	7.40025	-6.14952	15.86971	28.20045	1.39021	0.71931	118.16831	115.59617	44.43671	0.32962	 	3995439.578	 	1.46974E-6	 	34133.14	37.5834	 
925.0	1.0	0.0	7.45802	7.39822	-6.17531	15.85171	28.14158	1.38733	0.72081	118.84851	116.12673	44.69915	0.32943	 	4413795.252	 	1.32491E-6	 	33945.139	37.6002	 
920.0	1.0	0.0	7.46007	7.39619	-6.20105	15.83372	28.08274	1.38444	0.72232	119.52885	116.65621	44.96171	0.32923	 	4880321.982	 	1.19326E-6	 	33757.043	37.6192	 
915.0	1.0	0.0	7.46211	7.39416	-6.22674	15.81572	28.02393	1.38153	0.72384	120.20929	117.18456	45.2244	0.32903	 	5401057.564	 	1.07369E-6	 	33568.841	37.6404	 
910.0	1.0	0.0	7.46415	7.39214	-6.25239	15.79772	27.96516	1.37861	0.72537	120.88981	117.71176	45.48719	0.32883	 	5982857.135	 	9.65201E-7	 	33380.521	37.664	 
905.0	1.0	0.0	7.46619	7.39012	-6.27798	15.77972	27.90642	1.37567	0.72692	121.57035	118.23777	45.75007	0.32864	 	6633511.914	 	8.6685E-7	 	33192.069	37.6904	 
900.0	1.0	0.0	7.46823	7.38811	-6.30353	15.76172	27.84772	1.37272	0.72848	122.25089	118.76256	46.01302	0.32844	 	7361886.358	 	7.7777E-7	 	33003.474	37.719	 
895.0	1.0	0.0	7.47026	7.3861	-6.32903	15.74372	27.78907	1.36975	0.73006	122.93138	119.2861	46.27604	0.32824	 	8178076.781	 	6.97163E-7	 	32814.722	37.7504	 
890.0	1.0	0.0	7.47229	7.38409	-6.35448	15.72572	27.73046	1.36677	0.73165	123.6118	119.80836	46.5391	0.32804	 	9093594.982	 	6.24291E-7	 	32625.798	37.7848	 
885.0	1.0	0.0	7.47432	7.38209	-6.37988	15.70771	27.67191	1.36378	0.73326	124.29209	120.32931	46.8022	0.32784	 	1.012158109E7	 	5.58474E-7	 	32436.688	37.822	 
880.0	1.0	0.0	7.47634	7.38009	-6.40524	15.68971	27.6134	1.36077	0.73488	124.97224	120.84891	47.06532	0.32765	 	1.127705058E7	 	4.99088E-7	 	32247.377	37.8622	 
875.0	1.0	0.0	7.47837	7.37809	-6.43054	15.6717	27.55495	1.35774	0.73652	125.65219	121.36714	47.32844	0.32745	 	1.257718121E7	 	4.45556E-7	 	32057.847	37.906	 
870.0	1.0	0.0	7.48039	7.3761	-6.4558	15.65369	27.49656	1.3547	0.73817	126.33191	121.88396	47.59156	0.32725	 	1.404164688E7	 	3.97349E-7	 	31868.083	37.9528	 
865.0	1.0	0.0	7.4824	7.37411	-6.48101	15.63569	27.43823	1.35164	0.73984	127.01137	122.39934	47.85466	0.32705	 	1.56930064E7	 	3.53981E-7	 	31678.066	38.0034	 
860.0	1.0	0.0	7.48442	7.37213	-6.50617	15.61768	27.37997	1.34857	0.74153	127.69052	122.91325	48.11772	0.32686	 	1.755715688E7	 	3.15007E-7	 	31487.777	38.0578	 
855.0	1.0	0.0	7.48643	7.37015	-6.53128	15.59967	27.32178	1.34547	0.74323	128.36934	123.42566	48.38073	0.32666	 	1.966386307E7	 	2.80017E-7	 	31297.198	38.1158	 
850.0	1.0	0.0	7.48843	7.36817	-6.55635	15.58165	27.26366	1.34237	0.74495	129.04777	123.93655	48.64368	0.32646	 	2.204737621E7	 	2.48638E-7	 	31106.306	38.1784	 
845.0	1.0	0.0	7.49044	7.3662	-6.58136	15.56364	27.20562	1.33924	0.74669	129.7258	124.44587	48.90655	0.32626	 	2.474715849E7	 	2.20527E-7	 	30915.081	38.245	 
840.0	1.0	0.0	7.49244	7.36423	-6.60633	15.54563	27.14766	1.3361	0.74845	130.40338	124.95361	49.16933	0.32606	 	2.78087321E7	 	1.95371E-7	 	30723.5	38.3162	 
835.0	1.0	0.0	7.49444	7.36227	-6.63125	15.52761	27.08979	1.33294	0.75022	131.08046	125.45972	49.432	0.32587	 	3.128467583E7	 	1.72884E-7	 	30531.537	38.3926	 
830.0	1.0	0.0	7.49644	7.3603	-6.65612	15.50959	27.032	1.32976	0.75201	131.75703	125.96419	49.69455	0.32567	 	3.523579628E7	 	1.52805E-7	 	30339.168	38.4738	 
825.0	1.0	0.0	7.49843	7.35835	-6.68095	15.49158	26.9743	1.32657	0.75383	132.43303	126.46698	49.95698	0.32547	 	3.973250618E7	 	1.34897E-7	 	30146.365	38.5606	 
820.0	1.0	0.0	7.50042	7.35639	-6.70572	15.47356	26.9167	1.32335	0.75566	133.10844	126.96806	50.21925	0.32527	 	4.485644875E7	 	1.18944E-7	 	29953.099	38.6532	 
815.0	1.0	0.0	7.50241	7.35444	-6.73045	15.45554	26.85919	1.32012	0.75751	133.78321	127.46741	50.48136	0.32508	 	5.070241459E7	 	1.04748E-7	 	29759.34	38.7518	 
810.0	1.0	0.0	7.5044	7.3525	-6.75512	15.43752	26.80178	1.31687	0.75938	134.45732	127.96499	50.7433	0.32488	 	5.738060711E7	 	9.21319E-8	 	29565.054	38.8572	 
805.0	1.0	0.0	7.50638	7.35056	-6.77975	15.4195	26.74448	1.3136	0.76127	135.13071	128.46077	51.00505	0.32468	 	6.501932359E7	 	8.09326E-8	 	29370.208	38.9692	 
800.0	1.0	0.0	7.50836	7.34862	-6.80433	15.40147	26.68728	1.31031	0.76318	135.80337	128.95473	51.2666	0.32448	 	7.37681329E7	 	7.10033E-8	 	29174.765	39.0886	 
795.0	1.0	0.0	7.51034	7.34668	-6.82886	15.38345	26.63019	1.307	0.76511	136.47524	129.44684	51.52793	0.32428	 	8.380164731E7	 	6.22109E-8	 	28978.684	39.2162	 
790.0	1.0	0.0	7.51231	7.34475	-6.85335	15.36542	26.5732	1.30367	0.76706	137.1463	129.93707	51.78904	0.32409	 	9.532400627E7	 	5.44351E-8	 	28781.924	39.352	 
785.0	1.0	0.0	7.51428	7.34283	-6.87778	15.3474	26.51633	1.30032	0.76904	137.81651	130.4254	52.04989	0.32389	 	1.085742146E8	 	4.75672E-8	 	28584.44	39.4968	 
780.0	1.0	0.0	7.51625	7.3409	-6.90217	15.32937	26.45957	1.29696	0.77104	138.48582	130.91179	52.31049	0.32369	 	1.238325077E8	 	4.1509E-8	 	28386.182	39.6516	 
775.0	1.0	0.0	7.51822	7.33898	-6.92651	15.31134	26.40291	1.29357	0.77306	139.15422	131.39621	52.57082	0.32349	 	1.414279531E8	 	3.61722E-8	 	28187.099	39.8166	 
770.0	1.0	0.0	7.52018	7.33707	-6.9508	15.29331	26.34638	1.29016	0.7751	139.82165	131.87865	52.83087	0.3233	 	1.617475436E8	 	3.14772E-8	 	27987.135	39.9928	 
765.0	1.0	0.0	7.52214	7.33516	-6.97504	15.27528	26.28995	1.28673	0.77716	140.48808	132.35906	53.09061	0.3231	 	1.852470903E8	 	2.73524E-8	 	27786.228	40.1814	 
760.0	1.0	0.0	7.5241	7.33325	-6.99923	15.25724	26.23363	1.28328	0.77925	141.15348	132.83743	53.35004	0.3229	 	2.124642958E8	 	2.37336E-8	 	27584.314	40.3828	 
755.0	1.0	0.0	7.52605	7.33135	-7.02338	15.23921	26.17743	1.27982	0.78136	141.81781	133.31373	53.60914	0.3227	 	2.440344673E8	 	2.05633E-8	 	27381.321	40.5986	 
750.0	1.0	0.0	7.528	7.32945	-7.04747	15.22118	26.12133	1.27633	0.7835	142.48104	133.78793	53.86791	0.3225	 	2.807094358E8	 	1.77897E-8	 	27177.174	40.8294	 
745.0	1.0	0.0	7.52995	7.32755	-7.07152	15.20314	26.06533	1.27282	0.78566	143.14312	134.26001	54.12632	0.32231	 	3.233803739E8	 	1.53668E-8	 	26971.787	41.0774	 
740.0	1.0	0.0	7.53189	7.32566	-7.09552	15.1851	26.00944	1.26929	0.78784	143.80403	134.72993	54.38436	0.32211	 	3.731053626E8	 	1.32535E-8	 	26765.072	41.343	 
735.0	1.0	0.0	7.53384	7.32377	-7.11947	15.16707	25.95365	1.26574	0.79005	144.46372	135.19767	54.64202	0.32191	 	4.311427551E8	 	1.14128E-8	 	26556.928	41.6288	 
730.0	1.0	0.0	7.53578	7.32188	-7.14337	15.14903	25.89795	1.26217	0.79229	145.12217	135.66321	54.89929	0.32171	 	4.989916261E8	 	9.81204E-9	 	26347.247	41.9362	 
725.0	1.0	0.0	7.53771	7.32	-7.16723	15.13099	25.84235	1.25858	0.79454	145.77933	136.12651	55.15614	0.32151	 	5.784409024E8	 	8.42216E-9	 	26135.91	42.2674	 
720.0	1.0	0.0	7.53965	7.31813	-7.19103	15.11294	25.78682	1.25497	0.79683	146.43517	136.58756	55.41258	0.32132	 	6.716291444E8	 	7.21725E-9	 	25922.789	42.6242	 
715.0	1.0	0.0	7.54158	7.31625	-7.21479	15.0949	25.73138	1.25135	0.79914	147.08965	137.04633	55.66857	0.32112	 	7.811174244E8	 	6.17438E-9	 	25707.74	43.0098	 
710.0	1.0	0.0	7.5435	7.31438	-7.2385	15.07686	25.676	1.2477	0.80147	147.74275	137.50279	55.92412	0.32092	 	9.099783367E8	 	5.27321E-9	 	25490.606	43.4268	 
705.0	1.0	0.0	7.54543	7.31252	-7.26216	15.05881	25.62069	1.24403	0.80384	148.39441	137.95692	56.1792	0.32072	 	1.061904919E9	 	4.4958E-9	 	25271.213	43.8786	 
700.0	1.0	0.0	7.54735	7.31066	-7.28577	15.04077	25.56544	1.24035	0.80622	149.04462	138.40868	56.43381	0.32053	 	1.241344197E9	 	3.82626E-9	 	25049.37	44.3686	 
695.0	1.0	0.0	7.54927	7.3088	-7.30933	15.02272	25.51023	1.23665	0.80864	149.69332	138.85807	56.68792	0.32033	 	1.453661237E9	 	3.25062E-9	 	24824.864	44.9012	 
690.0	1.0	0.0	7.55118	7.30694	-7.33285	15.00467	25.45506	1.23293	0.81108	150.3405	139.30504	56.94154	0.32013	 	1.705341093E9	 	2.75657E-9	 	24597.46	45.4808	 
685.0	1.0	0.0	7.5531	7.30509	-7.35631	14.98662	25.39992	1.22919	0.81354	150.9861	139.74959	57.19463	0.31993	 	2.004237875E9	 	2.3333E-9	 	24366.895	46.113	 
680.0	1.0	0.0	7.55501	7.30325	-7.37973	14.96857	25.3448	1.22543	0.81604	151.63011	140.19167	57.44719	0.31973	 	2.359882606E9	 	1.97132E-9	 	24111.213	51.1364	 
675.0	1.0	0.0	7.55691	7.3014	-7.4031	14.95052	25.28968	1.22166	0.81856	152.27247	140.63128	57.69921	0.31954	 	2.7838645E9	 	1.66232E-9	 	23850.402	52.1622	 
670.0	1.0	0.0	7.55882	7.29956	-7.42642	14.93247	25.23457	1.21787	0.8211	152.91316	141.06837	57.95066	0.31934	 	3.290304202E9	 	1.39904E-9	 	23592.872	51.506	 
665.0	1.0	0.0	7.56072	7.29773	-7.44969	14.91441	25.17943	1.21407	0.82368	153.55214	141.50294	58.20155	0.31914	 	3.896442409E9	 	1.17514E-9	 	23338.504	50.8736	 
660.0	1.0	0.0	7.56261	7.2959	-7.47292	14.89636	25.12427	1.21025	0.82627	154.18938	141.93495	58.45185	0.31894	 	4.623373634E9	 	9.85097E-10	 	23087.18	50.2648	 
655.0	1.0	0.0	7.56451	7.29407	-7.49609	14.8783	25.06907	1.20642	0.8289	154.82484	142.36439	58.70155	0.31875	 	5.496962894E9	 	8.24104E-10	 	22838.793	49.6774	 
650.0	1.0	0.0	7.5664	7.29225	-7.51922	14.86024	25.01382	1.20257	0.83155	155.45849	142.79123	58.95064	0.31855	 	6.548993551E9	 	6.87994E-10	 	22593.238	49.111	 
645.0	1.0	0.0	7.56829	7.29043	-7.54229	14.84218	24.95851	1.19871	0.83423	156.09029	143.21544	59.1991	0.31835	 	7.818607835E9	 	5.73153E-10	 	22350.418	48.564	 
640.0	1.0	0.0	7.57017	7.28861	-7.56532	14.82412	24.90312	1.19483	0.83694	156.72021	143.637	59.44692	0.31815	 	9.354118927E9	 	4.76459E-10	 	22110.237	48.0362	 
635.0	1.0	0.0	7.57206	7.2868	-7.5883	14.80606	24.84764	1.19094	0.83967	157.34821	144.0559	59.69409	0.31795	 	1.12153E10	 	3.95215E-10	 	21872.607	47.526	 
630.0	1.0	0.0	7.57394	7.28499	-7.61124	14.788	24.79206	1.18704	0.84243	157.97427	144.4721	59.9406	0.31776	 	1.3476299999999998E10	 	3.27098E-10	 	21637.443	47.0328	 
625.0	1.0	0.0	7.57581	7.28319	-7.63412	14.76994	24.73637	1.18313	0.84522	158.59833	144.88558	60.18642	0.31756	 	1.6229099999999998E10	 	2.7011E-10	 	21404.665	46.5556	 
620.0	1.0	0.0	7.57769	7.28139	-7.65695	14.75187	24.68055	1.1792	0.84803	159.22038	145.29633	60.43155	0.31736	 	1.95886E10	 	2.2254E-10	 	21174.195	46.094	 
615.0	1.0	0.0	7.57956	7.27959	-7.67974	14.73381	24.62459	1.17526	0.85087	159.84037	145.70432	60.67598	0.31716	 	2.3698099999999996E10	 	1.82919E-10	 	20945.962	45.6466	 
610.0	1.0	0.0	7.58142	7.2778	-7.70248	14.71574	24.56848	1.17132	0.85374	160.45828	146.10952	60.91969	0.31697	 	2.8736999999999996E10	 	1.49996E-10	 	20719.896	45.2132	 
605.0	1.0	0.0	7.58329	7.27601	-7.72517	14.69767	24.51221	1.16736	0.85664	161.07406	146.51192	61.16266	0.31677	 	3.49307E10	 	1.22701E-10	 	20495.93	44.7932	 
600.0	1.0	0.0	7.58515	7.27422	-7.74781	14.6796	24.45577	1.16339	0.85956	161.68769	146.9115	61.40489	0.31657	 	4.25624E10	 	1.00127E-10	 	20274.002	44.3856	 
595.0	1.0	0.0	7.58701	7.27244	-7.7704	14.66153	24.39915	1.15941	0.86251	162.29913	147.30822	61.64636	0.31637	 	5.198989999999999E10	 	8.15009E-11	 	20054.051	43.9902	 
590.0	1.0	0.0	7.58886	7.27066	-7.79294	14.64346	24.34233	1.15543	0.86548	162.90835	147.70208	61.88706	0.31617	 	6.366549999999999E10	 	6.61712E-11	 	19836.021	43.606	 
585.0	1.0	0.0	7.59071	7.26889	-7.81544	14.62539	24.28531	1.15143	0.86849	163.51531	148.09305	62.12697	0.31598	 	7.81629E10	 	5.35857E-11	 	19619.858	43.2326	 
580.0	1.0	0.0	7.59256	7.26712	-7.83788	14.60732	24.22809	1.14742	0.87152	164.11998	148.48111	62.36609	0.31578	 	9.621199999999998E10	 	4.32796E-11	 	19405.508	42.87	 
575.0	1.0	0.0	7.59441	7.26535	-7.86028	14.58924	24.17065	1.14341	0.87458	164.72233	148.86624	62.60439	0.31558	 	1.18743E11	 	3.48618E-11	 	19192.923	42.517	 
570.0	1.0	0.0	7.59625	7.26359	-7.88263	14.57117	24.11298	1.13939	0.87766	165.32232	149.24841	62.84187	0.31538	 	1.46948E11	 	2.80046E-11	 	18982.056	42.1734	 
565.0	1.0	0.0	7.59809	7.26183	-7.90493	14.55309	24.05508	1.13536	0.88078	165.91992	149.62762	63.07852	0.31519	 	1.82352E11	 	2.24336E-11	 	18772.86	41.8392	 
560.0	1.0	0.0	7.59993	7.26008	-7.92718	14.53501	23.99696	1.13132	0.88392	166.5151	150.00383	63.31431	0.31499	 	2.26919E11	 	1.792E-11	 	18565.294	41.5132	 
555.0	1.0	0.0	7.60176	7.25833	-7.94938	14.51693	23.93859	1.12727	0.8871	167.10783	150.37703	63.54924	0.31479	 	2.83186E11	 	1.42733E-11	 	18359.315	41.1958	 
550.0	1.0	0.0	7.60359	7.25658	-7.97154	14.49885	23.87998	1.12321	0.8903	167.69807	150.74719	63.78329	0.31459	 	3.54431E11	 	1.13353E-11	 	18154.885	40.886	 
545.0	1.0	0.0	7.60542	7.25484	-7.99364	14.48077	23.82112	1.11915	0.89354	168.28578	151.11431	64.01646	0.31439	 	4.44914E11	 	8.97519E-12	 	17951.966	40.5838	 
540.0	1.0	0.0	7.60724	7.2531	-8.0157	14.46269	23.76203	1.11508	0.8968	168.87094	151.47835	64.24873	0.3142	 	5.60179E11	 	7.08485E-12	 	17750.522	40.2888	 
535.0	1.0	0.0	7.60906	7.25136	-8.03771	14.4446	23.70268	1.111	0.90009	169.45352	151.8393	64.48008	0.314	 	7.07472E11	 	5.57532E-12	 	17550.517	40.001	 
530.0	1.0	0.0	7.61088	7.24963	-8.05967	14.42652	23.6431	1.1069	0.90342	170.03348	152.19714	64.7105	0.3138	 	8.96288E11	 	4.37357E-12	 	17351.92	39.7194	 
525.0	1.0	0.0	7.61269	7.2479	-8.08158	14.40843	23.58327	1.1028	0.90678	170.61079	152.55186	64.93999	0.3136	 	1.13911E12	 	3.41983E-12	 	17154.698	39.4444	 
520.0	1.0	0.0	7.6145	7.24618	-8.10344	14.39035	23.5232	1.09869	0.91017	171.18542	152.90343	65.16852	0.31341	 	1.45243E12	 	2.66531E-12	 	16958.821	39.1754	 
515.0	1.0	0.0	7.61631	7.24446	-8.12526	14.37226	23.46289	1.09457	0.9136	171.75734	153.25183	65.39609	0.31321	 	1.85804E12	 	2.07034E-12	 	16764.259	38.9124	 
510.0	1.0	0.0	7.61812	7.24274	-8.14702	14.35417	23.40236	1.09044	0.91706	172.32651	153.59705	65.62269	0.31301	 	2.38493E12	 	1.60271E-12	 	16570.986	38.6546	 
505.0	1.0	0.0	7.61992	7.24103	-8.16874	14.33608	23.3416	1.0863	0.92055	172.8929	153.93907	65.84829	0.31281	 	3.07175E12	 	1.23641E-12	 	16378.973	38.4026	 
500.0	1.0	0.0	7.62172	7.23932	-8.19041	14.31799	23.28062	1.08215	0.92409	173.45649	154.27787	66.07289	0.31261	 	3.97021E12	 	9.50468E-13	 	16188.196	38.1554	 
495.0	1.0	0.0	7.62351	7.23762	-8.21202	14.29989	23.21943	1.07798	0.92766	174.01724	154.61344	66.29648	0.31242	 	5.14975E12	 	7.28026E-13	 	15998.629	37.9134	 
490.0	1.0	0.0	7.6253	7.23592	-8.23359	14.2818	23.15803	1.07381	0.93127	174.57512	154.94575	66.51905	0.31222	 	6.70402E12	 	5.55599E-13	 	15810.248	37.6762	 
485.0	1.0	0.0	7.62709	7.23422	-8.25512	14.2637	23.09644	1.06962	0.93492	175.1301	155.27479	66.74057	0.31202	 	8.75973E12	 	4.22426E-13	 	15623.031	37.4434	 
480.0	1.0	0.0	7.62888	7.23253	-8.27659	14.24561	23.03466	1.06541	0.9386	175.68215	155.60055	66.96104	0.31182	 	1.1489E13	 	3.19952E-13	 	15436.955	37.2152	 
475.0	1.0	0.0	7.63066	7.23084	-8.29801	14.22751	22.97271	1.06119	0.94234	176.23124	155.923	67.18046	0.31163	 	1.51268E13	 	2.41395E-13	 	15251.999	36.9912	 
470.0	1.0	0.0	7.63244	7.22915	-8.31939	14.20941	22.91059	1.05696	0.94611	176.77734	156.24213	67.3988	0.31143	 	1.99946E13	 	1.81405E-13	 	15068.143	36.7712	 
465.0	1.0	0.0	7.63421	7.22747	-8.34072	14.19131	22.84832	1.05271	0.94993	177.32042	156.55793	67.61605	0.31123	 	2.65347E13	 	1.35774E-13	 	14885.366	36.5554	 
460.0	1.0	0.0	7.63599	7.22579	-8.36199	14.17321	22.7859	1.04844	0.9538	177.86044	156.87038	67.8322	0.31103	 	3.5358E13	 	1.01203E-13	 	14703.649	36.3434	 
455.0	1.0	0.0	7.63776	7.22412	-8.38322	14.15511	22.72335	1.04416	0.95771	178.39739	157.17946	68.04725	0.31083	 	4.73116E13	 	7.51173E-14	 	14522.975	36.1348	 
450.0	1.0	0.0	7.63952	7.22245	-8.4044	14.137	22.66069	1.03986	0.96167	178.93123	157.48516	68.26117	0.31064	 	6.35755E13	 	5.55169E-14	 	14343.325	35.93	 
445.0	1.0	0.0	7.64129	7.22078	-8.42554	14.1189	22.59791	1.03553	0.96568	179.46193	157.78746	68.47397	0.31044	 	8.58009E13	 	4.08517E-14	 	14164.682	35.7286	 
440.0	1.0	0.0	7.64305	7.21912	-8.44662	14.10079	22.53504	1.03119	0.96975	179.98947	158.08636	68.68561	0.31024	 	1.16309E14	 	2.99264E-14	 	13987.029	35.5306	 
435.0	1.0	0.0	7.6448	7.21746	-8.46765	14.08269	22.47209	1.02683	0.97387	180.51381	158.38182	68.89611	0.31004	 	1.58377E14	 	2.18233E-14	 	13810.351	35.3356	 
430.0	1.0	0.0	7.64656	7.21581	-8.48864	14.06458	22.40906	1.02245	0.97804	181.03493	158.67385	69.10543	0.30985	 	2.16654E14	 	1.58404E-14	 	13634.631	35.144	 
425.0	1.0	0.0	7.6483	7.21416	-8.50958	14.04647	22.34598	1.01805	0.98227	181.55279	158.96243	69.31358	0.30965	 	2.97772E14	 	1.14433E-14	 	13459.854	34.9554	 
420.0	1.0	0.0	7.65005	7.21251	-8.53046	14.02836	22.28285	1.01362	0.98657	182.06738	159.24754	69.52054	0.30945	 	4.11228E14	 	8.2268E-15	 	13286.006	34.7696	 
415.0	1.0	0.0	7.65179	7.21087	-8.5513	14.01025	22.21969	1.00917	0.99092	182.57867	159.52917	69.7263	0.30925	 	5.707E14	 	5.88521E-15	 	13113.073	34.5866	 
410.0	1.0	0.0	7.65353	7.20923	-8.57209	13.99214	22.1565	1.00469	0.99533	183.08662	159.80732	69.93084	0.30905	 	7.95984E14	 	4.18889E-15	 	12941.041	34.4064	 
405.0	1.0	0.0	7.65527	7.20759	-8.59284	13.97402	22.0933	1.00019	0.99981	183.59121	160.08195	70.13417	0.30886	 	1.11588E15	 	2.96616E-15	 	12769.896	34.229	 
400.0	1.0	0.0	7.657	7.20596	-8.61353	13.95591	22.0301	0.99566	1.00435	184.09242	160.35307	70.33627	0.30866	 	1.57253E15	 	2.0893E-15	 	12599.625	34.0542	 
395.0	1.0	0.0	7.65874	7.20433	-8.63417	13.93779	21.96691	0.99111	1.00897	184.59021	160.62067	70.53712	0.30846	 	2.22788E15	 	1.46375E-15	 	12430.217	33.8816	 
390.0	1.0	0.0	7.66046	7.20271	-8.65477	13.91968	21.90373	0.98653	1.01365	185.08457	160.88472	70.73672	0.30826	 	3.1736E15	 	1.01987E-15	 	12261.658	33.7118	 
385.0	1.0	0.0	7.66219	7.20109	-8.67531	13.90156	21.84059	0.98192	1.01841	185.57547	161.14523	70.93506	0.30807	 	4.54599E15	 	7.06615E-16	 	12093.936	33.5444	 
380.0	1.0	0.0	7.66391	7.19947	-8.69581	13.88344	21.77749	0.97729	1.02324	186.06289	161.40218	71.13212	0.30787	 	6.54902E15	 	4.8677E-16	 	11927.041	33.379	 
375.0	1.0	0.0	7.66562	7.19786	-8.71626	13.86532	21.71443	0.97262	1.02815	186.54679	161.65555	71.3279	0.30767	 	9.48964E15	 	3.33359E-16	 	11760.96	33.2162	 
370.0	1.0	0.0	7.66734	7.19625	-8.73666	13.8472	21.65143	0.96793	1.03313	187.02715	161.90535	71.52239	0.30747	 	1.38327E16	 	2.2693E-16	 	11595.684	33.0552	 
365.0	1.0	0.0	7.66905	7.19465	-8.75701	13.82908	21.58848	0.9632	1.0382	187.50396	162.15156	71.71558	0.30727	 	2.02864E16	 	1.53534E-16	 	11431.201	32.8966	 
360.0	1.0	0.0	7.67075	7.19304	-8.77732	13.81095	21.52561	0.95845	1.04335	187.97719	162.39416	71.90745	0.30708	 	2.99369E16	 	1.03226E-16	 	11267.5	32.7402	 
355.0	1.0	0.0	7.67246	7.19145	-8.79757	13.79283	21.46282	0.95366	1.04859	188.44682	162.63317	72.09801	0.30688	 	4.44603E16	 	6.8957E-17	 	11104.572	32.5856	 
350.0	1.0	0.0	7.67416	7.18985	-8.81777	13.7747	21.4001	0.94884	1.05391	188.91282	162.86856	72.28723	0.30668	 	6.6461000000000008E16	 	4.57628E-17	 	10942.407	32.433	 
345.0	1.0	0.0	7.67585	7.18827	-8.83793	13.75657	21.33747	0.94399	1.05933	189.37517	163.10033	72.47512	0.30648	 	1.00013E17	 	3.01664E-17	 	10780.996	32.2822	 
340.0	1.0	0.0	7.67755	7.18668	-8.85804	13.73844	21.27493	0.93911	1.06484	189.83385	163.32847	72.66166	0.30629	 	1.51535E17	 	1.97488E-17	 	10620.328	32.1336	 
335.0	1.0	0.0	7.67924	7.1851	-8.8781	13.72032	21.21248	0.93419	1.07044	190.28885	163.55297	72.84685	0.30609	 	2.31208E17	 	1.28379E-17	 	10460.395	31.9866	 
330.0	1.0	0.0	7.68092	7.18352	-8.89811	13.70218	21.15014	0.92924	1.07614	190.74014	163.77383	73.03067	0.30589	 	3.55306E17	 	8.28532E-18	 	10301.188	31.8414	 
325.0	1.0	0.0	7.68261	7.18195	-8.91807	13.68405	21.08789	0.92426	1.08195	191.1877	163.99105	73.21312	0.30569	 	5.5003E17	 	5.30775E-18	 	10142.698	31.698	 
320.0	1.0	0.0	7.68429	7.18038	-8.93798	13.66592	21.02574	0.91924	1.08785	191.63152	164.20462	73.39419	0.3055	 	8.57892E17	 	3.37457E-18	 	9984.917	31.5562	 
315.0	1.0	0.0	7.68596	7.17881	-8.95784	13.64779	20.9637	0.91419	1.09386	192.07158	164.41454	73.57387	0.3053	 	1.34841E18	 	2.12888E-18	 	9827.836	31.4162	 
310.0	1.0	0.0	7.68764	7.17725	-8.97766	13.62965	20.90177	0.90911	1.09998	192.50785	164.62079	73.75216	0.3051	 	2.13619E18	 	1.33238E-18	 	9671.448	31.2776	 
305.0	1.0	0.0	7.68931	7.17569	-8.99742	13.61151	20.83994	0.90399	1.10621	192.94033	164.82339	73.92905	0.3049	 	3.41171E18	 	8.27095E-19	 	9515.745	31.1406	 
300.0	1.0	0.0	7.69097	7.17413	-9.01714	13.59338	20.77821	0.89883	1.11256	193.36899	165.02232	74.10453	0.3047	 	5.49424E18	 	5.09152E-19	 	9360.718	31.0054	 
295.0	1.0	0.0	7.69264	7.17258	-9.03681	13.57524	20.7166	0.89364	1.11902	193.79383	165.21758	74.2786	0.30451	 	8.92359E18	 	3.10749E-19	 	9206.361	30.8714	 
290.0	1.0	0.0	7.69429	7.17104	-9.05642	13.5571	20.65508	0.88841	1.1256	194.21482	165.40919	74.45125	0.30431	 	1.46206E19	 	1.87995E-19	 	9052.666	30.739	 
285.0	1.0	0.0	7.69595	7.16949	-9.07599	13.53896	20.59368	0.88315	1.13231	194.63197	165.59712	74.62247	0.30411	 	2.41704E19	 	1.12708E-19	 	8899.627	30.6078	 
280.0	1.0	0.0	7.6976	7.16795	-9.09552	13.52082	20.53237	0.87785	1.13914	195.04524	165.78139	74.79226	0.30391	 	4.03271E19	 	6.69472E-20	 	8747.236	30.4782	 
275.0	1.0	0.0	7.69925	7.16642	-9.11499	13.50267	20.47117	0.87252	1.14611	195.45464	165.962	74.96062	0.30372	 	6.79226E19	 	3.93887E-20	 	8595.486	30.35	 
270.0	1.0	0.0	7.7009	7.16489	-9.13441	13.48453	20.41006	0.86715	1.15321	195.86015	166.13895	75.12754	0.30352	 	1.1551699999999998E20	 	2.29488E-20	 	8444.371	30.223	 
265.0	1.0	0.0	7.70254	7.16336	-9.15379	13.46638	20.34906	0.86174	1.16044	196.26177	166.31224	75.29301	0.30332	 	1.9843E20	 	1.32368E-20	 	8293.885	30.0972	 
260.0	1.0	0.0	7.70418	7.16184	-9.17311	13.44824	20.28814	0.8563	1.16782	196.65948	166.48187	75.45703	0.30312	 	3.44364E20	 	7.55646E-21	 	8144.022	29.9726	 
255.0	1.0	0.0	7.70582	7.16032	-9.19239	13.43009	20.22732	0.85082	1.17534	197.05327	166.64786	75.61961	0.30292	 	6.03952E20	 	4.26817E-21	 	7994.774	29.8496	 
250.0	1.0	0.0	7.70745	7.1588	-9.21161	13.41194	20.16659	0.8453	1.18301	197.44315	166.81021	75.78072	0.30273	 	1.0707500000000001E21	 	2.38465E-21	 	7846.138	29.7272	 
245.0	1.0	0.0	7.70908	7.15729	-9.23079	13.39379	20.10595	0.83975	1.19083	197.82911	166.96892	75.94038	0.30253	 	1.91961E21	 	1.31744E-21	 	7698.106	29.6064	 
240.0	1.0	0.0	7.7107	7.15578	-9.24992	13.37564	20.04539	0.83416	1.19882	198.21114	167.124	76.09859	0.30233	 	3.4810700000000003E21	 	7.1948E-22	 	7550.674	29.4864	 
235.0	1.0	0.0	7.71232	7.15427	-9.269	13.35749	19.98491	0.82853	1.20696	198.58925	167.27547	76.25533	0.30213	 	6.38754E21	 	3.8828E-22	 	7403.836	29.3676	 
230.0	1.0	0.0	7.71394	7.15277	-9.28804	13.33933	19.9245	0.82286	1.21527	198.96342	167.42333	76.41061	0.30194	 	1.1863899999999999E22	 	2.06994E-22	 	7257.587	29.2498	 
225.0	1.0	0.0	7.71555	7.15128	-9.30702	13.32118	19.86417	0.81716	1.22375	199.33368	167.5676	76.56443	0.30174	 	2.23125E22	 	1.08968E-22	 	7111.921	29.1332	 
220.0	1.0	0.0	7.71717	7.14978	-9.32595	13.30302	19.80392	0.81142	1.23241	199.70001	167.70829	76.7168	0.30154	 	4.2506999999999995E22	 	5.66246E-23	 	6966.835	29.0172	 
215.0	1.0	0.0	7.71877	7.14829	-9.34484	13.28487	19.74372	0.80564	1.24125	200.06242	167.8454	76.8677	0.30134	 	8.20608E22	 	2.90338E-23	 	6822.323	28.9024	 
210.0	1.0	0.0	7.72038	7.14681	-9.36367	13.26671	19.6836	0.79983	1.25027	200.42092	167.97897	77.01714	0.30114	 	1.6060199999999998E23	 	1.46831E-23	 	6678.382	28.7882	 
205.0	1.0	0.0	7.72198	7.14533	-9.38246	13.24855	19.62353	0.79397	1.25949	200.77551	168.10901	77.16513	0.30095	 	3.18778E23	 	7.32087E-24	 	6535.006	28.6752	 
200.0	1.0	0.0	7.72358	7.14385	-9.4012	13.23039	19.56352	0.78808	1.26891	201.12621	168.23553	77.31167	0.30075	 	6.420109999999999E23	 	3.59702E-24	 	6392.191	28.563	 
195.0	1.0	0.0	7.72517	7.14238	-9.41989	13.21223	19.50357	0.78215	1.27853	201.47303	168.35855	77.45676	0.30055	 	1.31254E24	 	1.74084E-24	 	6249.934	28.4514	 
190.0	1.0	0.0	7.72676	7.14091	-9.43853	13.19406	19.44366	0.77618	1.28836	201.81599	168.47811	77.60041	0.30035	 	2.72528E24	 	8.29464E-25	 	6108.232	28.3404	 
185.0	1.0	0.0	7.72835	7.13944	-9.45712	13.1759	19.38381	0.77017	1.29842	202.15509	168.59422	77.74262	0.30016	 	5.74981E24	 	3.88903E-25	 	5967.08	28.2304	 
180.0	1.0	0.0	7.72993	7.13798	-9.47566	13.15774	19.324	0.76412	1.30869	202.49037	168.70691	77.8834	0.29996	 	1.2333000000000002E25	 	1.79332E-25	 	5826.474	28.1212	 
175.0	1.0	0.0	7.73151	7.13652	-9.49416	13.13957	19.26423	0.75804	1.3192	202.82183	168.81621	78.02276	0.29976	 	2.6909100000000003E25	 	8.12852E-26	 	5686.413	28.0122	 
170.0	1.0	0.0	7.73308	7.13507	-9.5126	13.1214	19.2045	0.75191	1.32995	203.14952	168.92214	78.16071	0.29956	 	5.9757100000000005E25	 	3.6195E-26	 	5546.893	27.904	 
165.0	1.0	0.0	7.73466	7.13362	-9.531	13.10323	19.14481	0.74574	1.34094	203.47345	169.02475	78.29725	0.29937	 	1.3514600000000001E26	 	1.58237E-26	 	5407.912	27.7962	 
160.0	1.0	0.0	7.73623	7.13217	-9.54934	13.08506	19.08515	0.73954	1.3522	203.79365	169.12407	78.4324	0.29917	 	3.1146700000000005E26	 	6.78755E-27	 	5269.466	27.6892	 
155.0	1.0	0.0	7.73779	7.13073	-9.56764	13.06689	19.02553	0.73329	1.36371	204.11016	169.22013	78.56617	0.29897	 	7.31988E26	 	2.85482E-27	 	5131.554	27.5824	 
150.0	1.0	0.0	7.73935	7.12929	-9.58589	13.04872	18.96594	0.72701	1.37551	204.42302	169.31298	78.69857	0.29877	 	1.7554E27	 	1.17653E-27	 	4994.174	27.476	 
145.0	1.0	0.0	7.74091	7.12785	-9.60409	13.03055	18.90637	0.72068	1.38758	204.73226	169.40265	78.82963	0.29857	 	4.29879E27	 	4.74759E-28	 	4857.323	27.3702	 
140.0	1.0	0.0	7.74247	7.12642	-9.62224	13.01237	18.84683	0.71431	1.39995	205.03794	169.48921	78.95935	0.29838	 	1.07582E28	 	1.87437E-28	 	4721.001	27.2644	 
135.0	1.0	0.0	7.74402	7.12499	-9.64034	12.9942	18.78731	0.7079	1.41263	205.3401	169.57268	79.08775	0.29818	 	2.7536100000000003E28	 	7.23442E-29	 	4585.206	27.159	 
130.0	1.0	0.0	7.74556	7.12357	-9.65839	12.97602	18.72781	0.70145	1.42562	205.6388	169.65314	79.21486	0.29798	 	7.21439E28	 	2.72743E-29	 	4449.938	27.0536	 
125.0	1.0	0.0	7.74711	7.12215	-9.67639	12.95785	18.66834	0.69496	1.43893	205.93408	169.73063	79.3407	0.29778	 	1.93647E29	 	1.00351E-29	 	4315.194	26.9488	 
120.0	1.0	0.0	7.74865	7.12074	-9.69435	12.93967	18.60888	0.68842	1.45259	206.22603	169.80522	79.46528	0.29759	 	5.33009E29	 	3.60007E-30	 	4180.976	26.8436	 
115.0	1.0	0.0	7.75018	7.11932	-9.71225	12.92149	18.54943	0.68185	1.46661	206.51469	169.87697	79.58864	0.29739	 	1.50589E30	 	1.25803E-30	 	4047.283	26.7386	 
110.0	1.0	0.0	7.75172	7.11792	-9.73011	12.90331	18.49001	0.67523	1.48098	206.80016	169.94594	79.71081	0.29719	 	4.37151E30	 	4.27784E-31	 	3914.116	26.6334	 
105.0	1.0	0.0	7.75325	7.11651	-9.74792	12.88512	18.43059	0.66856	1.49574	207.08251	170.01223	79.8318	0.29699	 	1.30531E31	 	1.41396E-31	 	3781.474	26.5284	 
100.0	1.0	0.0	7.75477	7.11511	-9.76567	12.86694	18.37119	0.66186	1.5109	207.36182	170.07589	79.95167	0.29679	 	4.0135799999999997E31	 	4.53772E-32	 	3649.359	26.423	 
95.0	1.0	0.0	7.75629	7.11371	-9.78338	12.84876	18.3118	0.65511	1.52647	207.63818	170.13702	80.07043	0.2966	 	1.2723499999999999E32	 	1.41223E-32	 	3517.773	26.3172	 
90.0	1.0	0.0	7.75781	7.11232	-9.80104	12.83057	18.25242	0.64831	1.54247	207.91171	170.1957	80.18814	0.2964	 	4.16371E32	 	4.25689E-33	 	3386.717	26.2112	 
85.0	1.0	0.0	7.75933	7.11093	-9.81865	12.81239	18.19304	0.64147	1.55892	208.1825	170.25204	80.30483	0.2962	 	1.40843E33	 	1.24113E-33	 	3256.193	26.1048	 
80.0	1.0	0.0	7.76084	7.10955	-9.83621	12.7942	18.13368	0.63459	1.57583	208.45068	170.30613	80.42054	0.296	 	4.9315E33	 	3.49516E-34	 	3126.205	25.9976	 
75.0	1.0	0.0	7.76235	7.10817	-9.85373	12.77601	18.07432	0.62766	1.59323	208.71636	170.35808	80.53533	0.29581	 	1.79002E34	 	9.49282E-35	 	2996.754	25.8902	 
70.0	1.0	0.0	7.76385	7.10679	-9.87119	12.75782	18.01497	0.62068	1.61113	208.97969	170.40801	80.64924	0.29561	 	6.74613E34	 	2.48265E-35	 	2867.846	25.7816	 
65.0	1.0	0.0	7.76535	7.10542	-9.88861	12.73963	17.95562	0.61366	1.62957	209.24081	170.45605	80.76234	0.29541	 	2.6441999999999996E35	 	6.2417E-36	 	2739.483	25.6726	 
60.0	1.0	0.0	7.76685	7.10405	-9.90597	12.72144	17.89628	0.60659	1.64856	209.49987	170.50232	80.87467	0.29521	 	1.0797899999999999E36	 	1.50586E-36	 	2611.672	25.5622	 
55.0	1.0	0.0	7.76834	7.10268	-9.92329	12.70324	17.83694	0.59947	1.66813	209.75705	170.54697	80.98632	0.29502	 	4.60268E36	 	3.47975E-37	 	2484.417	25.451	 
50.0	1.0	0.0	7.76983	7.10132	-9.94055	12.68505	17.77761	0.59231	1.68831	210.01253	170.59015	81.09734	0.29482	 	2.0519499999999998E37	 	7.68641E-38	 	2357.725	25.3384	 
45.0	1.0	0.0	7.77132	7.09996	-9.95777	12.66685	17.71828	0.5851	1.70912	210.2665	170.63203	81.20781	0.29462	 	9.58802E37	 	1.61953E-38	 	2231.602	25.2246	 
40.0	1.0	0.0	7.7728	7.09861	-9.97494	12.64866	17.65895	0.57784	1.73059	210.51917	170.67277	81.31781	0.29442	 	4.7062299999999995E38	 	3.24763E-39	 	2106.056	25.1092	 
35.0	1.0	0.0	7.77428	7.09726	-9.99206	12.63046	17.59962	0.57053	1.75276	210.77077	170.71257	81.42743	0.29422	 	2.4324300000000002E39	 	6.18313E-40	 	1981.096	24.992	 
30.0	1.0	0.0	7.77575	7.09591	-10.00913	12.61226	17.5403	0.56317	1.77567	211.02154	170.75163	81.53677	0.29403	 	1.32721E40	 	1.11482E-40	 	1856.73	24.8732	 
25.0	1.0	0.0	7.77722	7.09457	-10.02615	 	17.48098	0.55576	1.79934	211.27175	170.79015	81.64592	0.29383	 	7.66577E40	 	1.8983E-41	 	1732.97	 	 
