T (C)	Fraction solid (wt)-TOTAL	Fraction liquid (wt)-LIQUID	Density (g/(cm)^3)-TOTAL	Molar volume (cm^3)-TOTAL	Volume change (%)-  	Average expansion coeff. (10e-6 1/K)-  	Thermal conductivity (W/(m*K))-TOTAL	Electrical resistivity (10e-6 Ohm*m)-TOTAL	Electrical conductivity (10e6 1/(Ohm*m))-TOTAL	Young's modulus (GPa)-TOTAL	Bulk modulus (GPa)-TOTAL	Shear modulus(GPa)-TOTAL	Poisson's ratio-TOTAL	Liquid viscosity (mPa s)-  	Total viscosity (mPa s)-  	Liquid diffusivity (10e-9 (m^2)/s)-  	Total diffusivity (10e-9 (m^2)/s)-  	Surface Tension (mN/m)-  	Enthalpy (J/mole)-TOTAL	Specific heat (J/(mole K))-TOTAL	Latent heat (J/mole)-TOTAL
1500.0	0.37896	0.62104	7.18303	7.75919	0.0	18.8057	32.92351	1.75492	0.56983	1.2708	94.7344	0.43997	0.4442	7.53983	53.73805	1.14781	0.16105	1853.09925	64760.733	 	0.0
1495.0	0.60837	0.39163	7.21981	7.72007	-0.50421	17.63119	34.01283	1.69392	0.59035	8.63793	86.96661	3.06265	0.41021	7.55511	303.57312	1.14226	0.0284278	1853.78443	62568.803	438.386	1969.636
1490.0	0.74695	0.25305	7.24316	7.6959	-0.81575	16.92351	34.68771	1.65627	0.60377	19.95605	82.36641	7.18134	0.38944	7.57026	700.51711	1.13675	0.0122845	1854.48317	61173.383	279.084	3143.314
1485.0	0.83685	0.16315	7.25921	7.67983	-1.02284	16.46933	35.11785	1.63134	0.61299	31.84683	79.50086	11.57362	0.37584	7.58541	1142.1791	1.13126	0.00751291	1855.20759	60203.77	193.923	3891.737
1480.0	0.89848	0.10152	7.271	7.6685	-1.16889	16.16349	35.39819	1.61382	0.61965	42.77393	77.65822	15.65174	0.36643	7.60061	1578.95797	1.12579	0.0054192	1855.96246	59480.299	144.694	4394.566
1475.0	0.94262	0.0573794	7.28013	7.66012	-1.27691	15.95023	35.58314	1.60086	0.62467	52.3158	76.45603	19.23911	0.35962	7.61592	1994.76852	1.12032	0.00427733	1856.74954	58908.293	114.401	4746.475
1470.0	0.97524	0.0247605	7.2875	7.65367	-1.35998	15.79786	35.70415	1.59087	0.62859	60.46684	75.68011	22.32012	0.35454	7.63137	2386.47688	1.11486	0.00356504	1857.56834	58435.545	94.5496	4999.667
1465.0	1.0	0.0	7.29367	7.64855	-1.42593	15.68734	35.7811	1.58289	0.63176	67.39439	75.19781	24.94927	0.35063	 	2757.08643	 	0.00307697	 	58030.134	81.0822	5186.06
1460.0	1.0	0.0	7.29577	7.64635	-1.45438	15.6704	35.72209	1.58095	0.63253	67.83182	75.58724	25.11483	0.35043	 	2883.7034	 	0.00293341	 	57759.658	54.0952	 
1455.0	1.0	0.0	7.29788	7.64414	-1.48279	15.65347	35.66309	1.57899	0.63331	68.27333	75.98019	25.28195	0.35024	 	3016.91891	 	0.00279579	 	57550.544	41.8228	 
1450.0	1.0	0.0	7.29998	7.64194	-1.51115	15.63653	35.60408	1.57703	0.6341	68.71888	76.37663	25.45061	0.35004	 	3157.11576	 	0.00266391	 	57341.772	41.7544	 
1445.0	1.0	0.0	7.30208	7.63974	-1.53947	15.61958	35.54507	1.57507	0.63489	69.16845	76.77648	25.62081	0.34985	 	3304.70114	 	0.00253756	 	57133.331	41.6882	 
1440.0	1.0	0.0	7.30418	7.63755	-1.56774	15.60263	35.48606	1.5731	0.63569	69.62199	77.1797	25.79253	0.34965	 	3460.10831	 	0.00241653	 	56925.222	41.6218	 
1435.0	1.0	0.0	7.30627	7.63536	-1.59597	15.58568	35.42705	1.57112	0.63649	70.07946	77.58624	25.96576	0.34946	 	3623.79844	 	0.00230064	 	56717.443	41.5558	 
1430.0	1.0	0.0	7.30836	7.63317	-1.62415	15.56872	35.36804	1.56913	0.63729	70.54084	77.99604	26.14049	0.34926	 	3796.26255	 	0.00218969	 	56509.993	41.49	 
1425.0	1.0	0.0	7.31046	7.63099	-1.65228	15.55177	35.30903	1.56714	0.6381	71.00608	78.40904	26.31669	0.34907	 	3978.02359	 	0.00208351	 	56302.871	41.4244	 
1420.0	1.0	0.0	7.31254	7.62881	-1.68037	15.5348	35.25002	1.56514	0.63892	71.47515	78.8252	26.49437	0.34887	 	4169.63873	 	0.00198191	 	56096.075	41.3592	 
1415.0	1.0	0.0	7.31463	7.62663	-1.70842	15.51784	35.19101	1.56314	0.63974	71.948	79.24447	26.6735	0.34868	 	4371.70178	 	0.00188472	 	55889.605	41.294	 
1410.0	1.0	0.0	7.31671	7.62446	-1.73641	15.50087	35.132	1.56112	0.64056	72.42461	79.66678	26.85408	0.34848	 	4584.8458	 	0.00179178	 	55683.459	41.2292	 
1405.0	1.0	0.0	7.3188	7.62229	-1.76437	15.48389	35.07299	1.55911	0.64139	72.90494	80.09209	27.03609	0.34829	 	4809.74593	 	0.00170292	 	55477.635	41.1648	 
1400.0	1.0	0.0	7.32088	7.62013	-1.79227	15.46691	35.01398	1.55708	0.64223	73.38895	80.52035	27.21951	0.34809	 	5047.12241	 	0.001618	 	55272.134	41.1002	 
1395.0	1.0	0.0	7.32295	7.61797	-1.82013	15.44993	34.95497	1.55505	0.64307	73.8766	80.95151	27.40435	0.3479	 	5297.74389	 	0.00153685	 	55066.953	41.0362	 
1390.0	1.0	0.0	7.32503	7.61581	-1.84795	15.43295	34.89596	1.55301	0.64391	74.36787	81.38551	27.59057	0.3477	 	5562.43092	 	0.00145933	 	54862.091	40.9724	 
1385.0	1.0	0.0	7.3271	7.61365	-1.87572	15.41596	34.83695	1.55096	0.64476	74.8627	81.8223	27.77817	0.34751	 	5842.05977	 	0.0013853	 	54657.547	40.9088	 
1380.0	1.0	0.0	7.32917	7.6115	-1.90344	15.39897	34.77794	1.54891	0.64562	75.36106	82.26183	27.96714	0.34731	 	6137.56655	 	0.00131463	 	54453.319	40.8456	 
1375.0	1.0	0.0	7.33124	7.60935	-1.93112	15.38197	34.71893	1.54685	0.64648	75.86293	82.70406	28.15746	0.34712	 	6449.95165	 	0.00124717	 	54249.407	40.7824	 
1370.0	1.0	0.0	7.33331	7.60721	-1.95876	15.36497	34.65993	1.54478	0.64734	76.36825	83.14893	28.34912	0.34692	 	6780.28449	 	0.00118281	 	54045.808	40.7198	 
1365.0	1.0	0.0	7.33537	7.60507	-1.98634	15.34797	34.60092	1.54271	0.64821	76.877	83.59639	28.5421	0.34673	 	7129.70874	 	0.00112142	 	53842.521	40.6574	 
1360.0	1.0	0.0	7.33743	7.60293	-2.01388	15.33096	34.54191	1.54063	0.64909	77.38914	84.0464	28.7364	0.34653	 	7499.44788	 	0.00106288	 	53639.545	40.5952	 
1355.0	1.0	0.0	7.33949	7.6008	-2.04138	15.31395	34.4829	1.53854	0.64997	77.90463	84.4989	28.93201	0.34634	 	7890.81125	 	0.00100707	 	53436.879	40.5332	 
1350.0	1.0	0.0	7.34155	7.59867	-2.06883	15.29694	34.42389	1.53644	0.65085	78.42344	84.95384	29.1289	0.34614	 	8305.20061	 	9.53883E-4	 	53234.521	40.4716	 
1345.0	1.0	0.0	7.34361	7.59654	-2.09623	15.27992	34.36488	1.53434	0.65175	78.94552	85.41118	29.32706	0.34595	 	8744.11718	 	9.03212E-4	 	53032.469	40.4104	 
1340.0	1.0	0.0	7.34566	7.59442	-2.12359	15.2629	34.30587	1.53223	0.65264	79.47085	85.87086	29.52649	0.34576	 	9209.16931	 	8.54951E-4	 	52830.722	40.3494	 
1335.0	1.0	0.0	7.34771	7.5923	-2.1509	15.24588	34.24686	1.53011	0.65355	79.99938	86.33285	29.72717	0.34556	 	9702.08078	 	8.09E-4	 	52629.279	40.2886	 
1330.0	1.0	0.0	7.34976	7.59019	-2.17817	15.22885	34.18785	1.52799	0.65446	80.53108	86.79709	29.92908	0.34537	 	10224.69978	 	7.65262E-4	 	52428.138	40.2282	 
1325.0	1.0	0.0	7.3518	7.58807	-2.20539	15.21182	34.12884	1.52586	0.65537	81.06592	87.26352	30.13221	0.34517	 	10779.00861	 	7.23645E-4	 	52227.297	40.1682	 
1320.0	1.0	0.0	7.35385	7.58596	-2.23257	15.19478	34.06983	1.52372	0.65629	81.60385	87.73212	30.33656	0.34498	 	11367.13428	 	6.84057E-4	 	52026.755	40.1084	 
1315.0	1.0	0.0	7.35589	7.58386	-2.25969	15.17774	34.01082	1.52157	0.65722	82.14483	88.20282	30.5421	0.34478	 	11991.35994	 	6.46413E-4	 	51826.511	40.0488	 
1310.0	1.0	0.0	7.35793	7.58176	-2.28678	15.1607	33.95181	1.51942	0.65815	82.68885	88.67559	30.74883	0.34459	 	12654.13727	 	6.10627E-4	 	51626.563	39.9896	 
1305.0	1.0	0.0	7.35996	7.57966	-2.31381	15.14365	33.8928	1.51725	0.65909	83.23585	89.15036	30.95672	0.34439	 	13358.10002	 	5.76621E-4	 	51426.908	39.931	 
1300.0	1.0	0.0	7.362	7.57757	-2.34081	15.1266	33.83379	1.51509	0.66003	83.78579	89.62711	31.16578	0.3442	 	14106.0786	 	5.44315E-4	 	51227.547	39.8722	 
1295.0	1.0	0.0	7.36403	7.57548	-2.36775	15.10955	33.77478	1.51291	0.66098	84.33866	90.10578	31.37597	0.344	 	14901.11604	 	5.13636E-4	 	51028.476	39.8142	 
1290.0	1.0	0.0	7.36606	7.57339	-2.39465	15.09249	33.71577	1.51072	0.66193	84.8944	90.58632	31.5873	0.34381	 	15746.48525	 	4.84511E-4	 	50829.694	39.7564	 
1285.0	1.0	0.0	7.36808	7.5713	-2.4215	15.07543	33.65677	1.50853	0.6629	85.45298	91.06869	31.79975	0.34361	 	16645.70784	 	4.56871E-4	 	50631.2	39.6988	 
1280.0	1.0	0.0	7.37011	7.56922	-2.44831	15.05836	33.59776	1.50633	0.66386	86.01436	91.55284	32.0133	0.34342	 	17602.57459	 	4.30649E-4	 	50432.991	39.6418	 
1275.0	1.0	0.0	7.37213	7.56715	-2.47507	15.04129	33.53875	1.50413	0.66484	86.57851	92.03874	32.22795	0.34322	 	18621.16772	 	4.05782E-4	 	50235.067	39.5848	 
1270.0	1.0	0.0	7.37415	7.56508	-2.50179	15.02422	33.47974	1.50191	0.66582	87.1454	92.52632	32.44368	0.34303	 	19705.88517	 	3.82207E-4	 	50037.425	39.5284	 
1265.0	1.0	0.0	7.37617	7.56301	-2.52846	15.00715	33.42073	1.49969	0.66681	87.71497	93.01556	32.66047	0.34283	 	20861.46698	 	3.59866E-4	 	49840.063	39.4724	 
1260.0	1.0	0.0	7.37818	7.56094	-2.55508	14.99007	33.36172	1.49746	0.6678	88.28721	93.50639	32.87831	0.34264	 	22093.02413	 	3.38701E-4	 	49642.98	39.4166	 
1255.0	1.0	0.0	7.3802	7.55888	-2.58166	14.97298	33.30271	1.49522	0.6688	88.86207	93.99879	33.09719	0.34244	 	23406.06995	 	3.18658E-4	 	49446.174	39.3612	 
1250.0	1.0	0.0	7.38221	7.55682	-2.60819	14.9559	33.2437	1.49297	0.66981	89.43951	94.4927	33.3171	0.34225	 	24806.55439	 	2.99684E-4	 	49249.643	39.3062	 
1245.0	1.0	0.0	7.38422	7.55476	-2.63467	14.93881	33.18469	1.49072	0.67082	90.0195	94.98808	33.53803	0.34205	 	26300.90143	 	2.81728E-4	 	49053.384	39.2518	 
1240.0	1.0	0.0	7.38622	7.55271	-2.66111	14.92171	33.12568	1.48845	0.67184	90.60201	95.48489	33.75995	0.34186	 	27896.0499	 	2.64744E-4	 	48857.397	39.1974	 
1235.0	1.0	0.0	7.38822	7.55066	-2.6875	14.90462	33.06667	1.48618	0.67287	91.18699	95.98308	33.98286	0.34166	 	29599.49817	 	2.48683E-4	 	48661.679	39.1436	 
1230.0	1.0	0.0	7.39023	7.54862	-2.71385	14.88751	33.00766	1.4839	0.6739	91.77441	96.48261	34.20675	0.34147	 	31419.3529	 	2.33503E-4	 	48466.228	39.0902	 
1225.0	1.0	0.0	7.39222	7.54658	-2.74015	14.87041	32.94865	1.48161	0.67494	92.36423	96.98344	34.4316	0.34127	 	33364.38242	 	2.19159E-4	 	48271.042	39.0372	 
1220.0	1.0	0.0	7.39422	7.54454	-2.76641	14.8533	32.88964	1.47932	0.67599	92.95642	97.48552	34.65739	0.34108	 	35444.07509	 	2.05611E-4	 	48076.119	38.9846	 
1215.0	1.0	0.0	7.39621	7.54251	-2.79261	14.83619	32.83063	1.47702	0.67704	93.55095	97.98881	34.88412	0.34088	 	37668.70327	 	1.9282E-4	 	47881.457	38.9324	 
1210.0	1.0	0.0	7.3982	7.54048	-2.81878	14.81907	32.77162	1.4747	0.6781	94.14776	98.49327	35.11177	0.34069	 	40049.39328	 	1.80749E-4	 	47687.053	38.8808	 
1205.0	1.0	0.0	7.40019	7.53845	-2.84489	14.80195	32.71261	1.47238	0.67917	94.74684	98.99886	35.34033	0.34049	 	42598.20218	 	1.69361E-4	 	47492.906	38.8294	 
1200.0	1.0	0.0	7.40218	7.53643	-2.87096	14.78483	32.65361	1.47005	0.68025	95.34813	99.50553	35.56978	0.3403	 	45328.20184	 	1.58623E-4	 	47299.014	38.7784	 
1195.0	1.0	0.0	7.40416	7.53441	-2.89698	14.7677	32.5946	1.46772	0.68133	95.95161	100.01324	35.80012	0.3401	 	48253.57128	 	1.485E-4	 	47105.373	38.7282	 
1190.0	1.0	0.0	7.40614	7.5324	-2.92296	14.75057	32.53559	1.46537	0.68242	96.55724	100.52196	36.03132	0.33991	 	51389.69796	 	1.38963E-4	 	46911.983	38.678	 
1185.0	1.0	0.0	7.40812	7.53038	-2.94889	14.73344	32.47658	1.46302	0.68352	97.16498	101.03163	36.26339	0.33971	 	54753.28901	 	1.29981E-4	 	46718.84	38.6286	 
1180.0	1.0	0.0	7.4101	7.52838	-2.97478	14.7163	32.41757	1.46066	0.68462	97.7748	101.54222	36.49629	0.33952	 	58362.49345	 	1.21524E-4	 	46525.942	38.5796	 
1175.0	1.0	0.0	7.41207	7.52637	-3.00061	14.69916	32.35856	1.45828	0.68574	98.38666	102.05368	36.73002	0.33932	 	62237.03664	 	1.13567E-4	 	46333.286	38.5312	 
1170.0	1.0	0.0	7.41405	7.52437	-3.02641	14.68202	32.29955	1.4559	0.68686	99.00052	102.56599	36.96457	0.33913	 	66398.36802	 	1.06082E-4	 	46140.871	38.483	 
1165.0	1.0	0.0	7.41601	7.52237	-3.05215	14.66487	32.24054	1.45352	0.68799	99.61634	103.07908	37.19992	0.33893	 	70869.82386	 	9.90443E-5	 	45948.694	38.4354	 
1160.0	1.0	0.0	7.41798	7.52038	-3.07785	14.64771	32.18153	1.45112	0.68912	100.2341	103.59294	37.43606	0.33874	 	75676.80639	 	9.24306E-5	 	45756.751	38.3886	 
1155.0	1.0	0.0	7.41994	7.51839	-3.1035	14.63056	32.12252	1.44871	0.69027	100.85375	104.10751	37.67298	0.33854	 	80846.98121	 	8.62178E-5	 	45565.041	38.342	 
1150.0	1.0	0.0	7.42191	7.5164	-3.12911	14.6134	32.06351	1.4463	0.69142	101.47526	104.62275	37.91066	0.33835	 	86410.4949	 	8.03842E-5	 	45373.562	38.2958	 
1145.0	1.0	0.0	7.42386	7.51442	-3.15467	14.59624	32.0045	1.44387	0.69258	102.0986	105.13862	38.14909	0.33815	 	92400.21512	 	7.49093E-5	 	45182.309	38.2506	 
1140.0	1.0	0.0	7.42582	7.51244	-3.18018	14.57907	31.94549	1.44144	0.69375	102.72371	105.6551	38.38826	0.33796	 	98851.99557	 	6.97733E-5	 	44991.28	38.2058	 
1135.0	1.0	0.0	7.42777	7.51046	-3.20565	14.5619	31.88648	1.439	0.69493	103.35058	106.17212	38.62815	0.33776	 	105804.9686	 	6.49575E-5	 	44800.474	38.1612	 
1130.0	1.0	0.0	7.42973	7.50849	-3.23107	14.54472	31.82747	1.43655	0.69611	103.97916	106.68967	38.86875	0.33757	 	113301.8686	 	6.04441E-5	 	44609.886	38.1176	 
1125.0	1.0	0.0	7.43167	7.50652	-3.25644	14.52755	31.76846	1.43409	0.69731	104.60942	107.20769	39.11005	0.33737	 	121389.3896	 	5.6216E-5	 	44419.514	38.0744	 
1120.0	1.0	0.0	7.43362	7.50455	-3.28177	14.51037	31.70945	1.43162	0.69851	105.24132	107.72615	39.35203	0.33718	 	130118.5808	 	5.22571E-5	 	44229.354	38.032	 
1115.0	1.0	0.0	7.43556	7.50259	-3.30705	14.49318	31.65045	1.42914	0.69972	105.87482	108.24502	39.59468	0.33698	 	139545.2844	 	4.85521E-5	 	44039.404	37.99	 
1110.0	1.0	0.0	7.43751	7.50063	-3.33229	14.47599	31.59144	1.42665	0.70094	106.50989	108.76424	39.83799	0.33679	 	149730.6212	 	4.50864E-5	 	43849.661	37.9486	 
1105.0	1.0	0.0	7.43944	7.49868	-3.35748	14.4588	31.53243	1.42415	0.70217	107.14649	109.28379	40.08195	0.33659	 	160741.5276	 	4.18461E-5	 	43660.122	37.9078	 
1100.0	1.0	0.0	7.44138	7.49673	-3.38262	14.4416	31.47342	1.42165	0.70341	107.78459	109.80362	40.32653	0.3364	 	172651.3526	 	3.88181E-5	 	43470.782	37.868	 
1095.0	1.0	0.0	7.44331	7.49478	-3.40771	14.4244	31.41441	1.41913	0.70466	108.42414	110.3237	40.57173	0.3362	 	185540.5196	 	3.599E-5	 	43281.64	37.8284	 
1090.0	1.0	0.0	7.44524	7.49284	-3.43276	14.4072	31.3554	1.41661	0.70591	109.06512	110.84399	40.81754	0.33601	 	199497.2613	 	3.33498E-5	 	43092.691	37.7898	 
1085.0	1.0	0.0	7.44717	7.4909	-3.45776	14.38999	31.29639	1.41407	0.70718	109.70749	111.36445	41.06394	0.33581	 	214618.4369	 	3.08864E-5	 	42903.931	37.752	 
1080.0	1.0	0.0	7.4491	7.48896	-3.48272	14.37278	31.23738	1.41153	0.70845	110.35121	111.88505	41.31091	0.33562	 	231010.44	 	2.85891E-5	 	42715.359	37.7144	 
1075.0	1.0	0.0	7.45102	7.48703	-3.50763	14.35557	31.17837	1.40897	0.70974	110.99624	112.40575	41.55845	0.33542	 	248790.2101	 	2.64479E-5	 	42526.969	37.678	 
1070.0	1.0	0.0	7.45294	7.4851	-3.53249	14.33835	31.11936	1.40641	0.71103	111.64255	112.9265	41.80654	0.33523	 	268086.3574	 	2.44532E-5	 	42338.758	37.6422	 
1065.0	1.0	0.0	7.45486	7.48318	-3.55731	14.32113	31.06035	1.40384	0.71233	112.29011	113.44729	42.05517	0.33503	 	289040.4173	 	2.25961E-5	 	42150.722	37.6072	 
1060.0	1.0	0.0	7.45677	7.48125	-3.58207	14.30391	31.00134	1.40125	0.71365	112.93887	113.96806	42.30432	0.33484	 	311808.2487	 	2.08679E-5	 	41962.858	37.5728	 
1055.0	1.0	0.0	7.45869	7.47934	-3.6068	14.28668	30.94233	1.39866	0.71497	113.5888	114.48878	42.55399	0.33464	 	336561.5941	 	1.92606E-5	 	41775.16	37.5396	 
1050.0	1.0	0.0	7.4606	7.47742	-3.63147	14.26944	30.88332	1.39606	0.7163	114.23987	115.00942	42.80415	0.33445	 	363489.8216	 	1.77666E-5	 	41587.627	37.5066	 
1045.0	1.0	0.0	7.4625	7.47551	-3.6561	14.25221	30.82431	1.39344	0.71765	114.89203	115.52993	43.05479	0.33425	 	392801.8713	 	1.63786E-5	 	41400.252	37.475	 
1040.0	1.0	0.0	7.46441	7.4736	-3.68068	14.23497	30.7653	1.39082	0.719	115.54525	116.05029	43.30591	0.33406	 	424728.4319	 	1.509E-5	 	41213.032	37.444	 
1035.0	1.0	0.0	7.46631	7.4717	-3.70522	14.21773	30.7063	1.38819	0.72036	116.19951	116.57046	43.55749	0.33386	 	459524.3758	 	1.38943E-5	 	41025.962	37.414	 
1030.0	1.0	0.0	7.46821	7.4698	-3.72971	14.20048	30.64729	1.38554	0.72174	116.85475	117.09041	43.80951	0.33367	 	497471.4861	 	1.27854E-5	 	40839.038	37.3848	 
1025.0	1.0	0.0	7.4701	7.4679	-3.75415	14.18323	30.58828	1.38289	0.72312	117.51094	117.61008	44.06196	0.33347	 	538881.5122	 	1.17576E-5	 	40652.255	37.3566	 
1020.0	1.0	0.0	7.472	7.46601	-3.77854	14.16597	30.52927	1.38023	0.72452	118.16806	118.12947	44.31483	0.33328	 	584099.5967	 	1.08056E-5	 	40465.608	37.3294	 
1015.0	1.0	0.0	7.47389	7.46412	-3.80289	14.14872	30.47026	1.37755	0.72593	118.82605	118.64852	44.56811	0.33308	 	633508.1211	 	9.92432E-6	 	40279.093	37.303	 
1010.0	1.0	0.0	7.47578	7.46223	-3.82719	14.13146	30.41125	1.37487	0.72734	119.48489	119.1672	44.82177	0.33289	 	687531.0247	 	9.10902E-6	 	40092.704	37.2778	 
1005.0	1.0	0.0	7.47766	7.46035	-3.85145	14.11419	30.35224	1.37217	0.72877	120.14455	119.68548	45.07582	0.33269	 	746638.6597	 	8.35522E-6	 	39906.437	37.2534	 
1000.0	1.0	0.0	7.47955	7.45847	-3.87566	14.09692	30.29323	1.36947	0.73021	120.80497	120.20332	45.33023	0.3325	 	811353.2519	 	7.65872E-6	 	39720.285	37.2304	 
995.0	1.0	0.0	7.48143	7.4566	-3.89982	14.07965	30.23422	1.36675	0.73166	121.46613	120.72069	45.58499	0.3323	 	882255.0477	 	7.01557E-6	 	39534.244	37.2082	 
990.0	1.0	0.0	7.48331	7.45473	-3.92393	14.06237	30.17521	1.36402	0.73312	122.128	121.23756	45.84008	0.33211	 	959989.2407	 	6.42207E-6	 	39348.308	37.1872	 
985.0	1.0	0.0	7.48518	7.45286	-3.948	14.04509	30.1162	1.36129	0.7346	122.79053	121.75389	46.09551	0.33191	 	1045273.78	 	5.87475E-6	 	39162.471	37.1674	 
980.0	1.0	0.0	7.48705	7.451	-3.97202	14.02781	30.0572	1.35854	0.73608	123.45369	122.26965	46.35124	0.33172	 	1138908.185	 	5.37033E-6	 	38976.727	37.1488	 
975.0	1.0	0.0	7.48892	7.44914	-3.99599	14.01052	29.99819	1.35578	0.73758	124.11745	122.78481	46.60728	0.33152	 	1241783.493	 	4.90577E-6	 	38791.07	37.1314	 
970.0	1.0	0.0	7.49079	7.44728	-4.01992	13.99323	29.93918	1.35301	0.73909	124.78177	123.29932	46.86359	0.33133	 	1354893.514	 	4.47822E-6	 	38605.493	37.1154	 
965.0	1.0	0.0	7.49265	7.44543	-4.0438	13.97594	29.88017	1.35023	0.74061	125.4466	123.81316	47.12018	0.33113	 	1479347.554	 	4.08498E-6	 	38419.991	37.1004	 
960.0	1.0	0.0	7.49452	7.44358	-4.06763	13.95864	29.82116	1.34744	0.74215	126.11193	124.3263	47.37703	0.33094	 	1616384.825	 	3.72356E-6	 	38234.556	37.087	 
955.0	1.0	0.0	7.49637	7.44173	-4.09142	13.94134	29.76216	1.34464	0.7437	126.7777	124.8387	47.63412	0.33074	 	1767390.774	 	3.39161E-6	 	38049.182	37.0748	 
950.0	1.0	0.0	7.49823	7.43989	-4.11516	13.92403	29.70315	1.34182	0.74526	127.44389	125.35033	47.89144	0.33055	 	1933915.601	 	3.08695E-6	 	37863.861	37.0642	 
945.0	1.0	0.0	7.50008	7.43805	-4.13885	13.90673	29.64414	1.339	0.74683	128.11047	125.86115	48.14899	0.33035	 	2117695.282	 	2.80753E-6	 	37678.587	37.0548	 
940.0	1.0	0.0	7.50193	7.43622	-4.16249	13.88941	29.58514	1.33616	0.74841	128.77738	126.37114	48.40673	0.33016	 	2320675.459	 	2.55145E-6	 	37493.35	37.0474	 
935.0	1.0	0.0	7.50378	7.43439	-4.18609	13.8721	29.52613	1.33331	0.75001	129.4446	126.88027	48.66467	0.32996	 	2545038.599	 	2.31693E-6	 	37308.145	37.041	 
930.0	1.0	0.0	7.50563	7.43256	-4.20964	13.85478	29.46713	1.33045	0.75162	130.1121	127.38849	48.92278	0.32977	 	2793234.917	 	2.10232E-6	 	37122.961	37.0368	 
925.0	1.0	0.0	7.50747	7.43074	-4.23315	13.83745	29.40812	1.32758	0.75325	130.77983	127.89578	49.18106	0.32958	 	3068017.602	 	1.90608E-6	 	36937.792	37.0338	 
920.0	1.0	0.0	7.50931	7.42892	-4.2566	13.82013	29.34912	1.3247	0.75489	131.44776	128.40211	49.4395	0.32938	 	3372482.99	 	1.72676E-6	 	36752.627	37.033	 
915.0	1.0	0.0	7.51114	7.4271	-4.28001	13.8028	29.29012	1.32181	0.75654	132.11586	128.90745	49.69806	0.32919	 	3710116.412	 	1.56304E-6	 	36567.459	37.0336	 
910.0	1.0	0.0	7.51298	7.42529	-4.30337	13.78546	29.23112	1.3189	0.75821	132.78408	129.41175	49.95676	0.32899	 	4084844.588	 	1.41368E-6	 	36382.278	37.0362	 
905.0	1.0	0.0	7.51481	7.42348	-4.32669	13.76813	29.17212	1.31598	0.75989	133.4524	129.91501	50.21556	0.3288	 	4501095.537	 	1.27752E-6	 	36197.074	37.0408	 
900.0	1.0	0.0	7.51664	7.42167	-4.34996	13.75078	29.11312	1.31305	0.76158	134.12078	130.41717	50.47447	0.3286	 	4963867.162	 	1.15351E-6	 	36011.837	37.0474	 
895.0	1.0	0.0	7.51846	7.41987	-4.37318	13.73344	29.05412	1.31011	0.76329	134.78918	130.91822	50.73345	0.32841	 	5478805.844	 	1.04064E-6	 	35826.556	37.0562	 
890.0	1.0	0.0	7.52028	7.41807	-4.39635	13.71609	28.99513	1.30716	0.76502	135.45757	131.41811	50.99251	0.32821	 	6052296.578	 	9.37999E-7	 	35641.222	37.0668	 
885.0	1.0	0.0	7.5221	7.41628	-4.41948	13.69874	28.93613	1.30419	0.76676	136.12591	131.91683	51.25163	0.32802	 	6691566.484	 	8.44741E-7	 	35455.821	37.0802	 
880.0	1.0	0.0	7.52392	7.41449	-4.44256	13.68138	28.87714	1.30122	0.76851	136.79417	132.41433	51.51079	0.32782	 	7404803.765	 	7.60079E-7	 	35270.344	37.0954	 
875.0	1.0	0.0	7.52573	7.4127	-4.46559	13.66402	28.81815	1.29823	0.77028	137.46231	132.9106	51.76998	0.32763	 	8201294.578	 	6.83287E-7	 	35084.776	37.1136	 
870.0	1.0	0.0	7.52755	7.41092	-4.48857	13.64666	28.75917	1.29522	0.77207	138.13029	133.40559	52.02919	0.32743	 	9091580.68	 	6.13692E-7	 	34899.107	37.1338	 
865.0	1.0	0.0	7.52935	7.40914	-4.51151	13.62929	28.70019	1.29221	0.77387	138.79808	133.89928	52.28841	0.32724	 	1.008764118E7	 	5.50677E-7	 	34713.321	37.1572	 
860.0	1.0	0.0	7.53116	7.40736	-4.5344	13.61192	28.64121	1.28918	0.77569	139.46565	134.39164	52.54761	0.32704	 	1.120310235E7	 	4.93669E-7	 	34527.406	37.183	 
855.0	1.0	0.0	7.53296	7.40559	-4.55725	13.59455	28.58223	1.28614	0.77752	140.13296	134.88265	52.8068	0.32685	 	1.245348002E7	 	4.42143E-7	 	34341.347	37.2118	 
850.0	1.0	0.0	7.53476	7.40382	-4.58004	13.57717	28.52326	1.28309	0.77937	140.79997	135.37226	53.06594	0.32665	 	1.385645997E7	 	3.95614E-7	 	34155.129	37.2436	 
845.0	1.0	0.0	7.53656	7.40205	-4.60279	13.55979	28.46429	1.28002	0.78124	141.46664	135.86046	53.32504	0.32646	 	1.543222271E7	 	3.53637E-7	 	33968.735	37.2788	 
840.0	1.0	0.0	7.53835	7.40029	-4.62549	13.5424	28.40533	1.27694	0.78312	142.13295	136.3472	53.58408	0.32626	 	1.72038199E7	 	3.15802E-7	 	33782.15	37.317	 
835.0	1.0	0.0	7.54014	7.39853	-4.64815	13.52501	28.34637	1.27385	0.78502	142.79886	136.83247	53.84304	0.32607	 	1.919761136E7	 	2.81733E-7	 	33595.355	37.359	 
830.0	1.0	0.0	7.54193	7.39678	-4.67075	13.50762	28.28742	1.27075	0.78694	143.46433	137.31624	54.10191	0.32587	 	2.14437728E7	 	2.51085E-7	 	33408.333	37.4044	 
825.0	1.0	0.0	7.54372	7.39503	-4.69331	13.49022	28.22848	1.26763	0.78887	144.12933	137.79847	54.36069	0.32568	 	2.397688662E7	 	2.2354E-7	 	33221.064	37.4538	 
820.0	1.0	0.0	7.5455	7.39328	-4.71582	13.47282	28.16954	1.2645	0.79083	144.79382	138.27914	54.61934	0.32548	 	2.68366299E7	 	1.9881E-7	 	33033.527	37.5074	 
815.0	1.0	0.0	7.54728	7.39154	-4.73829	13.45542	28.11061	1.26135	0.7928	145.45777	138.75822	54.87787	0.32529	 	3.006857691E7	 	1.76629E-7	 	32845.702	37.565	 
810.0	1.0	0.0	7.54905	7.3898	-4.76071	13.43801	28.05168	1.25819	0.79479	146.12114	139.23568	55.13625	0.32509	 	3.372513597E7	 	1.56755E-7	 	32657.566	37.6272	 
805.0	1.0	0.0	7.55083	7.38807	-4.78307	13.4206	27.99277	1.25502	0.7968	146.78389	139.71149	55.39448	0.3249	 	3.786664476E7	 	1.38966E-7	 	32469.095	37.6942	 
800.0	1.0	0.0	7.5526	7.38633	-4.8054	13.40319	27.93386	1.25184	0.79883	147.446	140.18563	55.65254	0.3247	 	4.256265239E7	 	1.2306E-7	 	32280.264	37.7662	 
795.0	1.0	0.0	7.55437	7.38461	-4.82767	13.38577	27.87496	1.24864	0.80087	148.10742	140.65807	55.91042	0.32451	 	4.789342195E7	 	1.08854E-7	 	32091.046	37.8436	 
790.0	1.0	0.0	7.55613	7.38288	-4.8499	13.36835	27.81607	1.24542	0.80294	148.76813	141.12877	56.1681	0.32431	 	5.395169379E7	 	9.61781E-8	 	31901.414	37.9264	 
785.0	1.0	0.0	7.55789	7.38116	-4.87208	13.35092	27.75719	1.24219	0.80503	149.42808	141.59772	56.42557	0.32412	 	6.084475741E7	 	8.48811E-8	 	31711.336	38.0156	 
780.0	1.0	0.0	7.55965	7.37944	-4.89421	13.3335	27.69832	1.23895	0.80713	150.08725	142.06488	56.68283	0.32392	 	6.869688924E7	 	7.48238E-8	 	31520.782	38.1108	 
775.0	1.0	0.0	7.56141	7.37773	-4.9163	13.31606	27.63946	1.2357	0.80926	150.74559	142.53024	56.93984	0.32373	 	7.765222472E7	 	6.58804E-8	 	31329.717	38.213	 
770.0	1.0	0.0	7.56316	7.37602	-4.93833	13.29863	27.58061	1.23243	0.81141	151.40307	142.99375	57.19661	0.32353	 	8.787814661E7	 	5.79365E-8	 	31138.105	38.3224	 
765.0	1.0	0.0	7.56491	7.37431	-4.96032	13.28119	27.52177	1.22914	0.81358	152.05966	143.4554	57.45312	0.32334	 	9.956928793E7	 	5.08887E-8	 	30945.907	38.4396	 
760.0	1.0	0.0	7.56666	7.37261	-4.98226	13.26374	27.46295	1.22584	0.81577	152.71532	143.91516	57.70935	0.32314	 	1.129522675E8	 	4.46432E-8	 	30753.082	38.565	 
755.0	1.0	0.0	7.5684	7.37091	-5.00416	13.2463	27.40413	1.22253	0.81798	153.37003	144.373	57.96529	0.32295	 	1.282913001E8	 	3.91152E-8	 	30559.586	38.6992	 
750.0	1.0	0.0	7.57014	7.36922	-5.02601	13.22885	27.34533	1.2192	0.82021	154.02373	144.82889	58.22094	0.32275	 	1.458948522E8	 	3.42284E-8	 	30365.371	38.843	 
745.0	1.0	0.0	7.57188	7.36752	-5.04781	13.21139	27.28654	1.21585	0.82247	154.6764	145.28282	58.47627	0.32256	 	1.661235501E8	 	2.99135E-8	 	30170.386	38.997	 
740.0	1.0	0.0	7.57361	7.36584	-5.06956	13.19393	27.22775	1.21249	0.82475	155.32801	145.73474	58.73127	0.32236	 	1.893995888E8	 	2.61085E-8	 	29974.574	39.1624	 
735.0	1.0	0.0	7.57535	7.36415	-5.09126	13.17647	27.16899	1.20912	0.82705	155.97851	146.18465	58.98592	0.32217	 	2.162179446E8	 	2.27573E-8	 	29777.878	39.3392	 
730.0	1.0	0.0	7.57708	7.36247	-5.11292	13.15901	27.11023	1.20573	0.82937	156.62789	146.63251	59.24023	0.32197	 	2.471597563E8	 	1.98096E-8	 	29580.232	39.5292	 
725.0	1.0	0.0	7.5788	7.3608	-5.13453	13.14154	27.05148	1.20233	0.83172	157.27609	147.07829	59.49417	0.32178	 	2.829083195E8	 	1.72201E-8	 	29381.567	39.733	 
720.0	1.0	0.0	7.58052	7.35912	-5.15609	13.12407	26.99274	1.19891	0.83409	157.92308	147.52198	59.74772	0.32158	 	3.242682335E8	 	1.49485E-8	 	29181.806	39.9522	 
715.0	1.0	0.0	7.58224	7.35745	-5.1776	13.10659	26.93402	1.19547	0.83649	158.56884	147.96354	60.00089	0.32139	 	3.721883591E8	 	1.29583E-8	 	28980.867	40.1878	 
710.0	1.0	0.0	7.58396	7.35579	-5.19907	13.08911	26.8753	1.19202	0.83891	159.21333	148.40295	60.25364	0.32119	 	4.277893894E8	 	1.1217E-8	 	28778.66	40.4414	 
705.0	1.0	0.0	7.58568	7.35413	-5.22048	13.07163	26.81659	1.18856	0.84136	159.85651	148.84019	60.50598	0.321	 	4.92397014E8	 	9.69565E-9	 	28575.086	40.7148	 
700.0	1.0	0.0	7.58739	7.35247	-5.24186	13.05414	26.75789	1.18507	0.84383	160.49835	149.27523	60.75788	0.3208	 	5.675818781E8	 	8.36831E-9	 	28370.039	41.0094	 
695.0	1.0	0.0	7.58909	7.35081	-5.26318	13.03665	26.6992	1.18158	0.84633	161.13881	149.70805	61.00934	0.32061	 	6.552078082E8	 	7.21191E-9	 	28163.4	41.3278	 
690.0	1.0	0.0	7.5908	7.34916	-5.28445	13.01915	26.64051	1.17806	0.84885	161.77787	150.13862	61.26034	0.32041	 	7.574901128E8	 	6.20588E-9	 	27955.039	41.6722	 
685.0	1.0	0.0	7.5925	7.34752	-5.30568	13.00166	26.58183	1.17454	0.8514	162.41548	150.56692	61.51086	0.32022	 	8.770661864E8	 	5.33197E-9	 	27744.813	42.0452	 
680.0	1.0	0.0	7.5942	7.34587	-5.32686	12.98415	26.52315	1.17099	0.85398	163.05162	150.99292	61.7609	0.32002	 	1.01708116E9	 	4.57396E-9	 	27532.565	42.4496	 
675.0	1.0	0.0	7.59589	7.34423	-5.34799	12.96665	26.46447	1.16743	0.85658	163.68624	151.41661	62.01045	0.31983	 	1.181291991E9	 	3.91748E-9	 	27318.12	42.889	 
670.0	1.0	0.0	7.59759	7.3426	-5.36907	12.94914	26.4058	1.16386	0.85921	164.31932	151.83795	62.25948	0.31963	 	1.374194185E9	 	3.3498E-9	 	27101.284	43.3672	 
665.0	1.0	0.0	7.59928	7.34096	-5.39011	12.93163	26.34712	1.16026	0.86187	164.95082	152.25692	62.50798	0.31944	 	1.601176364E9	 	2.8597E-9	 	26881.843	43.8882	 
660.0	1.0	0.0	7.60096	7.33934	-5.4111	12.91411	26.28844	1.15666	0.86456	165.58071	152.6735	62.75595	0.31924	 	1.868709129E9	 	2.43723E-9	 	26659.558	44.457	 
655.0	1.0	0.0	7.60264	7.33771	-5.43204	12.89659	26.22976	1.15303	0.86728	166.20895	153.08767	63.00337	0.31905	 	2.184576283E9	 	2.07366E-9	 	26434.161	45.0794	 
650.0	1.0	0.0	7.60432	7.33609	-5.45293	12.87907	26.17108	1.14939	0.87002	166.83551	153.49941	63.25022	0.31885	 	2.558158445E9	 	1.76129E-9	 	26185.234	49.7854	 
645.0	1.0	0.0	7.606	7.33447	-5.47377	12.86154	26.11238	1.14574	0.8728	167.46036	153.90868	63.4965	0.31866	 	3.000781591E9	 	1.49336E-9	 	25930.622	50.9224	 
640.0	1.0	0.0	7.60768	7.33286	-5.49457	12.84401	26.05368	1.14206	0.87561	168.08347	154.31547	63.74218	0.31846	 	3.526146253E9	 	1.26395E-9	 	25679.28	50.2684	 
635.0	1.0	0.0	7.60935	7.33125	-5.51532	12.82648	25.99497	1.13838	0.87844	168.70479	154.71976	63.98727	0.31827	 	4.150857074E9	 	1.06784E-9	 	25431.082	49.6396	 
630.0	1.0	0.0	7.61101	7.32964	-5.53602	12.80894	25.93625	1.13467	0.88131	169.3243	155.12152	64.23174	0.31807	 	4.89507754E9	 	9.00507E-10	 	25185.911	49.0342	 
625.0	1.0	0.0	7.61268	7.32804	-5.55667	12.7914	25.87751	1.13095	0.88421	169.94197	155.52073	64.47558	0.31788	 	5.783341112E9	 	7.57978E-10	 	24943.654	48.4514	 
620.0	1.0	0.0	7.61434	7.32644	-5.57727	12.77385	25.81876	1.12721	0.88714	170.55776	155.91737	64.71878	0.31768	 	6.845558258E9	 	6.36799E-10	 	24704.207	47.8894	 
615.0	1.0	0.0	7.616	7.32485	-5.59783	12.7563	25.76	1.12346	0.89011	171.17163	156.31141	64.96133	0.31749	 	8.118269357E9	 	5.33961E-10	 	24467.469	47.3476	 
610.0	1.0	0.0	7.61765	7.32326	-5.61834	12.73875	25.70121	1.11969	0.8931	171.78356	156.70284	65.20321	0.31729	 	9.646206849E9	 	4.46853E-10	 	24233.343	46.8252	 
605.0	1.0	0.0	7.6193	7.32167	-5.6388	12.72119	25.64241	1.11591	0.89613	172.39351	157.09164	65.44441	0.3171	 	1.14842E10	 	3.7321E-10	 	24001.74	46.3206	 
600.0	1.0	0.0	7.62095	7.32008	-5.65921	12.70363	25.58359	1.1121	0.8992	173.00145	157.47777	65.68492	0.3169	 	1.3699899999999998E10	 	3.11071E-10	 	23772.574	45.8332	 
595.0	1.0	0.0	7.6226	7.3185	-5.67958	12.68607	25.52474	1.10828	0.9023	173.60735	157.86123	65.92473	0.31671	 	1.6376199999999998E10	 	2.58744E-10	 	23545.762	45.3624	 
590.0	1.0	0.0	7.62424	7.31693	-5.69989	12.6685	25.46588	1.10445	0.90543	174.21118	158.24198	66.16382	0.31651	 	1.96158E10	 	2.14767E-10	 	23321.228	44.9068	 
585.0	1.0	0.0	7.62588	7.31536	-5.72016	12.65093	25.40699	1.1006	0.9086	174.81289	158.62002	66.40217	0.31632	 	2.3545799999999996E10	 	1.77884E-10	 	23098.897	44.4662	 
580.0	1.0	0.0	7.62751	7.31379	-5.74038	12.63336	25.34807	1.09673	0.9118	175.41246	158.99531	66.63979	0.31612	 	2.8323699999999996E10	 	1.47015E-10	 	22878.7	44.0394	 
575.0	1.0	0.0	7.62915	7.31222	-5.76055	12.61578	25.28913	1.09284	0.91505	176.00987	159.36784	66.87665	0.31593	 	3.4145499999999996E10	 	1.21235E-10	 	22660.57	43.626	 
570.0	1.0	0.0	7.63078	7.31066	-5.78068	12.5982	25.23017	1.08894	0.91833	176.60506	159.73759	67.11274	0.31573	 	4.12552E10	 	9.975E-11	 	22444.443	43.2254	 
565.0	1.0	0.0	7.6324	7.3091	-5.80075	12.58061	25.17118	1.08502	0.92165	177.19802	160.10454	67.34806	0.31554	 	4.995789999999999E10	 	8.18849E-11	 	22230.26	42.8366	 
560.0	1.0	0.0	7.63403	7.30755	-5.82078	12.56302	25.11216	1.08108	0.925	177.78871	160.46866	67.58258	0.31534	 	6.063569999999999E10	 	6.70628E-11	 	22017.963	42.4594	 
555.0	1.0	0.0	7.63565	7.306	-5.84076	12.54543	25.05312	1.07712	0.9284	178.37711	160.82995	67.81629	0.31515	 	7.37679E10	 	5.47934E-11	 	21807.498	42.093	 
550.0	1.0	0.0	7.63726	7.30445	-5.86069	12.52783	24.99406	1.07315	0.93184	178.96317	161.18837	68.04919	0.31495	 	8.99583E10	 	4.46606E-11	 	21598.811	41.7374	 
545.0	1.0	0.0	7.63888	7.30291	-5.88057	12.51023	24.93497	1.06916	0.93532	179.54686	161.54391	68.28126	0.31476	 	1.09968E11	 	3.63121E-11	 	21391.855	41.3912	 
540.0	1.0	0.0	7.64049	7.30137	-5.90041	12.49263	24.87585	1.06515	0.93884	180.12816	161.89655	68.51248	0.31456	 	1.34762E11	 	2.94503E-11	 	21186.581	41.0548	 
535.0	1.0	0.0	7.64209	7.29983	-5.92019	12.47502	24.81671	1.06112	0.9424	180.70704	162.24627	68.74286	0.31437	 	1.65562E11	 	2.38242E-11	 	20982.945	40.7272	 
530.0	1.0	0.0	7.6437	7.2983	-5.93993	12.45741	24.75755	1.05708	0.946	181.28346	162.59305	68.97236	0.31417	 	2.03923E11	 	1.92229E-11	 	20780.903	40.4084	 
525.0	1.0	0.0	7.6453	7.29678	-5.95962	12.4398	24.69837	1.05301	0.94966	181.85739	162.93688	69.20099	0.31398	 	2.51828E11	 	1.54692E-11	 	20580.414	40.0978	 
520.0	1.0	0.0	7.64689	7.29525	-5.97926	12.42218	24.63917	1.04893	0.95335	182.4288	163.27774	69.42872	0.31378	 	3.11817E11	 	1.24149E-11	 	20381.44	39.7948	 
515.0	1.0	0.0	7.64849	7.29373	-5.99885	12.40456	24.57994	1.04483	0.95709	182.99766	163.6156	69.65556	0.31359	 	3.87143E11	 	9.93629E-12	 	20183.942	39.4996	 
510.0	1.0	0.0	7.65008	7.29221	-6.0184	12.38693	24.5207	1.04071	0.96088	183.56394	163.95045	69.88147	0.31339	 	4.81996E11	 	7.93028E-12	 	19987.885	39.2114	 
505.0	1.0	0.0	7.65167	7.2907	-6.0379	12.3693	24.46144	1.03657	0.96472	184.12761	164.28227	70.10647	0.3132	 	6.0178E11	 	6.3112E-12	 	19793.234	38.9302	 
500.0	1.0	0.0	7.65325	7.28919	-6.05734	12.35167	24.40217	1.03241	0.96861	184.68865	164.61105	70.33052	0.31301	 	7.53494E11	 	5.00807E-12	 	19599.957	38.6554	 
495.0	1.0	0.0	7.65483	7.28769	-6.07674	12.33403	24.34288	1.02823	0.97254	185.24701	164.93677	70.55362	0.31281	 	9.46221E11	 	3.96223E-12	 	19408.022	38.387	 
490.0	1.0	0.0	7.65641	7.28619	-6.0961	12.31639	24.28358	1.02404	0.97653	185.80267	165.2594	70.77576	0.31262	 	1.1918E12	 	3.12532E-12	 	19217.399	38.1246	 
485.0	1.0	0.0	7.65798	7.28469	-6.1154	12.29875	24.22427	1.01982	0.98057	186.3556	165.57895	70.99693	0.31242	 	1.50568E12	 	2.45759E-12	 	19028.059	37.868	 
480.0	1.0	0.0	7.65955	7.28319	-6.13465	12.2811	24.16495	1.01558	0.98466	186.90577	165.89537	71.21711	0.31223	 	1.90814E12	 	1.92645E-12	 	18839.975	37.6168	 
475.0	1.0	0.0	7.66112	7.2817	-6.15386	12.26345	24.10563	1.01132	0.98881	187.45316	166.20867	71.43629	0.31203	 	2.42586E12	 	1.50525E-12	 	18653.119	37.3712	 
470.0	1.0	0.0	7.66268	7.28022	-6.17302	12.2458	24.04629	1.00704	0.99301	187.99773	166.51883	71.65447	0.31184	 	3.09401E12	 	1.17231E-12	 	18467.467	37.1304	 
465.0	1.0	0.0	7.66425	7.27873	-6.19213	12.22814	23.98696	1.00274	0.99727	188.53945	166.82582	71.87162	0.31164	 	3.95923E12	 	9.09957E-13	 	18282.994	36.8946	 
460.0	1.0	0.0	7.6658	7.27726	-6.21119	12.21048	23.92762	0.99841	1.00159	189.07829	167.12964	72.08774	0.31145	 	5.08346E12	 	7.03915E-13	 	18099.675	36.6638	 
455.0	1.0	0.0	7.66736	7.27578	-6.2302	12.19281	23.86828	0.99407	1.00596	189.61424	167.43027	72.30282	0.31125	 	6.54936E12	 	5.42636E-13	 	17917.489	36.4372	 
450.0	1.0	0.0	7.66891	7.27431	-6.24916	12.17514	23.80894	0.98971	1.0104	190.14725	167.7277	72.51685	0.31106	 	8.46759E12	 	4.16826E-13	 	17736.414	36.215	 
445.0	1.0	0.0	7.67046	7.27284	-6.26808	12.15747	23.7496	0.98532	1.0149	190.6773	168.0219	72.72981	0.31086	 	1.09869E13	 	3.19027E-13	 	17556.429	35.997	 
440.0	1.0	0.0	7.672	7.27138	-6.28695	12.13979	23.69026	0.98091	1.01946	191.20437	168.31287	72.9417	0.31067	 	1.43079E13	 	2.43272E-13	 	17377.512	35.7834	 
435.0	1.0	0.0	7.67354	7.26992	-6.30576	12.12211	23.63093	0.97648	1.02409	191.72843	168.60059	73.1525	0.31047	 	1.87023E13	 	1.84806E-13	 	17199.646	35.5732	 
430.0	1.0	0.0	7.67508	7.26846	-6.32453	12.10443	23.57161	0.97202	1.02878	192.24944	168.88504	73.3622	0.31028	 	2.45398E13	 	1.3985E-13	 	17022.81	35.3672	 
425.0	1.0	0.0	7.67661	7.26701	-6.34326	12.08674	23.51229	0.96755	1.03354	192.76738	169.16622	73.57079	0.31008	 	3.23248E13	 	1.05414E-13	 	16846.987	35.1646	 
420.0	1.0	0.0	7.67814	7.26556	-6.36193	12.06905	23.45298	0.96305	1.03837	193.28224	169.44412	73.77827	0.30989	 	4.27491E13	 	7.91384E-14	 	16672.159	34.9656	 
415.0	1.0	0.0	7.67967	7.26411	-6.38055	12.05136	23.39367	0.95852	1.04327	193.79397	169.71871	73.98461	0.30969	 	5.67652E13	 	5.91681E-14	 	16498.309	34.77	 
410.0	1.0	0.0	7.6812	7.26267	-6.39913	12.03366	23.33438	0.95398	1.04824	194.30255	169.98998	74.18982	0.3095	 	7.56902E13	 	4.40517E-14	 	16325.421	34.5776	 
405.0	1.0	0.0	7.68272	7.26124	-6.41765	12.01596	23.27509	0.94941	1.05329	194.80797	170.25793	74.39387	0.3093	 	1.01354E14	 	3.26567E-14	 	16153.479	34.3884	 
400.0	1.0	0.0	7.68423	7.2598	-6.43613	11.99825	23.21582	0.94481	1.05841	195.31018	170.52254	74.59677	0.30911	 	1.3630899999999998E14	 	2.41032E-14	 	15982.467	34.2024	 
395.0	1.0	0.0	7.68575	7.25837	-6.45456	11.98054	23.15655	0.94019	1.06361	195.80918	170.7838	74.79849	0.30891	 	1.84134E14	 	1.77103E-14	 	15812.37	34.0194	 
390.0	1.0	0.0	7.68726	7.25695	-6.47294	11.96283	23.0973	0.93555	1.06889	196.30493	171.0417	74.99904	0.30872	 	2.4987E14	 	1.29534E-14	 	15643.175	33.839	 
385.0	1.0	0.0	7.68876	7.25552	-6.49128	11.94511	23.03805	0.93089	1.07424	196.79741	171.29623	75.19839	0.30852	 	3.4065E14	 	9.42982E-15	 	15474.866	33.6618	 
380.0	1.0	0.0	7.69027	7.2541	-6.50956	11.92739	22.97882	0.9262	1.07969	197.28659	171.54738	75.39655	0.30833	 	4.6662E14	 	6.83182E-15	 	15307.431	33.487	 
375.0	1.0	0.0	7.69177	7.25269	-6.52779	11.90967	22.9196	0.92148	1.08521	197.77246	171.79513	75.59349	0.30813	 	6.42283E14	 	4.92534E-15	 	15140.857	33.3148	 
370.0	1.0	0.0	7.69327	7.25128	-6.54598	11.89194	22.86039	0.91674	1.09082	198.25499	172.03949	75.78922	0.30794	 	8.88478E14	 	3.53307E-15	 	14975.129	33.1456	 
365.0	1.0	0.0	7.69476	7.24987	-6.56412	11.87421	22.80119	0.91198	1.09652	198.73415	172.28043	75.98372	0.30774	 	1.23531E15	 	2.52135E-15	 	14810.237	32.9784	 
360.0	1.0	0.0	7.69625	7.24847	-6.5822	11.85648	22.742	0.90718	1.10231	199.20993	172.51795	76.17699	0.30755	 	1.7265E15	 	1.7899E-15	 	14646.168	32.8138	 
355.0	1.0	0.0	7.69774	7.24707	-6.60024	11.83874	22.68283	0.90237	1.10819	199.68231	172.75205	76.36901	0.30735	 	2.42588E15	 	1.26381E-15	 	14482.911	32.6514	 
350.0	1.0	0.0	7.69922	7.24567	-6.61824	11.821	22.62366	0.89753	1.11417	200.15125	172.98271	76.55977	0.30716	 	3.42724E15	 	8.87432E-16	 	14320.453	32.4916	 
345.0	1.0	0.0	7.7007	7.24428	-6.63618	11.80325	22.5645	0.89266	1.12025	200.61675	173.20993	76.74928	0.30696	 	4.86907E15	 	6.19633E-16	 	14158.784	32.3338	 
340.0	1.0	0.0	7.70217	7.24289	-6.65407	11.7855	22.50536	0.88777	1.12642	201.07879	173.4337	76.93751	0.30677	 	6.95722E15	 	4.30148E-16	 	13997.893	32.1782	 
335.0	1.0	0.0	7.70365	7.24151	-6.67191	11.76775	22.44622	0.88285	1.1327	201.53733	173.65401	77.12447	0.30657	 	9.99939E15	 	2.96841E-16	 	13837.77	32.0246	 
330.0	1.0	0.0	7.70512	7.24013	-6.68971	11.74999	22.3871	0.8779	1.13908	201.99237	173.87086	77.31014	0.30638	 	1.44585E16	 	2.03605E-16	 	13678.404	31.8732	 
325.0	1.0	0.0	7.70658	7.23875	-6.70746	11.73223	22.32798	0.87293	1.14557	202.44389	174.08425	77.49451	0.30618	 	2.10354E16	 	1.38786E-16	 	13519.786	31.7236	 
320.0	1.0	0.0	7.70804	7.23738	-6.72515	11.71447	22.26887	0.86793	1.15217	202.89186	174.29416	77.67759	0.30599	 	3.07981E16	 	9.4E-17	 	13361.906	31.576	 
315.0	1.0	0.0	7.7095	7.23601	-6.7428	11.6967	22.20977	0.8629	1.15888	203.33627	174.5006	77.85935	0.30579	 	4.53848E16	 	6.32505E-17	 	13204.754	31.4304	 
310.0	1.0	0.0	7.71096	7.23464	-6.7604	11.67893	22.15067	0.85785	1.16571	203.77711	174.70356	78.03981	0.3056	 	6.7326500000000008E16	 	4.22747E-17	 	13048.322	31.2864	 
305.0	1.0	0.0	7.71241	7.23328	-6.77795	11.66116	22.09159	0.85277	1.17265	204.21436	174.90304	78.21894	0.3054	 	1.0056E17	 	2.8061E-17	 	12892.6	31.1444	 
300.0	1.0	0.0	7.71386	7.23192	-6.79546	11.64338	22.03251	0.84766	1.17972	204.64801	175.09903	78.39674	0.30521	 	1.51252E17	 	1.8495E-17	 	12737.579	31.0042	 
295.0	1.0	0.0	7.7153	7.23057	-6.81291	11.6256	21.97343	0.84253	1.18691	205.07803	175.29154	78.57321	0.30501	 	2.29139E17	 	1.21018E-17	 	12583.252	30.8654	 
290.0	1.0	0.0	7.71674	7.22922	-6.83031	11.60781	21.91437	0.83736	1.19423	205.50442	175.48056	78.74834	0.30482	 	3.49704E17	 	7.85978E-18	 	12429.61	30.7284	 
285.0	1.0	0.0	7.71818	7.22787	-6.84767	11.59002	21.8553	0.83217	1.20168	205.92717	175.6661	78.92213	0.30462	 	5.37763E17	 	5.06578E-18	 	12276.645	30.593	 
280.0	1.0	0.0	7.71962	7.22653	-6.86497	11.57223	21.79625	0.82695	1.20926	206.34626	175.84815	79.09456	0.30443	 	8.33413E17	 	3.23944E-18	 	12124.35	30.459	 
275.0	1.0	0.0	7.72105	7.22519	-6.88223	11.55443	21.73719	0.8217	1.21699	206.76168	176.02672	79.26564	0.30423	 	1.30197E18	 	2.05487E-18	 	11972.715	30.327	 
270.0	1.0	0.0	7.72247	7.22385	-6.89944	11.53663	21.67815	0.81642	1.22485	207.17343	176.2018	79.43537	0.30404	 	2.05073E18	 	1.2927E-18	 	11821.736	30.1958	 
265.0	1.0	0.0	7.7239	7.22252	-6.9166	11.51883	21.6191	0.81112	1.23287	207.58149	176.3734	79.60373	0.30384	 	3.25748E18	 	8.06321E-19	 	11671.403	30.0666	 
260.0	1.0	0.0	7.72532	7.22119	-6.93371	11.50102	21.56006	0.80578	1.24103	207.98586	176.54153	79.77072	0.30365	 	5.21946E18	 	4.98552E-19	 	11521.71	29.9386	 
255.0	1.0	0.0	7.72673	7.21987	-6.95077	11.48321	21.50103	0.80042	1.24935	208.38653	176.70619	79.93635	0.30345	 	8.43812E18	 	3.05491E-19	 	11372.651	29.8118	 
250.0	1.0	0.0	7.72815	7.21855	-6.96778	11.4654	21.44199	0.79502	1.25783	208.7835	176.86738	80.1006	0.30326	 	1.37674E19	 	1.85464E-19	 	11224.219	29.6864	 
245.0	1.0	0.0	7.72956	7.21723	-6.98474	11.44758	21.38296	0.7896	1.26647	209.17676	177.02512	80.26348	0.30306	 	2.26759E19	 	1.11526E-19	 	11076.407	29.5624	 
240.0	1.0	0.0	7.73096	7.21592	-7.00166	11.42976	21.32393	0.78414	1.27528	209.5663	177.17941	80.42499	0.30287	 	3.77136E19	 	6.64099E-20	 	10929.209	29.4396	 
235.0	1.0	0.0	7.73236	7.21461	-7.01852	11.41193	21.2649	0.77866	1.28426	209.95214	177.33026	80.58512	0.30267	 	6.33549E19	 	3.9147E-20	 	10782.62	29.3178	 
230.0	1.0	0.0	7.73376	7.21331	-7.03534	11.3941	21.20588	0.77314	1.29342	210.33426	177.47767	80.74387	0.30248	 	1.0753299999999998E20	 	2.28373E-20	 	10636.632	29.1976	 
225.0	1.0	0.0	7.73516	7.21201	-7.0521	11.37627	21.14686	0.76759	1.30277	210.71267	177.62167	80.90124	0.30228	 	1.84464E20	 	1.31806E-20	 	10491.242	29.078	 
220.0	1.0	0.0	7.73655	7.21071	-7.06882	11.35843	21.08784	0.76202	1.31231	211.08737	177.76226	81.05724	0.30209	 	3.19916E20	 	7.52368E-21	 	10346.443	28.9598	 
215.0	1.0	0.0	7.73794	7.20942	-7.08549	11.34059	21.02882	0.75641	1.32204	211.45837	177.89946	81.21186	0.30189	 	5.6112299999999997E20	 	4.24602E-21	 	10202.231	28.8424	 
210.0	1.0	0.0	7.73932	7.20813	-7.1021	11.32275	20.9698	0.75077	1.33197	211.82568	178.03329	81.36511	0.3017	 	9.957079999999999E20	 	2.3683E-21	 	10058.599	28.7264	 
205.0	1.0	0.0	7.7407	7.20684	-7.11867	11.3049	20.91078	0.74509	1.34211	212.18929	178.16375	81.51699	0.3015	 	1.78819E21	 	1.30508E-21	 	9915.544	28.611	 
200.0	1.0	0.0	7.74208	7.20556	-7.13519	11.28705	20.85176	0.73939	1.35247	212.54923	178.29087	81.6675	0.30131	 	3.25141E21	 	7.10255E-22	 	9773.061	28.4966	 
195.0	1.0	0.0	7.74345	7.20428	-7.15166	11.26919	20.79275	0.73365	1.36304	212.9055	178.41467	81.81664	0.30111	 	5.9879E21	 	3.8159E-22	 	9631.146	28.383	 
190.0	1.0	0.0	7.74482	7.20301	-7.16809	11.25134	20.73373	0.72788	1.37385	213.25812	178.53517	81.96443	0.30092	 	1.11739E22	 	2.02304E-22	 	9489.793	28.2706	 
185.0	1.0	0.0	7.74619	7.20174	-7.18446	11.23347	20.67472	0.72208	1.38489	213.6071	178.6524	82.11086	0.30072	 	2.11372E22	 	1.05791E-22	 	9349.0	28.1586	 
180.0	1.0	0.0	7.74755	7.20047	-7.20078	11.21561	20.61571	0.71624	1.39617	213.95247	178.76637	82.25595	0.30053	 	4.05507E22	 	5.45419E-23	 	9208.762	28.0476	 
175.0	1.0	0.0	7.74891	7.19921	-7.21705	11.19774	20.55669	0.71038	1.40771	214.29424	178.87712	82.3997	0.30033	 	7.89341E22	 	2.77106E-23	 	9069.077	27.937	 
170.0	1.0	0.0	7.75026	7.19795	-7.23328	11.17987	20.49768	0.70447	1.4195	214.63244	178.98467	82.54212	0.30014	 	1.55976E23	 	1.38669E-23	 	8929.94	27.8274	 
165.0	1.0	0.0	7.75162	7.19669	-7.24945	11.16199	20.43867	0.69853	1.43157	214.96709	179.08907	82.68322	0.29994	 	3.13042E23	 	6.83136E-24	 	8791.349	27.7182	 
160.0	1.0	0.0	7.75296	7.19544	-7.26558	11.14411	20.37966	0.69256	1.44391	215.29824	179.19033	82.823	0.29975	 	6.384569999999999E23	 	3.31126E-24	 	8653.3	27.6098	 
155.0	1.0	0.0	7.75431	7.1942	-7.28165	11.12623	20.32065	0.68656	1.45654	215.62589	179.2885	82.96149	0.29955	 	1.32401E24	 	1.57831E-24	 	8515.792	27.5016	 
150.0	1.0	0.0	7.75565	7.19295	-7.29768	11.10834	20.26164	0.68051	1.46948	215.95011	179.38362	83.0987	0.29936	 	2.79341E24	 	7.39344E-25	 	8378.822	27.394	 
145.0	1.0	0.0	7.75699	7.19171	-7.31366	11.09045	20.20263	0.67444	1.48272	216.27091	179.47573	83.23463	0.29916	 	5.99975E24	 	3.40162E-25	 	8242.388	27.2868	 
140.0	1.0	0.0	7.75832	7.19048	-7.32958	11.07255	20.14362	0.66833	1.49628	216.58836	179.56487	83.36932	0.29897	 	1.31271E25	 	1.53613E-25	 	8106.488	27.18	 
135.0	1.0	0.0	7.75965	7.18924	-7.34546	11.05465	20.08461	0.66218	1.51017	216.90249	179.6511	83.50276	0.29877	 	2.92774E25	 	6.80414E-26	 	7971.121	27.0734	 
130.0	1.0	0.0	7.76097	7.18802	-7.36129	11.03675	20.0256	0.65599	1.52441	217.21335	179.73445	83.63499	0.29858	 	6.661E25	 	2.95402E-26	 	7836.285	26.9672	 
125.0	1.0	0.0	7.7623	7.18679	-7.37707	11.01885	19.96659	0.64977	1.539	217.52101	179.81499	83.76602	0.29838	 	1.54708E26	 	1.25609E-26	 	7701.98	26.861	 
120.0	1.0	0.0	7.76361	7.18557	-7.3928	11.00094	19.90758	0.64351	1.55397	217.82551	179.89278	83.89589	0.29819	 	3.67109E26	 	5.22697E-27	 	7568.206	26.7548	 
115.0	1.0	0.0	7.76493	7.18436	-7.40848	10.98302	19.84857	0.63722	1.56932	218.12694	179.96787	84.0246	0.29799	 	8.90728E26	 	2.12687E-27	 	7434.961	26.649	 
110.0	1.0	0.0	7.76624	7.18314	-7.42411	10.96511	19.78956	0.63089	1.58507	218.42535	180.04033	84.15219	0.2978	 	2.2117799999999998E27	 	8.45499E-28	 	7302.247	26.5428	 
105.0	1.0	0.0	7.76755	7.18193	-7.43969	10.94719	19.73055	0.62451	1.60124	218.72083	180.11024	84.27868	0.2976	 	5.62582E27	 	3.28069E-28	 	7170.064	26.4366	 
100.0	1.0	0.0	7.76885	7.18073	-7.45522	10.92926	19.67154	0.61811	1.61785	219.01346	180.17767	84.40412	0.29741	 	1.46722E28	 	1.2413E-28	 	7038.412	26.3304	 
95.0	1.0	0.0	7.77015	7.17953	-7.47071	10.91134	19.61253	0.61166	1.6349	219.30332	180.2427	84.52853	0.29721	 	3.92745E28	 	4.57511E-29	 	6907.294	26.2236	 
90.0	1.0	0.0	7.77145	7.17833	-7.48614	10.8934	19.55352	0.60517	1.65242	219.59052	180.30541	84.65195	0.29702	 	1.08019E29	 	1.64086E-29	 	6776.711	26.1166	 
85.0	1.0	0.0	7.77274	7.17714	-7.50152	10.87547	19.49451	0.59865	1.67044	219.87515	180.3659	84.77442	0.29682	 	3.0560600000000003E29	 	5.71992E-30	 	6646.665	26.0092	 
80.0	1.0	0.0	7.77403	7.17595	-7.51685	10.85753	19.4355	0.59208	1.68896	220.15733	180.42426	84.89598	0.29663	 	8.90454E29	 	1.93568E-30	 	6517.16	25.901	 
75.0	1.0	0.0	7.77531	7.17476	-7.53214	10.83959	19.37649	0.58548	1.70801	220.43718	180.48061	85.01667	0.29644	 	2.67548E30	 	6.35114E-31	 	6388.198	25.7924	 
70.0	1.0	0.0	7.77659	7.17358	-7.54737	10.82164	19.31748	0.57883	1.72762	220.71483	180.53504	85.13655	0.29624	 	8.300709999999999E30	 	2.01769E-31	 	6259.784	25.6828	 
65.0	1.0	0.0	7.77787	7.1724	-7.56256	10.80369	19.25847	0.57214	1.74781	220.99041	180.58768	85.25568	0.29605	 	2.66299E31	 	6.19763E-32	 	6131.922	25.5724	 
60.0	1.0	0.0	7.77915	7.17123	-7.57769	10.78574	19.19946	0.56542	1.76861	221.26408	180.63866	85.3741	0.29585	 	8.84751E31	 	1.83783E-32	 	6004.617	25.461	 
55.0	1.0	0.0	7.78042	7.17006	-7.59278	10.76778	19.14045	0.55865	1.79004	221.536	180.68812	85.49188	0.29566	 	3.04904E32	 	5.25287E-33	 	5877.876	25.3482	 
50.0	1.0	0.0	7.78168	7.16889	-7.60781	10.74982	19.08144	0.55184	1.81213	221.80634	180.73619	85.60908	0.29546	 	1.09177E33	 	1.44464E-33	 	5751.704	25.2344	 
45.0	1.0	0.0	7.78294	7.16773	-7.6228	10.73186	19.02243	0.54498	1.83492	222.07528	180.78304	85.72578	0.29527	 	4.06925E33	 	3.81596E-34	 	5626.109	25.119	 
40.0	1.0	0.0	7.7842	7.16657	-7.63773	10.71389	18.96342	0.53809	1.85843	222.34303	180.82882	85.84206	0.29507	 	1.5817700000000001E34	 	9.66265E-35	 	5501.099	25.002	 
35.0	1.0	0.0	7.78546	7.16541	-7.65262	10.69592	18.90441	0.53115	1.88271	222.60981	180.87373	85.958	0.29488	 	6.42548E34	 	2.34069E-35	 	5376.684	24.883	 
30.0	1.0	0.0	7.78671	7.16426	-7.66745	10.67794	18.8454	0.52417	1.90779	222.87584	180.91795	86.07368	0.29468	 	2.7336899999999998E35	 	5.41246E-36	 	5252.873	24.7622	 
25.0	1.0	0.0	7.78796	7.16311	-7.68224	 	18.78639	0.51714	1.93371	223.14138	180.96168	86.18921	0.29449	 	1.2209099999999999E36	 	1.19189E-36	 	5129.677	 	 
