T (C)	Fraction solid (wt)-TOTAL	Fraction liquid (wt)-LIQUID	Density (g/(cm)^3)-TOTAL	Molar volume (cm^3)-TOTAL	Volume change (%)-  	Average expansion coeff. (10e-6 1/K)-  	Thermal conductivity (W/(m*K))-TOTAL	Electrical resistivity (10e-6 Ohm*m)-TOTAL	Electrical conductivity (10e6 1/(Ohm*m))-TOTAL	Young's modulus (GPa)-TOTAL	Bulk modulus (GPa)-TOTAL	Shear modulus(GPa)-TOTAL	Poisson's ratio-TOTAL	Liquid viscosity (mPa s)-  	Total viscosity (mPa s)-  	Liquid diffusivity (10e-9 (m^2)/s)-  	Total diffusivity (10e-9 (m^2)/s)-  	Surface Tension (mN/m)-  	Enthalpy (J/mole)-TOTAL	Specific heat (J/(mole K))-TOTAL	Latent heat (J/mole)-TOTAL
1500.0	0.0	1.0	7.03518	7.90304	0.0	26.96145	30.54565	1.89153	0.52867	0.0	108.28008	0.0	0.49974	6.91288	6.91288	1.25191	1.25191	1767.20559	64677.339	 	0.0
1495.0	0.0	1.0	7.03907	7.89867	-0.0552962	26.91281	30.47119	1.89081	0.52887	0.0	108.46658	0.0	0.49974	6.97436	6.97436	1.23738	1.23738	1768.99594	64457.425	43.9828	0.0
1490.0	0.0	1.0	7.04296	7.89431	-0.11044	26.86422	30.39673	1.89008	0.52908	0.0	108.65309	0.0	0.49974	7.03674	7.03674	1.22294	1.22294	1770.78349	64237.985	43.888	0.0
1485.0	0.0	1.0	7.04684	7.88996	-0.16543	26.8157	30.32227	1.88935	0.52928	0.0	108.83959	0.0	0.49974	7.10004	7.10004	1.2086	1.2086	1772.56822	64019.015	43.794	0.0
1480.0	0.0	1.0	7.05071	7.88563	-0.22026	26.76724	30.24781	1.88861	0.52949	0.0	109.02609	0.0	0.49974	7.16427	7.16427	1.19436	1.19436	1774.3501	63800.513	43.7004	0.0
1475.0	0.0	1.0	7.05458	7.88131	-0.27495	26.71883	30.17336	1.88787	0.5297	0.0	109.2126	0.0	0.49974	7.22946	7.22946	1.18021	1.18021	1776.1291	63582.476	43.6074	0.0
1470.0	0.0	1.0	7.05844	7.877	-0.32948	26.67049	30.0989	1.88713	0.52991	0.0	109.3991	0.0	0.49974	7.29562	7.29562	1.16616	1.16616	1777.90518	63364.9	43.5152	0.0
1465.0	0.0	1.0	7.06229	7.8727	-0.38385	26.62221	30.02444	1.88638	0.53011	0.0	109.58561	0.0	0.49974	7.36277	7.36277	1.15221	1.15221	1779.67831	63147.783	43.4234	0.0
1460.0	0.0	1.0	7.06613	7.86842	-0.43807	26.57399	29.94998	1.88563	0.53033	0.0	109.77211	0.0	0.49974	7.43093	7.43093	1.13836	1.13836	1781.44847	62931.123	43.332	0.0
1455.0	0.0	1.0	7.06997	7.86414	-0.49214	26.52584	29.87552	1.88488	0.53054	0.0	109.95862	0.0	0.49974	7.50012	7.50012	1.1246	1.1246	1783.2156	62714.916	43.2414	0.0
1450.0	0.0	1.0	7.07381	7.85988	-0.54606	26.47775	29.80106	1.88412	0.53075	0.0	110.14512	0.0	0.49974	7.57037	7.57037	1.11095	1.11095	1784.9797	62499.194	43.1444	0.0
1445.0	0.0	1.0	7.07763	7.85563	-0.59982	26.42972	29.7266	1.88336	0.53097	0.0	110.33162	0.0	0.49974	7.64169	7.64169	1.09738	1.09738	1786.74071	62284.012	43.0364	0.0
1440.0	0.0	1.0	7.08145	7.8514	-0.65343	26.38176	29.65214	1.8826	0.53118	0.0	110.51813	0.0	0.49974	7.7141	7.7141	1.08392	1.08392	1788.4986	62069.36	42.9304	0.0
1435.0	0.0	1.0	7.08526	7.84717	-0.70688	26.33386	29.57768	1.88183	0.5314	0.0	110.70463	0.0	0.49974	7.78762	7.78762	1.07055	1.07055	1790.25334	61855.236	42.8248	0.0
1430.0	0.0	1.0	7.08907	7.84296	-0.76018	26.28603	29.50322	1.88105	0.53162	0.0	110.89114	0.0	0.49974	7.86229	7.86229	1.05728	1.05728	1792.0049	61641.635	42.7202	0.0
1425.0	0.0	1.0	7.09287	7.83876	-0.81333	26.23827	29.42876	1.88028	0.53184	0.0	111.07764	0.0	0.49974	7.93812	7.93812	1.04411	1.04411	1793.75323	61428.555	42.616	0.0
1420.0	0.0	1.0	7.09666	7.83457	-0.86633	26.19058	29.3543	1.8795	0.53206	0.0	111.26414	0.0	0.49974	8.01513	8.01513	1.03103	1.03103	1795.4983	61215.992	42.5126	0.0
1415.0	0.0	1.0	7.10044	7.83039	-0.91917	26.14295	29.27984	1.87871	0.53228	0.0	111.45065	0.0	0.49974	8.09336	8.09336	1.01805	1.01805	1797.24008	61003.942	42.41	0.0
1410.53	0.0	1.0	7.10382	7.82667	-0.96627	26.10044	29.21328	1.87801	0.53248	0.0	111.61737	0.0	0.49974	8.16432	8.16432	1.00653	1.00653	1798.79424	60814.816	42.3144	0.0060
1410.0	0.0127	0.9873	7.10627	7.82393	-1.00097	26.01696	29.27533	1.87344	0.53378	1.69432E-6	111.24567	5.65577E-7	0.49787	8.16888	8.30703	1.00565	0.98893	1798.73963	60684.458	245.745	107.941
1405.0	0.12391	0.87609	7.12773	7.80037	-1.29903	25.30539	29.82656	1.83335	0.54545	0.0156161	108.03007	0.00527057	0.48144	8.21376	10.78422	0.99718	0.7595	1798.24152	59530.393	230.813	1050.972
1400.0	0.21693	0.78307	7.14623	7.78018	-1.55455	24.70406	30.2936	1.79971	0.55565	0.14901	105.40482	0.0507659	0.4676	8.25923	22.06838	0.98874	0.37004	1797.7963	58533.938	199.291	1836.895
1397.46	0.25796	0.74204	7.15459	7.77109	-1.6696	24.43705	30.50104	1.78475	0.5603	0.30014	104.27368	0.10268	0.46146	8.28254	34.35981	0.98446	0.23731	1797.59014	58081.496	 	2182.525
1395.0	0.32516	0.67484	7.16611	7.75854	-1.8284	24.04843	30.70732	1.77015	0.56492	0.57584	103.23076	0.19832	0.45183	8.30994	84.93419	0.97977	0.0958604	1796.52105	57287.532	249.281	2873.269
1390.0	0.43863	0.56137	7.18599	7.73718	-2.09863	23.39788	31.05445	1.74512	0.57303	1.62632	101.64252	0.56648	0.43545	8.36571	314.51358	0.97032	0.0258094	1794.50488	55914.459	274.615	4036.805
1385.0	0.52543	0.47457	7.20186	7.72015	-2.31411	22.89277	31.31437	1.72543	0.57957	3.46928	100.57305	1.21917	0.4228	8.42145	718.97103	0.961	0.0112564	1792.65522	54819.41	219.01	4922.81
1380.0	0.5933	0.4067	7.21481	7.70631	-2.48927	22.49492	31.50938	1.70958	0.58494	6.1322	99.8542	2.1702	0.41282	8.47798	1276.99822	0.95171	0.00631842	1790.95171	53922.012	179.48	5611.656
1375.0	0.64735	0.35265	7.22569	7.69476	-2.63543	22.17431	31.6526	1.6967	0.58938	9.49504	99.38379	3.37951	0.4048	8.53459	1958.41017	0.94254	0.00410752	1789.37947	53168.693	150.664	6156.908
1370.0	0.69109	0.30891	7.23497	7.68495	-2.75955	21.91242	31.75838	1.68592	0.59315	13.3607	99.09368	4.77768	0.39824	8.5921	2737.05663	0.93339	0.00293008	1787.92297	52522.771	129.184	6595.247
1365.0	0.72699	0.27301	7.24308	7.67639	-2.86782	21.69274	31.83482	1.67675	0.59639	17.51612	98.93733	6.28805	0.39281	8.64979	3593.22381	0.92435	0.00222513	1786.57336	51958.496	112.855	6952.421
1360.0	0.75681	0.24319	7.25025	7.66888	-2.96292	21.5082	31.8882	1.66884	0.59922	21.77353	98.88325	7.84207	0.38825	8.70844	4513.80902	0.91532	0.00176591	1785.31625	51457.386	100.222	7246.907
1355.0	0.78184	0.21816	7.25668	7.66215	-3.04807	21.35017	31.92317	1.6619	0.60172	25.99183	98.90747	9.38752	0.38438	8.76769	5490.76541	0.90635	0.00144727	1784.14376	51005.91	90.2952	7492.235
1350.0	0.80307	0.19693	7.26253	7.65602	-3.12554	21.21261	31.94324	1.65576	0.60395	30.0747	98.99275	10.88825	0.38106	8.82757	6520.5058	0.89744	0.00121497	1783.04914	50593.981	82.3858	7698.49
1345.0	0.82123	0.17877	7.26791	7.65041	-3.19663	21.09202	31.95116	1.65025	0.60597	33.96307	99.12686	12.32164	0.37819	8.88808	7602.03719	0.88858	0.0010389	1782.02441	50213.824	76.0314	7873.441
1340.0	0.83697	0.16303	7.27292	7.64521	-3.2624	20.98562	31.94956	1.64523	0.60782	37.65	99.29943	13.68431	0.37566	8.94965	8741.34557	0.87974	9.00706E-4	1781.05909	49858.754	71.014	8023.771
1335.0	0.85073	0.14927	7.27764	7.64032	-3.3242	20.8897	31.93989	1.64063	0.60952	41.12327	99.50313	14.97103	0.37343	9.01191	9941.59751	0.87096	7.89509E-4	1780.15077	49524.38	66.8748	8153.87
1330.0	0.86283	0.13717	7.28211	7.63571	-3.38258	20.80281	31.93016	1.63603	0.61124	44.38451	99.73231	16.18178	0.37143	9.07519	11207.28238	0.86219	6.98169E-4	1779.29298	49207.25	63.426	8267.186
1325.03	0.87336	0.12664	7.28631	7.63138	-3.43741	20.72502	31.90822	1.63208	0.61272	47.39151	99.98161	17.30031	0.36967	9.13875	12527.99597	0.85354	6.2263E-4	1778.48639	48907.498	 	8364.719
1325.0	0.87344	0.12656	7.28635	7.63134	-3.43788	20.72411	31.90815	1.63205	0.61273	47.41268	99.98279	17.3082	0.36966	9.13915	12536.53285	0.85349	6.22195E-4	1778.48841	48905.644	60.3212	8365.436
1320.0	0.8856	0.1144	7.29169	7.62584	-3.50751	20.60354	31.89487	1.62762	0.61439	51.06744	100.21492	18.66994	0.36764	9.21596	14113.50508	0.84373	5.50945E-4	1778.73246	48582.597	64.6094	8485.583
1315.0	0.89613	0.10387	7.29665	7.62074	-3.57201	20.49683	31.87436	1.62356	0.61593	54.40401	100.47159	19.9157	0.36586	9.29297	15762.64285	0.83411	4.91755E-4	1778.98735	48277.659	60.9876	8588.074
1310.0	0.90533	0.0946709	7.30129	7.616	-3.63198	20.40247	31.84796	1.61979	0.61736	57.46008	100.74834	21.05885	0.36427	9.37105	17493.95973	0.82456	4.41693E-4	1779.2463	47987.581	58.0156	8676.155
1305.0	0.91341	0.0865944	7.30565	7.61155	-3.68829	20.31802	31.81657	1.61627	0.61871	60.26556	101.04133	22.11002	0.36286	9.45031	19316.39201	0.81506	3.98758E-4	1779.51023	47709.836	55.549	8752.349
1300.0	0.92055	0.0794482	7.3098	7.60732	-3.74177	20.2412	31.78101	1.61295	0.61998	62.85458	101.34765	23.08156	0.36158	9.52982	21241.58752	0.8057	3.61468E-4	1779.78125	47442.431	53.481	8818.65
1295.0	0.92691	0.0730907	7.31377	7.6033	-3.79268	20.17132	31.74199	1.6098	0.6212	65.25119	101.66496	23.98215	0.36041	9.61053	23279.69784	0.79639	3.28774E-4	1780.0558	47183.78	51.7302	8876.641
1290.0	0.9326	0.0674047	7.31757	7.59945	-3.84141	20.10732	31.6999	1.6068	0.62236	67.47822	101.99166	24.82006	0.35935	9.69249	25443.10983	0.78714	2.99859E-4	1780.33222	46932.603	50.2354	8927.597
1285.0	0.9377	0.0622952	7.32125	7.59573	-3.88851	20.04767	31.65524	1.60392	0.62347	69.55607	102.32595	25.60277	0.35837	9.77488	27743.4744	0.77801	2.74116E-4	1780.61591	46687.86	48.9486	8972.557
1280.0	0.94232	0.0576834	7.32482	7.59213	-3.93398	19.99236	31.60828	1.60114	0.62455	71.50104	102.66708	26.33622	0.35747	9.85855	30194.74504	0.76893	2.51055E-4	1780.90086	46448.699	47.8322	9012.37
1275.0	0.9465	0.0535048	7.32828	7.58865	-3.97805	19.94077	31.55938	1.59846	0.6256	73.32863	103.01384	27.02609	0.35663	9.94362	32810.81252	0.7599	2.30294E-4	1781.18668	46214.41	46.8578	9047.744
1270.0	0.95029	0.0497051	7.33166	7.58526	-4.02098	19.89222	31.5088	1.59586	0.62662	75.05115	103.36542	27.6769	0.35584	10.02961	35606.40009	0.75095	2.11527E-4	1781.47533	45984.405	46.001	9079.264
1265.0	0.95376	0.0462383	7.33496	7.58194	-4.06297	19.84609	31.45665	1.59332	0.62762	76.68015	103.72105	28.29293	0.35511	10.11663	38598.67426	0.74208	1.94497E-4	1781.76822	45758.187	45.2436	9107.424
1260.0	0.95693	0.0430653	7.3382	7.5787	-4.10399	19.80249	31.40319	1.59085	0.6286	78.22518	104.08037	28.87768	0.35442	10.2052	41804.65326	0.73325	1.78997E-4	1782.06117	45535.337	44.57	9132.642
1255.0	0.95985	0.0401533	7.34139	7.57551	-4.14427	19.76081	31.34853	1.58842	0.62955	79.69509	104.44269	29.43443	0.35377	10.29475	45243.93854	0.7245	1.64851E-4	1782.35721	45315.496	43.9682	9155.274
1250.0	0.96253	0.0374725	7.34452	7.57239	-4.18384	19.72094	31.2928	1.58605	0.6305	81.09692	104.8077	29.96579	0.35316	10.38597	48936.8099	0.71578	1.51913E-4	1782.65539	45098.359	43.4274	9175.623
1245.0	0.965	0.0349992	7.34761	7.5693	-4.22284	19.68252	31.23612	1.58371	0.63143	82.43799	105.17502	30.47447	0.35257	10.47834	52905.87064	0.70715	1.40055E-4	1782.95795	44883.66	42.9398	9193.952
1240.0	0.96729	0.0327107	7.35066	7.56627	-4.26127	19.6455	31.17858	1.58141	0.63235	83.72359	105.54432	30.96244	0.35202	10.5725	57175.98574	0.69854	1.29168E-4	1783.262	44671.166	42.4988	9210.501
1235.0	0.96941	0.0305886	7.35368	7.56327	-4.29921	19.60969	31.12023	1.57914	0.63326	84.95877	105.91541	31.43157	0.35149	10.66792	61773.56937	0.69	1.19159E-4	1783.5693	44460.676	42.098	9225.472
1230.75	0.97139	0.0286061	7.35635	7.56065	-4.33234	19.57635	31.07058	1.5772	0.63404	86.09078	106.23141	31.86173	0.35101	10.75059	66054.11416	0.68277	1.11123E-4	1783.82698	44280.671	 	9239.492
1230.0	0.97236	0.0276406	7.35696	7.55999	-4.3407	19.56259	31.06379	1.57676	0.63421	86.55149	106.29188	32.03718	0.3508	10.79136	67014.77492	0.67985	1.09476E-4	1783.59778	44237.615	44.6122	9253.436
1225.0	0.97789	0.022111	7.36088	7.55577	-4.39406	19.47819	31.01565	1.57395	0.63534	89.28831	106.69527	33.08022	0.34957	11.06815	73532.46012	0.66064	9.94404E-5	1782.15902	43963.721	54.7788	9332.655
1222.46	0.98012	0.0198785	7.36275	7.55376	-4.41954	19.44004	30.98976	1.5726	0.63589	90.45743	106.89822	33.52619	0.34906	11.21064	76895.68319	0.65114	9.49302E-5	1781.43857	43833.727	 	9364.09
1220.0	0.9826	0.0173963	7.36474	7.55167	-4.44601	19.39751	30.96666	1.57118	0.63646	91.73391	107.09477	34.01356	0.34849	11.34494	80413.18538	0.64237	9.06281E-5	1779.66931	43702.191	52.306	9399.928
1215.0	0.98657	0.0134301	7.36858	7.54766	-4.49676	19.3199	30.91593	1.56849	0.63756	93.90439	107.49203	34.84289	0.34754	11.62082	87683.3521	0.62502	8.28355E-5	1776.4022	43451.918	50.0546	9456.358
1210.0	0.98951	0.01049	7.37221	7.54387	-4.54461	19.25075	30.86169	1.56597	0.63858	95.66565	107.8872	35.51643	0.34678	11.9012	95241.2536	0.60825	7.60058E-5	1773.42132	43217.721	46.8394	9497.13
1205.0	0.99177	0.0082317	7.37568	7.54025	-4.59044	19.18742	30.80512	1.56356	0.63957	97.15156	108.28078	36.08505	0.34615	12.18694	103204.9322	0.59198	6.99044E-5	1770.68125	42994.325	44.6792	9527.513
1200.0	0.99355	0.006449	7.37905	7.53675	-4.63476	19.12831	30.74701	1.56121	0.64053	98.4439	108.67309	36.57986	0.3456	12.47732	111666.2533	0.57625	6.4389E-5	1768.15162	42778.543	43.1564	9550.692
1195.0	0.99499	0.00500699	7.38233	7.53334	-4.67795	19.07234	30.68772	1.55892	0.64147	99.59545	109.0644	37.02099	0.34512	12.77218	120709.5817	0.56104	5.93629E-5	1765.81393	42568.343	42.04	9568.697
1190.0	0.99618	0.00382056	7.38555	7.53	-4.72019	19.01892	30.62751	1.55666	0.6424	100.64114	109.4548	37.42174	0.34469	13.07198	130412.2847	0.5463	5.47592E-5	1763.63456	42362.369	41.1948	9582.882
1185.0	0.99717	0.00282845	7.38872	7.52672	-4.76165	18.96753	30.56674	1.55443	0.64332	101.60617	109.84441	37.79172	0.34429	13.37525	140852.4161	0.53209	5.05271E-5	1761.61756	42159.688	40.5362	9594.178
1182.09	0.99768	0.00232299	7.39054	7.52484	-4.78548	18.93844	30.53109	1.55314	0.64386	102.13774	110.07095	37.99558	0.34407	13.55449	147304.0491	0.52401	4.82177E-5	1760.48828	42042.923	 	9599.681
1182.09	0.99768	0.00232299	7.39054	7.52484	-4.78548	18.93844	30.53109	1.55314	0.64386	102.13774	110.07095	37.99558	0.34407	13.55449	147304.0274	0.52401	4.82177E-5	1760.48828	42042.923	 	9599.681
1180.0	0.99803	0.00197144	7.39187	7.52348	-4.80267	18.91713	30.5048	1.55224	0.64423	102.51524	110.23472	38.14035	0.34392	13.67421	152126.1569	0.51867	4.66223E-5	1759.44477	41959.314	40.0748	9603.569
1175.0	0.99878	0.00121837	7.39501	7.52026	-4.84342	18.86717	30.44177	1.55011	0.64512	103.38252	110.62598	38.47304	0.34357	13.96432	164322.0111	0.50615	4.30135E-5	1757.08214	41760.616	39.7396	9611.683
1170.0	0.99943	5.67177E-4	7.39812	7.51708	-4.88361	18.81862	30.37854	1.54797	0.64601	104.20618	111.01626	38.78912	0.34324	14.25825	177512.0331	0.49401	3.96799E-5	1754.85521	41563.848	39.3536	9618.263
1165.0	1.0	0.0	7.40119	7.51395	-4.92331	18.77124	30.31512	1.54583	0.6469	104.99454	111.40562	39.09175	0.34292	 	191795.1152	 	3.65977E-5	 	41368.696	39.0304	9623.624
1160.0	1.0	0.0	7.40357	7.51154	-4.95379	18.75371	30.24947	1.5438	0.64775	105.48853	111.78927	39.28145	0.34273	 	206835.5064	 	3.38184E-5	 	41172.592	39.2208	 
1155.0	1.0	0.0	7.40594	7.50913	-4.98423	18.7362	30.18381	1.54176	0.64861	105.983	112.17245	39.47138	0.34253	 	223177.8025	 	3.12327E-5	 	40987.009	37.1166	 
1150.0	1.0	0.0	7.40831	7.50673	-5.01462	18.71869	30.11815	1.53971	0.64947	106.47793	112.55516	39.66154	0.34233	 	240944.9268	 	2.88283E-5	 	40801.695	37.0628	 
1145.0	1.0	0.0	7.41068	7.50433	-5.04495	18.7012	30.05249	1.53766	0.65034	106.97329	112.93737	39.85192	0.34213	 	260272.3495	 	2.65938E-5	 	40616.633	37.0124	 
1140.0	1.0	0.0	7.41304	7.50194	-5.07524	18.6837	29.98682	1.53559	0.65122	107.46908	113.31908	40.04251	0.34194	 	281309.4625	 	2.45183E-5	 	40431.825	36.9616	 
1135.0	1.0	0.0	7.4154	7.49955	-5.10548	18.66622	29.92115	1.53352	0.6521	107.96527	113.70026	40.23331	0.34174	 	304221.1154	 	2.25916E-5	 	40247.273	36.9104	 
1130.0	1.0	0.0	7.41776	7.49716	-5.13567	18.64875	29.85548	1.53143	0.65298	108.46185	114.0809	40.42431	0.34154	 	329189.3318	 	2.08039E-5	 	40062.977	36.8592	 
1125.0	1.0	0.0	7.42012	7.49478	-5.16581	18.63128	29.7898	1.52934	0.65388	108.95881	114.46099	40.6155	0.34135	 	356415.2292	 	1.91463E-5	 	39878.938	36.8078	 
1120.0	1.0	0.0	7.42248	7.4924	-5.19591	18.61382	29.72412	1.52724	0.65478	109.45613	114.84052	40.80689	0.34115	 	386121.1678	 	1.76101E-5	 	39695.153	36.757	 
1115.0	1.0	0.0	7.42483	7.49003	-5.22595	18.59636	29.65843	1.52513	0.65568	109.95379	115.21946	40.99846	0.34095	 	418553.1577	 	1.61872E-5	 	39511.622	36.7062	 
1110.0	1.0	0.0	7.42718	7.48766	-5.25595	18.57892	29.59274	1.52301	0.6566	110.45177	115.5978	41.19021	0.34075	 	453983.5565	 	1.48702E-5	 	39328.343	36.6558	 
1105.0	1.0	0.0	7.42953	7.48529	-5.28589	18.56148	29.52705	1.52088	0.65752	110.95007	115.97553	41.38213	0.34056	 	492714.0954	 	1.36517E-5	 	39145.314	36.6058	 
1100.0	1.0	0.0	7.43187	7.48293	-5.31579	18.54405	29.46135	1.51874	0.65844	111.44866	116.35264	41.57422	0.34036	 	535079.2764	 	1.25253E-5	 	38962.535	36.5558	 
1095.0	1.0	0.0	7.43422	7.48057	-5.34563	18.52663	29.39565	1.51659	0.65937	111.94753	116.72911	41.76646	0.34016	 	581450.1877	 	1.14844E-5	 	38780.003	36.5064	 
1090.0	1.0	0.0	7.43656	7.47821	-5.37543	18.50921	29.32994	1.51443	0.66031	112.44666	117.10492	41.95887	0.33996	 	632238.7936	 	1.05232E-5	 	38597.718	36.457	 
1085.0	1.0	0.0	7.4389	7.47586	-5.40518	18.49181	29.26423	1.51227	0.66126	112.94605	117.48007	42.15142	0.33977	 	687902.7597	 	9.63624E-6	 	38415.677	36.4082	 
1080.0	1.0	0.0	7.44123	7.47352	-5.43488	18.47441	29.19852	1.51009	0.66221	113.44566	117.85454	42.34411	0.33957	 	748950.8865	 	8.81819E-6	 	38233.88	36.3594	 
1075.0	1.0	0.0	7.44357	7.47117	-5.46454	18.45702	29.1328	1.5079	0.66317	113.9455	118.22831	42.53695	0.33937	 	815949.2306	 	8.06421E-6	 	38052.325	36.311	 
1070.0	1.0	0.0	7.4459	7.46883	-5.49414	18.43963	29.06708	1.50571	0.66414	114.44553	118.60138	42.72992	0.33917	 	889528.0074	 	7.36973E-6	 	37871.01	36.263	 
1065.0	1.0	0.0	7.44823	7.4665	-5.5237	18.42226	29.00135	1.5035	0.66511	114.94575	118.97373	42.92301	0.33898	 	970389.3803	 	6.73047E-6	 	37689.934	36.2152	 
1060.0	1.0	0.0	7.45055	7.46417	-5.5532	18.40489	28.93562	1.50129	0.66609	115.44615	119.34534	43.11622	0.33878	 	1059316.258	 	6.14243E-6	 	37509.095	36.1678	 
1055.0	1.0	0.0	7.45288	7.46184	-5.58266	18.38752	28.86988	1.49906	0.66708	115.9467	119.7162	43.30955	0.33858	 	1157182.236	 	5.60186E-6	 	37328.491	36.1208	 
1050.0	1.0	0.0	7.4552	7.45951	-5.61207	18.37017	28.80414	1.49683	0.66808	116.44739	120.08631	43.50299	0.33838	 	1264962.847	 	5.10526E-6	 	37148.121	36.074	 
1045.0	1.0	0.0	7.45752	7.45719	-5.64143	18.35283	28.7384	1.49458	0.66908	116.94821	120.45564	43.69653	0.33819	 	1383748.289	 	4.64937E-6	 	36967.983	36.0276	 
1040.0	1.0	0.0	7.45984	7.45488	-5.67074	18.33549	28.67265	1.49233	0.67009	117.44914	120.82419	43.89017	0.33799	 	1514757.857	 	4.23114E-6	 	36788.075	35.9816	 
1035.0	1.0	0.0	7.46215	7.45256	-5.7	18.31816	28.6069	1.49006	0.67111	117.95016	121.19195	44.08391	0.33779	 	1659356.3	 	3.84773E-6	 	36608.396	35.9358	 
1030.0	1.0	0.0	7.46447	7.45025	-5.72922	18.30083	28.54114	1.48779	0.67214	118.45127	121.55889	44.27773	0.33759	 	1819072.387	 	3.49648E-6	 	36428.943	35.8906	 
1025.0	1.0	0.0	7.46678	7.44795	-5.75838	18.28352	28.47538	1.4855	0.67317	118.95244	121.92501	44.47164	0.3374	 	1995620.001	 	3.17493E-6	 	36249.716	35.8454	 
1020.0	1.0	0.0	7.46908	7.44565	-5.7875	18.26621	28.40961	1.48321	0.67422	119.45367	122.29029	44.66562	0.3372	 	2190922.11	 	2.88077E-6	 	36070.711	35.801	 
1015.0	1.0	0.0	7.47139	7.44335	-5.81657	18.24891	28.34384	1.4809	0.67527	119.95493	122.65474	44.85967	0.337	 	2407138.057	 	2.61187E-6	 	35891.927	35.7568	 
1010.0	1.0	0.0	7.47369	7.44106	-5.84559	18.23162	28.27807	1.47858	0.67632	120.45621	123.01832	45.05379	0.3368	 	2646694.625	 	2.36625E-6	 	35713.363	35.7128	 
1005.0	1.0	0.0	7.47599	7.43877	-5.87457	18.21433	28.21229	1.47625	0.67739	120.9575	123.38103	45.24796	0.33661	 	2912321.455	 	2.14205E-6	 	35535.015	35.6696	 
1000.0	1.0	0.0	7.47829	7.43648	-5.90349	18.19705	28.1465	1.47392	0.67846	121.45879	123.74286	45.4422	0.33641	 	3207091.456	 	1.93756E-6	 	35356.882	35.6266	 
995.0	1.0	0.0	7.48059	7.4342	-5.93237	18.17978	28.08071	1.47157	0.67955	121.96005	124.1038	45.63648	0.33621	 	3534466.947	 	1.75119E-6	 	35178.962	35.584	 
990.0	1.0	0.0	7.48288	7.43192	-5.96119	18.16252	28.01492	1.46921	0.68064	122.46128	124.46383	45.8308	0.33601	 	3898352.395	 	1.58147E-6	 	35001.253	35.5418	 
985.0	1.0	0.0	7.48517	7.42965	-5.98997	18.14527	27.94912	1.46684	0.68174	122.96245	124.82295	46.02517	0.33582	 	4303154.754	 	1.42703E-6	 	34823.752	35.5002	 
980.0	1.0	0.0	7.48746	7.42738	-6.0187	18.12802	27.88332	1.46446	0.68285	123.46356	125.18114	46.21957	0.33562	 	4753852.561	 	1.2866E-6	 	34646.457	35.459	 
975.0	1.0	0.0	7.48974	7.42511	-6.04739	18.11078	27.81751	1.46206	0.68396	123.9646	125.53839	46.41399	0.33542	 	5256075.13	 	1.15902E-6	 	34469.366	35.4182	 
970.0	1.0	0.0	7.49203	7.42285	-6.07602	18.09355	27.75169	1.45966	0.68509	124.46554	125.89469	46.60844	0.33523	 	5816193.415	 	1.04321E-6	 	34292.477	35.3778	 
965.0	1.0	0.0	7.49431	7.42059	-6.10461	18.07633	27.68588	1.45725	0.68623	124.96636	126.25003	46.8029	0.33503	 	6441424.362	 	9.38162E-7	 	34115.786	35.3382	 
960.0	1.0	0.0	7.49659	7.41833	-6.13315	18.05911	27.62005	1.45482	0.68737	125.46707	126.60439	46.99738	0.33483	 	7139950.862	 	8.42961E-7	 	33939.292	35.2988	 
955.0	1.0	0.0	7.49886	7.41608	-6.16164	18.0419	27.55423	1.45238	0.68852	125.96764	126.95778	47.19186	0.33463	 	7921059.785	 	7.56754E-7	 	33762.992	35.26	 
950.0	1.0	0.0	7.50114	7.41383	-6.19008	18.0247	27.48839	1.44993	0.68969	126.46806	127.31016	47.38634	0.33444	 	8795300.975	 	6.78759E-7	 	33586.884	35.2216	 
945.0	1.0	0.0	7.50341	7.41159	-6.21848	18.00751	27.42256	1.44747	0.69086	126.96831	127.66154	47.58082	0.33424	 	9774670.571	 	6.08255E-7	 	33410.964	35.184	 
940.0	1.0	0.0	7.50568	7.40935	-6.24682	17.99032	27.35671	1.445	0.69204	127.46838	128.01191	47.77528	0.33404	 	1.087282261E7	 	5.44577E-7	 	33235.23	35.1468	 
935.0	1.0	0.0	7.50794	7.40711	-6.27512	17.97314	27.29087	1.44252	0.69323	127.96825	128.36125	47.96974	0.33384	 	1.210531349E7	 	4.87115E-7	 	33059.678	35.1104	 
930.0	1.0	0.0	7.51021	7.40488	-6.30337	17.95597	27.22501	1.44002	0.69443	128.46792	128.70955	48.16417	0.33365	 	1.348988477E7	 	4.3531E-7	 	32884.307	35.0742	 
925.0	1.0	0.0	7.51247	7.40265	-6.33158	17.93881	27.15915	1.43752	0.69564	128.96736	129.0568	48.35857	0.33345	 	1.504679056E7	 	3.88646E-7	 	32709.113	35.0388	 
920.0	1.0	0.0	7.51473	7.40042	-6.35973	17.92165	27.09329	1.435	0.69687	129.46656	129.403	48.55294	0.33325	 	1.679917703E7	 	3.46652E-7	 	32534.093	35.004	 
915.0	1.0	0.0	7.51698	7.3982	-6.38784	17.90451	27.02742	1.43247	0.6981	129.96552	129.74812	48.74728	0.33305	 	1.877352282E7	 	3.08896E-7	 	32359.244	34.9698	 
910.0	1.0	0.0	7.51924	7.39599	-6.4159	17.88737	26.96155	1.42992	0.69934	130.46421	130.09217	48.94157	0.33286	 	2.100015054E7	 	2.74982E-7	 	32184.562	34.9364	 
905.0	1.0	0.0	7.52149	7.39377	-6.44391	17.87023	26.89567	1.42737	0.70059	130.96262	130.43513	49.13582	0.33266	 	2.351382172E7	 	2.44548E-7	 	32010.044	34.9036	 
900.0	1.0	0.0	7.52374	7.39156	-6.47188	17.85311	26.82979	1.4248	0.70185	131.46073	130.77699	49.33001	0.33246	 	2.635442947E7	 	2.17263E-7	 	31835.687	34.8714	 
895.0	1.0	0.0	7.52598	7.38936	-6.49979	17.83599	26.7639	1.42222	0.70313	131.95854	131.11774	49.52415	0.33226	 	2.956780581E7	 	1.92826E-7	 	31661.487	34.84	 
890.0	1.0	0.0	7.52823	7.38715	-6.52766	17.81888	26.698	1.41963	0.70441	132.45603	131.45737	49.71822	0.33207	 	3.320666381E7	 	1.70961E-7	 	31487.44	34.8094	 
885.0	1.0	0.0	7.53047	7.38495	-6.55548	17.80178	26.6321	1.41702	0.7057	132.95318	131.79588	49.91223	0.33187	 	3.733169828E7	 	1.51417E-7	 	31313.543	34.7794	 
880.0	1.0	0.0	7.53271	7.38276	-6.58326	17.78468	26.5662	1.41441	0.70701	133.44999	132.13324	50.10616	0.33167	 	4.201287329E7	 	1.33965E-7	 	31139.791	34.7504	 
875.0	1.0	0.0	7.53494	7.38057	-6.61098	17.7676	26.50029	1.41178	0.70833	133.94643	132.46946	50.30001	0.33148	 	4.733092995E7	 	1.18397E-7	 	30966.18	34.7222	 
870.0	1.0	0.0	7.53718	7.37838	-6.63866	17.75052	26.43437	1.40913	0.70966	134.4425	132.80452	50.49378	0.33128	 	5.337915432E7	 	1.04525E-7	 	30792.707	34.6946	 
865.0	1.0	0.0	7.53941	7.3762	-6.66629	17.73345	26.36845	1.40648	0.711	134.93818	133.13841	50.68747	0.33108	 	6.026545296E7	 	9.2176E-8	 	30619.366	34.6682	 
860.0	1.0	0.0	7.54164	7.37402	-6.69388	17.71638	26.30252	1.40381	0.71235	135.43345	133.47113	50.88105	0.33088	 	6.811479244E7	 	8.11956E-8	 	30446.154	34.6424	 
855.0	1.0	0.0	7.54386	7.37184	-6.72141	17.69933	26.23659	1.40113	0.71371	135.92831	133.80267	51.07454	0.33069	 	7.707207064E7	 	7.14425E-8	 	30273.065	34.6178	 
850.0	1.0	0.0	7.54609	7.36967	-6.7489	17.68228	26.17065	1.39843	0.71509	136.42274	134.13301	51.26792	0.33049	 	8.730550013E7	 	6.27889E-8	 	30100.095	34.594	 
845.0	1.0	0.0	7.54831	7.3675	-6.77634	17.66524	26.1047	1.39572	0.71647	136.91672	134.46215	51.4612	0.33029	 	9.90106005E7	 	5.51195E-8	 	29927.238	34.5714	 
840.0	1.0	0.0	7.55053	7.36533	-6.80374	17.64821	26.03875	1.393	0.71787	137.41025	134.79007	51.65436	0.33009	 	1.124149152E8	 	4.833E-8	 	29754.49	34.5496	 
835.0	1.0	0.0	7.55274	7.36317	-6.83109	17.63118	25.9728	1.39026	0.71929	137.90331	135.11678	51.8474	0.3299	 	1.277835916E8	 	4.23263E-8	 	29581.845	34.529	 
830.0	1.0	0.0	7.55496	7.36102	-6.85839	17.61416	25.90684	1.38752	0.72071	138.39588	135.44225	52.04031	0.3297	 	1.454259921E8	 	3.70237E-8	 	29409.297	34.5096	 
825.0	1.0	0.0	7.55717	7.35886	-6.88564	17.59715	25.84087	1.38475	0.72215	138.88796	135.76649	52.2331	0.3295	 	1.65703535E8	 	3.23457E-8	 	29236.841	34.4912	 
820.0	1.0	0.0	7.55938	7.35671	-6.91284	17.58015	25.7749	1.38198	0.7236	139.37953	136.08948	52.42575	0.3293	 	1.890390107E8	 	2.82238E-8	 	29064.469	34.4744	 
815.0	1.0	0.0	7.56158	7.35457	-6.94	17.56315	25.70892	1.37919	0.72507	139.87057	136.41121	52.61826	0.32911	 	2.159276616E8	 	2.45962E-8	 	28892.177	34.4584	 
810.0	1.0	0.0	7.56379	7.35242	-6.96711	17.54617	25.64294	1.37638	0.72654	140.36108	136.73168	52.81063	0.32891	 	2.469503821E8	 	2.14075E-8	 	28719.956	34.4442	 
805.0	1.0	0.0	7.56599	7.35028	-6.99418	17.52919	25.57695	1.37356	0.72803	140.85104	137.05088	53.00285	0.32871	 	2.827894651E8	 	1.86081E-8	 	28547.801	34.431	 
800.0	1.0	0.0	7.56819	7.34815	-7.02119	17.51221	25.51095	1.37073	0.72954	141.34043	137.3688	53.19491	0.32851	 	3.242474128E8	 	1.61536E-8	 	28375.704	34.4194	 
795.0	1.0	0.0	7.57038	7.34602	-7.04816	17.49525	25.44495	1.36788	0.73106	141.82925	137.68543	53.38681	0.32832	 	3.722694434E8	 	1.40043E-8	 	28203.656	34.4096	 
790.0	1.0	0.0	7.57258	7.34389	-7.07508	17.47829	25.37894	1.36502	0.73259	142.31748	138.00076	53.57855	0.32812	 	4.279704578E8	 	1.21246E-8	 	28031.651	34.401	 
785.0	1.0	0.0	7.57477	7.34177	-7.10196	17.46134	25.31293	1.36214	0.73414	142.80511	138.31479	53.77012	0.32792	 	4.926674E8	 	1.04829E-8	 	27859.68	34.3942	 
780.0	1.0	0.0	7.57696	7.33965	-7.12879	17.4444	25.24691	1.35925	0.7357	143.29213	138.6275	53.96151	0.32773	 	5.679181494E8	 	9.05089E-9	 	27687.733	34.3894	 
775.0	1.0	0.0	7.57914	7.33753	-7.15557	17.42747	25.18089	1.35634	0.73728	143.77852	138.93889	54.15273	0.32753	 	6.555683349E8	 	7.80355E-9	 	27515.803	34.386	 
770.0	1.0	0.0	7.58132	7.33542	-7.1823	17.41054	25.11486	1.35342	0.73887	144.26426	139.24896	54.34376	0.32733	 	7.578077749E8	 	6.71853E-9	 	27343.878	34.385	 
765.0	1.0	0.0	7.5835	7.33331	-7.20899	17.39362	25.04882	1.35049	0.74047	144.74936	139.55768	54.5346	0.32713	 	8.772386279E8	 	5.77603E-9	 	27171.949	34.3858	 
760.0	1.0	0.0	7.58568	7.3312	-7.23563	17.37671	24.98278	1.34754	0.7421	145.23379	139.86507	54.72525	0.32694	 	1.016957819E9	 	4.95846E-9	 	27000.005	34.3888	 
755.0	1.0	0.0	7.58786	7.3291	-7.26223	17.35981	24.91673	1.34457	0.74373	145.71754	140.1711	54.9157	0.32674	 	1.180656896E9	 	4.2503E-9	 	26828.034	34.3942	 
750.0	1.0	0.0	7.59003	7.327	-7.28877	17.34291	24.85068	1.34159	0.74539	146.20059	140.47577	55.10594	0.32654	 	1.372743195E9	 	3.63778E-9	 	26656.025	34.4018	 
745.0	1.0	0.0	7.5922	7.32491	-7.31528	17.32602	24.78462	1.33859	0.74706	146.68295	140.77907	55.29598	0.32634	 	1.598487126E9	 	3.10878E-9	 	26483.964	34.4122	 
740.0	1.0	0.0	7.59437	7.32282	-7.34173	17.30914	24.71856	1.33558	0.74874	147.16459	141.081	55.4858	0.32615	 	1.864201489E9	 	2.65257E-9	 	26311.837	34.4254	 
735.0	1.0	0.0	7.59653	7.32073	-7.36814	17.29227	24.65249	1.33255	0.75044	147.64549	141.38154	55.6754	0.32595	 	2.177460194E9	 	2.25976E-9	 	26139.632	34.441	 
730.0	1.0	0.0	7.5987	7.31865	-7.3945	17.2754	24.58641	1.3295	0.75216	148.12566	141.6807	55.86478	0.32575	 	2.547365484E9	 	1.92204E-9	 	25967.331	34.4602	 
725.0	1.0	0.0	7.60086	7.31657	-7.42081	17.25855	24.52032	1.32644	0.7539	148.60507	141.97846	56.05393	0.32555	 	2.984875021E9	 	1.63214E-9	 	25794.919	34.4824	 
720.0	1.0	0.0	7.60301	7.31449	-7.44708	17.24169	24.45423	1.32336	0.75565	149.08372	142.27481	56.24285	0.32536	 	3.503202943E9	 	1.38368E-9	 	25622.378	34.5082	 
715.0	1.0	0.0	7.60517	7.31242	-7.4733	17.22485	24.38814	1.32027	0.75742	149.56158	142.56976	56.43153	0.32516	 	4.118312546E9	 	1.17109E-9	 	25449.689	34.5378	 
710.0	1.0	0.0	7.60732	7.31035	-7.49947	17.20802	24.32204	1.31716	0.75921	150.03866	142.86328	56.61997	0.32496	 	4.849522628E9	 	9.89481E-10	 	25276.832	34.5714	 
705.0	1.0	0.0	7.60947	7.30829	-7.5256	17.19119	24.25593	1.31403	0.76102	150.51493	143.15539	56.80816	0.32477	 	5.720255127E9	 	8.34597E-10	 	25103.786	34.6092	 
700.0	1.0	0.0	7.61162	7.30622	-7.55168	17.17437	24.18981	1.31089	0.76284	150.99038	143.44606	56.9961	0.32457	 	6.758958743E9	 	7.02727E-10	 	24930.527	34.6518	 
695.0	1.0	0.0	7.61376	7.30417	-7.57772	17.15756	24.12369	1.30773	0.76469	151.465	143.73529	57.18378	0.32437	 	8.000252169E9	 	5.90644E-10	 	24757.03	34.6994	 
690.0	1.0	0.0	7.6159	7.30211	-7.6037	17.14075	24.05756	1.30455	0.76655	151.93879	144.02307	57.3712	0.32417	 	9.486341946E9	 	4.95544E-10	 	24583.269	34.7522	 
685.0	1.0	0.0	7.61804	7.30006	-7.62965	17.12396	23.99142	1.30135	0.76843	152.41172	144.3094	57.55835	0.32398	 	1.12688E10	 	4.14995E-10	 	24409.213	34.8112	 
680.0	1.0	0.0	7.62018	7.29802	-7.65554	17.10717	23.92528	1.29814	0.77033	152.88378	144.59428	57.74523	0.32378	 	1.3410699999999998E10	 	3.46894E-10	 	24234.832	34.8762	 
675.0	1.0	0.0	7.62231	7.29597	-7.68139	17.09039	23.85913	1.29491	0.77225	153.35497	144.87769	57.93184	0.32358	 	1.5989399999999998E10	 	2.89422E-10	 	24060.09	34.9484	 
670.0	1.0	0.0	7.62444	7.29393	-7.70719	17.07361	23.79297	1.29166	0.77419	153.82527	145.15962	58.11816	0.32338	 	1.91001E10	 	2.41009E-10	 	23884.95	35.028	 
665.0	1.0	0.0	7.62657	7.2919	-7.73295	17.05685	23.7268	1.2884	0.77616	154.29466	145.44008	58.3042	0.32319	 	2.28597E10	 	2.00303E-10	 	23709.372	35.1156	 
660.0	1.0	0.0	7.62869	7.28987	-7.75866	17.04009	23.66063	1.28512	0.77814	154.76314	145.71905	58.48995	0.32299	 	2.7412799999999996E10	 	1.66144E-10	 	23533.309	35.2126	 
655.0	1.0	0.0	7.63082	7.28784	-7.78433	17.02334	23.59445	1.28182	0.78014	155.2307	145.99653	58.67541	0.32279	 	3.2937999999999996E10	 	1.37533E-10	 	23356.713	35.3192	 
650.0	1.0	0.0	7.63294	7.28581	-7.80994	17.00659	23.52825	1.2785	0.78217	155.69731	146.27251	58.86056	0.32259	 	3.96565E10	 	1.13617E-10	 	23179.529	35.4368	 
645.0	1.0	0.0	7.63506	7.28379	-7.83552	16.98986	23.46206	1.27516	0.78421	156.16298	146.54699	59.04542	0.3224	 	4.784329999999999E10	 	9.36654E-11	 	23001.699	35.566	 
640.0	1.0	0.0	7.63717	7.28178	-7.86104	16.97313	23.39585	1.27181	0.78628	156.62768	146.81996	59.22996	0.3222	 	5.784029999999999E10	 	7.70545E-11	 	22823.155	35.7088	 
635.0	1.0	0.0	7.63928	7.27976	-7.88652	16.95641	23.32963	1.26843	0.78837	157.09141	147.09141	59.41419	0.322	 	7.00742E10	 	6.32537E-11	 	22643.825	35.866	 
630.0	1.0	0.0	7.64139	7.27775	-7.91195	16.9397	23.2634	1.26504	0.79049	157.55416	147.36134	59.5981	0.32181	 	8.50783E10	 	5.18117E-11	 	22463.628	36.0394	 
625.0	1.0	0.0	7.6435	7.27575	-7.93734	16.92299	23.19717	1.26163	0.79263	158.01591	147.62975	59.78169	0.32161	 	1.03521E11	 	4.23456E-11	 	22282.474	36.2308	 
620.0	1.0	0.0	7.64561	7.27374	-7.96268	16.90629	23.13092	1.2582	0.79479	158.47664	147.89661	59.96495	0.32141	 	1.26241E11	 	3.45311E-11	 	22100.263	36.4422	 
615.0	1.0	0.0	7.64771	7.27174	-7.98798	16.8896	23.06467	1.25475	0.79697	158.93636	148.16194	60.14788	0.32121	 	1.54296E11	 	2.80943E-11	 	21916.882	36.6762	 
610.0	1.0	0.0	7.64981	7.26975	-8.01323	16.87292	22.9984	1.25128	0.79918	159.39504	148.42572	60.33048	0.32102	 	1.89019E11	 	2.28043E-11	 	21732.206	36.9352	 
605.0	1.0	0.0	7.6519	7.26776	-8.03843	16.85625	22.93213	1.24779	0.80142	159.85268	148.68795	60.51273	0.32082	 	2.32097E11	 	1.84666E-11	 	21545.303	37.3806	 
600.0	1.0	0.0	7.654	7.26577	-8.06359	16.83958	22.86585	1.24428	0.80368	160.30927	148.94863	60.69464	0.32062	 	2.8567E11	 	1.4918E-11	 	21345.346	39.9914	 
595.0	1.0	0.0	7.65609	7.26378	-8.0887	16.82292	22.79955	1.24076	0.80596	160.76478	149.20774	60.8762	0.32042	 	3.52459E11	 	1.20219E-11	 	21147.135	39.6422	 
590.0	1.0	0.0	7.65818	7.2618	-8.11377	16.80627	22.73324	1.23721	0.80827	161.21922	149.46528	61.0574	0.32023	 	4.35933E11	 	9.66392E-12	 	20950.604	39.3062	 
585.0	1.0	0.0	7.66026	7.25983	-8.13879	16.78962	22.66693	1.23364	0.81061	161.67256	149.72124	61.23825	0.32003	 	5.40526E11	 	7.74879E-12	 	20755.691	38.9826	 
580.0	1.0	0.0	7.66235	7.25785	-8.16377	16.77299	22.6006	1.23005	0.81297	162.12481	149.97563	61.41873	0.31983	 	6.71919E11	 	6.19719E-12	 	20562.337	38.6708	 
575.0	1.0	0.0	7.66443	7.25588	-8.18869	16.75636	22.53426	1.22644	0.81537	162.57594	150.22843	61.59884	0.31963	 	8.37417E11	 	4.94331E-12	 	20370.486	38.3702	 
570.0	1.0	0.0	7.6665	7.25391	-8.21358	16.73974	22.46791	1.22281	0.81779	163.02594	150.47965	61.77858	0.31944	 	1.04643E12	 	3.93262E-12	 	20180.086	38.08	 
565.0	1.0	0.0	7.66858	7.25195	-8.23842	16.72312	22.40155	1.21916	0.82024	163.47481	150.72926	61.95794	0.31924	 	1.31112E12	 	3.12008E-12	 	19991.087	37.7998	 
560.0	1.0	0.0	7.67065	7.24999	-8.26321	16.70652	22.33518	1.21549	0.82271	163.92253	150.97728	62.13692	0.31904	 	1.64725E12	 	2.4686E-12	 	19803.442	37.529	 
555.0	1.0	0.0	7.67272	7.24804	-8.28795	16.68992	22.2688	1.2118	0.82522	164.36909	151.22369	62.31552	0.31885	 	2.07531E12	 	1.94766E-12	 	19617.106	37.2672	 
550.0	1.0	0.0	7.67479	7.24608	-8.31266	16.67333	22.2024	1.20808	0.82776	164.81448	151.46849	62.49373	0.31865	 	2.622E12	 	1.53226E-12	 	19432.037	37.0138	 
545.0	1.0	0.0	7.67685	7.24414	-8.33731	16.65674	22.136	1.20435	0.83033	165.25869	151.71168	62.67154	0.31845	 	3.32226E12	 	1.20195E-12	 	19248.195	36.7684	 
540.0	1.0	0.0	7.67892	7.24219	-8.36192	16.64017	22.06958	1.20059	0.83292	165.70171	151.95324	62.84895	0.31825	 	4.2219E12	 	9.40046E-13	 	19065.543	36.5304	 
535.0	1.0	0.0	7.68097	7.24025	-8.38649	16.6236	22.00315	1.19681	0.83556	166.14352	152.19318	63.02596	0.31806	 	5.3812E12	 	7.32992E-13	 	18884.043	36.3	 
530.0	1.0	0.0	7.68303	7.23831	-8.411	16.60704	21.93671	1.19301	0.83822	166.58412	152.43148	63.20256	0.31786	 	6.87972E12	 	5.69787E-13	 	18703.663	36.076	 
525.0	1.0	0.0	7.68508	7.23638	-8.43548	16.59049	21.87026	1.18918	0.84091	167.02349	152.66816	63.37874	0.31766	 	8.82283E12	 	4.41533E-13	 	18524.37	35.8586	 
520.0	1.0	0.0	7.68713	7.23445	-8.45991	16.57394	21.8038	1.18533	0.84364	167.46163	152.90319	63.55452	0.31746	 	1.13505E13	 	3.41057E-13	 	18346.133	35.6474	 
515.0	1.0	0.0	7.68918	7.23252	-8.48429	16.5574	21.73733	1.18146	0.84641	167.89852	153.13658	63.72987	0.31727	 	1.46494E13	 	2.62589E-13	 	18168.924	35.4418	 
510.0	1.0	0.0	7.69123	7.2306	-8.50863	16.54087	21.67084	1.17757	0.84921	168.33415	153.36831	63.90479	0.31707	 	1.89691E13	 	2.01505E-13	 	17992.714	35.242	 
505.0	1.0	0.0	7.69327	7.22868	-8.53292	16.52435	21.60435	1.17365	0.85204	168.76851	153.5984	64.07929	0.31687	 	2.46447E13	 	1.54108E-13	 	17817.477	35.0474	 
500.0	1.0	0.0	7.69531	7.22676	-8.55717	16.50784	21.53784	1.16971	0.85491	169.20159	153.82683	64.25335	0.31668	 	3.21277E13	 	1.17455E-13	 	17643.189	34.8576	 
495.0	1.0	0.0	7.69735	7.22485	-8.58137	16.49133	21.47132	1.16575	0.85782	169.63338	154.05359	64.42697	0.31648	 	4.20284E13	 	8.92051E-14	 	17469.825	34.6728	 
490.0	1.0	0.0	7.69938	7.22294	-8.60552	16.47483	21.40479	1.16176	0.86076	170.06387	154.27869	64.60015	0.31628	 	5.51751E13	 	6.75078E-14	 	17297.364	34.4922	 
485.0	1.0	0.0	7.70141	7.22103	-8.62964	16.45834	21.33825	1.15775	0.86375	170.49305	154.50212	64.77289	0.31608	 	7.26958E13	 	5.09017E-14	 	17125.783	34.3162	 
480.0	1.0	0.0	7.70344	7.21913	-8.6537	16.44186	21.2717	1.15371	0.86677	170.9209	154.72387	64.94517	0.31589	 	9.61332E13	 	3.8238E-14	 	16955.063	34.144	 
475.0	1.0	0.0	7.70547	7.21723	-8.67772	16.42538	21.20514	1.14965	0.86983	171.34742	154.94394	65.117	0.31569	 	1.2760499999999998E14	 	2.86159E-14	 	16785.183	33.976	 
470.0	1.0	0.0	7.70749	7.21534	-8.7017	16.40891	21.13857	1.14556	0.87293	171.77261	155.16234	65.28837	0.31549	 	1.70029E14	 	2.13324E-14	 	16616.126	33.8114	 
465.0	1.0	0.0	7.70951	7.21345	-8.72563	16.39245	21.07198	1.14145	0.87608	172.19643	155.37904	65.45928	0.31529	 	2.27445E14	 	1.584E-14	 	16447.873	33.6506	 
460.0	1.0	0.0	7.71153	7.21156	-8.74952	16.376	21.00539	1.13731	0.87927	172.6189	155.59405	65.62972	0.3151	 	3.05463E14	 	1.17144E-14	 	16280.407	33.4932	 
455.0	1.0	0.0	7.71355	7.20967	-8.77336	16.35955	20.93878	1.13315	0.8825	173.03999	155.80737	65.79969	0.3149	 	4.11915E14	 	8.62779E-15	 	16113.713	33.3388	 
450.0	1.0	0.0	7.71556	7.20779	-8.79715	16.34311	20.87217	1.12896	0.88577	173.45969	156.01899	65.96919	0.3147	 	5.5777599999999994E14	 	6.32784E-15	 	15947.775	33.1876	 
445.0	1.0	0.0	7.71757	7.20592	-8.82091	16.32668	20.80554	1.12474	0.88909	173.87801	156.22892	66.1382	0.31451	 	7.58492E14	 	4.62116E-15	 	15782.578	33.0394	 
440.0	1.0	0.0	7.71958	7.20404	-8.84461	16.31026	20.7389	1.1205	0.89246	174.29492	156.43713	66.30673	0.31431	 	1.03591E15	 	3.36006E-15	 	15618.109	32.8938	 
435.0	1.0	0.0	7.72158	7.20217	-8.86827	16.29384	20.67225	1.11623	0.89587	174.71041	156.64364	66.47478	0.31411	 	1.42105E15	 	2.43222E-15	 	15454.353	32.7512	 
430.0	1.0	0.0	7.72358	7.20031	-8.89189	16.27744	20.60559	1.11194	0.89933	175.12449	156.84843	66.64233	0.31391	 	1.95819E15	 	1.75258E-15	 	15291.298	32.611	 
425.0	1.0	0.0	7.72558	7.19844	-8.91546	16.26104	20.53892	1.10762	0.90284	175.53713	157.05152	66.80939	0.31372	 	2.71084E15	 	1.25699E-15	 	15128.931	32.4734	 
420.0	1.0	0.0	7.72758	7.19659	-8.93899	16.24464	20.47223	1.10326	0.9064	175.94832	157.25288	66.97595	0.31352	 	3.77047E15	 	8.97261E-16	 	14967.241	32.338	 
415.0	1.0	0.0	7.72957	7.19473	-8.96247	16.22826	20.40554	1.09889	0.91001	176.35807	157.45252	67.14201	0.31332	 	5.26956E15	 	6.37375E-16	 	14806.216	32.205	 
410.0	1.0	0.0	7.73156	7.19288	-8.98591	16.21188	20.33883	1.09448	0.91368	176.76636	157.65044	67.30756	0.31312	 	7.40097E15	 	4.5052E-16	 	14645.845	32.0742	 
405.0	1.0	0.0	7.73355	7.19103	-9.0093	16.19551	20.27211	1.09005	0.91739	177.17317	157.84663	67.4726	0.31293	 	1.04468E16	 	3.16832E-16	 	14486.118	31.9454	 
400.0	1.0	0.0	7.73553	7.18918	-9.03265	16.17915	20.20538	1.08558	0.92117	177.57851	158.0411	67.63712	0.31273	 	1.4822E16	 	2.21662E-16	 	14327.024	31.8188	 
395.0	1.0	0.0	7.73752	7.18734	-9.05596	16.16279	20.13864	1.08109	0.92499	177.98236	158.23383	67.80113	0.31253	 	2.11403E16	 	1.54259E-16	 	14168.555	31.6938	 
390.0	1.0	0.0	7.7395	7.1855	-9.07921	16.14645	20.07189	1.07657	0.92888	178.38471	158.42483	67.96462	0.31234	 	3.03141E16	 	1.06771E-16	 	14010.7	31.571	 
385.0	1.0	0.0	7.74147	7.18367	-9.10243	16.13011	20.00512	1.07202	0.93282	178.78555	158.61409	68.12758	0.31214	 	4.37082E16	 	7.34935E-17	 	13853.451	31.4498	 
380.0	1.0	0.0	7.74345	7.18184	-9.1256	16.11378	19.93834	1.06744	0.93682	179.18488	158.80161	68.29002	0.31194	 	6.33751E16	 	5.03015E-17	 	13696.799	31.3304	 
375.0	1.0	0.0	7.74542	7.18001	-9.14872	16.09745	19.87155	1.06282	0.94089	179.58269	158.98739	68.45192	0.31174	 	9.24206E16	 	3.42289E-17	 	13540.736	31.2126	 
370.0	1.0	0.0	7.74739	7.17819	-9.17181	16.08114	19.80475	1.05818	0.94502	179.97897	159.17143	68.61329	0.31155	 	1.35572E17	 	2.31541E-17	 	13385.254	31.0964	 
365.0	1.0	0.0	7.74935	7.17636	-9.19484	16.06483	19.73793	1.05351	0.94921	180.3737	159.35373	68.77412	0.31135	 	2.00072E17	 	1.55676E-17	 	13230.345	30.9818	 
360.0	1.0	0.0	7.75131	7.17455	-9.21784	16.04853	19.6711	1.04881	0.95346	180.76689	159.53428	68.9344	0.31115	 	2.97081E17	 	1.0402E-17	 	13076.002	30.8686	 
355.0	1.0	0.0	7.75327	7.17273	-9.24078	16.03223	19.60425	1.04407	0.95779	181.15852	159.71308	69.09415	0.31095	 	4.43918E17	 	6.90634E-18	 	12922.217	30.757	 
350.0	1.0	0.0	7.75523	7.17092	-9.26369	16.01595	19.5374	1.03931	0.96218	181.54859	159.89013	69.25334	0.31076	 	6.67625E17	 	4.55561E-18	 	12768.984	30.6466	 
345.0	1.0	0.0	7.75718	7.16912	-9.28655	15.99967	19.47053	1.03451	0.96664	181.93709	160.06543	69.41198	0.31056	 	1.01073E18	 	2.98502E-18	 	12616.295	30.5378	 
340.0	1.0	0.0	7.75914	7.16731	-9.30936	15.9834	19.40364	1.02968	0.97118	182.324	160.23898	69.57007	0.31036	 	1.54055E18	 	1.94257E-18	 	12464.146	30.4298	 
335.0	1.0	0.0	7.76108	7.16551	-9.33213	15.96714	19.33675	1.02481	0.97579	182.70934	160.41078	69.7276	0.31017	 	2.36447E18	 	1.25535E-18	 	12312.528	30.3236	 
330.0	1.0	0.0	7.76303	7.16372	-9.35486	15.95088	19.26983	1.01992	0.98047	183.09308	160.58083	69.88457	0.30997	 	3.65492E18	 	8.05441E-19	 	12161.437	30.2182	 
325.0	1.0	0.0	7.76497	7.16193	-9.37754	15.93464	19.20291	1.01499	0.98523	183.47522	160.74912	70.04097	0.30977	 	5.69101E18	 	5.12989E-19	 	12010.866	30.1142	 
320.0	1.0	0.0	7.76691	7.16014	-9.40018	15.9184	19.13597	1.01002	0.99008	183.85575	160.91566	70.19681	0.30957	 	8.92783E18	 	3.24269E-19	 	11860.811	30.011	 
315.0	1.0	0.0	7.76885	7.15835	-9.42277	15.90216	19.06901	1.00503	0.995	184.23467	161.08045	70.35208	0.30938	 	1.41134E19	 	2.03397E-19	 	11711.264	29.9094	 
310.0	1.0	0.0	7.77079	7.15657	-9.44532	15.88594	19.00204	0.99999	1.00001	184.61198	161.24348	70.50678	0.30918	 	2.24869E19	 	1.26572E-19	 	11562.223	29.8082	 
305.0	1.0	0.0	7.77272	7.15479	-9.46783	15.86972	18.93505	0.99493	1.0051	184.98766	161.40476	70.66091	0.30898	 	3.61186E19	 	7.81262E-20	 	11413.68	29.7086	 
300.0	1.0	0.0	7.77465	7.15302	-9.49029	15.85351	18.86805	0.98983	1.01028	185.3617	161.56429	70.81446	0.30878	 	5.84959E19	 	4.78222E-20	 	11265.631	29.6098	 
295.0	1.0	0.0	7.77657	7.15124	-9.51271	15.83731	18.80103	0.98469	1.01555	185.73412	161.72206	70.96743	0.30859	 	9.55452E19	 	2.90229E-20	 	11118.073	29.5116	 
290.0	1.0	0.0	7.7785	7.14948	-9.53508	15.82112	18.734	0.97952	1.02091	186.10489	161.87809	71.11982	0.30839	 	1.57427E20	 	1.74595E-20	 	10970.999	29.4148	 
285.0	1.0	0.0	7.78042	7.14771	-9.55741	15.80493	18.66695	0.97431	1.02637	186.47402	162.03236	71.27162	0.30819	 	2.6171999999999997E20	 	1.04088E-20	 	10824.407	29.3184	 
280.0	1.0	0.0	7.78233	7.14595	-9.5797	15.78875	18.59989	0.96906	1.03193	186.8415	162.18489	71.42284	0.308	 	4.3912599999999993E20	 	6.1481E-21	 	10678.29	29.2234	 
275.0	1.0	0.0	7.78425	7.14419	-9.60194	15.77258	18.53281	0.96378	1.03759	187.20732	162.33566	71.57348	0.3078	 	7.437779999999999E20	 	3.59702E-21	 	10532.647	29.1286	 
270.0	1.0	0.0	7.78616	7.14244	-9.62414	15.75642	18.46571	0.95845	1.04335	187.57148	162.4847	71.72352	0.3076	 	1.27208E21	 	2.08398E-21	 	10387.472	29.035	 
265.0	1.0	0.0	7.78807	7.14069	-9.6463	15.74026	18.39859	0.9531	1.04921	187.93399	162.63199	71.87298	0.3074	 	2.19744E21	 	1.19529E-21	 	10242.762	28.942	 
260.0	1.0	0.0	7.78998	7.13894	-9.66841	15.72411	18.33146	0.9477	1.05519	188.29483	162.77755	72.02184	0.30721	 	3.83509E21	 	6.78516E-22	 	10098.513	28.8498	 
255.0	1.0	0.0	7.79188	7.13719	-9.69047	15.70797	18.26431	0.94226	1.06128	188.654	162.92136	72.17012	0.30701	 	6.76419E21	 	3.81091E-22	 	9954.722	28.7582	 
250.0	1.0	0.0	7.79378	7.13545	-9.7125	15.69184	18.19715	0.93679	1.06748	189.01151	163.06345	72.31779	0.30681	 	1.20606E22	 	2.11711E-22	 	9811.386	28.6672	 
245.0	1.0	0.0	7.79568	7.13372	-9.73448	15.67571	18.12996	0.93127	1.0738	189.36734	163.20381	72.46488	0.30661	 	2.17455E22	 	1.16298E-22	 	9668.5	28.5772	 
240.0	1.0	0.0	7.79757	7.13198	-9.75641	15.65959	18.06276	0.92572	1.08024	189.7215	163.34244	72.61137	0.30642	 	3.96609E22	 	6.31493E-23	 	9526.064	28.4872	 
235.0	1.0	0.0	7.79947	7.13025	-9.77831	15.64348	17.99554	0.92012	1.08681	190.07399	163.47935	72.75726	0.30622	 	7.319689999999999E22	 	3.38833E-23	 	9384.072	28.3984	 
230.0	1.0	0.0	7.80136	7.12853	-9.80016	15.62738	17.9283	0.91448	1.09351	190.42481	163.61455	72.90255	0.30602	 	1.36746E23	 	1.79585E-23	 	9242.524	28.3096	 
225.0	1.0	0.0	7.80324	7.1268	-9.82196	15.61129	17.86105	0.90881	1.10035	190.77395	163.74803	73.04725	0.30583	 	2.58693E23	 	9.39858E-24	 	9101.416	28.2216	 
220.0	1.0	0.0	7.80513	7.12508	-9.84372	15.5952	17.79377	0.90309	1.10732	191.12142	163.87981	73.19135	0.30563	 	4.9576E23	 	4.85506E-24	 	8960.745	28.1342	 
215.0	1.0	0.0	7.80701	7.12337	-9.86544	15.57912	17.72648	0.89732	1.11443	191.46722	164.0099	73.33486	0.30543	 	9.628229999999999E23	 	2.47454E-24	 	8820.51	28.047	 
210.0	1.0	0.0	7.80888	7.12165	-9.88712	15.56305	17.65916	0.89152	1.12168	191.81135	164.13829	73.47777	0.30523	 	1.89579E24	 	1.24388E-24	 	8680.708	27.9604	 
205.0	1.0	0.0	7.81076	7.11994	-9.90875	15.54698	17.59183	0.88567	1.12909	192.15382	164.26501	73.62008	0.30504	 	3.78606E24	 	6.16402E-25	 	8541.337	27.8742	 
200.0	1.0	0.0	7.81263	7.11824	-9.93033	15.53093	17.52448	0.87977	1.13665	192.49462	164.39004	73.7618	0.30484	 	7.67246E24	 	3.00989E-25	 	8402.397	27.788	 
195.0	1.0	0.0	7.8145	7.11654	-9.95188	15.51488	17.4571	0.87384	1.14438	192.83377	164.51341	73.90293	0.30464	 	1.57847E25	 	1.44756E-25	 	8263.883	27.7028	 
190.0	1.0	0.0	7.81637	7.11484	-9.97338	15.49883	17.38971	0.86785	1.15227	193.17126	164.63513	74.04346	0.30445	 	3.2984E25	 	6.85339E-26	 	8125.797	27.6172	 
185.0	1.0	0.0	7.81823	7.11314	-9.99484	15.4828	17.3223	0.86183	1.16033	193.50711	164.7552	74.18341	0.30425	 	7.004170000000001E25	 	3.19255E-26	 	7988.135	27.5324	 
180.0	1.0	0.0	7.82009	7.11145	-10.01625	15.46677	17.25486	0.85575	1.16856	193.84131	164.87363	74.32277	0.30405	 	1.51227E26	 	1.46251E-26	 	7850.897	27.4476	 
175.0	1.0	0.0	7.82195	7.10976	-10.03762	15.45076	17.18741	0.84963	1.17698	194.17388	164.99043	74.46155	0.30385	 	3.3217000000000006E26	 	6.58491E-27	 	7714.082	27.363	 
170.0	1.0	0.0	7.8238	7.10807	-10.05895	15.43474	17.11993	0.84346	1.18559	194.50483	165.10563	74.59974	0.30366	 	7.426840000000001E26	 	2.91228E-27	 	7577.689	27.2786	 
165.0	1.0	0.0	7.82565	7.10639	-10.08024	15.41874	17.05243	0.83725	1.19439	194.83416	165.21922	74.73736	0.30346	 	1.69131E27	 	1.2644E-27	 	7441.717	27.1944	 
160.0	1.0	0.0	7.8275	7.10471	-10.10148	15.40275	16.98491	0.83098	1.20339	195.16189	165.33123	74.87441	0.30326	 	3.92551E27	 	5.38553E-28	 	7306.166	27.1102	 
155.0	1.0	0.0	7.82935	7.10304	-10.12268	15.38676	16.91737	0.82467	1.2126	195.48803	165.44167	75.01088	0.30306	 	9.292019999999999E27	 	2.24891E-28	 	7171.036	27.026	 
150.0	1.0	0.0	7.83119	7.10137	-10.14383	15.37078	16.84981	0.81831	1.22203	195.81259	165.55055	75.14679	0.30287	 	2.24475E28	 	9.20054E-29	 	7036.327	26.9418	 
145.0	1.0	0.0	7.83303	7.0997	-10.16495	15.3548	16.78222	0.8119	1.23168	196.13559	165.6579	75.28214	0.30267	 	5.53843E28	 	3.68496E-29	 	6902.038	26.8578	 
140.0	1.0	0.0	7.83487	7.09803	-10.18601	15.33884	16.71461	0.80543	1.24157	196.45703	165.76373	75.41694	0.30247	 	1.39669E29	 	1.44376E-29	 	6768.171	26.7734	 
135.0	1.0	0.0	7.83671	7.09637	-10.20704	15.32288	16.64698	0.79892	1.25169	196.77695	165.86805	75.55119	0.30228	 	3.6029200000000005E29	 	5.52907E-30	 	6634.726	26.689	 
130.0	1.0	0.0	7.83854	7.09471	-10.22802	15.30693	16.57932	0.79235	1.26207	197.09536	165.9709	75.68491	0.30208	 	9.51521E29	 	2.06793E-30	 	6501.703	26.6046	 
125.0	1.0	0.0	7.84037	7.09306	-10.24896	15.29099	16.51164	0.78573	1.2727	197.41228	166.0723	75.81809	0.30188	 	2.57499E30	 	7.5467E-31	 	6369.104	26.5198	 
120.0	1.0	0.0	7.84219	7.09141	-10.26986	15.27505	16.44393	0.77906	1.2836	197.72773	166.17225	75.95074	0.30168	 	7.14712E30	 	2.68481E-31	 	6236.93	26.4348	 
115.0	1.0	0.0	7.84402	7.08976	-10.29072	15.25913	16.3762	0.77233	1.29478	198.04174	166.27081	76.08289	0.30149	 	2.0366199999999997E31	 	9.30202E-32	 	6105.184	26.3492	 
110.0	1.0	0.0	7.84584	7.08811	-10.31153	15.24321	16.30845	0.76555	1.30625	198.35434	166.36797	76.21453	0.30129	 	5.96426E31	 	3.13544E-32	 	5973.866	26.2636	 
105.0	1.0	0.0	7.84765	7.08647	-10.3323	15.2273	16.24066	0.75871	1.31802	198.66555	166.46379	76.34568	0.30109	 	1.7969799999999998E32	 	1.02709E-32	 	5842.979	26.1774	 
100.0	1.0	0.0	7.84947	7.08483	-10.35302	15.21139	16.17286	0.75182	1.3301	198.9754	166.55828	76.47634	0.3009	 	5.57659E32	 	3.26589E-33	 	5712.526	26.0906	 
95.0	1.0	0.0	7.85128	7.0832	-10.37371	15.19549	16.10503	0.74487	1.34251	199.28394	166.65148	76.60654	0.3007	 	1.78465E33	 	1.00684E-33	 	5582.51	26.0032	 
90.0	1.0	0.0	7.85309	7.08157	-10.39435	15.1796	16.03717	0.73786	1.35526	199.59118	166.74343	76.73628	0.3005	 	5.89723E33	 	3.00556E-34	 	5452.934	25.9152	 
85.0	1.0	0.0	7.85489	7.07994	-10.41494	15.16372	15.96928	0.7308	1.36837	199.89719	166.83415	76.86559	0.3003	 	2.0148200000000002E34	 	8.6759E-35	 	5323.802	25.8264	 
80.0	1.0	0.0	7.8567	7.07832	-10.4355	15.14785	15.90137	0.72367	1.38184	200.20199	166.9237	76.99447	0.30011	 	7.127480000000001E34	 	2.4183E-35	 	5195.118	25.7368	 
75.0	1.0	0.0	7.8585	7.07669	-10.45601	15.13198	15.83343	0.71649	1.3957	200.50564	167.01211	77.12295	0.29991	 	2.6145399999999997E35	 	6.49917E-36	 	5066.886	25.6464	 
70.0	1.0	0.0	7.86029	7.07508	-10.47648	15.11613	15.76546	0.70924	1.40995	200.80818	167.09942	77.25104	0.29971	 	9.961009999999999E35	 	1.68138E-36	 	4939.111	25.555	 
65.0	1.0	0.0	7.86209	7.07346	-10.49691	15.10027	15.69746	0.70194	1.42463	201.10967	167.18569	77.37876	0.29951	 	3.9481299999999996E36	 	4.18027E-37	 	4811.8	25.4622	 
60.0	1.0	0.0	7.86388	7.07185	-10.51729	15.08443	15.62943	0.69457	1.43975	201.41016	167.27096	77.50614	0.29932	 	1.6309199999999999E37	 	9.96999E-38	 	4684.957	25.3686	 
55.0	1.0	0.0	7.86567	7.07024	-10.53764	15.06859	15.56138	0.68714	1.45532	201.70972	167.3553	77.6332	0.29912	 	7.034689999999999E37	 	2.27674E-38	 	4558.591	25.2732	 
50.0	1.0	0.0	7.86745	7.06864	-10.55794	15.05277	15.49329	0.67964	1.47137	202.00842	167.43875	77.75996	0.29892	 	3.1747E38	 	4.96807E-39	 	4432.707	25.1768	 
45.0	1.0	0.0	7.86923	7.06704	-10.57819	15.03695	15.42517	0.67208	1.48792	202.30632	167.52138	77.88646	0.29873	 	1.50221E39	 	1.03368E-39	 	4307.314	25.0786	 
40.0	1.0	0.0	7.87101	7.06544	-10.59841	15.02113	15.35703	0.66445	1.505	202.60351	167.60326	78.01272	0.29853	 	7.46994E39	 	2.04608E-40	 	4182.421	24.9786	 
35.0	1.0	0.0	7.87279	7.06385	-10.61858	15.00533	15.28885	0.65676	1.52263	202.90006	167.68445	78.13877	0.29833	 	3.91298E40	 	3.84363E-41	 	4058.037	24.8768	 
30.0	1.0	0.0	7.87456	7.06226	-10.63871	14.98954	15.22064	0.649	1.54084	203.19608	167.76505	78.26466	0.29813	 	2.16482E41	 	6.83475E-42	 	3934.172	24.773	 
25.0	1.0	0.0	7.87633	7.06067	-10.6588	 	15.1524	0.64117	1.55966	203.49165	167.84512	78.39041	0.29794	 	1.2683899999999999E42	 	1.14728E-42	 	3810.837	 	 
