T (C)	Fraction solid (wt)-TOTAL	Fraction liquid (wt)-LIQUID	Density (g/(cm)^3)-TOTAL	Molar volume (cm^3)-TOTAL	Volume change (%)-  	Average expansion coeff. (10e-6 1/K)-  	Thermal conductivity (W/(m*K))-TOTAL	Electrical resistivity (10e-6 Ohm*m)-TOTAL	Electrical conductivity (10e6 1/(Ohm*m))-TOTAL	Young's modulus (GPa)-TOTAL	Bulk modulus (GPa)-TOTAL	Shear modulus(GPa)-TOTAL	Poisson's ratio-TOTAL	Liquid viscosity (mPa s)-  	Total viscosity (mPa s)-  	Liquid diffusivity (10e-9 (m^2)/s)-  	Total diffusivity (10e-9 (m^2)/s)-  	Surface Tension (mN/m)-  	Enthalpy (J/mole)-TOTAL	Specific heat (J/(mole K))-TOTAL	Latent heat (J/mole)-TOTAL
1500.0	0.0	1.0	6.86865	7.91332	0.0	25.13252	31.89424	1.81155	0.55201	0.0	101.96327	0.0	0.49974	6.69563	6.69563	1.29253	1.29253	1795.47196	65407.409	 	0.0
1495.0	0.0	1.0	6.87249	7.90891	-0.0557906	25.07742	31.81976	1.81067	0.55228	0.0	102.14853	0.0	0.49974	6.75264	6.75264	1.278	1.278	1797.43531	65185.363	44.4092	0.0
1493.62	0.0	1.0	6.87354	7.90769	-0.0711285	25.06225	31.79925	1.81043	0.55236	0.0	102.19955	0.0	0.49974	6.76849	6.76849	1.27402	1.27402	1797.97541	65124.306	44.3396	0.01
1490.0	0.24547	0.75453	6.92245	7.85191	-0.7761	23.34182	32.26807	1.78047	0.56165	0.1483	89.82278	0.0506526	0.46389	6.7695	17.18367	1.27122	0.5008	1795.34077	62417.003	747.261	2546.907
1485.0	0.45499	0.54501	6.96606	7.80309	-1.39297	21.85675	32.66237	1.75399	0.57013	1.81141	79.28846	0.63214	0.43276	6.7732	109.41805	1.26692	0.0784248	1792.31069	60044.071	474.586	4698.977
1480.0	0.58567	0.41433	6.99492	7.77139	-1.79353	20.91215	32.89666	1.73654	0.57586	5.10028	72.81538	1.80471	0.41304	6.77858	293.38164	1.26231	0.0291657	1789.74162	58504.023	308.01	6018.746
1475.0	0.67409	0.32591	7.01577	7.74896	-2.07703	20.26005	33.04167	1.72399	0.58005	9.13546	68.54853	3.26377	0.39953	6.78551	527.95821	1.25743	0.0161609	1787.51504	57409.44	218.917	6893.633
1470.0	0.73734	0.26266	7.03176	7.73206	-2.29054	19.78285	33.13166	1.71439	0.5833	13.30918	65.60729	4.78838	0.38974	6.79394	783.76873	1.25228	0.0108551	1785.5539	56578.807	166.127	7505.146
1465.0	0.78449	0.21551	7.04466	7.71867	-2.45981	19.41612	33.18551	1.7067	0.58593	17.3217	63.52101	6.2653	0.38235	6.80312	1045.69846	1.247	0.00811274	1783.80773	55916.02	132.557	7949.385
1460.0	0.82077	0.17923	7.05541	7.70767	-2.59881	19.12498	33.21468	1.70029	0.58813	21.05601	62.01393	7.64786	0.37659	6.81345	1307.40813	1.24153	0.00647011	1782.23502	55365.647	110.075	8281.778
1455.0	0.84935	0.15065	7.06463	7.69839	-2.71614	18.88795	33.22613	1.6948	0.59004	24.47158	60.92073	8.91821	0.372	6.82473	1566.17912	1.2359	0.00538551	1780.80583	54894.298	94.2698	8535.711
1450.0	0.87233	0.12767	7.07272	7.69033	-2.81799	18.68948	33.22445	1.68999	0.59172	27.57666	60.1302	10.07732	0.36825	6.83665	1821.83928	1.23017	0.00461636	1779.50154	54480.153	82.829	8733.001
1445.0	0.89108	0.10892	7.07994	7.68322	-2.90779	18.52105	33.21293	1.68567	0.59324	30.39308	59.56896	11.13178	0.36515	6.8494	2075.03699	1.22432	0.00404131	1778.30113	54108.563	74.318	8888.291
1440.0	0.90659	0.0934083	7.08648	7.67686	-2.98817	18.37608	33.19387	1.68173	0.59463	32.95166	59.1845	12.09201	0.36254	6.86292	2327.05392	1.21835	0.00359315	1777.18805	53769.355	67.8416	9011.751
1435.0	0.91957	0.0804299	7.09248	7.67105	-3.06157	18.24843	33.16876	1.67809	0.59592	35.28132	58.93912	12.96807	0.36031	6.87684	2579.12726	1.21234	0.00323251	1776.1578	53455.258	62.8194	9110.648
1430.0	0.93053	0.069473	7.09803	7.66572	-3.12897	18.13569	33.13891	1.67468	0.59713	37.40899	58.80579	13.76949	0.3584	6.89141	2832.59266	1.20623	0.00293464	1775.19469	53160.948	58.862	9190.303
1425.0	0.93985	0.0601486	7.10322	7.66076	-3.19165	18.03462	33.10518	1.67147	0.59828	39.36001	58.7634	14.50537	0.35674	6.90632	3088.81937	1.2001	0.00268331	1774.29475	52882.443	55.701	9254.692
1420.0	0.94784	0.0521595	7.10809	7.65613	-3.25016	17.94392	33.06833	1.6684	0.59938	41.15603	58.79623	15.18356	0.35528	6.92209	3349.09536	1.19384	0.00246749	1773.4443	52616.714	53.1458	9306.842
1415.0	0.95472	0.0452764	7.1127	7.65175	-3.30545	17.86112	33.02883	1.66547	0.60043	42.8165	58.89155	15.81114	0.354	6.93809	3614.64736	1.18757	0.00227946	1772.64593	52361.417	51.0594	9349.093
1410.0	0.96068	0.0393165	7.11708	7.64761	-3.35783	17.78551	32.98717	1.66263	0.60146	44.35741	59.03984	16.394	0.35286	6.95468	3886.67565	1.18122	0.00211364	1771.88877	52114.715	49.3404	9383.276
1405.0	0.96587	0.0341336	7.12126	7.64366	-3.40776	17.71592	32.94368	1.65988	0.60245	45.79367	59.23304	16.93761	0.35183	6.9717	4166.38733	1.17484	0.00196588	1771.17034	51875.155	47.912	9410.841
1400.0	0.97039	0.0296109	7.12526	7.63987	-3.45557	17.65156	32.89864	1.6572	0.60343	47.13712	59.46492	17.44636	0.35092	6.98927	4454.88389	1.1684	0.0018331	1770.4856	51641.566	46.7178	9432.956
1399.74	0.97063	0.0293668	7.12548	7.63967	-3.45817	17.64791	32.89628	1.65706	0.60348	47.21019	59.47686	17.47405	0.35087	6.99007	4470.7094	1.16808	0.00182632	1770.45249	51629.306	 	9434.15
1395.0	0.97692	0.0230755	7.13042	7.63524	-3.51417	17.55756	32.85708	1.65434	0.60447	48.95828	59.60845	18.13718	0.34967	7.01182	4804.80379	1.16116	0.00169452	1771.67564	51393.854	49.5424	9469.71
1390.0	0.98253	0.0174678	7.13523	7.63094	-3.56846	17.47453	32.81342	1.65157	0.60548	50.63726	59.80417	18.77453	0.34856	7.03488	5163.27681	1.15388	0.00157215	1772.9496	51155.14	47.7428	9497.979
1385.0	0.98726	0.0127354	7.13969	7.62697	-3.61861	17.40219	32.76782	1.6489	0.60647	52.16865	60.04871	19.35617	0.3476	7.05866	5529.66611	1.14654	0.00146356	1774.19814	50924.492	46.1296	9518.691
1380.0	0.99127	0.00873036	7.14386	7.62326	-3.66545	17.33839	32.72062	1.6463	0.60742	53.57336	60.33397	19.88992	0.34675	7.08225	5905.8572	1.13927	0.00136621	1775.43853	50700.33	44.8324	9533.423
1375.0	0.99467	0.00533329	7.14779	7.61978	-3.70943	17.28193	32.67209	1.64376	0.60836	54.86814	60.65374	20.38204	0.34599	7.10653	6293.60223	1.13195	0.00127816	1776.65737	50481.417	43.7826	9543.409
1370.0	0.99755	0.00244943	7.15149	7.61649	-3.75105	17.23154	32.62245	1.64126	0.60929	56.06779	61.00286	20.83808	0.34532	7.13098	6694.64499	1.12464	0.00119794	1777.86047	50266.769	42.9296	9549.628
1365.0	1.0	0.0	7.15501	7.61335	-3.79068	17.1863	32.5719	1.63881	0.6102	57.1845	61.37718	21.26263	0.34472	 	7110.66774	 	0.00112442	 	50055.601	42.2336	9552.864
1360.0	1.0	0.0	7.15726	7.61096	-3.82093	17.16673	32.51703	1.63656	0.61104	57.71127	61.86391	21.46165	0.34452	 	7479.36169	 	0.00106573	 	49792.371	52.646	 
1355.0	1.0	0.0	7.15951	7.60857	-3.85113	17.14717	32.46217	1.63431	0.61188	58.24214	62.35381	21.66225	0.34432	 	7869.61573	 	0.00100978	 	49591.925	40.0892	 
1350.0	1.0	0.0	7.16175	7.60618	-3.88127	17.1276	32.4073	1.63205	0.61273	58.77709	62.84683	21.86443	0.34413	 	8282.82727	 	9.5646E-4	 	49391.726	40.0398	 
1345.0	1.0	0.0	7.164	7.6038	-3.91137	17.10804	32.35244	1.62978	0.61358	59.31607	63.34291	22.06816	0.34393	 	8720.49287	 	9.05658E-4	 	49191.768	39.9916	 
1340.0	1.0	0.0	7.16624	7.60143	-3.9414	17.08848	32.29757	1.62751	0.61444	59.85903	63.84198	22.27344	0.34373	 	9184.21588	 	8.57273E-4	 	48992.05	39.9436	 
1335.0	1.0	0.0	7.16848	7.59905	-3.97139	17.06892	32.2427	1.62522	0.6153	60.40592	64.344	22.48024	0.34353	 	9675.71472	 	8.11204E-4	 	48792.57	39.896	 
1330.0	1.0	0.0	7.17071	7.59668	-4.00132	17.04936	32.18784	1.62293	0.61617	60.95671	64.8489	22.68855	0.34334	 	10196.83177	 	7.67354E-4	 	48593.327	39.8486	 
1325.0	1.0	0.0	7.17294	7.59432	-4.0312	17.0298	32.13297	1.62063	0.61704	61.51135	65.35662	22.89835	0.34314	 	10749.54315	 	7.25628E-4	 	48394.319	39.8016	 
1320.0	1.0	0.0	7.17517	7.59196	-4.06103	17.01024	32.0781	1.61832	0.61792	62.06979	65.86711	23.10963	0.34294	 	11335.96917	 	6.85938E-4	 	48195.544	39.755	 
1315.0	1.0	0.0	7.1774	7.5896	-4.0908	16.99068	32.02324	1.61601	0.61881	62.63199	66.38031	23.32238	0.34274	 	11958.38578	 	6.48195E-4	 	47997.002	39.7084	 
1310.0	1.0	0.0	7.17963	7.58725	-4.12052	16.97112	31.96837	1.61369	0.6197	63.1979	66.89616	23.53657	0.34255	 	12619.23693	 	6.12316E-4	 	47798.691	39.6622	 
1305.0	1.0	0.0	7.18185	7.5849	-4.15019	16.95156	31.91351	1.61136	0.6206	63.76749	67.4146	23.75219	0.34235	 	13321.14802	 	5.7822E-4	 	47600.608	39.6166	 
1300.0	1.0	0.0	7.18407	7.58256	-4.1798	16.93201	31.85864	1.60902	0.6215	64.34071	67.93559	23.96922	0.34215	 	14066.94047	 	5.4583E-4	 	47402.752	39.5712	 
1295.0	1.0	0.0	7.18628	7.58022	-4.20937	16.91245	31.80377	1.60667	0.62241	64.9175	68.45905	24.18765	0.34196	 	14859.64763	 	5.15069E-4	 	47205.122	39.526	 
1290.0	1.0	0.0	7.1885	7.57789	-4.23887	16.89289	31.74891	1.60431	0.62332	65.49784	68.98495	24.40747	0.34176	 	15702.53195	 	4.85867E-4	 	47007.716	39.4812	 
1285.0	1.0	0.0	7.19071	7.57556	-4.26833	16.87334	31.69404	1.60195	0.62424	66.08166	69.51321	24.62865	0.34156	 	16599.10378	 	4.58154E-4	 	46810.532	39.4368	 
1280.0	1.0	0.0	7.19292	7.57323	-4.29773	16.85378	31.63917	1.59958	0.62516	66.66894	70.04379	24.85118	0.34136	 	17553.14172	 	4.31862E-4	 	46613.567	39.393	 
1275.0	1.0	0.0	7.19513	7.57091	-4.32708	16.83423	31.58431	1.5972	0.6261	67.25962	70.57663	25.07505	0.34117	 	18568.71488	 	4.06928E-4	 	46416.822	39.349	 
1270.0	1.0	0.0	7.19733	7.56859	-4.35638	16.81468	31.52944	1.59481	0.62703	67.85367	71.11167	25.30023	0.34097	 	19650.20697	 	3.8329E-4	 	46220.293	39.3058	 
1265.0	1.0	0.0	7.19953	7.56627	-4.38562	16.79513	31.47457	1.59242	0.62798	68.45102	71.64887	25.52672	0.34077	 	20802.34272	 	3.60889E-4	 	46023.978	39.263	 
1260.0	1.0	0.0	7.20173	7.56396	-4.41481	16.77557	31.41971	1.59001	0.62893	69.05165	72.18817	25.75449	0.34057	 	22030.21653	 	3.39666E-4	 	45827.877	39.2202	 
1255.0	1.0	0.0	7.20393	7.56166	-4.44395	16.75602	31.36484	1.5876	0.62988	69.65551	72.7295	25.98354	0.34038	 	23339.32379	 	3.19569E-4	 	45631.986	39.1782	 
1250.0	1.0	0.0	7.20612	7.55936	-4.47303	16.73647	31.30997	1.58518	0.63084	70.26255	73.27283	26.21384	0.34018	 	24735.59504	 	3.00543E-4	 	45436.304	39.1364	 
1245.0	1.0	0.0	7.20831	7.55706	-4.50206	16.71692	31.2551	1.58275	0.63181	70.87273	73.81809	26.44538	0.33998	 	26225.43325	 	2.82539E-4	 	45240.829	39.095	 
1240.0	1.0	0.0	7.2105	7.55477	-4.53104	16.69738	31.20024	1.58031	0.63279	71.48601	74.36524	26.67814	0.33979	 	27815.75449	 	2.65508E-4	 	45045.56	39.0538	 
1235.0	1.0	0.0	7.21268	7.55248	-4.55997	16.67783	31.14537	1.57786	0.63377	72.10233	74.91422	26.91211	0.33959	 	29514.03249	 	2.49404E-4	 	44850.493	39.0134	 
1230.0	1.0	0.0	7.21487	7.55019	-4.58884	16.65828	31.0905	1.57541	0.63476	72.72166	75.46497	27.14727	0.33939	 	31328.34715	 	2.34181E-4	 	44655.628	38.973	 
1225.0	1.0	0.0	7.21705	7.54791	-4.61766	16.63873	31.03563	1.57294	0.63575	73.34395	76.01745	27.3836	0.33919	 	33267.4378	 	2.19797E-4	 	44460.961	38.9334	 
1220.0	1.0	0.0	7.21922	7.54564	-4.64642	16.61919	30.98076	1.57047	0.63675	73.96916	76.5716	27.62109	0.339	 	35340.76136	 	2.06212E-4	 	44266.492	38.8938	 
1215.0	1.0	0.0	7.2214	7.54336	-4.67514	16.59964	30.9259	1.56799	0.63776	74.59724	77.12738	27.85973	0.3388	 	37558.55601	 	1.93386E-4	 	44072.216	38.8552	 
1210.0	1.0	0.0	7.22357	7.5411	-4.7038	16.5801	30.87103	1.5655	0.63878	75.22815	77.68472	28.09949	0.3386	 	39931.91097	 	1.81281E-4	 	43878.132	38.8168	 
1205.0	1.0	0.0	7.22574	7.53883	-4.73241	16.56055	30.81616	1.563	0.6398	75.86185	78.24358	28.34036	0.33841	 	42472.84297	 	1.69861E-4	 	43684.237	38.779	 
1200.0	1.0	0.0	7.2279	7.53657	-4.76096	16.54101	30.76129	1.56049	0.64083	76.49828	78.80391	28.58232	0.33821	 	45194.38006	 	1.59092E-4	 	43490.529	38.7416	 
1195.0	1.0	0.0	7.23007	7.53432	-4.78946	16.52147	30.70642	1.55797	0.64186	77.13742	79.36566	28.82537	0.33801	 	48110.65355	 	1.48942E-4	 	43297.004	38.705	 
1190.0	1.0	0.0	7.23223	7.53207	-4.81791	16.50192	30.65155	1.55544	0.6429	77.7792	79.92878	29.06948	0.33782	 	51236.99901	 	1.39377E-4	 	43103.662	38.6684	 
1185.0	1.0	0.0	7.23439	7.52982	-4.84631	16.48238	30.59668	1.55291	0.64395	78.42359	80.49321	29.31463	0.33762	 	54590.06705	 	1.30369E-4	 	42910.498	38.6328	 
1180.0	1.0	0.0	7.23654	7.52758	-4.87465	16.46284	30.54181	1.55036	0.64501	79.07054	81.0589	29.56081	0.33742	 	58187.94513	 	1.21889E-4	 	42717.51	38.5976	 
1175.0	1.0	0.0	7.2387	7.52534	-4.90294	16.4433	30.48694	1.54781	0.64607	79.72002	81.62581	29.80801	0.33722	 	62050.2915	 	1.13909E-4	 	42524.695	38.563	 
1170.0	1.0	0.0	7.24085	7.5231	-4.93117	16.42376	30.43207	1.54525	0.64715	80.37197	82.19389	30.05621	0.33703	 	66198.48241	 	1.06402E-4	 	42332.051	38.5288	 
1165.0	1.0	0.0	7.24299	7.52087	-4.95936	16.40422	30.3772	1.54267	0.64823	81.02635	82.76309	30.30539	0.33683	 	70655.77427	 	9.93444E-5	 	42139.574	38.4954	 
1160.0	1.0	0.0	7.24514	7.51865	-4.98749	16.38469	30.32233	1.54009	0.64931	81.68311	83.33336	30.55553	0.33663	 	75447.48214	 	9.27115E-5	 	41947.261	38.4626	 
1155.0	1.0	0.0	7.24728	7.51642	-5.01557	16.36515	30.26746	1.5375	0.65041	82.34222	83.90465	30.80662	0.33644	 	80601.17639	 	8.64807E-5	 	41755.11	38.4302	 
1150.0	1.0	0.0	7.24942	7.51421	-5.04359	16.34561	30.21259	1.5349	0.65151	83.00363	84.4769	31.05865	0.33624	 	86146.89954	 	8.06302E-5	 	41563.117	38.3986	 
1145.0	1.0	0.0	7.25155	7.51199	-5.07156	16.32607	30.15772	1.53229	0.65262	83.66729	85.05009	31.3116	0.33604	 	92117.40545	 	7.51393E-5	 	41371.278	38.3678	 
1140.0	1.0	0.0	7.25369	7.50978	-5.09948	16.30654	30.10285	1.52967	0.65373	84.33316	85.62414	31.56544	0.33585	 	98548.42329	 	6.99883E-5	 	41179.592	38.3372	 
1135.0	1.0	0.0	7.25582	7.50758	-5.12735	16.287	30.04798	1.52704	0.65486	85.00119	86.19903	31.82018	0.33565	 	105478.9491	 	6.51583E-5	 	40988.053	38.3078	 
1130.0	1.0	0.0	7.25795	7.50538	-5.15516	16.26747	29.99311	1.5244	0.65599	85.67135	86.77469	32.07578	0.33545	 	112951.5681	 	6.06315E-5	 	40796.659	38.2788	 
1125.0	1.0	0.0	7.26007	7.50318	-5.18292	16.24794	29.93824	1.52176	0.65714	86.34359	87.35109	32.33223	0.33526	 	121012.8106	 	5.63909E-5	 	40605.407	38.2504	 
1120.0	1.0	0.0	7.26219	7.50099	-5.21063	16.2284	29.88337	1.5191	0.65829	87.01786	87.92817	32.58952	0.33506	 	129713.5463	 	5.24203E-5	 	40414.292	38.223	 
1115.0	1.0	0.0	7.26431	7.4988	-5.23828	16.20887	29.8285	1.51643	0.65944	87.69412	88.5059	32.84763	0.33486	 	139109.4208	 	4.87042E-5	 	40223.31	38.1964	 
1110.0	1.0	0.0	7.26643	7.49662	-5.26588	16.18934	29.77363	1.51375	0.66061	88.37232	89.08421	33.10655	0.33467	 	149261.3385	 	4.52281E-5	 	40032.459	38.1702	 
1105.0	1.0	0.0	7.26854	7.49444	-5.29343	16.16981	29.71877	1.51107	0.66178	89.05243	89.66307	33.36626	0.33447	 	160235.9986	 	4.19781E-5	 	39841.734	38.145	 
1100.0	1.0	0.0	7.27065	7.49226	-5.32093	16.15028	29.6639	1.50837	0.66297	89.73439	90.24243	33.62673	0.33427	 	172106.4891	 	3.8941E-5	 	39651.131	38.1206	 
1095.0	1.0	0.0	7.27276	7.49009	-5.34837	16.13075	29.60904	1.50566	0.66416	90.41817	90.82225	33.88797	0.33407	 	184952.9464	 	3.61043E-5	 	39460.646	38.097	 
1090.0	1.0	0.0	7.27487	7.48792	-5.37576	16.11122	29.55418	1.50294	0.66536	91.10371	91.40247	34.14994	0.33388	 	198863.2874	 	3.34561E-5	 	39270.275	38.0742	 
1085.0	1.0	0.0	7.27697	7.48576	-5.40309	16.09169	29.49932	1.50021	0.66657	91.79099	91.98306	34.41264	0.33368	 	213934.0234	 	3.09852E-5	 	39080.013	38.0524	 
1080.0	1.0	0.0	7.27907	7.4836	-5.43038	16.07217	29.44446	1.49748	0.66779	92.47994	92.56396	34.67604	0.33348	 	230271.165	 	2.86809E-5	 	38889.856	38.0314	 
1075.0	1.0	0.0	7.28116	7.48144	-5.45761	16.05264	29.38961	1.49473	0.66902	93.17053	93.14514	34.94014	0.33329	 	247991.229	 	2.65331E-5	 	38699.799	38.0114	 
1070.0	1.0	0.0	7.28326	7.47929	-5.48479	16.03311	29.33476	1.49197	0.67026	93.86271	93.72655	35.20491	0.33309	 	267222.3594	 	2.45323E-5	 	38509.839	37.992	 
1065.0	1.0	0.0	7.28535	7.47715	-5.51191	16.01359	29.27991	1.4892	0.6715	94.55644	94.30814	35.47034	0.33289	 	288105.5773	 	2.26694E-5	 	38319.969	37.974	 
1060.0	1.0	0.0	7.28744	7.475	-5.53898	15.99406	29.22507	1.48642	0.67276	95.25168	94.88986	35.73641	0.3327	 	310796.1728	 	2.09358E-5	 	38130.185	37.9568	 
1055.0	1.0	0.0	7.28952	7.47287	-5.566	15.97454	29.17023	1.48363	0.67402	95.94838	95.47169	36.00311	0.3325	 	335465.2601	 	1.93235E-5	 	37940.482	37.9406	 
1050.0	1.0	0.0	7.2916	7.47073	-5.59297	15.95502	29.1154	1.48083	0.6753	96.6465	96.05356	36.27042	0.3323	 	362301.5121	 	1.78248E-5	 	37750.854	37.9256	 
1045.0	1.0	0.0	7.29368	7.4686	-5.61988	15.93549	29.06058	1.47801	0.67658	97.34599	96.63545	36.53833	0.33211	 	391513.0995	 	1.64326E-5	 	37561.297	37.9114	 
1040.0	1.0	0.0	7.29576	7.46648	-5.64674	15.91597	29.00576	1.47519	0.67788	98.04681	97.21729	36.80681	0.33191	 	423329.8589	 	1.51399E-5	 	37371.804	37.8986	 
1035.0	1.0	0.0	7.29783	7.46436	-5.67355	15.89645	28.95096	1.47235	0.67918	98.74892	97.79906	37.07586	0.33171	 	458005.7178	 	1.39403E-5	 	37182.371	37.8866	 
1030.0	1.0	0.0	7.2999	7.46224	-5.70031	15.87693	28.89616	1.46951	0.6805	99.45227	98.38071	37.34545	0.33152	 	495821.4116	 	1.28279E-5	 	36992.99	37.8762	 
1025.0	1.0	0.0	7.30197	7.46013	-5.72701	15.85741	28.84137	1.46665	0.68183	100.15682	98.96219	37.61557	0.33132	 	537087.5267	 	1.17969E-5	 	36803.657	37.8666	 
1020.0	1.0	0.0	7.30404	7.45802	-5.75366	15.83789	28.7866	1.46378	0.68316	100.86252	99.54347	37.8862	0.33112	 	582147.9139	 	1.08418E-5	 	36614.364	37.8586	 
1015.0	1.0	0.0	7.3061	7.45591	-5.78025	15.81837	28.73183	1.4609	0.68451	101.56933	100.12449	38.15733	0.33093	 	631383.5186	 	9.95772E-6	 	36425.106	37.8516	 
1010.0	1.0	0.0	7.30816	7.45381	-5.8068	15.79885	28.67709	1.45801	0.68587	102.27721	100.70523	38.42894	0.33073	 	685216.6831	 	9.13979E-6	 	36235.875	37.8462	 
1005.0	1.0	0.0	7.31021	7.45172	-5.83329	15.77934	28.62236	1.4551	0.68724	102.98611	101.28563	38.70101	0.33054	 	744115.9815	 	8.38355E-6	 	36046.666	37.8418	 
1000.0	1.0	0.0	7.31227	7.44962	-5.85972	15.75982	28.56765	1.45219	0.68862	103.69599	101.86566	38.97353	0.33034	 	808601.6588	 	7.68478E-6	 	35857.47	37.8392	 
995.0	1.0	0.0	7.31432	7.44754	-5.88611	15.7403	28.51296	1.44926	0.69001	104.40681	102.44527	39.24649	0.33014	 	879251.7535	 	7.03954E-6	 	35668.281	37.8378	 
990.0	1.0	0.0	7.31636	7.44545	-5.91244	15.72079	28.45829	1.44632	0.69141	105.11852	103.02442	39.51986	0.32995	 	956708.9956	 	6.44409E-6	 	35479.091	37.838	 
985.0	1.0	0.0	7.31841	7.44337	-5.93872	15.70127	28.40365	1.44336	0.69283	105.83108	103.60307	39.79363	0.32975	 	1041688.584	 	5.89496E-6	 	35289.893	37.8396	 
980.0	1.0	0.0	7.32045	7.4413	-5.96494	15.68176	28.34904	1.4404	0.69425	106.54444	104.18118	40.06778	0.32955	 	1134986.963	 	5.38888E-6	 	35100.677	37.8432	 
975.0	1.0	0.0	7.32249	7.43923	-5.99112	15.66225	28.29445	1.43742	0.69569	107.25857	104.75872	40.3423	0.32936	 	1237491.734	 	4.92279E-6	 	34911.437	37.848	 
970.0	1.0	0.0	7.32452	7.43716	-6.01724	15.64273	28.2399	1.43443	0.69714	107.97341	105.33563	40.61717	0.32916	 	1350192.861	 	4.49381E-6	 	34722.163	37.8548	 
965.0	1.0	0.0	7.32655	7.4351	-6.04331	15.62322	28.18538	1.43142	0.69861	108.68892	105.91188	40.89237	0.32896	 	1474195.34	 	4.09925E-6	 	34532.847	37.8632	 
960.0	1.0	0.0	7.32858	7.43304	-6.06932	15.60371	28.13091	1.4284	0.70008	109.40507	106.48743	41.16789	0.32877	 	1610733.555	 	3.73662E-6	 	34343.479	37.8736	 
955.0	1.0	0.0	7.33061	7.43098	-6.09528	15.5842	28.07647	1.42537	0.70157	110.1218	107.06224	41.44372	0.32857	 	1761187.534	 	3.40355E-6	 	34154.05	37.8858	 
950.0	1.0	0.0	7.33263	7.42893	-6.12119	15.56469	28.02208	1.42232	0.70308	110.83907	107.63627	41.71983	0.32837	 	1927101.391	 	3.09786E-6	 	33964.55	37.9	 
945.0	1.0	0.0	7.33465	7.42689	-6.14705	15.54518	27.96775	1.41926	0.70459	111.55684	108.20948	41.99621	0.32818	 	2110204.269	 	2.81749E-6	 	33774.968	37.9164	 
940.0	1.0	0.0	7.33667	7.42484	-6.17285	15.52567	27.91346	1.41618	0.70612	112.27507	108.78183	42.27284	0.32798	 	2312434.117	 	2.56054E-6	 	33585.295	37.9346	 
935.0	1.0	0.0	7.33868	7.42281	-6.1986	15.50616	27.85924	1.41309	0.70767	112.99372	109.35328	42.54971	0.32778	 	2535964.748	 	2.32522E-6	 	33395.518	37.9554	 
930.0	1.0	0.0	7.34069	7.42077	-6.2243	15.48666	27.80507	1.40998	0.70923	113.71273	109.92379	42.8268	0.32759	 	2783236.624	 	2.10987E-6	 	33205.627	37.9782	 
925.0	1.0	0.0	7.3427	7.41874	-6.24994	15.46715	27.75098	1.40686	0.7108	114.43206	110.49333	43.10409	0.32739	 	3056991.936	 	1.91295E-6	 	33015.61	38.0034	 
920.0	1.0	0.0	7.34471	7.41672	-6.27554	15.44764	27.69695	1.40372	0.71239	115.15168	111.06186	43.38157	0.3272	 	3360314.606	 	1.73301E-6	 	32825.453	38.0314	 
915.0	1.0	0.0	7.34671	7.4147	-6.30107	15.42814	27.643	1.40057	0.714	115.87154	111.62933	43.65922	0.327	 	3696675.943	 	1.56872E-6	 	32635.145	38.0616	 
910.0	1.0	0.0	7.34871	7.41268	-6.32656	15.40863	27.58914	1.3974	0.71562	116.59159	112.19571	43.93703	0.3268	 	4069986.813	 	1.41884E-6	 	32444.671	38.0948	 
905.0	1.0	0.0	7.3507	7.41067	-6.35199	15.38913	27.53536	1.39421	0.71725	117.3118	112.76096	44.21498	0.32661	 	4484657.287	 	1.28221E-6	 	32254.018	38.1306	 
900.0	1.0	0.0	7.3527	7.40866	-6.37737	15.36963	27.48167	1.391	0.71891	118.03211	113.32505	44.49305	0.32641	 	4945664.943	 	1.15775E-6	 	32063.171	38.1694	 
895.0	1.0	0.0	7.35469	7.40666	-6.4027	15.35012	27.42808	1.38778	0.72057	118.75249	113.88794	44.77123	0.32621	 	5458633.107	 	1.04448E-6	 	31872.115	38.2112	 
890.0	1.0	0.0	7.35667	7.40466	-6.42798	15.33062	27.3746	1.38454	0.72226	119.47289	114.44958	45.04949	0.32602	 	6029920.614	 	9.41479E-7	 	31680.833	38.2564	 
885.0	1.0	0.0	7.35866	7.40266	-6.4532	15.31112	27.32123	1.38128	0.72397	120.19327	115.00995	45.32783	0.32582	 	6666724.862	 	8.47889E-7	 	31489.309	38.3048	 
880.0	1.0	0.0	7.36064	7.40067	-6.47837	15.29162	27.26797	1.378	0.72569	120.91359	115.569	45.60623	0.32563	 	7377200.25	 	7.62923E-7	 	31297.526	38.3566	 
875.0	1.0	0.0	7.36261	7.39868	-6.50349	15.27212	27.21484	1.37471	0.72743	121.6338	116.1267	45.88467	0.32543	 	8170594.462	 	6.85854E-7	 	31105.464	38.4124	 
870.0	1.0	0.0	7.36459	7.3967	-6.52855	15.25262	27.16184	1.37139	0.72919	122.35385	116.68302	46.16314	0.32523	 	9057405.407	 	6.16008E-7	 	30913.105	38.4718	 
865.0	1.0	0.0	7.36656	7.39472	-6.55356	15.23312	27.10897	1.36806	0.73096	123.07372	117.23791	46.44161	0.32504	 	1.004956219E7	 	5.52763E-7	 	30720.429	38.5352	 
860.0	1.0	0.0	7.36853	7.39274	-6.57852	15.21362	27.05624	1.3647	0.73276	123.79335	117.79134	46.72008	0.32484	 	1.116063397E7	 	4.95547E-7	 	30527.413	38.6032	 
855.0	1.0	0.0	7.37049	7.39077	-6.60342	15.19413	27.00366	1.36133	0.73458	124.51269	118.34328	46.99852	0.32464	 	1.240607131E7	 	4.43833E-7	 	30334.036	38.6754	 
850.0	1.0	0.0	7.37245	7.38881	-6.62828	15.17463	26.95123	1.35793	0.73642	125.23172	118.89368	47.27693	0.32445	 	1.380348531E7	 	3.97133E-7	 	30140.274	38.7524	 
845.0	1.0	0.0	7.37441	7.38684	-6.65308	15.15513	26.89896	1.35451	0.73827	125.95038	119.44252	47.55528	0.32425	 	1.537297093E7	 	3.55001E-7	 	29946.102	38.8344	 
840.0	1.0	0.0	7.37637	7.38488	-6.67782	15.13564	26.84685	1.35107	0.74015	126.66863	119.98975	47.83355	0.32406	 	1.713748173E7	 	3.17025E-7	 	29751.494	38.9216	 
835.0	1.0	0.0	7.37832	7.38293	-6.70252	15.11614	26.79492	1.34761	0.74206	127.38643	120.53535	48.11174	0.32386	 	1.912326491E7	 	2.82829E-7	 	29556.422	39.0144	 
830.0	1.0	0.0	7.38027	7.38098	-6.72716	15.09665	26.74316	1.34412	0.74398	128.10373	121.07927	48.38982	0.32366	 	2.136036678E7	 	2.52065E-7	 	29360.857	39.113	 
825.0	1.0	0.0	7.38222	7.37903	-6.75175	15.07716	26.69159	1.34062	0.74592	128.8205	121.62149	48.66778	0.32347	 	2.388322081E7	 	2.24417E-7	 	29164.767	39.218	 
820.0	1.0	0.0	7.38416	7.37709	-6.77629	15.05766	26.6402	1.33709	0.74789	129.53669	122.16197	48.9456	0.32327	 	2.673133259E7	 	1.99593E-7	 	28968.119	39.3296	 
815.0	1.0	0.0	7.3861	7.37516	-6.80077	15.03817	26.589	1.33354	0.74989	130.25225	122.70067	49.22327	0.32308	 	2.995007858E7	 	1.77328E-7	 	28770.878	39.4482	 
810.0	1.0	0.0	7.38804	7.37322	-6.8252	15.01868	26.53799	1.32996	0.7519	130.96715	123.23755	49.50077	0.32288	 	3.359163874E7	 	1.57378E-7	 	28573.007	39.5742	 
805.0	1.0	0.0	7.38997	7.37129	-6.84958	14.99919	26.48718	1.32636	0.75394	131.68134	123.7726	49.77809	0.32268	 	3.771608679E7	 	1.39521E-7	 	28374.466	39.7082	 
800.0	1.0	0.0	7.3919	7.36937	-6.8739	14.9797	26.43658	1.32274	0.75601	132.39478	124.30577	50.0552	0.32249	 	4.239266634E7	 	1.23554E-7	 	28175.212	39.8508	 
795.0	1.0	0.0	7.39383	7.36745	-6.89817	14.96021	26.38617	1.31909	0.7581	133.10742	124.83702	50.33209	0.32229	 	4.770128648E7	 	1.09292E-7	 	27975.199	40.0026	 
790.0	1.0	0.0	7.39575	7.36553	-6.92239	14.94072	26.33598	1.31542	0.76022	133.81923	125.36633	50.60875	0.3221	 	5.37342769E7	 	9.65672E-8	 	27774.378	40.1642	 
785.0	1.0	0.0	7.39767	7.36362	-6.94656	14.92123	26.28599	1.31172	0.76236	134.53016	125.89367	50.88516	0.3219	 	6.059845002E7	 	8.52261E-8	 	27572.698	40.336	 
780.0	1.0	0.0	7.39959	7.36171	-6.97067	14.90175	26.23621	1.308	0.76453	135.24017	126.41899	51.1613	0.3217	 	6.841752741E7	 	7.51293E-8	 	27370.102	40.5192	 
775.0	1.0	0.0	7.4015	7.35981	-6.99474	14.88226	26.18663	1.30425	0.76672	135.94922	126.94226	51.43716	0.32151	 	7.73349983E7	 	6.61506E-8	 	27166.53	40.7144	 
770.0	1.0	0.0	7.40341	7.35791	-7.01874	14.86278	26.13726	1.30048	0.76895	136.65726	127.46346	51.71272	0.32131	 	8.751749188E7	 	5.81753E-8	 	26961.916	40.9228	 
765.0	1.0	0.0	7.40532	7.35601	-7.0427	14.84329	26.0881	1.29669	0.7712	137.36425	127.98255	51.98796	0.32112	 	9.915876128E7	 	5.10994E-8	 	26756.19	41.1452	 
760.0	1.0	0.0	7.40723	7.35412	-7.0666	14.82381	26.03913	1.29287	0.77347	138.07015	128.4995	52.26288	0.32092	 	1.124843965E8	 	4.48289E-8	 	26549.275	41.383	 
755.0	1.0	0.0	7.40913	7.35223	-7.09045	14.80432	25.99037	1.28903	0.77578	138.77492	129.01427	52.53744	0.32072	 	1.277574077E8	 	3.92787E-8	 	26341.089	41.6372	 
750.0	1.0	0.0	7.41103	7.35035	-7.11425	14.78484	25.9418	1.28516	0.77811	139.47852	129.52684	52.81164	0.32053	 	1.452848491E8	 	3.43721E-8	 	26131.543	41.9092	 
745.0	1.0	0.0	7.41292	7.34847	-7.138	14.76536	25.89342	1.28127	0.78048	140.18089	130.03717	53.08546	0.32033	 	1.654256887E8	 	3.00397E-8	 	25920.538	42.201	 
740.0	1.0	0.0	7.41481	7.3466	-7.16169	14.74587	25.84522	1.27735	0.78287	140.88201	130.54523	53.35888	0.32014	 	1.886001719E8	 	2.62191E-8	 	25707.969	42.5138	 
735.0	1.0	0.0	7.4167	7.34472	-7.18533	14.72639	25.79719	1.27342	0.78529	141.58183	131.05099	53.6319	0.31994	 	2.153009793E8	 	2.28542E-8	 	25493.718	42.8502	 
730.0	1.0	0.0	7.41859	7.34286	-7.20891	14.70691	25.74933	1.26946	0.78774	142.2803	131.55442	53.90448	0.31974	 	2.46106543E8	 	1.98943E-8	 	25277.66	43.2116	 
725.0	1.0	0.0	7.42047	7.341	-7.23245	14.68743	25.70163	1.26547	0.79022	142.97739	132.05549	54.17662	0.31955	 	2.816969616E8	 	1.72942E-8	 	25059.655	43.601	 
720.0	1.0	0.0	7.42235	7.33914	-7.25593	14.66795	25.65407	1.26147	0.79273	143.67305	132.55416	54.4483	0.31935	 	3.228730537E8	 	1.50131E-8	 	24839.55	44.021	 
715.0	1.0	0.0	7.42422	7.33728	-7.27936	14.64847	25.60665	1.25744	0.79527	144.36724	133.05041	54.7195	0.31916	 	3.705792017E8	 	1.30145E-8	 	24617.177	44.4746	 
710.0	1.0	0.0	7.4261	7.33543	-7.30273	14.629	25.55935	1.25339	0.79783	145.05993	133.5442	54.99021	0.31896	 	4.259307858E8	 	1.12659E-8	 	24392.349	44.9656	 
705.0	1.0	0.0	7.42796	7.33359	-7.32606	14.60952	25.51216	1.24933	0.80043	145.75106	134.03551	55.26041	0.31877	 	4.902471827E8	 	9.73816E-9	 	24164.863	45.4972	 
700.0	1.0	0.0	7.42983	7.33175	-7.34933	14.59004	25.46506	1.24524	0.80306	146.44059	134.5243	55.53009	0.31857	 	5.650915248E8	 	8.40519E-9	 	23934.491	46.0744	 
695.0	1.0	0.0	7.43169	7.32991	-7.37254	14.57057	25.41805	1.24113	0.80572	147.12849	135.01055	55.79922	0.31837	 	6.523186827E8	 	7.24385E-9	 	23700.982	46.7018	 
690.0	1.0	0.0	7.43355	7.32808	-7.39571	14.55109	25.37109	1.23701	0.8084	147.81472	135.49423	56.0678	0.31818	 	7.541332722E8	 	6.23351E-9	 	23464.056	47.3852	 
685.0	1.0	0.0	7.43541	7.32625	-7.41882	14.53162	25.32418	1.23287	0.81112	148.49923	135.9753	56.33581	0.31798	 	8.731598994E8	 	5.35583E-9	 	23204.059	51.9994	 
680.0	1.0	0.0	7.43726	7.32442	-7.44188	14.51214	25.2773	1.22871	0.81386	149.18198	136.45373	56.60323	0.31779	 	1.012528375E9	 	4.59453E-9	 	22933.011	54.2096	 
675.0	1.0	0.0	7.43911	7.3226	-7.46489	14.49267	25.23043	1.22453	0.81664	149.86292	136.92951	56.87004	0.31759	 	1.175977269E9	 	3.93518E-9	 	22665.525	53.4972	 
670.0	1.0	0.0	7.44095	7.32079	-7.48784	14.4732	25.18355	1.22034	0.81944	150.54203	137.40259	57.13623	0.3174	 	1.367979987E9	 	3.36502E-9	 	22401.471	52.8108	 
665.0	1.0	0.0	7.4428	7.31897	-7.51074	14.45373	25.13664	1.21614	0.82228	151.21926	137.87296	57.40179	0.3172	 	1.593898532E9	 	2.87275E-9	 	22140.722	52.1498	 
660.0	1.0	0.0	7.44464	7.31717	-7.53359	14.43425	25.08967	1.21192	0.82514	151.89456	138.34057	57.6667	0.317	 	1.860171394E9	 	2.44842E-9	 	21883.159	51.5126	 
655.0	1.0	0.0	7.44647	7.31536	-7.55639	14.41478	25.04264	1.20769	0.82803	152.56789	138.80541	57.93094	0.31681	 	2.174543564E9	 	2.08323E-9	 	21628.673	50.8972	 
650.0	1.0	0.0	7.4483	7.31356	-7.57913	14.39531	24.99551	1.20345	0.83094	153.23922	139.26744	58.19449	0.31661	 	2.546348661E9	 	1.76946E-9	 	21377.159	50.3028	 
645.0	1.0	0.0	7.45013	7.31177	-7.60182	14.37585	24.94827	1.1992	0.83389	153.90851	139.72665	58.45735	0.31642	 	2.986855648E9	 	1.50033E-9	 	21128.515	49.7288	 
640.0	1.0	0.0	7.45196	7.30997	-7.62446	14.35638	24.90089	1.19494	0.83686	154.5757	140.18299	58.71949	0.31622	 	3.509695754E9	 	1.26987E-9	 	20882.645	49.174	 
635.0	1.0	0.0	7.45378	7.30819	-7.64705	14.33691	24.85336	1.19067	0.83987	155.24077	140.63644	58.9809	0.31603	 	4.131389224E9	 	1.07287E-9	 	20639.454	48.6382	 
630.0	1.0	0.0	7.4556	7.3064	-7.66958	14.31744	24.80564	1.18639	0.84289	155.90368	141.08698	59.24156	0.31583	 	4.871996554E9	 	9.04773E-10	 	20398.856	48.1196	 
625.0	1.0	0.0	7.45742	7.30463	-7.69206	14.29798	24.75773	1.1821	0.84595	156.56437	141.53457	59.50146	0.31563	 	5.755925282E9	 	7.61589E-10	 	20160.767	47.6178	 
620.0	1.0	0.0	7.45923	7.30285	-7.71449	14.27851	24.70959	1.17781	0.84903	157.22282	141.9792	59.76058	0.31544	 	6.812931597E9	 	6.39848E-10	 	19925.106	47.1322	 
615.0	1.0	0.0	7.46104	7.30108	-7.73686	14.25904	24.66121	1.17352	0.85214	157.87898	142.42083	60.01891	0.31524	 	8.07936646E9	 	5.36532E-10	 	19691.798	46.6616	 
610.0	1.0	0.0	7.46284	7.29931	-7.75918	14.23958	24.61256	1.16922	0.85527	158.53281	142.85943	60.27643	0.31505	 	9.599729274E9	 	4.49016E-10	 	19460.771	46.2054	 
605.0	1.0	0.0	7.46465	7.29755	-7.78145	14.22012	24.56363	1.16491	0.85843	159.18427	143.29499	60.53313	0.31485	 	1.14286E10	 	3.75027E-10	 	19231.956	45.763	 
600.0	1.0	0.0	7.46644	7.29579	-7.80367	14.20065	24.5144	1.16061	0.86162	159.83332	143.72748	60.78898	0.31466	 	1.3633099999999998E10	 	3.12594E-10	 	19005.287	45.3338	 
595.0	1.0	0.0	7.46824	7.29404	-7.82583	14.18119	24.46484	1.1563	0.86483	160.47993	144.15686	61.04398	0.31446	 	1.6295899999999998E10	 	2.60017E-10	 	18780.702	44.917	 
590.0	1.0	0.0	7.47003	7.29229	-7.84794	14.16173	24.41494	1.15199	0.86806	161.12405	144.58312	61.29811	0.31427	 	1.95192E10	 	2.1583E-10	 	18558.141	44.5122	 
585.0	1.0	0.0	7.47182	7.29054	-7.87	14.14227	24.36469	1.14768	0.87132	161.76564	145.00622	61.55136	0.31407	 	2.3429099999999996E10	 	1.7877E-10	 	18337.547	44.1188	 
580.0	1.0	0.0	7.4736	7.2888	-7.89201	14.12281	24.31406	1.14337	0.87461	162.40467	145.42615	61.8037	0.31387	 	2.8182599999999996E10	 	1.47751E-10	 	18118.867	43.736	 
575.0	1.0	0.0	7.47539	7.28707	-7.91396	14.10335	24.26304	1.13906	0.87792	163.04109	145.84288	62.05512	0.31368	 	3.3974399999999996E10	 	1.21845E-10	 	17902.048	43.3638	 
570.0	1.0	0.0	7.47716	7.28533	-7.93586	14.08389	24.21163	1.13475	0.88125	163.67486	146.25638	62.30561	0.31348	 	4.10473E10	 	1.00255E-10	 	17687.041	43.0014	 
565.0	1.0	0.0	7.47894	7.2836	-7.95771	14.06443	24.15979	1.13044	0.88461	164.30595	146.66663	62.55516	0.31329	 	4.970469999999999E10	 	8.2302E-11	 	17473.798	42.6486	 
560.0	1.0	0.0	7.48071	7.28188	-7.97951	14.04497	24.10754	1.12613	0.888	164.93432	147.0736	62.80374	0.31309	 	6.032659999999999E10	 	6.74064E-11	 	17262.275	42.3046	 
555.0	1.0	0.0	7.48248	7.28016	-8.00125	14.02552	24.05485	1.12182	0.89141	165.55993	147.47728	63.05134	0.3129	 	7.33897E10	 	5.50758E-11	 	17052.428	41.9694	 
550.0	1.0	0.0	7.48424	7.27844	-8.02294	14.00606	24.00172	1.11752	0.89484	166.18275	147.87763	63.29795	0.3127	 	8.94943E10	 	4.48921E-11	 	16844.217	41.6422	 
545.0	1.0	0.0	7.486	7.27673	-8.04458	13.9866	23.94814	1.11321	0.8983	166.80272	148.27463	63.54355	0.31251	 	1.09398E11	 	3.65015E-11	 	16637.601	41.3232	 
540.0	1.0	0.0	7.48776	7.27502	-8.06616	13.96715	23.8941	1.10891	0.90178	167.41982	148.66827	63.78813	0.31231	 	1.34059E11	 	2.96048E-11	 	16432.542	41.0118	 
535.0	1.0	0.0	7.48952	7.27332	-8.0877	13.94769	23.83961	1.10461	0.90529	168.034	149.05851	64.03167	0.31212	 	1.64693E11	 	2.395E-11	 	16229.006	40.7072	 
530.0	1.0	0.0	7.49127	7.27162	-8.10918	13.92824	23.78466	1.10032	0.90883	168.64523	149.44534	64.27416	0.31192	 	2.02846E11	 	1.93249E-11	 	16026.955	40.4102	 
525.0	1.0	0.0	7.49301	7.26992	-8.1306	13.90879	23.72925	1.09602	0.91239	169.25348	149.82872	64.51558	0.31173	 	2.5049E11	 	1.55518E-11	 	15826.358	40.1194	 
520.0	1.0	0.0	7.49476	7.26823	-8.15198	13.88933	23.67338	1.09172	0.91598	169.85869	150.20865	64.75592	0.31153	 	3.1015E11	 	1.24816E-11	 	15627.183	39.835	 
515.0	1.0	0.0	7.4965	7.26654	-8.1733	13.86988	23.61706	1.08743	0.9196	170.46085	150.58509	64.99516	0.31133	 	3.8506E11	 	9.99003E-12	 	15429.398	39.557	 
510.0	1.0	0.0	7.49824	7.26486	-8.19457	13.85043	23.56028	1.08313	0.92325	171.0599	150.95803	65.23329	0.31114	 	4.79387E11	 	7.97344E-12	 	15232.975	39.2846	 
505.0	1.0	0.0	7.49997	7.26318	-8.21579	13.83098	23.50306	1.07884	0.92692	171.65581	151.32744	65.47029	0.31094	 	5.98503E11	 	6.34576E-12	 	15037.884	39.0182	 
500.0	1.0	0.0	7.5017	7.26151	-8.23695	13.81153	23.4454	1.07454	0.93063	172.24855	151.6933	65.70615	0.31075	 	7.49365E11	 	5.03567E-12	 	14844.099	38.757	 
495.0	1.0	0.0	7.50342	7.25984	-8.25806	13.79208	23.38731	1.07025	0.93437	172.83808	152.05559	65.94086	0.31055	 	9.41003E11	 	3.9842E-12	 	14651.594	38.501	 
490.0	1.0	0.0	7.50515	7.25817	-8.27912	13.77263	23.32881	1.06595	0.93813	173.42437	152.4143	66.17439	0.31036	 	1.18518E12	 	3.14276E-12	 	14460.343	38.2502	 
485.0	1.0	0.0	7.50687	7.25651	-8.30013	13.75319	23.26989	1.06164	0.94194	174.00737	152.76939	66.40674	0.31016	 	1.49727E12	 	2.47139E-12	 	14270.323	38.004	 
480.0	1.0	0.0	7.50858	7.25485	-8.32108	13.73374	23.21058	1.05734	0.94577	174.58705	153.12086	66.6379	0.30997	 	1.89742E12	 	1.93734E-12	 	14081.508	37.763	 
475.0	1.0	0.0	7.51029	7.25319	-8.34199	13.71429	23.15089	1.05302	0.94965	175.16337	153.46867	66.86784	0.30977	 	2.41213E12	 	1.51382E-12	 	13893.878	37.526	 
470.0	1.0	0.0	7.512	7.25154	-8.36283	13.69485	23.09084	1.04871	0.95355	175.73631	153.81282	67.09656	0.30958	 	3.07639E12	 	1.17902E-12	 	13707.411	37.2934	 
465.0	1.0	0.0	7.51371	7.2499	-8.38363	13.6754	23.03043	1.04438	0.9575	176.30582	154.15327	67.32403	0.30938	 	3.93653E12	 	9.15203E-13	 	13522.085	37.0652	 
460.0	1.0	0.0	7.51541	7.24826	-8.40437	13.65596	22.96969	1.04005	0.96149	176.87188	154.49002	67.55025	0.30919	 	5.05413E12	 	7.08E-13	 	13337.88	36.841	 
455.0	1.0	0.0	7.51711	7.24662	-8.42506	13.63651	22.90864	1.03571	0.96552	177.43444	154.82304	67.77521	0.30899	 	6.51132E12	 	5.45807E-13	 	13154.777	36.6206	 
450.0	1.0	0.0	7.5188	7.24499	-8.4457	13.61707	22.84728	1.03136	0.96959	177.99347	155.15232	67.99888	0.3088	 	8.41808E12	 	4.19278E-13	 	12972.756	36.4042	 
445.0	1.0	0.0	7.52049	7.24336	-8.46629	13.59763	22.78566	1.027	0.97371	178.54894	155.47783	68.22126	0.3086	 	1.09222E13	 	3.20916E-13	 	12791.8	36.1912	 
440.0	1.0	0.0	7.52218	7.24173	-8.48682	13.57819	22.72377	1.02263	0.97787	179.10081	155.79956	68.44233	0.30841	 	1.42231E13	 	2.44722E-13	 	12611.891	35.9818	 
435.0	1.0	0.0	7.52387	7.24011	-8.5073	13.55875	22.66164	1.01824	0.98208	179.64906	156.1175	68.66207	0.30821	 	1.85907E13	 	1.85915E-13	 	12433.011	35.776	 
430.0	1.0	0.0	7.52555	7.2385	-8.52773	13.53931	22.5993	1.01384	0.98635	180.19364	156.43162	68.88049	0.30802	 	2.43923E13	 	1.40696E-13	 	12255.144	35.5734	 
425.0	1.0	0.0	7.52722	7.23688	-8.54811	13.51987	22.53676	1.00943	0.99066	180.73453	156.74191	69.09755	0.30782	 	3.21292E13	 	1.06056E-13	 	12078.274	35.374	 
420.0	1.0	0.0	7.5289	7.23527	-8.56843	13.50043	22.47405	1.00499	0.99503	181.2717	157.04835	69.31326	0.30763	 	4.24886E13	 	7.96236E-14	 	11902.385	35.1778	 
415.0	1.0	0.0	7.53057	7.23367	-8.5887	13.48099	22.41118	1.00054	0.99946	181.8051	157.35093	69.52759	0.30743	 	5.64168E13	 	5.95335E-14	 	11727.463	34.9844	 
410.0	1.0	0.0	7.53223	7.23207	-8.60892	13.46155	22.34818	0.99607	1.00394	182.33472	157.64963	69.74053	0.30724	 	7.52224E13	 	4.43257E-14	 	11553.492	34.7942	 
405.0	1.0	0.0	7.53389	7.23048	-8.62908	13.44211	22.28506	0.99158	1.00849	182.86051	157.94443	69.95208	0.30704	 	1.00723E14	 	3.28612E-14	 	11380.458	34.6068	 
400.0	1.0	0.0	7.53555	7.22888	-8.6492	13.42268	22.22185	0.98707	1.0131	183.38246	158.23533	70.16221	0.30685	 	1.3545399999999998E14	 	2.42552E-14	 	11208.348	34.422	 
395.0	1.0	0.0	7.53721	7.2273	-8.66926	13.40324	22.15857	0.98254	1.01777	183.90052	158.52231	70.37093	0.30665	 	1.82971E14	 	1.78229E-14	 	11037.148	34.24	 
390.0	1.0	0.0	7.53886	7.22571	-8.68927	13.38381	22.09523	0.97798	1.02251	184.41467	158.80535	70.5782	0.30646	 	2.48281E14	 	1.30363E-14	 	10866.845	34.0606	 
385.0	1.0	0.0	7.54051	7.22413	-8.70922	13.36437	22.03186	0.9734	1.02733	184.92488	159.08444	70.78403	0.30626	 	3.38467E14	 	9.49064E-15	 	10697.427	33.8836	 
380.0	1.0	0.0	7.54215	7.22256	-8.72912	13.34494	21.96847	0.96879	1.03221	185.43112	159.35956	70.9884	0.30607	 	4.63607E14	 	6.87622E-15	 	10528.881	33.7092	 
375.0	1.0	0.0	7.54379	7.22099	-8.74897	13.32551	21.90508	0.96416	1.03717	185.93337	159.63072	71.1913	0.30587	 	6.38105E14	 	4.95758E-15	 	10361.194	33.5374	 
370.0	1.0	0.0	7.54543	7.21942	-8.76877	13.30607	21.84171	0.9595	1.04221	186.43158	159.89788	71.39272	0.30568	 	8.82656E14	 	3.55638E-15	 	10194.357	33.3674	 
365.0	1.0	0.0	7.54706	7.21786	-8.78852	13.28664	21.77838	0.95481	1.04733	186.92575	160.16105	71.59265	0.30548	 	1.22715E15	 	2.53811E-15	 	10028.356	33.2002	 
360.0	1.0	0.0	7.54869	7.2163	-8.80821	13.26721	21.7151	0.95009	1.05254	187.41583	160.42021	71.79107	0.30529	 	1.71501E15	 	1.80189E-15	 	9863.181	33.035	 
355.0	1.0	0.0	7.55032	7.21475	-8.82785	13.24778	21.65188	0.94533	1.05783	187.90181	160.67535	71.98798	0.30509	 	2.40961E15	 	1.27234E-15	 	9698.822	32.8718	 
350.0	1.0	0.0	7.55194	7.2132	-8.84744	13.22835	21.58874	0.94055	1.06321	188.38366	160.92646	72.18336	0.3049	 	3.40407E15	 	8.93471E-16	 	9535.267	32.711	 
345.0	1.0	0.0	7.55356	7.21165	-8.86697	13.20892	21.5257	0.93574	1.06868	188.86135	161.17354	72.37721	0.3047	 	4.83591E15	 	6.23882E-16	 	9372.507	32.552	 
340.0	1.0	0.0	7.55517	7.21011	-8.88646	13.18949	21.46276	0.93089	1.07424	189.33486	161.41657	72.56951	0.30451	 	6.90945E15	 	4.33122E-16	 	9210.531	32.3952	 
335.0	1.0	0.0	7.55679	7.20857	-8.90589	13.17007	21.39994	0.92601	1.0799	189.80416	161.65554	72.76025	0.30431	 	9.93019E15	 	2.9891E-16	 	9049.329	32.2404	 
330.0	1.0	0.0	7.55839	7.20704	-8.92526	13.15064	21.33724	0.9211	1.08566	190.26924	161.89045	72.94944	0.30412	 	1.43576E16	 	2.05035E-16	 	8888.893	32.0872	 
325.0	1.0	0.0	7.56	7.20551	-8.94459	13.13121	21.27467	0.91615	1.09153	190.73007	162.12129	73.13705	0.30392	 	2.08875E16	 	1.39769E-16	 	8729.213	31.936	 
320.0	1.0	0.0	7.5616	7.20398	-8.96386	13.11179	21.21225	0.91116	1.0975	191.18663	162.34806	73.32307	0.30373	 	3.05797E16	 	9.46714E-17	 	8570.28	31.7866	 
315.0	1.0	0.0	7.5632	7.20246	-8.98308	13.09236	21.14998	0.90614	1.10358	191.63889	162.57075	73.50751	0.30353	 	4.50603E16	 	6.3706E-17	 	8412.084	31.6392	 
310.0	1.0	0.0	7.56479	7.20095	-9.00225	13.07294	21.08787	0.90108	1.10977	192.08685	162.78935	73.69034	0.30334	 	6.6841100000000008E16	 	4.25818E-17	 	8254.619	31.493	 
305.0	1.0	0.0	7.56638	7.19943	-9.02136	13.05351	21.02592	0.89599	1.11608	192.53047	163.00387	73.87157	0.30314	 	9.98285E16	 	2.82665E-17	 	8097.874	31.349	 
300.0	1.0	0.0	7.56796	7.19792	-9.04043	13.03409	20.96414	0.89086	1.12251	192.96975	163.21429	74.05118	0.30295	 	1.50143E17	 	1.86316E-17	 	7941.842	31.2064	 
295.0	1.0	0.0	7.56955	7.19642	-9.05944	13.01467	20.90252	0.88569	1.12906	193.40466	163.42062	74.22917	0.30275	 	2.27444E17	 	1.2192E-17	 	7786.515	31.0654	 
290.0	1.0	0.0	7.57112	7.19492	-9.0784	12.99525	20.84108	0.88048	1.13574	193.83519	163.62286	74.40553	0.30256	 	3.47095E17	 	7.91885E-18	 	7631.885	30.926	 
285.0	1.0	0.0	7.5727	7.19342	-9.0973	12.97583	20.77981	0.87524	1.14254	194.26132	163.821	74.58026	0.30236	 	5.33716E17	 	5.10419E-18	 	7477.944	30.7882	 
280.0	1.0	0.0	7.57427	7.19193	-9.11615	12.95641	20.71872	0.86996	1.14948	194.68304	164.01504	74.75334	0.30217	 	8.27086E17	 	3.26421E-18	 	7324.686	30.6516	 
275.0	1.0	0.0	7.57584	7.19044	-9.13495	12.93699	20.65781	0.86464	1.15656	195.10034	164.20499	74.92478	0.30197	 	1.292E18	 	2.07073E-18	 	7172.103	30.5166	 
270.0	1.0	0.0	7.5774	7.18896	-9.1537	12.91757	20.59707	0.85927	1.16377	195.51321	164.39085	75.09456	0.30178	 	2.03488E18	 	1.30277E-18	 	7020.187	30.3832	 
265.0	1.0	0.0	7.57896	7.18748	-9.1724	12.89815	20.53651	0.85388	1.17113	195.92163	164.57262	75.26268	0.30159	 	3.23208E18	 	8.12658E-19	 	6868.933	30.2508	 
260.0	1.0	0.0	7.58052	7.18601	-9.19104	12.87873	20.47612	0.84844	1.17864	196.32559	164.7503	75.42915	0.30139	 	5.17839E18	 	5.02506E-19	 	6718.333	30.12	 
255.0	1.0	0.0	7.58207	7.18453	-9.20963	12.85932	20.4159	0.84296	1.1863	196.72509	164.92391	75.59394	0.3012	 	8.3711E18	 	3.07937E-19	 	6568.38	29.9906	 
250.0	1.0	0.0	7.58362	7.18307	-9.22817	12.8399	20.35584	0.83744	1.19411	197.12012	165.09344	75.75707	0.301	 	1.36571E19	 	1.86963E-19	 	6419.07	29.862	 
245.0	1.0	0.0	7.58516	7.18161	-9.24665	12.82048	20.29595	0.83189	1.20209	197.51068	165.25891	75.91853	0.30081	 	2.24924E19	 	1.12436E-19	 	6270.395	29.735	 
240.0	1.0	0.0	7.5867	7.18015	-9.26509	12.80107	20.23623	0.82629	1.21023	197.89677	165.42033	76.07831	0.30061	 	3.74056E19	 	6.69568E-20	 	6122.35	29.609	 
235.0	1.0	0.0	7.58824	7.17869	-9.28347	12.78165	20.17665	0.82065	1.21854	198.27837	165.5777	76.23642	0.30042	 	6.28324E19	 	3.94725E-20	 	5974.928	29.4844	 
230.0	1.0	0.0	7.58977	7.17724	-9.3018	12.76224	20.11723	0.81498	1.22702	198.65549	165.73104	76.39285	0.30022	 	1.0663699999999998E20	 	2.30291E-20	 	5828.125	29.3606	 
225.0	1.0	0.0	7.5913	7.1758	-9.32007	12.74283	20.05795	0.80927	1.23569	199.02814	165.88036	76.54761	0.30003	 	1.82913E20	 	1.32924E-20	 	5681.935	29.238	 
220.0	1.0	0.0	7.59283	7.17435	-9.33829	12.72342	19.99882	0.80351	1.24454	199.39632	166.02567	76.70069	0.29983	 	3.1719899999999997E20	 	7.58812E-21	 	5536.353	29.1164	 
215.0	1.0	0.0	7.59435	7.17292	-9.35646	12.704	19.93982	0.79772	1.25357	199.76003	166.167	76.8521	0.29964	 	5.5630999999999993E20	 	4.28275E-21	 	5391.374	28.9958	 
210.0	1.0	0.0	7.59587	7.17148	-9.37458	12.68459	19.88094	0.79189	1.26281	200.11927	166.30436	77.00184	0.29944	 	9.870799999999999E20	 	2.389E-21	 	5246.992	28.8764	 
205.0	1.0	0.0	7.59738	7.17005	-9.39265	12.66518	19.82219	0.78601	1.27224	200.47407	166.43777	77.14991	0.29925	 	1.7725400000000001E21	 	1.3166E-21	 	5103.204	28.7576	 
200.0	1.0	0.0	7.59889	7.16863	-9.41066	12.64577	19.76356	0.7801	1.28188	200.82444	166.56725	77.29631	0.29906	 	3.22265E21	 	7.16592E-22	 	4960.005	28.6398	 
195.0	1.0	0.0	7.6004	7.16721	-9.42862	12.62636	19.70503	0.77415	1.29174	201.17037	166.69282	77.44106	0.29886	 	5.93439E21	 	3.85031E-22	 	4817.391	28.5228	 
190.0	1.0	0.0	7.6019	7.16579	-9.44653	12.60696	19.64661	0.76816	1.30181	201.51191	166.81452	77.58415	0.29867	 	1.1073E22	 	2.04148E-22	 	4675.357	28.4068	 
185.0	1.0	0.0	7.6034	7.16437	-9.46439	12.58755	19.58828	0.76213	1.31211	201.84906	166.93237	77.7256	0.29847	 	2.09442E22	 	1.06765E-22	 	4533.9	28.2914	 
180.0	1.0	0.0	7.6049	7.16297	-9.48219	12.56814	19.53004	0.75606	1.32265	202.18185	167.04639	77.86541	0.29828	 	4.01766E22	 	5.50497E-23	 	4393.017	28.1766	 
175.0	1.0	0.0	7.60639	7.16156	-9.49994	12.54874	19.47188	0.74995	1.33342	202.5103	167.15663	78.00358	0.29808	 	7.8198E22	 	2.79714E-23	 	4252.703	28.0628	 
170.0	1.0	0.0	7.60788	7.16016	-9.51764	12.52933	19.4138	0.7438	1.34444	202.83444	167.26311	78.14014	0.29789	 	1.54505E23	 	1.39989E-23	 	4112.956	27.9494	 
165.0	1.0	0.0	7.60936	7.15876	-9.53529	12.50993	19.35579	0.73761	1.35572	203.15431	167.36588	78.2751	0.29769	 	3.1005699999999995E23	 	6.89712E-24	 	3973.773	27.8366	 
160.0	1.0	0.0	7.61084	7.15737	-9.55288	12.49052	19.29783	0.73139	1.36726	203.46995	167.46497	78.40846	0.2975	 	6.32301E23	 	3.3435E-24	 	3835.151	27.7244	 
155.0	1.0	0.0	7.61232	7.15598	-9.57042	12.47112	19.23993	0.72512	1.37908	203.78138	167.56043	78.54024	0.29731	 	1.31109E24	 	1.59385E-24	 	3697.087	27.6128	 
150.0	1.0	0.0	7.61379	7.1546	-9.58791	12.45172	19.18208	0.71881	1.39118	204.08866	167.65231	78.67046	0.29711	 	2.76585E24	 	7.46711E-25	 	3559.58	27.5014	 
145.0	1.0	0.0	7.61526	7.15322	-9.60535	12.43231	19.12427	0.71247	1.40357	204.39183	167.74065	78.79913	0.29692	 	5.939870000000001E24	 	3.43591E-25	 	3422.628	27.3904	 
140.0	1.0	0.0	7.61672	7.15184	-9.62274	12.41291	19.0665	0.70608	1.41627	204.69095	167.82551	78.92628	0.29672	 	1.29945E25	 	1.5518E-25	 	3286.228	27.28	 
135.0	1.0	0.0	7.61819	7.15047	-9.64007	12.39351	19.00875	0.69966	1.42928	204.98608	167.90694	79.05192	0.29653	 	2.89782E25	 	6.8744E-26	 	3150.379	27.1698	 
130.0	1.0	0.0	7.61964	7.14911	-9.65735	12.37411	18.95102	0.69319	1.44261	205.27727	167.98501	79.17609	0.29633	 	6.5921E25	 	2.9849E-26	 	3015.081	27.0596	 
125.0	1.0	0.0	7.6211	7.14774	-9.67457	12.35471	18.89331	0.68668	1.45628	205.56459	168.05978	79.2988	0.29614	 	1.5308800000000001E26	 	1.26938E-26	 	2880.332	26.9498	 
120.0	1.0	0.0	7.62255	7.14638	-9.69175	12.33531	18.8356	0.68014	1.47029	205.84813	168.13132	79.42008	0.29595	 	3.6321600000000004E26	 	5.28299E-27	 	2746.132	26.84	 
115.0	1.0	0.0	7.62399	7.14503	-9.70887	12.31591	18.77789	0.67355	1.48467	206.12795	168.19971	79.53997	0.29575	 	8.811650000000001E26	 	2.14995E-27	 	2612.481	26.7302	 
110.0	1.0	0.0	7.62543	7.14368	-9.72594	12.29652	18.72018	0.66692	1.49942	206.40414	168.26502	79.65849	0.29556	 	2.18773E27	 	8.54794E-28	 	2479.379	26.6204	 
105.0	1.0	0.0	7.62687	7.14233	-9.74296	12.27712	18.66246	0.66026	1.51456	206.6768	168.32734	79.77568	0.29536	 	5.56385E27	 	3.31723E-28	 	2346.827	26.5104	 
100.0	1.0	0.0	7.6283	7.14099	-9.75992	12.25772	18.60472	0.65355	1.53011	206.94603	168.38676	79.89158	0.29517	 	1.45084E28	 	1.25531E-28	 	2214.825	26.4004	 
95.0	1.0	0.0	7.62973	7.13965	-9.77684	12.23833	18.54695	0.6468	1.54607	207.21194	168.44338	80.00624	0.29497	 	3.88303E28	 	4.62743E-29	 	2083.375	26.29	 
90.0	1.0	0.0	7.63116	7.13832	-9.7937	12.21893	18.48916	0.64001	1.56248	207.47464	168.49729	80.11968	0.29478	 	1.06781E29	 	1.65988E-29	 	1952.479	26.1792	 
85.0	1.0	0.0	7.63258	7.13699	-9.81051	12.19954	18.43132	0.63318	1.57933	207.73426	168.54861	80.23198	0.29459	 	3.0205600000000004E29	 	5.78715E-30	 	1822.139	26.068	 
80.0	1.0	0.0	7.634	7.13566	-9.82726	12.18015	18.37345	0.62631	1.59666	207.99093	168.59746	80.34316	0.29439	 	8.79965E29	 	1.95876E-30	 	1692.358	25.9562	 
75.0	1.0	0.0	7.63541	7.13434	-9.84397	12.16075	18.31552	0.61939	1.61449	208.24481	168.64396	80.4533	0.2942	 	2.64352E30	 	6.42792E-31	 	1563.139	25.8438	 
70.0	1.0	0.0	7.63683	7.13302	-9.86062	12.14136	18.25754	0.61243	1.63283	208.49604	168.68825	80.56245	0.294	 	8.20014E30	 	2.04244E-31	 	1434.486	25.7306	 
65.0	1.0	0.0	7.63823	7.13171	-9.87722	12.12197	18.19949	0.60544	1.6517	208.74481	168.73047	80.67068	0.29381	 	2.63026E31	 	6.27476E-32	 	1306.402	25.6168	 
60.0	1.0	0.0	7.63963	7.1304	-9.89376	12.10258	18.14138	0.59839	1.67114	208.99128	168.77076	80.77805	0.29361	 	8.73716E31	 	1.86104E-32	 	1178.894	25.5016	 
55.0	1.0	0.0	7.64103	7.12909	-9.91026	12.08319	18.08319	0.59131	1.69116	209.23565	168.8093	80.88465	0.29342	 	3.0104399999999998E32	 	5.32022E-33	 	1051.967	25.3854	 
50.0	1.0	0.0	7.64243	7.12779	-9.9267	12.0638	18.02492	0.58418	1.71179	209.47814	168.84626	80.99054	0.29323	 	1.0777400000000001E33	 	1.46344E-33	 	925.628	25.2678	 
45.0	1.0	0.0	7.64382	7.12649	-9.94309	12.04441	17.96656	0.57701	1.73307	209.71898	168.88183	81.09583	0.29303	 	4.01615E33	 	3.86642E-34	 	799.882	25.1492	 
40.0	1.0	0.0	7.64521	7.1252	-9.95942	12.02502	17.9081	0.5698	1.75501	209.9584	168.9162	81.2006	0.29284	 	1.5608000000000002E34	 	9.79244E-35	 	674.739	25.0286	 
35.0	1.0	0.0	7.64659	7.12391	-9.97571	12.00564	17.84954	0.56254	1.77765	210.19667	168.94959	81.30496	0.29264	 	6.338960000000001E34	 	2.37264E-35	 	550.207	24.9064	 
30.0	1.0	0.0	7.64797	7.12263	-9.99194	11.98625	17.79087	0.55524	1.80103	210.43408	168.98224	81.40901	0.29245	 	2.6962899999999997E35	 	5.48755E-36	 	426.296	24.7822	 
25.0	1.0	0.0	7.64934	7.12135	-10.00812	 	17.73208	0.54789	1.82519	210.67092	169.01438	81.51288	0.29226	 	1.20393E36	 	1.2087E-36	 	303.017	 	 
