T (C)	Fraction solid (wt)-TOTAL	Fraction liquid (wt)-LIQUID	Density (g/(cm)^3)-TOTAL	Molar volume (cm^3)-TOTAL	Volume change (%)-  	Average expansion coeff. (10e-6 1/K)-  	Thermal conductivity (W/(m*K))-TOTAL	Electrical resistivity (10e-6 Ohm*m)-TOTAL	Electrical conductivity (10e6 1/(Ohm*m))-TOTAL	Young's modulus (GPa)-TOTAL	Bulk modulus (GPa)-TOTAL	Shear modulus(GPa)-TOTAL	Poisson's ratio-TOTAL	Liquid viscosity (mPa s)-  	Total viscosity (mPa s)-  	Liquid diffusivity (10e-9 (m^2)/s)-  	Total diffusivity (10e-9 (m^2)/s)-  	Surface Tension (mN/m)-  	Enthalpy (J/mole)-TOTAL	Specific heat (J/(mole K))-TOTAL	Latent heat (J/mole)-TOTAL
1500.0	0.0	1.0	6.86536	7.94678	0.0	25.44424	30.50627	1.89397	0.52799	0.0	103.49371	0.0	0.4978	6.65362	6.65362	1.30069	1.30069	1767.00932	62719.615	 	0.0
1495.0	0.0	1.0	6.86919	7.94234	-0.0558354	25.38992	30.43605	1.89299	0.52826	0.0	103.68065	0.0	0.4978	6.71113	6.71113	1.28591	1.28591	1768.74321	62500.476	43.8278	0.0
1490.0	0.0	1.0	6.87302	7.93791	-0.11152	25.33561	30.36582	1.892	0.52854	0.0	103.86759	0.0	0.4978	6.76947	6.76947	1.27122	1.27122	1770.47285	62281.863	43.7226	0.0
1485.0	0.0	1.0	6.87685	7.9335	-0.16705	25.28131	30.29559	1.89101	0.52882	0.0	104.05454	0.0	0.4978	6.82865	6.82865	1.25663	1.25663	1772.19819	62063.775	43.6176	0.0
1480.0	0.0	1.0	6.88066	7.9291	-0.22244	25.22703	30.22536	1.89002	0.5291	0.0	104.24148	0.0	0.4978	6.88869	6.88869	1.24214	1.24214	1773.91919	61846.207	43.5136	0.0
1475.0	0.0	1.0	6.88447	7.92471	-0.27767	25.17275	30.15514	1.88901	0.52938	0.0	104.42842	0.0	0.4978	6.94961	6.94961	1.22774	1.22774	1775.63579	61629.156	43.4102	0.0
1470.0	0.0	1.0	6.88828	7.92033	-0.33275	25.11848	30.08491	1.88801	0.52966	0.0	104.61536	0.0	0.4978	7.01142	7.01142	1.21343	1.21343	1777.34794	61412.619	43.3074	0.0
1465.0	0.0	1.0	6.89208	7.91597	-0.38768	25.06423	30.01468	1.887	0.52994	0.0	104.80231	0.0	0.4978	7.07414	7.07414	1.19922	1.19922	1779.05558	61196.591	43.2056	0.0
1460.0	0.0	1.0	6.89587	7.91162	-0.44246	25.00999	29.94445	1.88598	0.53023	0.0	104.98925	0.0	0.4978	7.13779	7.13779	1.18511	1.18511	1780.75867	60981.07	43.1042	0.0
1455.0	0.0	1.0	6.89966	7.90727	-0.49709	24.95575	29.87423	1.88496	0.53051	0.0	105.17619	0.0	0.4978	7.20238	7.20238	1.17109	1.17109	1782.45714	60766.052	43.0036	0.0
1451.8	0.0	1.0	6.90207	7.90451	-0.53192	24.92111	29.82935	1.88431	0.5307	0.0	105.29565	0.0	0.4978	7.24416	7.24416	1.16219	1.16219	1783.54008	60628.912	42.9213	0.0030
1450.0	0.0750103	0.92499	6.91572	7.88889	-0.7284	24.44132	30.08272	1.86648	0.53577	0.00168075	102.40276	5.65241E-4	0.48675	7.2503	8.09473	1.15999	1.03898	1782.61913	59870.657	420.121	680.886
1445.0	0.25023	0.74977	6.94852	7.85173	-1.19602	23.30609	30.68464	1.82456	0.54808	0.21345	95.6737	0.0730628	0.46074	7.2682	22.77145	1.15377	0.36826	1780.18674	58068.465	360.438	2269.1
1440.0	0.38262	0.61738	6.97442	7.82272	-1.56115	22.43146	31.14775	1.7922	0.55797	1.1919	90.6581	0.4136	0.44087	7.28725	84.72576	1.14741	0.0986885	1777.89678	56661.106	281.472	3463.004
1435.0	0.48528	0.51472	6.99543	7.79946	-1.85376	21.74137	31.51154	1.76634	0.56614	3.14143	86.84756	1.10202	0.42531	7.30766	210.85273	1.14087	0.0395397	1775.73033	55528.977	226.426	4382.197
1430.0	0.56656	0.43344	7.01297	7.78026	-2.09541	21.18088	31.79996	1.7452	0.573	5.93229	83.91216	2.09935	0.41289	7.32878	398.90235	1.13425	0.0208388	1773.67602	54595.207	186.754	5103.55
1425.0	0.63205	0.36795	7.02788	7.76412	-2.29846	20.71865	32.02997	1.72758	0.57885	9.32644	81.62807	3.32423	0.4028	7.35086	639.32876	1.12752	0.012964	1771.71927	53807.891	157.463	5678.958
1420.0	0.68568	0.31432	7.04081	7.75024	-2.47317	20.32843	32.21362	1.71267	0.58388	13.09584	79.83667	4.69564	0.39447	7.37376	921.87154	1.12071	0.0089642	1769.85183	53130.698	135.439	6144.754
1415.0	0.73008	0.26992	7.05218	7.73815	-2.62533	19.99558	32.35991	1.69989	0.58827	17.04948	78.43039	6.1439	0.38751	7.39749	1237.28456	1.11382	0.00665929	1768.06319	52538.671	118.405	6525.889
1410.0	0.76728	0.23272	7.06232	7.72747	-2.75964	19.70812	32.47603	1.6888	0.59214	21.05085	77.32755	7.61805	0.38164	7.42196	1578.73263	1.10685	0.00520356	1766.3446	52013.265	105.081	6840.905
1405.0	0.79872	0.20128	7.07145	7.71796	-2.87932	19.45791	32.56751	1.67905	0.59557	25.00663	76.46719	9.0825	0.37664	7.44746	1941.42806	1.09979	0.00421887	1764.68718	51540.716	94.5098	7103.559
1400.0	0.82557	0.17443	7.07981	7.70934	-2.98781	19.23604	32.63872	1.6704	0.59866	28.8584	75.80239	10.51438	0.37233	7.47337	2322.30051	1.09271	0.00351644	1763.08759	51110.403	86.0626	7324.472
1395.0	0.84866	0.15134	7.08749	7.70146	-3.08694	19.03789	32.69301	1.66264	0.60145	32.5688	75.29763	11.89865	0.36859	7.50018	2719.41184	1.08555	0.00299397	1761.53889	50714.569	79.1668	7511.398
1390.0	0.86859	0.13141	7.09461	7.69424	-3.17782	18.86072	32.73292	1.65563	0.604	36.10652	74.92807	13.22258	0.36534	7.52793	3130.90491	1.07831	0.00259268	1760.03435	50347.369	73.44	7670.175
1385.0	0.88589	0.11411	7.10125	7.68754	-3.26217	18.70005	32.76074	1.64926	0.60633	39.4645	74.67082	14.48262	0.36248	7.55597	3556.53817	1.07108	0.00227553	1758.57264	50003.937	68.6864	7805.669
1380.0	0.90099	0.0990118	7.10749	7.68128	-3.34089	18.55359	32.77813	1.64341	0.60849	42.63716	74.50866	15.67591	0.35996	7.58482	3996.11034	1.06378	0.00201912	1757.14901	49680.401	64.7072	7921.747
1378.16	0.90649	0.0935072	7.10985	7.67894	-3.37037	18.49809	32.7843	1.64127	0.60929	43.84917	74.45404	16.13244	0.35904	7.59558	4169.88719	1.06109	0.00193281	1756.62905	49562.71	 	7963.019
1375.0	0.91864	0.08136	7.11507	7.67383	-3.43474	18.36449	32.80728	1.63698	0.61088	46.57736	74.2646	17.16141	0.35704	7.61759	4537.55154	1.05601	0.00177281	1756.2926	49335.485	68.9832	8059.683
1370.0	0.93535	0.0646548	7.12261	7.66649	-3.527	18.17837	32.83186	1.6308	0.6132	50.60207	74.06978	18.68256	0.35426	7.65324	5125.962	1.0479	0.00156455	1755.7517	48999.175	67.262	8189.489
1365.0	0.9494	0.0506017	7.1294	7.65995	-3.60937	18.01822	32.8439	1.62524	0.61529	54.26769	73.98465	20.07104	0.35189	7.6894	5721.21859	1.0398	0.0013975	1755.20649	48687.564	62.3222	8295.067
1360.0	0.9613	0.0387017	7.13558	7.65404	-3.68374	17.8791	32.84564	1.62019	0.61721	57.6058	73.98881	21.33779	0.34985	7.72588	6325.41552	1.03173	0.00126015	1754.65767	48395.707	58.3714	8381.361
1357.44	0.96922	0.0307812	7.13949	7.65045	-3.72885	17.78787	32.8553	1.61718	0.61836	59.85502	73.93016	22.19275	0.34853	7.74483	6709.06273	1.02759	0.00118623	1754.37317	48237.276	 	8434.85
1355.0	0.97351	0.0264875	7.14197	7.64801	-3.75959	17.73481	32.84422	1.6153	0.61908	61.22233	74.03218	22.7121	0.34779	7.77499	7010.53885	1.02207	0.00113352	1753.95255	48103.006	58.5402	8468.966
1350.0	0.98071	0.0192913	7.14658	7.64345	-3.81701	17.64104	32.8156	1.61174	0.62045	63.66149	74.29201	23.63922	0.34652	7.83802	7617.36637	1.01074	0.00104002	1753.14055	47842.764	52.0484	8524.576
1345.0	0.98617	0.0138303	7.15067	7.63937	-3.86833	17.56366	32.78052	1.6085	0.6217	65.6857	74.60435	24.40918	0.34551	7.90374	8215.20558	0.99925	9.61362E-4	1752.3656	47598.655	48.8218	8564.513
1340.0	0.99024	0.00976227	7.15431	7.63569	-3.91468	17.49972	32.74012	1.60551	0.62286	67.35841	74.95932	25.04569	0.34471	7.97207	8808.79032	0.98762	8.9381E-4	1751.61884	47366.969	46.3372	8592.486
1335.0	0.99318	0.00681638	7.1576	7.63232	-3.957	17.44671	32.69515	1.60273	0.62393	68.73455	75.34906	25.56939	0.34408	8.04226	9402.584	0.97597	8.34768E-4	1750.90771	47144.861	44.4216	8611.335
1330.0	0.99474	0.00525911	7.16037	7.62939	-3.9939	17.40869	32.6441	1.60025	0.6249	69.71751	75.78291	25.94311	0.34366	8.11498	9981.48563	0.96421	7.83909E-4	1750.22106	46933.811	42.21	8619.58
1325.0	0.99611	0.00388825	7.16311	7.6265	-4.03022	17.37203	32.59256	1.59778	0.62587	70.65537	76.2228	26.29975	0.34327	8.1902	10590.47196	0.95238	7.36527E-4	1749.55646	46724.86	41.7902	8626.176
1320.36	0.99719	0.00280655	7.16559	7.62388	-4.06324	17.33975	32.54417	1.59551	0.62676	71.47625	76.63664	26.61194	0.34294	8.26179	11182.6236	0.94138	6.955E-4	1748.95962	46532.905	 	8630.674
1320.0	0.99728	0.00272462	7.16578	7.62368	-4.0658	17.33721	32.54052	1.59533	0.62683	71.53922	76.6682	26.63591	0.34291	8.26832	11229.472	0.94043	6.92443E-4	1748.86034	46518.233	41.3254	8630.892
1315.0	0.99833	0.0016708	7.16842	7.62086	-4.10125	17.30249	32.48925	1.59283	0.62781	72.39777	77.11226	26.96267	0.34256	8.35929	11902.40771	0.92728	6.51243E-4	1747.56034	46314.35	40.7766	8633.312
1310.0	0.99923	7.73089E-4	7.17101	7.61809	-4.1361	17.26922	32.43739	1.59035	0.62879	73.21509	77.56241	27.27376	0.34223	8.45135	12611.70346	0.91429	6.12682E-4	1746.32373	46112.065	40.457	8634.576
1305.0	1.0	0.0	7.17358	7.61536	-4.1705	17.23703	32.38507	1.58789	0.62977	74.00063	78.01771	27.57277	0.34191	 	13361.00489	 	5.76495E-4	 	45911.031	40.2068	8635.028
1300.0	1.0	0.0	7.17582	7.61298	-4.20041	17.21761	32.3295	1.58558	0.63068	74.53641	78.49046	27.77625	0.34173	 	14111.87253	 	5.44092E-4	 	45669.352	48.3358	 
1295.0	1.0	0.0	7.17805	7.61061	-4.23028	17.19819	32.27393	1.58326	0.63161	75.07508	78.96515	27.98085	0.34154	 	14910.16318	 	5.13324E-4	 	45473.693	39.1318	 
1290.0	1.0	0.0	7.18029	7.60824	-4.26009	17.17876	32.21836	1.58094	0.63254	75.61661	79.44173	28.18658	0.34136	 	15759.18858	 	4.84121E-4	 	45278.3	39.0786	 
1285.0	1.0	0.0	7.18252	7.60587	-4.28985	17.15933	32.16279	1.5786	0.63347	76.16096	79.92016	28.39342	0.34117	 	16662.51322	 	4.5641E-4	 	45083.172	39.0256	 
1280.0	1.0	0.0	7.18475	7.60351	-4.31956	17.1399	32.10723	1.57626	0.63441	76.7081	80.40039	28.60135	0.34099	 	17623.97524	 	4.30127E-4	 	44888.309	38.9726	 
1275.0	1.0	0.0	7.18698	7.60115	-4.34922	17.12047	32.05166	1.57391	0.63536	77.25798	80.88238	28.81037	0.3408	 	18647.70915	 	4.05204E-4	 	44693.707	38.9204	 
1270.0	1.0	0.0	7.1892	7.5988	-4.37882	17.10104	31.99609	1.57155	0.63631	77.81057	81.36608	29.02045	0.34062	 	19738.17067	 	3.81582E-4	 	44499.367	38.868	 
1265.0	1.0	0.0	7.19143	7.59645	-4.40838	17.0816	31.94052	1.56919	0.63727	78.36584	81.85145	29.23159	0.34043	 	20900.16367	 	3.59199E-4	 	44305.288	38.8158	 
1260.0	1.0	0.0	7.19365	7.59411	-4.43788	17.06217	31.88495	1.56681	0.63824	78.92375	82.33845	29.44377	0.34025	 	22138.8697	 	3.37999E-4	 	44111.467	38.7642	 
1255.0	1.0	0.0	7.19586	7.59177	-4.46733	17.04273	31.82938	1.56443	0.63921	79.48425	82.82702	29.65698	0.34006	 	23459.88007	 	3.17927E-4	 	43917.903	38.7128	 
1250.0	1.0	0.0	7.19808	7.58943	-4.49673	17.02329	31.77381	1.56204	0.64019	80.04732	83.31713	29.87121	0.33987	 	24869.23096	 	2.98928E-4	 	43724.596	38.6614	 
1245.0	1.0	0.0	7.20029	7.5871	-4.52607	17.00385	31.71824	1.55964	0.64118	80.61292	83.80874	30.08644	0.33969	 	26373.4417	 	2.80954E-4	 	43531.544	38.6104	 
1240.0	1.0	0.0	7.2025	7.58477	-4.55537	16.98441	31.66267	1.55723	0.64217	81.18101	84.3018	30.30266	0.3395	 	27979.55664	 	2.63954E-4	 	43338.745	38.5598	 
1235.0	1.0	0.0	7.20471	7.58245	-4.58461	16.96496	31.6071	1.55481	0.64316	81.75156	84.79626	30.51985	0.33932	 	29695.19087	 	2.47882E-4	 	43146.2	38.509	 
1230.0	1.0	0.0	7.20691	7.58013	-4.6138	16.94552	31.55153	1.55239	0.64417	82.32452	85.29209	30.73801	0.33913	 	31528.58026	 	2.32694E-4	 	42953.906	38.4588	 
1225.0	1.0	0.0	7.20912	7.57781	-4.64294	16.92607	31.49596	1.54995	0.64518	82.89986	85.78924	30.95712	0.33895	 	33488.63619	 	2.18346E-4	 	42761.862	38.4088	 
1220.0	1.0	0.0	7.21132	7.5755	-4.67203	16.90662	31.44039	1.54751	0.6462	83.47755	86.28767	31.17717	0.33876	 	35585.00547	 	2.04797E-4	 	42570.066	38.3592	 
1215.0	1.0	0.0	7.21351	7.57319	-4.70106	16.88717	31.38482	1.54506	0.64722	84.05755	86.78734	31.39813	0.33858	 	37828.13597	 	1.92008E-4	 	42378.516	38.31	 
1210.0	1.0	0.0	7.21571	7.57089	-4.73004	16.86772	31.32924	1.5426	0.64826	84.63982	87.28821	31.62001	0.33839	 	40229.34855	 	1.7994E-4	 	42187.211	38.261	 
1205.0	1.0	0.0	7.2179	7.56859	-4.75898	16.84826	31.27367	1.54013	0.6493	85.22433	87.79023	31.84279	0.3382	 	42800.91591	 	1.68559E-4	 	41996.148	38.2126	 
1200.0	1.0	0.0	7.22009	7.5663	-4.78785	16.82881	31.2181	1.53765	0.65034	85.81103	88.29336	32.06645	0.33802	 	45556.14907	 	1.57829E-4	 	41805.327	38.1642	 
1195.0	1.0	0.0	7.22228	7.56401	-4.81668	16.80935	31.16253	1.53517	0.6514	86.3999	88.79756	32.29097	0.33783	 	48509.49238	 	1.47717E-4	 	41614.745	38.1164	 
1190.0	1.0	0.0	7.22446	7.56172	-4.84546	16.78989	31.10696	1.53267	0.65246	86.99089	89.3028	32.51636	0.33765	 	51676.62774	 	1.38192E-4	 	41424.401	38.0688	 
1185.0	1.0	0.0	7.22664	7.55944	-4.87418	16.77043	31.05139	1.53017	0.65352	87.58398	89.80902	32.74259	0.33746	 	55074.58916	 	1.29222E-4	 	41234.292	38.0218	 
1180.0	1.0	0.0	7.22882	7.55716	-4.90285	16.75097	30.99582	1.52765	0.6546	88.17911	90.31619	32.96965	0.33728	 	58721.88877	 	1.20781E-4	 	41044.417	37.975	 
1175.0	1.0	0.0	7.231	7.55488	-4.93147	16.73151	30.94025	1.52513	0.65568	88.77627	90.82427	33.19753	0.33709	 	62638.6553	 	1.12839E-4	 	40854.773	37.9288	 
1170.0	1.0	0.0	7.23317	7.55261	-4.96004	16.71204	30.88467	1.5226	0.65677	89.3754	91.33322	33.42621	0.33691	 	66846.78661	 	1.0537E-4	 	40665.359	37.8828	 
1165.0	1.0	0.0	7.23534	7.55035	-4.98855	16.69258	30.8291	1.52006	0.65787	89.97648	91.843	33.65568	0.33672	 	71370.1176	 	9.835E-5	 	40476.173	37.8372	 
1160.0	1.0	0.0	7.23751	7.54809	-5.01701	16.67311	30.77353	1.51751	0.65897	90.57947	92.35357	33.88593	0.33653	 	76234.60522	 	9.17543E-5	 	40287.213	37.792	 
1155.0	1.0	0.0	7.23967	7.54583	-5.04543	16.65364	30.71796	1.51495	0.66009	91.18432	92.86488	34.11695	0.33635	 	81468.53245	 	8.556E-5	 	40098.476	37.7474	 
1150.0	1.0	0.0	7.24184	7.54357	-5.07378	16.63417	30.66238	1.51239	0.66121	91.79102	93.3769	34.34871	0.33616	 	87102.73332	 	7.97454E-5	 	39909.96	37.7032	 
1145.0	1.0	0.0	7.244	7.54133	-5.10209	16.6147	30.60681	1.50981	0.66234	92.39951	93.8896	34.58121	0.33598	 	93170.84127	 	7.42897E-5	 	39721.663	37.6594	 
1140.0	1.0	0.0	7.24615	7.53908	-5.13035	16.59522	30.55124	1.50722	0.66347	93.00976	94.40292	34.81444	0.33579	 	99709.56348	 	6.91732E-5	 	39533.584	37.6158	 
1135.0	1.0	0.0	7.24831	7.53684	-5.15855	16.57575	30.49567	1.50463	0.66462	93.62174	94.91683	35.04838	0.33561	 	106758.9839	 	6.43771E-5	 	39345.719	37.573	 
1130.0	1.0	0.0	7.25046	7.5346	-5.1867	16.55627	30.44009	1.50202	0.66577	94.23541	95.4313	35.28301	0.33542	 	114362.8986	 	5.98833E-5	 	39158.066	37.5306	 
1125.0	1.0	0.0	7.25261	7.53237	-5.2148	16.53679	30.38452	1.49941	0.66693	94.85073	95.94628	35.51833	0.33524	 	122569.1864	 	5.56749E-5	 	38970.624	37.4884	 
1120.0	1.0	0.0	7.25476	7.53014	-5.24285	16.51731	30.32895	1.49678	0.6681	95.46767	96.46174	35.75432	0.33505	 	131430.2196	 	5.17356E-5	 	38783.389	37.447	 
1115.0	1.0	0.0	7.2569	7.52791	-5.27084	16.49783	30.27337	1.49415	0.66928	96.0862	96.97763	35.99097	0.33487	 	141003.3186	 	4.805E-5	 	38596.359	37.406	 
1110.0	1.0	0.0	7.25904	7.52569	-5.29878	16.47834	30.2178	1.4915	0.67046	96.70626	97.49393	36.22826	0.33468	 	151351.2566	 	4.46036E-5	 	38409.532	37.3654	 
1105.0	1.0	0.0	7.26118	7.52348	-5.32667	16.45886	30.16222	1.48885	0.67166	97.32784	98.01058	36.46619	0.33449	 	162542.8181	 	4.13824E-5	 	38222.904	37.3256	 
1100.0	1.0	0.0	7.26332	7.52127	-5.35451	16.43937	30.10665	1.48619	0.67286	97.95089	98.52756	36.70473	0.33431	 	174653.4201	 	3.83732E-5	 	38036.474	37.286	 
1095.0	1.0	0.0	7.26545	7.51906	-5.3823	16.41988	30.05108	1.48351	0.67408	98.57537	99.04483	36.94387	0.33412	 	187765.8012	 	3.55635E-5	 	37850.239	37.247	 
1090.0	1.0	0.0	7.26758	7.51685	-5.41003	16.40039	29.9955	1.48083	0.6753	99.20125	99.56235	37.18361	0.33394	 	201970.7881	 	3.29414E-5	 	37664.196	37.2086	 
1085.0	1.0	0.0	7.26971	7.51465	-5.43772	16.3809	29.93993	1.47814	0.67653	99.8285	100.08007	37.42393	0.33375	 	217368.1471	 	3.04957E-5	 	37478.341	37.171	 
1080.0	1.0	0.0	7.27183	7.51246	-5.46535	16.3614	29.88435	1.47543	0.67777	100.45708	100.59798	37.66481	0.33357	 	234067.5326	 	2.82157E-5	 	37292.673	37.1336	 
1075.0	1.0	0.0	7.27395	7.51027	-5.49292	16.34191	29.82878	1.47272	0.67902	101.08694	101.11602	37.90624	0.33338	 	252189.5432	 	2.60914E-5	 	37107.189	37.0968	 
1070.0	1.0	0.0	7.27607	7.50808	-5.52045	16.32241	29.7732	1.47	0.68027	101.71807	101.63417	38.14821	0.3332	 	271866.8977	 	2.41132E-5	 	36921.884	37.061	 
1065.0	1.0	0.0	7.27819	7.5059	-5.54792	16.30291	29.71763	1.46726	0.68154	102.35041	102.15238	38.39071	0.33301	 	293245.7478	 	2.2272E-5	 	36736.757	37.0254	 
1060.0	1.0	0.0	7.2803	7.50372	-5.57535	16.28341	29.66205	1.46452	0.68282	102.98393	102.67062	38.63371	0.33282	 	316487.1419	 	2.05594E-5	 	36551.804	36.9906	 
1055.0	1.0	0.0	7.28241	7.50154	-5.60272	16.26391	29.60648	1.46177	0.6841	103.61861	103.18885	38.87722	0.33264	 	341768.6604	 	1.89671E-5	 	36367.022	36.9564	 
1050.0	1.0	0.0	7.28452	7.49937	-5.63003	16.24441	29.5509	1.459	0.6854	104.25439	103.70705	39.1212	0.33245	 	369286.2427	 	1.74877E-5	 	36182.407	36.923	 
1045.0	1.0	0.0	7.28663	7.4972	-5.6573	16.2249	29.49533	1.45623	0.68671	104.89125	104.22516	39.36567	0.33227	 	399256.2308	 	1.61139E-5	 	35997.957	36.89	 
1040.0	1.0	0.0	7.28873	7.49504	-5.68451	16.2054	29.43975	1.45344	0.68802	105.52915	104.74316	39.61058	0.33208	 	431917.6558	 	1.48388E-5	 	35813.667	36.858	 
1035.0	1.0	0.0	7.29083	7.49288	-5.71167	16.18589	29.38417	1.45065	0.68935	106.16805	105.26101	39.85595	0.3319	 	467534.799	 	1.36562E-5	 	35629.534	36.8266	 
1030.0	1.0	0.0	7.29293	7.49073	-5.73878	16.16638	29.3286	1.44784	0.69068	106.80792	105.77868	40.10174	0.33171	 	506400.0625	 	1.25599E-5	 	35445.555	36.7958	 
1025.0	1.0	0.0	7.29502	7.48858	-5.76584	16.14687	29.27302	1.44502	0.69203	107.44872	106.29613	40.34796	0.33153	 	548837.1885	 	1.15443E-5	 	35261.726	36.7658	 
1020.0	1.0	0.0	7.29711	7.48643	-5.79284	16.12736	29.21745	1.4422	0.69339	108.09041	106.81333	40.59457	0.33134	 	595204.873	 	1.0604E-5	 	35078.043	36.7366	 
1015.0	1.0	0.0	7.2992	7.48429	-5.81979	16.10784	29.16187	1.43936	0.69475	108.73297	107.33024	40.84158	0.33116	 	645900.8261	 	9.73391E-6	 	34894.501	36.7084	 
1010.0	1.0	0.0	7.30129	7.48215	-5.84669	16.08832	29.10629	1.43651	0.69613	109.37634	107.84682	41.08897	0.33097	 	701366.335	 	8.92934E-6	 	34711.098	36.6806	 
1005.0	1.0	0.0	7.30337	7.48002	-5.87354	16.06881	29.05072	1.43365	0.69752	110.02051	108.36305	41.33672	0.33078	 	762091.3998	 	8.18581E-6	 	34527.829	36.6538	 
1000.0	1.0	0.0	7.30545	7.47789	-5.90034	16.04929	28.99514	1.43078	0.69892	110.66543	108.87889	41.58483	0.3306	 	828620.515	 	7.49913E-6	 	34344.689	36.628	 
995.0	1.0	0.0	7.30752	7.47576	-5.92708	16.02977	28.93956	1.4279	0.70033	111.31106	109.3943	41.83327	0.33041	 	901559.1855	 	6.86536E-6	 	34161.674	36.603	 
990.0	1.0	0.0	7.3096	7.47364	-5.95377	16.01024	28.88399	1.425	0.70175	111.95737	109.90926	42.08204	0.33023	 	981581.2759	 	6.28081E-6	 	33978.78	36.5788	 
985.0	1.0	0.0	7.31167	7.47153	-5.98041	15.99072	28.82841	1.4221	0.70319	112.60433	110.42372	42.33112	0.33004	 	1069437.305	 	5.74201E-6	 	33796.003	36.5554	 
980.0	1.0	0.0	7.31374	7.46941	-6.007	15.9712	28.77283	1.41918	0.70463	113.25189	110.93765	42.58049	0.32986	 	1165963.817	 	5.24571E-6	 	33613.336	36.5334	 
975.0	1.0	0.0	7.3158	7.46731	-6.03353	15.95167	28.71726	1.41626	0.70609	113.90003	111.45103	42.83015	0.32967	 	1272093.978	 	4.78888E-6	 	33430.777	36.5118	 
970.0	1.0	0.0	7.31787	7.4652	-6.06001	15.93214	28.66168	1.41332	0.70756	114.54871	111.96381	43.08009	0.32949	 	1388869.567	 	4.36867E-6	 	33248.318	36.4918	 
965.0	1.0	0.0	7.31993	7.4631	-6.08644	15.91261	28.6061	1.41037	0.70904	115.19788	112.47597	43.33028	0.3293	 	1517454.553	 	3.98239E-6	 	33065.956	36.4724	 
960.0	1.0	0.0	7.32198	7.461	-6.11282	15.89308	28.55053	1.40741	0.71053	115.84752	112.98747	43.58072	0.32911	 	1659150.494	 	3.62758E-6	 	32883.685	36.4542	 
955.0	1.0	0.0	7.32404	7.45891	-6.13915	15.87354	28.49495	1.40443	0.71203	116.49759	113.49828	43.83138	0.32893	 	1815414.001	 	3.30189E-6	 	32701.5	36.437	 
950.0	1.0	0.0	7.32609	7.45682	-6.16542	15.85401	28.43938	1.40145	0.71355	117.14806	114.00837	44.08227	0.32874	 	1987876.577	 	3.00315E-6	 	32519.395	36.421	 
945.0	1.0	0.0	7.32813	7.45474	-6.19164	15.83447	28.3838	1.39845	0.71508	117.79888	114.5177	44.33336	0.32856	 	2178367.16	 	2.72933E-6	 	32337.363	36.4064	 
940.0	1.0	0.0	7.33018	7.45266	-6.21781	15.81493	28.32823	1.39545	0.71662	118.45003	115.02624	44.58464	0.32837	 	2388937.777	 	2.47854E-6	 	32155.4	36.3926	 
935.0	1.0	0.0	7.33222	7.45059	-6.24393	15.79539	28.27266	1.39243	0.71817	119.10146	115.53396	44.83611	0.32819	 	2621892.753	 	2.24902E-6	 	31973.499	36.3802	 
930.0	1.0	0.0	7.33426	7.44851	-6.26999	15.77585	28.21708	1.38939	0.71974	119.75314	116.04084	45.08773	0.328	 	2879822.003	 	2.03911E-6	 	31791.653	36.3692	 
925.0	1.0	0.0	7.3363	7.44645	-6.296	15.75631	28.16151	1.38635	0.72132	120.40504	116.54682	45.33951	0.32782	 	3165639.022	 	1.8473E-6	 	31609.857	36.3592	 
920.0	1.0	0.0	7.33833	7.44438	-6.32196	15.73676	28.10594	1.38329	0.72291	121.05712	117.0519	45.59142	0.32763	 	3482624.257	 	1.67215E-6	 	31428.102	36.351	 
915.0	1.0	0.0	7.34036	7.44233	-6.34787	15.71722	28.05037	1.38023	0.72452	121.70935	117.55602	45.84346	0.32744	 	3834474.699	 	1.51235E-6	 	31246.383	36.3438	 
910.0	1.0	0.0	7.34239	7.44027	-6.37372	15.69767	27.99481	1.37715	0.72614	122.36168	118.05917	46.09562	0.32726	 	4225360.623	 	1.36667E-6	 	31064.691	36.3384	 
905.0	1.0	0.0	7.34441	7.43822	-6.39953	15.67812	27.93924	1.37405	0.72777	123.01409	118.56131	46.34787	0.32707	 	4659990.568	 	1.23396E-6	 	30883.02	36.3342	 
900.0	1.0	0.0	7.34643	7.43617	-6.42528	15.65857	27.88368	1.37095	0.72942	123.66653	119.06242	46.6002	0.32689	 	5143685.856	 	1.11318E-6	 	30701.361	36.3318	 
895.0	1.0	0.0	7.34845	7.43413	-6.45097	15.63902	27.82812	1.36783	0.73108	124.31898	119.56245	46.85261	0.3267	 	5682466.101	 	1.00334E-6	 	30519.707	36.3308	 
890.0	1.0	0.0	7.35046	7.43209	-6.47662	15.61946	27.77256	1.3647	0.73276	124.97139	120.06138	47.10507	0.32652	 	6283147.464	 	9.03535E-7	 	30338.049	36.3316	 
885.0	1.0	0.0	7.35248	7.43006	-6.50221	15.5999	27.71701	1.36156	0.73445	125.62374	120.55917	47.35758	0.32633	 	6953455.645	 	8.12926E-7	 	30156.379	36.334	 
880.0	1.0	0.0	7.35448	7.42803	-6.52775	15.58035	27.66145	1.3584	0.73616	126.27598	121.05581	47.61012	0.32615	 	7702155.983	 	7.30735E-7	 	29974.687	36.3384	 
875.0	1.0	0.0	7.35649	7.42601	-6.55324	15.56079	27.60591	1.35523	0.73788	126.92808	121.55126	47.86268	0.32596	 	8539203.394	 	6.56248E-7	 	29792.964	36.3446	 
870.0	1.0	0.0	7.35849	7.42398	-6.57868	15.54123	27.55036	1.35205	0.73962	127.58001	122.04548	48.11525	0.32578	 	9475915.385	 	5.88801E-7	 	29611.201	36.3526	 
865.0	1.0	0.0	7.36049	7.42197	-6.60406	15.52167	27.49482	1.34886	0.74137	128.23173	122.53845	48.3678	0.32559	 	1.052517189E7	 	5.27785E-7	 	29429.388	36.3626	 
860.0	1.0	0.0	7.36249	7.41995	-6.62939	15.5021	27.43929	1.34565	0.74313	128.88321	123.03014	48.62034	0.3254	 	1.170164635E7	 	4.72636E-7	 	29247.514	36.3748	 
855.0	1.0	0.0	7.36448	7.41794	-6.65467	15.48254	27.38376	1.34243	0.74492	129.5344	123.52052	48.87284	0.32522	 	1.302207328E7	 	4.22837E-7	 	29065.568	36.3892	 
850.0	1.0	0.0	7.36647	7.41594	-6.6799	15.46297	27.32824	1.3392	0.74672	130.18528	124.00956	49.12529	0.32503	 	1.450555831E7	 	3.77911E-7	 	28883.54	36.4056	 
845.0	1.0	0.0	7.36846	7.41394	-6.70507	15.4434	27.27272	1.33595	0.74853	130.83581	124.49723	49.37768	0.32485	 	1.6173938E7	 	3.3742E-7	 	28701.416	36.4248	 
840.0	1.0	0.0	7.37045	7.41194	-6.73019	15.42383	27.21721	1.33269	0.75036	131.48595	124.9835	49.62999	0.32466	 	1.805219785E7	 	3.00961E-7	 	28519.186	36.446	 
835.0	1.0	0.0	7.37243	7.40995	-6.75526	15.40426	27.16171	1.32941	0.75221	132.13568	125.46835	49.88222	0.32448	 	2.016895848E7	 	2.68165E-7	 	28336.836	36.47	 
830.0	1.0	0.0	7.37441	7.40796	-6.78028	15.38468	27.10622	1.32612	0.75408	132.78494	125.95173	50.13434	0.32429	 	2.255704178E7	 	2.38693E-7	 	28154.353	36.4966	 
825.0	1.0	0.0	7.37638	7.40598	-6.80524	15.36511	27.05073	1.32282	0.75596	133.43372	126.43364	50.38635	0.32411	 	2.525413109E7	 	2.12234E-7	 	27971.723	36.526	 
820.0	1.0	0.0	7.37836	7.404	-6.83016	15.34553	26.99525	1.3195	0.75786	134.08197	126.91403	50.63823	0.32392	 	2.830354184E7	 	1.88506E-7	 	27788.932	36.5582	 
815.0	1.0	0.0	7.38032	7.40202	-6.85502	15.32595	26.93979	1.31617	0.75978	134.72965	127.39287	50.88998	0.32373	 	3.175512234E7	 	1.67248E-7	 	27605.963	36.5938	 
810.0	1.0	0.0	7.38229	7.40005	-6.87982	15.30637	26.88433	1.31283	0.76172	135.37674	127.87015	51.14156	0.32355	 	3.566630804E7	 	1.48224E-7	 	27422.802	36.6322	 
805.0	1.0	0.0	7.38425	7.39809	-6.90458	15.28679	26.82889	1.30947	0.76367	136.02321	128.34583	51.39298	0.32336	 	4.010335708E7	 	1.31216E-7	 	27239.432	36.674	 
800.0	1.0	0.0	7.38621	7.39612	-6.92928	15.26721	26.77346	1.30609	0.76564	136.669	128.81989	51.64422	0.32318	 	4.514279998E7	 	1.16027E-7	 	27055.834	36.7196	 
795.0	1.0	0.0	7.38817	7.39416	-6.95393	15.24762	26.71804	1.3027	0.76763	137.31409	129.29229	51.89526	0.32299	 	5.087314312E7	 	1.02478E-7	 	26871.99	36.7688	 
790.0	1.0	0.0	7.39012	7.39221	-6.97853	15.22804	26.66263	1.2993	0.76965	137.95845	129.76301	52.14609	0.32281	 	5.739687301E7	 	9.04051E-8	 	26687.881	36.8218	 
785.0	1.0	0.0	7.39207	7.39026	-7.00307	15.20845	26.60724	1.29588	0.77168	138.60204	130.23202	52.39671	0.32262	 	6.483281757E7	 	7.96598E-8	 	26503.487	36.8788	 
780.0	1.0	0.0	7.39402	7.38831	-7.02756	15.18886	26.55186	1.29245	0.77373	139.24483	130.6993	52.64709	0.32244	 	7.33189322E7	 	7.01069E-8	 	26318.785	36.9404	 
775.0	1.0	0.0	7.39597	7.38637	-7.052	15.16927	26.4965	1.289	0.7758	139.88677	131.16481	52.89722	0.32225	 	8.301559132E7	 	6.16241E-8	 	26133.753	37.0064	 
770.0	1.0	0.0	7.39791	7.38443	-7.07639	15.14968	26.44115	1.28554	0.77789	140.52784	131.62853	53.14709	0.32207	 	9.410948288E7	 	5.41004E-8	 	25948.367	37.0772	 
765.0	1.0	0.0	7.39984	7.3825	-7.10072	15.13008	26.38581	1.28206	0.78	141.168	132.09044	53.39669	0.32188	 	1.068182229E8	 	4.74353E-8	 	25762.601	37.1532	 
760.0	1.0	0.0	7.40178	7.38057	-7.12501	15.11049	26.33049	1.27856	0.78213	141.80721	132.5505	53.646	0.32169	 	1.213958314E8	 	4.15381E-8	 	25576.428	37.2346	 
755.0	1.0	0.0	7.40371	7.37864	-7.14924	15.09089	26.27519	1.27505	0.78428	142.44545	133.0087	53.89502	0.32151	 	1.381392392E8	 	3.63267E-8	 	25389.82	37.3216	 
750.0	1.0	0.0	7.40564	7.37672	-7.17341	15.07129	26.2199	1.27153	0.78646	143.08268	133.465	54.14371	0.32132	 	1.573960336E8	 	3.17272E-8	 	25202.745	37.415	 
745.0	1.0	0.0	7.40756	7.3748	-7.19754	15.05169	26.16463	1.26799	0.78865	143.71886	133.91937	54.39209	0.32114	 	1.795736904E8	 	2.7673E-8	 	25015.172	37.5146	 
740.0	1.0	0.0	7.40949	7.37289	-7.22161	15.03209	26.10937	1.26443	0.79087	144.35395	134.3718	54.64012	0.32095	 	2.051505955E8	 	2.41039E-8	 	24827.065	37.6214	 
735.0	1.0	0.0	7.4114	7.37098	-7.24563	15.01248	26.05413	1.26086	0.79311	144.98793	134.82225	54.8878	0.32077	 	2.346892258E8	 	2.09662E-8	 	24638.387	37.7356	 
730.0	1.0	0.0	7.41332	7.36908	-7.2696	14.99288	25.99891	1.25727	0.79537	145.62076	135.27071	55.13511	0.32058	 	2.688519341E8	 	1.82112E-8	 	24449.099	37.8576	 
725.0	1.0	0.0	7.41523	7.36718	-7.29351	14.97327	25.94369	1.25367	0.79766	146.25241	135.71714	55.38204	0.3204	 	3.084198864E8	 	1.57957E-8	 	24259.158	37.9882	 
720.0	1.0	0.0	7.41714	7.36528	-7.31737	14.95366	25.8885	1.25005	0.79997	146.88284	136.16151	55.62859	0.32021	 	3.543158167E8	 	1.36808E-8	 	24068.519	38.1278	 
715.0	1.0	0.0	7.41905	7.36339	-7.34118	14.93405	25.83331	1.24641	0.80231	147.51201	136.60382	55.87472	0.32002	 	4.076314172E8	 	1.18316E-8	 	23877.133	38.2772	 
710.0	1.0	0.0	7.42095	7.3615	-7.36494	14.91444	25.77814	1.24276	0.80466	148.1399	137.04402	56.12044	0.31984	 	4.696603606E8	 	1.0217E-8	 	23684.946	38.4374	 
705.0	1.0	0.0	7.42285	7.35962	-7.38864	14.89483	25.72298	1.23909	0.80705	148.76647	137.48209	56.36573	0.31965	 	5.419381864E8	 	8.80932E-9	 	23491.901	38.609	 
700.0	1.0	0.0	7.42475	7.35774	-7.41229	14.87521	25.66783	1.2354	0.80945	149.39168	137.91801	56.61057	0.31947	 	6.262905583E8	 	7.58387E-9	 	23297.937	38.7928	 
695.0	1.0	0.0	7.42664	7.35586	-7.43589	14.85559	25.61269	1.2317	0.81189	150.0155	138.35176	56.85496	0.31928	 	7.248917577E8	 	6.51863E-9	 	23102.987	38.99	 
690.0	1.0	0.0	7.42853	7.35399	-7.45944	14.83598	25.55756	1.22798	0.81434	150.6379	138.7833	57.09887	0.3191	 	8.403357099E8	 	5.59407E-9	 	22906.978	39.2018	 
685.0	1.0	0.0	7.43041	7.35213	-7.48293	14.81636	25.50243	1.22425	0.81683	151.25884	139.21262	57.3423	0.31891	 	9.757223907E8	 	4.79285E-9	 	22709.83	39.4296	 
680.0	1.0	0.0	7.4323	7.35026	-7.50637	14.79673	25.4473	1.2205	0.81934	151.8783	139.6397	57.58524	0.31873	 	1.134763139E9	 	4.09961E-9	 	22511.457	39.6746	 
675.0	1.0	0.0	7.43418	7.3484	-7.52976	14.77711	25.39218	1.21673	0.82187	152.49622	140.0645	57.82766	0.31854	 	1.321909255E9	 	3.50076E-9	 	22311.766	39.9382	 
670.0	1.0	0.0	7.43605	7.34655	-7.5531	14.75749	25.33706	1.21295	0.82444	153.1126	140.487	58.06956	0.31835	 	1.542509344E9	 	2.98428E-9	 	22110.652	40.2228	 
665.0	1.0	0.0	7.43793	7.3447	-7.57638	14.73786	25.28194	1.20915	0.82703	153.72738	140.90718	58.31093	0.31817	 	1.803002202E9	 	2.53958E-9	 	21908.001	40.5302	 
660.0	1.0	0.0	7.4398	7.34285	-7.59961	14.71823	25.22682	1.20533	0.82965	154.34053	141.32502	58.55175	0.31798	 	2.111153746E9	 	2.15734E-9	 	21703.689	40.8624	 
655.0	1.0	0.0	7.44166	7.34101	-7.62279	14.6986	25.17169	1.2015	0.83229	154.95203	141.74049	58.79201	0.3178	 	2.476348644E9	 	1.82933E-9	 	21497.578	41.2222	 
650.0	1.0	0.0	7.44353	7.33917	-7.64591	14.67897	25.11655	1.19765	0.83497	155.56183	142.15357	59.03169	0.31761	 	2.90995001E9	 	1.54837E-9	 	21289.516	41.6124	 
645.0	1.0	0.0	7.44539	7.33734	-7.66898	14.65934	25.06141	1.19378	0.83767	156.16991	142.56423	59.27078	0.31743	 	3.425743987E9	 	1.30811E-9	 	21079.334	42.0364	 
640.0	1.0	0.0	7.44724	7.33551	-7.692	14.6397	25.00625	1.1899	0.84041	156.77623	142.97246	59.50928	0.31724	 	4.040490423E9	 	1.10305E-9	 	20866.845	42.4978	 
635.0	1.0	0.0	7.4491	7.33369	-7.71497	14.62007	24.95108	1.186	0.84317	157.38076	143.37823	59.74716	0.31706	 	4.774606443E9	 	9.28339E-10	 	20651.84	43.001	 
630.0	1.0	0.0	7.45095	7.33186	-7.73789	14.60043	24.89589	1.18209	0.84596	157.98347	143.78151	59.98442	0.31687	 	5.653016866E9	 	7.7977E-10	 	20434.086	43.5508	 
625.0	1.0	0.0	7.45279	7.33005	-7.76075	14.58079	24.84068	1.17816	0.84878	158.58432	144.18229	60.22104	0.31669	 	6.706214574E9	 	6.53669E-10	 	20213.325	44.1522	 
620.0	1.0	0.0	7.45464	7.32824	-7.78356	14.56115	24.78545	1.17421	0.85164	159.18328	144.58055	60.457	0.3165	 	7.971585692E9	 	5.46848E-10	 	19989.264	44.8122	 
615.0	1.0	0.0	7.45648	7.32643	-7.80631	14.54151	24.7302	1.17024	0.85452	159.78031	144.97625	60.69231	0.31631	 	9.49506957E9	 	4.56536E-10	 	19739.35	49.9828	 
610.0	1.0	0.0	7.45831	7.32462	-7.82902	14.52186	24.67493	1.16626	0.85744	160.37539	145.36939	60.92693	0.31613	 	1.13332E10	 	3.80336E-10	 	19486.315	50.607	 
605.0	1.0	0.0	7.46015	7.32282	-7.85167	14.50222	24.61963	1.16226	0.86039	160.96849	145.75993	61.16087	0.31594	 	1.3555899999999998E10	 	3.16174E-10	 	19236.668	49.9294	 
600.0	1.0	0.0	7.46198	7.32103	-7.87426	14.48257	24.5643	1.15825	0.86337	161.55956	146.14785	61.39411	0.31576	 	1.6249599999999998E10	 	2.62261E-10	 	18990.276	49.2784	 
595.0	1.0	0.0	7.4638	7.31924	-7.89681	14.46292	24.50894	1.15422	0.86639	162.14857	146.53314	61.62663	0.31557	 	1.95213E10	 	2.17056E-10	 	18747.01	48.6532	 
590.0	1.0	0.0	7.46563	7.31745	-7.9193	14.44327	24.45355	1.15017	0.86944	162.73551	146.91578	61.85842	0.31539	 	2.3504399999999996E10	 	1.79235E-10	 	18506.752	48.0516	 
585.0	1.0	0.0	7.46745	7.31566	-7.94174	14.42362	24.39812	1.14611	0.87252	163.32032	147.29573	62.08947	0.3152	 	2.8364899999999996E10	 	1.47662E-10	 	18269.387	47.473	 
580.0	1.0	0.0	7.46926	7.31389	-7.96413	14.40397	24.34267	1.14202	0.87564	163.90299	147.67299	62.31978	0.31502	 	3.4310199999999996E10	 	1.21364E-10	 	18034.808	46.9158	 
575.0	1.0	0.0	7.47108	7.31211	-7.98646	14.38431	24.28718	1.13792	0.87879	164.48347	148.04752	62.54931	0.31483	 	4.16003E10	 	9.95092E-11	 	17802.913	46.379	 
570.0	1.0	0.0	7.47289	7.31034	-8.00875	14.36466	24.23165	1.13381	0.88198	165.06174	148.41932	62.77807	0.31464	 	5.056149999999999E10	 	8.139E-11	 	17573.606	45.8614	 
565.0	1.0	0.0	7.47469	7.30857	-8.03097	14.345	24.17609	1.12967	0.88521	165.63776	148.78836	63.00604	0.31446	 	6.160499999999999E10	 	6.64037E-11	 	17346.795	45.3622	 
560.0	1.0	0.0	7.4765	7.30681	-8.05315	14.32534	24.12049	1.12552	0.88848	166.2115	149.15461	63.23321	0.31427	 	7.52498E10	 	5.40387E-11	 	17122.393	44.8804	 
555.0	1.0	0.0	7.47829	7.30505	-8.07527	14.30568	24.06486	1.12136	0.89178	166.78294	149.51806	63.45956	0.31409	 	9.2153E10	 	4.38618E-11	 	16900.319	44.4148	 
550.0	1.0	0.0	7.48009	7.3033	-8.09734	14.28601	24.00919	1.11717	0.89512	167.35204	149.8787	63.68509	0.3139	 	1.13149E11	 	3.5507E-11	 	16680.494	43.965	 
545.0	1.0	0.0	7.48188	7.30155	-8.11936	14.26635	23.95349	1.11297	0.8985	167.91876	150.23649	63.90978	0.31372	 	1.39301E11	 	2.86658E-11	 	16462.844	43.53	 
540.0	1.0	0.0	7.48367	7.2998	-8.14133	14.24668	23.89775	1.10874	0.90192	168.48308	150.59142	64.13361	0.31353	 	1.71967E11	 	2.30788E-11	 	16247.3	43.1088	 
535.0	1.0	0.0	7.48546	7.29806	-8.16324	14.22701	23.84198	1.1045	0.90538	169.04497	150.94348	64.35659	0.31335	 	2.12884E11	 	1.85283E-11	 	16033.795	42.701	 
530.0	1.0	0.0	7.48724	7.29633	-8.1851	14.20734	23.78617	1.10025	0.90889	169.60439	151.29263	64.57868	0.31316	 	2.64287E11	 	1.48323E-11	 	15822.265	42.306	 
525.0	1.0	0.0	7.48902	7.29459	-8.2069	14.18767	23.73034	1.09597	0.91243	170.16132	151.63887	64.79989	0.31298	 	3.29057E11	 	1.18386E-11	 	15612.651	41.9228	 
520.0	1.0	0.0	7.49079	7.29286	-8.22866	14.168	23.67447	1.09167	0.91602	170.71572	151.98218	65.0202	0.31279	 	4.10916E11	 	9.42082E-12	 	15404.896	41.551	 
515.0	1.0	0.0	7.49257	7.29114	-8.25036	14.14833	23.61858	1.08736	0.91966	171.26756	152.32253	65.2396	0.3126	 	5.14697E11	 	7.47385E-12	 	15198.945	41.1902	 
510.0	1.0	0.0	7.49433	7.28942	-8.27201	14.12865	23.56265	1.08302	0.92334	171.81682	152.65991	65.45808	0.31242	 	6.46685E11	 	5.9107E-12	 	14994.746	40.8398	 
505.0	1.0	0.0	7.4961	7.2877	-8.2936	14.10897	23.50671	1.07867	0.92707	172.36346	152.9943	65.67562	0.31223	 	8.15094E11	 	4.65953E-12	 	14792.251	40.499	 
500.0	1.0	0.0	7.49786	7.28599	-8.31514	14.08929	23.45074	1.0743	0.93084	172.90745	153.32568	65.89221	0.31205	 	1.03068E12	 	3.66121E-12	 	14591.413	40.1676	 
495.0	1.0	0.0	7.49962	7.28428	-8.33663	14.06961	23.39475	1.06991	0.93466	173.44876	153.65404	66.10784	0.31186	 	1.30761E12	 	2.86718E-12	 	14392.186	39.8454	 
490.0	1.0	0.0	7.50137	7.28258	-8.35807	14.04993	23.33874	1.06549	0.93853	173.98737	153.97935	66.32251	0.31168	 	1.66454E12	 	2.2377E-12	 	14194.529	39.5314	 
485.0	1.0	0.0	7.50312	7.28088	-8.37945	14.03025	23.28271	1.06106	0.94246	174.52325	154.30161	66.53619	0.31149	 	2.12623E12	 	1.74033E-12	 	13998.401	39.2256	 
480.0	1.0	0.0	7.50487	7.27919	-8.40079	14.01056	23.22667	1.0566	0.94643	175.05635	154.62079	66.74887	0.31131	 	2.72558E12	 	1.34868E-12	 	13803.763	38.9276	 
475.0	1.0	0.0	7.50661	7.27749	-8.42206	13.99088	23.17061	1.05213	0.95045	175.58667	154.93688	66.96055	0.31112	 	3.5065E12	 	1.04136E-12	 	13610.578	38.637	 
470.0	1.0	0.0	7.50835	7.27581	-8.44329	13.97119	23.11454	1.04763	0.95453	176.11416	155.24986	67.17122	0.31093	 	4.52784E12	 	8.01072E-13	 	13418.811	38.3534	 
465.0	1.0	0.0	7.51009	7.27413	-8.46446	13.9515	23.05847	1.04311	0.95867	176.6388	155.55971	67.38085	0.31075	 	5.8688E12	 	6.13878E-13	 	13228.429	38.0764	 
460.0	1.0	0.0	7.51182	7.27245	-8.48558	13.9318	23.00239	1.03857	0.96286	177.16056	155.86642	67.58945	0.31056	 	7.63632E12	 	4.68593E-13	 	13039.398	37.8062	 
455.0	1.0	0.0	7.51355	7.27077	-8.50665	13.91211	22.94631	1.03401	0.96711	177.67941	156.16998	67.79699	0.31038	 	9.97552E12	 	3.56264E-13	 	12851.689	37.5418	 
450.0	1.0	0.0	7.51528	7.2691	-8.52766	13.89242	22.89022	1.02943	0.97141	178.19532	156.47037	68.00348	0.31019	 	1.30841E13	 	2.69756E-13	 	12665.271	37.2836	 
445.0	1.0	0.0	7.517	7.26744	-8.54862	13.87272	22.83413	1.02482	0.97578	178.70827	156.76757	68.20889	0.31001	 	1.72326E13	 	2.034E-13	 	12480.116	37.031	 
440.0	1.0	0.0	7.51872	7.26578	-8.56953	13.85302	22.77805	1.02019	0.98021	179.21823	157.06156	68.41322	0.30982	 	2.27928E13	 	1.52711E-13	 	12296.198	36.7836	 
435.0	1.0	0.0	7.52044	7.26412	-8.59038	13.83332	22.72196	1.01554	0.9847	179.72517	157.35235	68.61645	0.30964	 	3.02782E13	 	1.14151E-13	 	12113.489	36.5418	 
430.0	1.0	0.0	7.52215	7.26247	-8.61118	13.81362	22.66589	1.01086	0.98925	180.22907	157.6399	68.81858	0.30945	 	4.04011E13	 	8.49458E-14	 	11931.965	36.3048	 
425.0	1.0	0.0	7.52386	7.26082	-8.63193	13.79392	22.60982	1.00617	0.99387	180.72989	157.92421	69.01959	0.30927	 	5.41542E13	 	6.29221E-14	 	11751.603	36.0724	 
420.0	1.0	0.0	7.52556	7.25917	-8.65263	13.77421	22.55375	1.00144	0.99856	181.22762	158.20526	69.21948	0.30908	 	7.29283E13	 	4.63893E-14	 	11572.378	35.845	 
415.0	1.0	0.0	7.52726	7.25753	-8.67327	13.75451	22.4977	0.9967	1.00331	181.72222	158.48304	69.41822	0.30889	 	9.8681E13	 	3.40358E-14	 	11394.269	35.6218	 
410.0	1.0	0.0	7.52896	7.2559	-8.69386	13.7348	22.44166	0.99193	1.00814	182.21367	158.75754	69.61583	0.30871	 	1.3418299999999998E14	 	2.48489E-14	 	11217.254	35.403	 
405.0	1.0	0.0	7.53065	7.25426	-8.7144	13.71509	22.38562	0.98713	1.01304	182.70194	159.02874	69.81227	0.30852	 	1.83373E14	 	1.805E-14	 	11041.313	35.1882	 
400.0	1.0	0.0	7.53234	7.25264	-8.73488	13.69538	22.3296	0.98231	1.01801	183.18702	159.29663	70.00755	0.30834	 	2.5188799999999997E14	 	1.30434E-14	 	10866.426	34.9774	 
395.0	1.0	0.0	7.53403	7.25101	-8.75531	13.67566	22.2736	0.97747	1.02305	183.66886	159.56121	70.20165	0.30815	 	3.47828E14	 	9.37553E-15	 	10692.573	34.7706	 
390.0	1.0	0.0	7.53571	7.24939	-8.77569	13.65595	22.2176	0.9726	1.02818	184.14746	159.82245	70.39456	0.30797	 	4.8291E14	 	6.70243E-15	 	10519.738	34.567	 
385.0	1.0	0.0	7.53739	7.24778	-8.79601	13.63623	22.16162	0.9677	1.03338	184.62279	160.08035	70.58627	0.30778	 	6.74171E14	 	4.76477E-15	 	10347.9	34.3676	 
380.0	1.0	0.0	7.53907	7.24617	-8.81629	13.61652	22.10566	0.96278	1.03866	185.09482	160.3349	70.77678	0.3076	 	9.46534E14	 	3.36793E-15	 	10177.045	34.171	 
375.0	1.0	0.0	7.54074	7.24456	-8.83651	13.5968	22.04971	0.95783	1.04402	185.56352	160.58608	70.96607	0.30741	 	1.33668E15	 	2.36665E-15	 	10007.154	33.9782	 
370.0	1.0	0.0	7.54241	7.24296	-8.85667	13.57708	21.99377	0.95286	1.04947	186.02889	160.83389	71.15414	0.30722	 	1.89893E15	 	1.65307E-15	 	9838.212	33.7884	 
365.0	1.0	0.0	7.54407	7.24136	-8.87678	13.55736	21.93785	0.94786	1.055	186.49089	161.07831	71.34097	0.30704	 	2.71421E15	 	1.14754E-15	 	9670.203	33.6018	 
360.0	1.0	0.0	7.54573	7.23976	-8.89684	13.53763	21.88194	0.94284	1.06062	186.9495	161.31934	71.52656	0.30685	 	3.90392E15	 	7.91577E-16	 	9503.113	33.418	 
355.0	1.0	0.0	7.54739	7.23817	-8.91685	13.51791	21.82605	0.93779	1.06634	187.4047	161.55697	71.7109	0.30667	 	5.65132E15	 	5.42501E-16	 	9336.926	33.2374	 
350.0	1.0	0.0	7.54905	7.23659	-8.9368	13.49818	21.77017	0.93271	1.07214	187.85647	161.7912	71.89398	0.30648	 	8.23497E15	 	3.69332E-16	 	9171.63	33.0592	 
345.0	1.0	0.0	7.5507	7.23501	-8.9567	13.47845	21.71431	0.92761	1.07804	188.30479	162.022	72.07579	0.3063	 	1.20812E16	 	2.49729E-16	 	9007.209	32.8842	 
340.0	1.0	0.0	7.55234	7.23343	-8.97655	13.45872	21.65846	0.92248	1.08403	188.74964	162.24938	72.25632	0.30611	 	1.7847400000000002E16	 	1.67679E-16	 	8843.652	32.7114	 
335.0	1.0	0.0	7.55398	7.23186	-8.99635	13.43899	21.60262	0.91732	1.09013	189.19101	162.47333	72.43557	0.30593	 	2.65538E16	 	1.11782E-16	 	8680.944	32.5416	 
330.0	1.0	0.0	7.55562	7.23029	-9.01609	13.41926	21.54679	0.91214	1.09633	189.62886	162.69384	72.61353	0.30574	 	3.97968E16	 	7.39714E-17	 	8519.075	32.3738	 
325.0	1.0	0.0	7.55726	7.22872	-9.03578	13.39952	21.49098	0.90693	1.10263	190.06319	162.9109	72.79018	0.30556	 	6.00929E16	 	4.85818E-17	 	8358.031	32.2088	 
320.0	1.0	0.0	7.55889	7.22716	-9.05541	13.37978	21.43518	0.90169	1.10903	190.49397	163.12452	72.96553	0.30537	 	9.14396E16	 	3.16604E-17	 	8197.801	32.046	 
315.0	1.0	0.0	7.56052	7.22561	-9.07499	13.36005	21.37939	0.89642	1.11555	190.92119	163.33469	73.13957	0.30518	 	1.40239E17	 	2.04694E-17	 	8038.373	31.8856	 
310.0	1.0	0.0	7.56214	7.22406	-9.09452	13.34031	21.32361	0.89112	1.12218	191.34484	163.5414	73.31228	0.305	 	2.16829E17	 	1.31265E-17	 	7879.737	31.7272	 
305.0	1.0	0.0	7.56376	7.22251	-9.114	13.32056	21.26784	0.8858	1.12893	191.76489	163.74464	73.48366	0.30481	 	3.3804E17	 	8.34754E-18	 	7721.882	31.571	 
300.0	1.0	0.0	7.56538	7.22096	-9.13342	13.30082	21.21209	0.88045	1.13579	192.18133	163.94443	73.65372	0.30463	 	5.3152E17	 	5.26302E-18	 	7564.798	31.4168	 
295.0	1.0	0.0	7.56699	7.21943	-9.15279	13.28108	21.15633	0.87506	1.14277	192.59416	164.14075	73.82243	0.30444	 	8.43077E17	 	3.28914E-18	 	7408.474	31.2648	 
290.0	1.0	0.0	7.5686	7.21789	-9.17211	13.26133	21.10059	0.86966	1.14988	193.00335	164.3336	73.98979	0.30426	 	1.34931E18	 	2.03704E-18	 	7252.9	31.1148	 
285.0	1.0	0.0	7.57021	7.21636	-9.19137	13.24158	21.04486	0.86422	1.15712	193.40889	164.52298	74.15581	0.30407	 	2.17948E18	 	1.24993E-18	 	7098.067	30.9666	 
280.0	1.0	0.0	7.57181	7.21483	-9.21058	13.22183	20.98913	0.85875	1.16448	193.81077	164.7089	74.32047	0.30389	 	3.55387E18	 	7.59676E-19	 	6943.966	30.8202	 
275.0	1.0	0.0	7.57341	7.21331	-9.22974	13.20208	20.93341	0.85325	1.17199	194.20899	164.89135	74.48377	0.3037	 	5.85145E18	 	4.57217E-19	 	6790.587	30.6758	 
270.0	1.0	0.0	7.575	7.21179	-9.24884	13.18233	20.87769	0.84773	1.17963	194.60352	165.07034	74.6457	0.30351	 	9.73091E18	 	2.72429E-19	 	6637.923	30.5328	 
265.0	1.0	0.0	7.57659	7.21028	-9.26789	13.16258	20.82198	0.84217	1.18741	194.99437	165.24586	74.80627	0.30333	 	1.63488E19	 	1.60658E-19	 	6485.964	30.3918	 
260.0	1.0	0.0	7.57818	7.20877	-9.28689	13.14282	20.76628	0.83658	1.19534	195.38152	165.41793	74.96547	0.30314	 	2.77577E19	 	9.3746E-20	 	6334.702	30.2524	 
255.0	1.0	0.0	7.57976	7.20726	-9.30584	13.12306	20.71058	0.83097	1.20342	195.76498	165.58654	75.12329	0.30296	 	4.76395E19	 	5.41099E-20	 	6184.128	30.1148	 
250.0	1.0	0.0	7.58134	7.20576	-9.32473	13.1033	20.65488	0.82532	1.21165	196.14472	165.7517	75.27973	0.30277	 	8.26734E19	 	3.0885E-20	 	6034.237	29.9782	 
245.0	1.0	0.0	7.58292	7.20426	-9.34356	13.08354	20.59918	0.81964	1.22005	196.52076	165.91342	75.43479	0.30259	 	1.4511499999999998E20	 	1.74273E-20	 	5885.019	29.8436	 
240.0	1.0	0.0	7.58449	7.20277	-9.36235	13.06378	20.54349	0.81393	1.2286	196.89308	166.0717	75.58847	0.3024	 	2.5771699999999997E20	 	9.71824E-21	 	5736.467	29.7104	 
235.0	1.0	0.0	7.58606	7.20128	-9.38108	13.04402	20.48781	0.80819	1.23733	197.26169	166.22656	75.74077	0.30222	 	4.6323399999999993E20	 	5.354E-21	 	5588.575	29.5784	 
230.0	1.0	0.0	7.58762	7.1998	-9.39976	13.02425	20.43212	0.80242	1.24623	197.62659	166.378	75.89169	0.30203	 	8.430059999999999E20	 	2.91309E-21	 	5441.335	29.448	 
225.0	1.0	0.0	7.58918	7.19832	-9.41839	13.00448	20.37644	0.79662	1.25531	197.98777	166.52603	76.04122	0.30185	 	1.55377E21	 	1.5648E-21	 	5294.741	29.3188	 
220.0	1.0	0.0	7.59074	7.19684	-9.43696	12.98472	20.32075	0.79078	1.26457	198.34524	166.67067	76.18937	0.30166	 	2.90153E21	 	8.29544E-22	 	5148.786	29.191	 
215.0	1.0	0.0	7.59229	7.19537	-9.45548	12.96495	20.26507	0.78492	1.27402	198.69901	166.81193	76.33614	0.30147	 	5.49179E21	 	4.33836E-22	 	5003.465	29.0642	 
210.0	1.0	0.0	7.59384	7.1939	-9.47394	12.94517	20.20939	0.77902	1.28367	199.04907	166.94982	76.48153	0.30129	 	1.05395E22	 	2.23742E-22	 	4858.77	28.939	 
205.0	1.0	0.0	7.59538	7.19244	-9.49235	12.9254	20.15371	0.77308	1.29352	199.39545	167.08436	76.62554	0.3011	 	2.0517499999999998E22	 	1.13744E-22	 	4714.697	28.8146	 
200.0	1.0	0.0	7.59692	7.19098	-9.51071	12.90563	20.09803	0.76712	1.30358	199.73815	167.21557	76.76818	0.30092	 	4.05329E22	 	5.69741E-23	 	4571.241	28.6912	 
195.0	1.0	0.0	7.59846	7.18953	-9.52902	12.88585	20.04235	0.76112	1.31385	200.07717	167.34347	76.90945	0.30073	 	8.129549999999999E22	 	2.81064E-23	 	4428.394	28.5694	 
190.0	1.0	0.0	7.59999	7.18808	-9.54727	12.86607	19.98667	0.75509	1.32434	200.41255	167.46807	77.04936	0.30055	 	1.65615E23	 	1.36492E-23	 	4286.154	28.448	 
185.0	1.0	0.0	7.60152	7.18663	-9.56547	12.84629	19.93099	0.74903	1.33507	200.74428	167.58941	77.1879	0.30036	 	3.42861E23	 	6.52194E-24	 	4144.514	28.328	 
180.0	1.0	0.0	7.60305	7.18519	-9.58362	12.82651	19.87531	0.74293	1.34603	201.07239	167.7075	77.3251	0.30018	 	7.21671E23	 	3.06471E-24	 	4003.47	28.2088	 
175.0	1.0	0.0	7.60457	7.18375	-9.60171	12.80673	19.81963	0.73679	1.35723	201.39691	167.82237	77.46095	0.29999	 	1.5452300000000001E24	 	1.41552E-24	 	3863.019	28.0902	 
170.0	1.0	0.0	7.60609	7.18232	-9.61975	12.78694	19.76395	0.73063	1.36869	201.71785	167.93406	77.59546	0.2998	 	3.36758E24	 	6.42272E-25	 	3723.155	27.9728	 
165.0	1.0	0.0	7.6076	7.18089	-9.63774	12.76716	19.70826	0.72442	1.38041	202.03525	168.04259	77.72864	0.29962	 	7.47421E24	 	2.86117E-25	 	3583.875	27.856	 
160.0	1.0	0.0	7.60911	7.17946	-9.65567	12.74737	19.65258	0.71819	1.3924	202.34912	168.14799	77.86052	0.29943	 	1.69043E25	 	1.25063E-25	 	3445.175	27.74	 
155.0	1.0	0.0	7.61062	7.17804	-9.67355	12.72758	19.5969	0.71191	1.40467	202.65952	168.25031	77.99108	0.29925	 	3.89839E25	 	5.3604E-26	 	3307.052	27.6246	 
150.0	1.0	0.0	7.61212	7.17662	-9.69138	12.70779	19.54121	0.7056	1.41723	202.96646	168.34958	78.12036	0.29906	 	9.1732E25	 	2.25144E-26	 	3169.503	27.5098	 
145.0	1.0	0.0	7.61362	7.17521	-9.70915	12.688	19.48552	0.69926	1.43009	203.26999	168.44583	78.24836	0.29888	 	2.2039600000000002E26	 	9.26008E-27	 	3032.525	27.3956	 
140.0	1.0	0.0	7.61511	7.1738	-9.72687	12.6682	19.42983	0.69288	1.44326	203.57015	168.53913	78.3751	0.29869	 	5.4106900000000006E26	 	3.72685E-27	 	2896.116	27.2818	 
135.0	1.0	0.0	7.6166	7.1724	-9.74454	12.64841	19.37414	0.68646	1.45675	203.867	168.6295	78.5006	0.29851	 	1.3583099999999998E27	 	1.46659E-27	 	2760.274	27.1684	 
130.0	1.0	0.0	7.61809	7.171	-9.76215	12.62861	19.31845	0.68001	1.47058	204.16057	168.71701	78.62487	0.29832	 	3.48974E27	 	5.63845E-28	 	2624.996	27.0556	 
125.0	1.0	0.0	7.61957	7.16961	-9.77971	12.60881	19.26275	0.67351	1.48475	204.45093	168.8017	78.74795	0.29813	 	9.1834E27	 	2.11607E-28	 	2490.281	26.943	 
120.0	1.0	0.0	7.62105	7.16821	-9.79722	12.58901	19.20706	0.66698	1.49929	204.73814	168.88363	78.86984	0.29795	 	2.47752E28	 	7.74512E-29	 	2356.128	26.8306	 
115.0	1.0	0.0	7.62253	7.16683	-9.81467	12.56921	19.15136	0.66042	1.5142	205.02226	168.96288	78.99058	0.29776	 	6.858680000000001E28	 	2.76214E-29	 	2222.537	26.7182	 
110.0	1.0	0.0	7.624	7.16544	-9.83207	12.5494	19.09566	0.65381	1.5295	205.30336	169.03949	79.11019	0.29758	 	1.95031E29	 	9.58853E-30	 	2089.505	26.6064	 
105.0	1.0	0.0	7.62547	7.16407	-9.84941	12.5296	19.03996	0.64717	1.5452	205.58153	169.11354	79.2287	0.29739	 	5.7024300000000006E29	 	3.23662E-30	 	1957.034	26.4942	 
100.0	1.0	0.0	7.62693	7.16269	-9.86671	12.50979	18.98425	0.64048	1.56132	205.85683	169.18511	79.34615	0.29721	 	1.7162699999999998E30	 	1.06117E-30	 	1825.124	26.382	 
95.0	1.0	0.0	7.62839	7.16132	-9.88395	12.48998	18.92855	0.63376	1.57788	206.12937	169.25427	79.46256	0.29702	 	5.323359999999999E30	 	3.37541E-31	 	1693.776	26.2696	 
90.0	1.0	0.0	7.62984	7.15996	-9.90113	12.47017	18.87284	0.627	1.5949	206.39923	169.32111	79.57797	0.29684	 	1.7036899999999998E31	 	1.04035E-31	 	1562.99	26.1572	 
85.0	1.0	0.0	7.63129	7.15859	-9.91827	12.45036	18.81713	0.6202	1.61239	206.66652	169.38573	79.69242	0.29665	 	5.6333499999999995E31	 	3.10302E-32	 	1432.769	26.0442	 
80.0	1.0	0.0	7.63274	7.15724	-9.93535	12.43055	18.76141	0.61335	1.63038	206.93135	169.44821	79.80596	0.29647	 	1.9271E32	 	8.94418E-33	 	1303.114	25.931	 
75.0	1.0	0.0	7.63418	7.15588	-9.95237	12.41073	18.70569	0.60647	1.64888	207.19384	169.50866	79.91863	0.29628	 	6.830259999999999E32	 	2.4878E-33	 	1174.028	25.8172	 
70.0	1.0	0.0	7.63562	7.15454	-9.96934	12.39091	18.64997	0.59955	1.66793	207.45412	169.5672	80.03047	0.29609	 	2.51206E33	 	6.66716E-34	 	1045.515	25.7026	 
65.0	1.0	0.0	7.63706	7.15319	-9.98626	12.3711	18.59425	0.59258	1.68753	207.71232	169.62394	80.14155	0.29591	 	9.60261E33	 	1.71873E-34	 	917.578	25.5874	 
60.0	1.0	0.0	7.63849	7.15185	-10.00313	12.35128	18.53853	0.58557	1.70772	207.96861	169.67901	80.25192	0.29572	 	3.8217800000000003E34	 	4.25462E-35	 	790.222	25.4712	 
55.0	1.0	0.0	7.63992	7.15051	-10.01994	12.33146	18.4828	0.57853	1.72853	208.22312	169.73253	80.36164	0.29554	 	1.5865599999999999E35	 	1.00949E-35	 	663.452	25.354	 
50.0	1.0	0.0	7.64134	7.14918	-10.0367	12.31163	18.42707	0.57143	1.74999	208.47605	169.78467	80.47078	0.29535	 	6.883409999999999E35	 	2.29133E-36	 	537.273	25.2358	 
45.0	1.0	0.0	7.64276	7.14786	-10.05341	12.29181	18.37134	0.5643	1.77211	208.72758	169.83557	80.57941	0.29517	 	3.12759E36	 	4.96488E-37	 	411.693	25.116	 
40.0	1.0	0.0	7.64417	7.14653	-10.07006	12.27198	18.3156	0.55712	1.79494	208.9779	169.8854	80.6876	0.29498	 	1.49153E37	 	1.02473E-37	 	286.72	24.9946	 
35.0	1.0	0.0	7.64559	7.14521	-10.08666	12.25216	18.25986	0.5499	1.81852	209.22723	169.93433	80.79544	0.2948	 	7.48321E37	 	2.00984E-38	 	162.36	24.872	 
30.0	1.0	0.0	7.64699	7.1439	-10.1032	12.23233	18.20412	0.54263	1.84287	209.4758	169.98256	80.90302	0.29461	 	3.95974E38	 	3.73661E-39	 	38.625	24.747	 
25.0	1.0	0.0	7.6484	7.14259	-10.11969	 	18.14837	0.53532	1.86804	209.72387	170.0303	81.01044	0.29442	 	2.21579E39	 	6.5674E-40	 	-84.477	 	 
