T (C)	Fraction solid (wt)-TOTAL	Fraction liquid (wt)-LIQUID	Density (g/(cm)^3)-TOTAL	Molar volume (cm^3)-TOTAL	Volume change (%)-  	Average expansion coeff. (10e-6 1/K)-  	Thermal conductivity (W/(m*K))-TOTAL	Electrical resistivity (10e-6 Ohm*m)-TOTAL	Electrical conductivity (10e6 1/(Ohm*m))-TOTAL	Young's modulus (GPa)-TOTAL	Bulk modulus (GPa)-TOTAL	Shear modulus(GPa)-TOTAL	Poisson's ratio-TOTAL	Liquid viscosity (mPa s)-  	Total viscosity (mPa s)-  	Liquid diffusivity (10e-9 (m^2)/s)-  	Total diffusivity (10e-9 (m^2)/s)-  	Surface Tension (mN/m)-  	Enthalpy (J/mole)-TOTAL	Specific heat (J/(mole K))-TOTAL	Latent heat (J/mole)-TOTAL
1500.0	0.0	1.0	7.03349	7.8759	0.0	29.10399	31.04698	1.86099	0.53735	0.0	107.34398	0.0	0.49776	6.78238	6.78238	1.276	1.276	1767.81731	65193.477	 	0.0
1495.0	0.0	1.0	7.0374	7.87153	-0.0555095	29.0609	30.96965	1.86038	0.53753	0.0	107.52878	0.0	0.49776	6.84212	6.84212	1.26129	1.26129	1769.61936	64973.218	44.0518	0.0
1490.0	0.0	1.0	7.0413	7.86717	-0.11086	29.01792	30.89232	1.85976	0.5377	0.0	107.71358	0.0	0.49776	6.90274	6.90274	1.24668	1.24668	1771.41844	64753.448	43.954	0.0
1485.0	0.0	1.0	7.04519	7.86282	-0.16606	28.97504	30.81499	1.85914	0.53788	0.0	107.89838	0.0	0.49776	6.96425	6.96425	1.23216	1.23216	1773.21453	64534.164	43.8568	0.0
1480.0	0.0	1.0	7.04908	7.85849	-0.22111	28.93226	30.73766	1.85851	0.53806	0.0	108.08319	0.0	0.49776	7.02666	7.02666	1.21775	1.21775	1775.00759	64315.361	43.7606	0.0
1475.0	0.0	1.0	7.05296	7.85416	-0.276	28.88959	30.66034	1.85789	0.53825	0.0	108.26799	0.0	0.49776	7.08999	7.08999	1.20343	1.20343	1776.79757	64097.037	43.6648	0.0
1470.0	0.0	1.0	7.05683	7.84985	-0.33073	28.84704	30.58301	1.85726	0.53843	0.0	108.45279	0.0	0.49776	7.15426	7.15426	1.18921	1.18921	1778.58445	63879.19	43.5694	0.0
1465.0	0.0	1.0	7.0607	7.84555	-0.38531	28.80459	30.50568	1.85663	0.53861	0.0	108.63759	0.0	0.49776	7.21948	7.21948	1.17508	1.17508	1780.36819	63661.814	43.4752	0.0
1460.0	0.0	1.0	7.06456	7.84127	-0.43974	28.76225	30.42835	1.85599	0.5388	0.0	108.82239	0.0	0.49776	7.28569	7.28569	1.16105	1.16105	1782.14874	63444.909	43.381	0.0
1455.0	0.0	1.0	7.06841	7.83699	-0.49401	28.72002	30.35102	1.85535	0.53898	0.0	109.00719	0.0	0.49776	7.35288	7.35288	1.14712	1.14712	1783.92607	63228.469	43.288	0.0
1450.0	0.0	1.0	7.07226	7.83273	-0.54812	28.67791	30.27369	1.85471	0.53917	0.0	109.192	0.0	0.49776	7.4211	7.4211	1.13329	1.13329	1785.70013	63012.526	43.1886	0.0
1445.0	0.0	1.0	7.07609	7.82848	-0.60208	28.63591	30.19636	1.85406	0.53936	0.0	109.3768	0.0	0.49776	7.49035	7.49035	1.11956	1.11956	1787.47088	62797.128	43.0796	0.0
1440.0	0.0	1.0	7.07993	7.82424	-0.65589	28.59402	30.11904	1.85341	0.53955	0.0	109.5616	0.0	0.49776	7.56065	7.56065	1.10592	1.10592	1789.23829	62582.268	42.972	0.0
1435.0	0.0	1.0	7.08375	7.82002	-0.70954	28.55225	30.04171	1.85276	0.53974	0.0	109.7464	0.0	0.49776	7.63203	7.63203	1.09238	1.09238	1791.00231	62367.942	42.8652	0.0
1430.0	0.0	1.0	7.08757	7.81581	-0.76303	28.5106	29.96438	1.8521	0.53993	0.0	109.9312	0.0	0.49776	7.70451	7.70451	1.07893	1.07893	1792.7629	62154.145	42.7594	0.0
1425.0	0.0	1.0	7.09138	7.8116	-0.81637	28.46907	29.88705	1.85144	0.54012	0.0	110.116	0.0	0.49776	7.77811	7.77811	1.06559	1.06559	1794.52001	61940.875	42.654	0.0
1420.0	0.0	1.0	7.09519	7.80742	-0.86955	28.42766	29.80972	1.85078	0.54031	0.0	110.30081	0.0	0.49776	7.85286	7.85286	1.05234	1.05234	1796.27359	61728.127	42.5496	0.0
1417.52	0.0	1.0	7.09707	7.80534	-0.89585	28.4072	29.7714	1.85045	0.54041	0.0	110.3924	0.0	0.49776	7.89034	7.89034	1.0458	1.0458	1797.14143	61622.881	42.468	0.0
1415.0	0.0946506	0.90535	7.11296	7.78793	-1.11699	27.86013	29.9137	1.8389	0.5438	0.00621507	109.72884	0.0020925	0.48508	7.92355	9.77008	1.03987	0.84333	1796.18589	60427.18	474.153	1088.716
1410.0	0.25224	0.74776	7.1399	7.75848	-1.49091	26.94489	30.14927	1.81913	0.54971	0.32021	108.66941	0.10938	0.46372	7.98931	53.51835	1.02825	0.1535	1794.4353	58410.852	403.266	2893.331
1405.0	0.37397	0.62603	7.16136	7.73527	-1.78562	26.23898	30.32596	1.80316	0.55458	1.57364	107.92513	0.54375	0.44702	8.05551	229.35684	1.01677	0.0357113	1792.82273	56812.903	319.59	4280.079
1400.0	0.46983	0.53017	7.1789	7.71641	-2.02502	25.67929	30.45851	1.78996	0.55867	3.97814	107.40871	1.38736	0.4337	8.12179	583.86073	1.00547	0.0139866	1791.33867	55516.264	259.328	5366.025
1397.23	0.51388	0.48612	7.18724	7.70744	-2.13897	25.4187	30.51545	1.78366	0.56064	5.73465	107.20292	2.00859	0.42753	8.159	855.37507	0.99923	0.00953114	1790.55535	54902.567	 	5863.146
1395.0	0.55094	0.44906	7.19436	7.69989	-2.23477	25.19694	30.59764	1.7765	0.56291	7.15026	106.80263	2.51376	0.42223	8.18115	1142.8975	0.99519	0.00712385	1789.7072	54414.648	220.323	6257.454
1390.0	0.62266	0.37734	7.20863	7.68472	-2.42737	24.75834	30.74766	1.76253	0.56737	10.7236	106.11529	3.79763	0.41188	8.23092	1933.29015	0.98621	0.00419876	1787.95337	53442.071	194.515	7020.344
1385.0	0.67999	0.32001	7.22068	7.67204	-2.58844	24.40372	30.8547	1.75114	0.57106	14.57045	105.67285	5.19061	0.40354	8.28182	2875.60755	0.9772	0.00281437	1786.33708	52623.389	163.736	7629.836
1380.0	0.72655	0.27345	7.23116	7.66109	-2.7275	24.10764	30.92897	1.74166	0.57416	18.55321	105.40632	6.64182	0.3967	8.33316	3937.97799	0.96825	0.00204892	1784.84821	51919.843	140.709	8124.688
1375.0	0.76494	0.23506	7.24042	7.65144	-2.84995	23.85563	30.97795	1.73365	0.57682	22.59684	105.26903	8.12253	0.391	8.38536	5097.97961	0.95932	0.00157792	1783.47484	51304.234	123.122	8532.095
1370.0	0.79696	0.20304	7.24876	7.64284	-2.95914	23.63887	31.00736	1.72675	0.57912	26.66942	105.22922	9.61965	0.38619	8.43837	6340.92806	0.9504	0.00126477	1782.20286	50757.032	109.44	8871.586
1365.0	0.82398	0.17602	7.25639	7.63501	-3.05862	23.44774	31.0212	1.72073	0.58115	30.77385	105.26309	11.13305	0.38209	8.49191	7659.18043	0.94153	0.0010439	1781.02684	50263.922	98.622	9157.469
1360.0	0.84698	0.15302	7.26343	7.62784	-3.14966	23.27897	31.02272	1.71539	0.58296	34.9265	105.35419	12.66773	0.37856	8.54673	9049.18257	0.93264	8.80853E-4	1779.93181	49814.211	89.9422	9400.435
1355.0	0.86681	0.13319	7.27004	7.62114	-3.23463	23.12609	31.01435	1.7106	0.58459	39.16596	105.4893	14.23721	0.37548	8.60237	10513.89999	0.92377	7.55818E-4	1778.91444	49399.165	83.0092	9609.216
1350.0	0.88421	0.11579	7.27636	7.6148	-3.31524	22.98446	30.99843	1.70623	0.58609	43.56539	105.65814	15.86808	0.37274	8.65897	12066.56052	0.91491	6.56541E-4	1777.96541	49010.866	77.6598	9791.726
1345.0	0.89963	0.10037	7.28245	7.6087	-3.39264	22.85089	30.97618	1.70219	0.58748	48.15027	105.85373	17.56955	0.37028	8.71639	13713.90702	0.90609	5.75896E-4	1777.08172	48644.851	73.203	9952.426
1340.0	0.91336	0.0866378	7.28837	7.60284	-3.46708	22.7248	30.94878	1.69844	0.58878	52.92274	106.0713	19.34237	0.36805	8.77516	15463.76074	0.89723	5.09151E-4	1776.25159	48297.604	69.4494	10094.828
1336.05	0.92279	0.0772073	7.29281	7.59845	-3.52277	22.63345	30.92295	1.69569	0.58973	56.64392	106.25808	20.72594	0.3665	8.82207	16894.28899	0.89028	4.64897E-4	1775.62908	48038.503	 	10192.374
1335.0	0.92598	0.0740213	7.29431	7.59697	-3.54154	22.59765	30.91831	1.69484	0.59003	57.98354	106.30152	21.22411	0.36598	8.83712	17344.1003	0.88818	4.52545E-4	1775.72788	47960.885	67.3438	10227.17
1330.0	0.94028	0.0597172	7.30128	7.59016	-3.62805	22.4348	30.89303	1.69095	0.59138	64.55194	106.52192	23.66885	0.36365	8.90932	19579.21603	0.87825	3.99637E-4	1776.2134	47602.115	71.754	10382.028
1325.0	0.95296	0.0470441	7.3079	7.58375	-3.70944	22.28554	30.86233	1.68736	0.59264	71.03478	106.7631	26.0861	0.36154	8.98276	21945.13757	0.86835	3.5544E-4	1776.70802	47262.887	67.8456	10517.806
1320.0	0.96428	0.0357161	7.31423	7.57766	-3.78674	22.14697	30.82706	1.684	0.59382	77.132	107.02076	28.36504	0.35963	9.0571	24457.02226	0.85853	3.17936E-4	1777.21128	46939.904	64.5966	10637.798
1315.0	0.97449	0.0255087	7.32035	7.57184	-3.86067	22.01717	30.78788	1.68085	0.59494	82.61187	107.29159	30.41948	0.35788	9.13285	27130.97789	0.84873	2.85702E-4	1777.71972	46630.58	61.8648	10744.588
1310.0	0.98376	0.0162447	7.32628	7.56623	-3.93191	21.89424	30.74525	1.67788	0.59599	87.38397	107.57302	32.21514	0.35626	9.20963	29984.38221	0.83901	2.577E-4	1778.23495	46332.86	59.544	10840.226
1305.0	0.99222	0.00778032	7.33207	7.56079	-4.00094	21.77685	30.69944	1.67508	0.59699	91.5096	107.86303	33.77367	0.35475	9.2875	33035.50484	0.82935	2.3316E-4	1778.75671	46045.093	57.5534	10926.364
1300.0	1.0	0.0	7.33775	7.5555	-4.06811	21.66403	30.6507	1.67243	0.59793	95.17979	108.16009	35.1649	0.35334	 	36304.19084	 	2.11495E-4	 	45765.933	55.832	11004.34
1295.0	1.0	0.0	7.34038	7.55279	-4.1025	21.64744	30.58399	1.67075	0.59853	95.61159	108.49164	35.33005	0.35312	 	38707.30413	 	1.97734E-4	 	45514.201	50.3464	 
1290.0	1.0	0.0	7.34301	7.55009	-4.13684	21.63087	30.51729	1.66906	0.59914	96.04327	108.82208	35.49521	0.3529	 	41286.52212	 	1.8479E-4	 	45323.594	38.1214	 
1285.0	1.0	0.0	7.34564	7.54739	-4.17112	21.61433	30.45059	1.66737	0.59975	96.47482	109.15141	35.66037	0.35269	 	44055.95442	 	1.7262E-4	 	45133.291	38.0606	 
1280.0	1.0	0.0	7.34827	7.54469	-4.20536	21.5978	30.38388	1.66567	0.60036	96.90625	109.47964	35.82554	0.35247	 	47030.93512	 	1.61182E-4	 	44943.286	38.001	 
1275.0	1.0	0.0	7.35089	7.542	-4.23954	21.58129	30.31718	1.66396	0.60098	97.33754	109.80676	35.99071	0.35226	 	50228.13703	 	1.50436E-4	 	44753.574	37.9424	 
1270.0	1.0	0.0	7.35351	7.53931	-4.27368	21.5648	30.25047	1.66224	0.6016	97.76869	110.13277	36.15588	0.35204	 	53665.69734	 	1.40345E-4	 	44564.154	37.884	 
1265.0	1.0	0.0	7.35613	7.53663	-4.30776	21.54833	30.18377	1.66052	0.60222	98.19971	110.45768	36.32105	0.35183	 	57363.35587	 	1.30873E-4	 	44375.025	37.8258	 
1260.0	1.0	0.0	7.35875	7.53395	-4.3418	21.53187	30.11706	1.65878	0.60285	98.63058	110.78149	36.48623	0.35161	 	61342.6073	 	1.21986E-4	 	44186.188	37.7674	 
1255.0	1.0	0.0	7.36136	7.53127	-4.37578	21.51544	30.05035	1.65704	0.60348	99.06131	111.1042	36.6514	0.3514	 	65626.86881	 	1.1365E-4	 	43997.642	37.7092	 
1250.0	1.0	0.0	7.36398	7.5286	-4.40972	21.49902	29.98365	1.6553	0.60412	99.49188	111.4258	36.81657	0.35118	 	70241.66488	 	1.05836E-4	 	43809.388	37.6508	 
1245.0	1.0	0.0	7.36659	7.52593	-4.4436	21.48263	29.91694	1.65354	0.60476	99.92231	111.74631	36.98173	0.35097	 	75214.83102	 	9.8514E-5	 	43621.425	37.5926	 
1240.0	1.0	0.0	7.3692	7.52326	-4.47744	21.46625	29.85023	1.65178	0.60541	100.35257	112.06572	37.14689	0.35075	 	80576.73857	 	9.16556E-5	 	43433.748	37.5354	 
1235.0	1.0	0.0	7.3718	7.5206	-4.51123	21.44989	29.78352	1.65001	0.60606	100.78268	112.38403	37.31204	0.35054	 	86360.54285	 	8.52346E-5	 	43246.351	37.4794	 
1230.0	1.0	0.0	7.37441	7.51794	-4.54496	21.43355	29.71681	1.64823	0.60671	101.21262	112.70125	37.47719	0.35032	 	92602.45725	 	7.92258E-5	 	43059.236	37.423	 
1225.0	1.0	0.0	7.37701	7.51529	-4.57865	21.41723	29.6501	1.64644	0.60737	101.6424	113.01737	37.64232	0.35011	 	99342.05612	 	7.36053E-5	 	42872.401	37.367	 
1220.0	1.0	0.0	7.37961	7.51264	-4.61229	21.40093	29.58339	1.64465	0.60803	102.07201	113.3324	37.80745	0.34989	 	106622.6097	 	6.83504E-5	 	42685.845	37.3112	 
1215.0	1.0	0.0	7.38221	7.51	-4.64588	21.38464	29.51668	1.64285	0.6087	102.50145	113.64633	37.97256	0.34968	 	114491.4548	 	6.34396E-5	 	42499.569	37.2552	 
1210.0	1.0	0.0	7.38481	7.50735	-4.67942	21.36838	29.44996	1.64104	0.60937	102.93071	113.95917	38.13767	0.34946	 	123000.4049	 	5.88525E-5	 	42313.572	37.1994	 
1205.0	1.0	0.0	7.38741	7.50472	-4.71291	21.35213	29.38325	1.63922	0.61005	103.35979	114.27092	38.30276	0.34925	 	132206.2046	 	5.45699E-5	 	42127.853	37.1438	 
1200.0	1.0	0.0	7.39	7.50208	-4.74635	21.3359	29.31654	1.63739	0.61073	103.78869	114.58159	38.46783	0.34903	 	142171.0335	 	5.05734E-5	 	41942.411	37.0884	 
1195.0	1.0	0.0	7.39259	7.49945	-4.77974	21.3197	29.24982	1.63555	0.61141	104.21741	114.89116	38.63289	0.34882	 	152963.0645	 	4.68458E-5	 	41757.247	37.0328	 
1190.0	1.0	0.0	7.39518	7.49683	-4.81309	21.30351	29.18311	1.63371	0.6121	104.64594	115.19965	38.79793	0.3486	 	164657.0837	 	4.33706E-5	 	41572.359	36.9776	 
1185.0	1.0	0.0	7.39777	7.4942	-4.84638	21.28734	29.11639	1.63186	0.6128	105.07427	115.50706	38.96295	0.34839	 	177335.1788	 	4.01323E-5	 	41387.747	36.9224	 
1180.0	1.0	0.0	7.40035	7.49159	-4.87963	21.27118	29.04967	1.63	0.6135	105.50242	115.81338	39.12796	0.34817	 	191087.5037	 	3.71163E-5	 	41203.411	36.8672	 
1175.0	1.0	0.0	7.40294	7.48897	-4.91282	21.25505	28.98296	1.62813	0.6142	105.93036	116.11861	39.29294	0.34796	 	206013.1283	 	3.43088E-5	 	41019.35	36.8122	 
1170.0	1.0	0.0	7.40552	7.48636	-4.94597	21.23894	28.91624	1.62625	0.61491	106.35811	116.42277	39.4579	0.34774	 	222220.9846	 	3.16966E-5	 	40835.563	36.7574	 
1165.0	1.0	0.0	7.4081	7.48375	-4.97907	21.22284	28.84952	1.62436	0.61563	106.78565	116.72585	39.62284	0.34753	 	239830.9192	 	2.92675E-5	 	40652.05	36.7026	 
1160.0	1.0	0.0	7.41068	7.48115	-5.01212	21.20677	28.7828	1.62247	0.61634	107.21299	117.02784	39.78776	0.34731	 	258974.8654	 	2.70098E-5	 	40468.81	36.648	 
1155.0	1.0	0.0	7.41325	7.47855	-5.04513	21.19071	28.71608	1.62056	0.61707	107.64011	117.32876	39.95265	0.3471	 	279798.1506	 	2.49124E-5	 	40285.843	36.5934	 
1150.0	1.0	0.0	7.41583	7.47596	-5.07808	21.17467	28.64936	1.61865	0.6178	108.06703	117.6286	40.11751	0.34688	 	302460.9531	 	2.29651E-5	 	40103.148	36.539	 
1145.0	1.0	0.0	7.4184	7.47336	-5.11099	21.15865	28.58264	1.61673	0.61853	108.49373	117.92737	40.28235	0.34667	 	327139.929	 	2.1158E-5	 	39920.725	36.4846	 
1140.0	1.0	0.0	7.42097	7.47078	-5.14385	21.14265	28.51592	1.6148	0.61927	108.92021	118.22507	40.44716	0.34645	 	354030.0286	 	1.94821E-5	 	39738.573	36.4304	 
1135.0	1.0	0.0	7.42354	7.46819	-5.17666	21.12667	28.44919	1.61286	0.62002	109.34647	118.52169	40.61193	0.34624	 	383346.5258	 	1.79285E-5	 	39556.691	36.3764	 
1130.0	1.0	0.0	7.4261	7.46561	-5.20942	21.1107	28.38247	1.61091	0.62077	109.77251	118.81724	40.77668	0.34602	 	415327.2884	 	1.64892E-5	 	39375.08	36.3222	 
1125.0	1.0	0.0	7.42867	7.46304	-5.24214	21.09476	28.31574	1.60895	0.62152	110.19832	119.11172	40.9414	0.34581	 	450235.3179	 	1.51566E-5	 	39193.738	36.2684	 
1120.0	1.0	0.0	7.43123	7.46046	-5.2748	21.07884	28.24902	1.60699	0.62228	110.6239	119.40514	41.10609	0.34559	 	488361.5938	 	1.39233E-5	 	39012.664	36.2148	 
1115.0	1.0	0.0	7.43379	7.45789	-5.30742	21.06293	28.18229	1.60501	0.62305	111.04925	119.69749	41.27074	0.34538	 	530028.2609	 	1.27827E-5	 	38831.859	36.161	 
1110.0	1.0	0.0	7.43635	7.45533	-5.33999	21.04704	28.11557	1.60302	0.62382	111.47436	119.98877	41.43535	0.34516	 	575592.2036	 	1.17285E-5	 	38651.321	36.1076	 
1105.0	1.0	0.0	7.4389	7.45277	-5.37252	21.03117	28.04884	1.60103	0.6246	111.89924	120.27899	41.59993	0.34494	 	625449.0561	 	1.07545E-5	 	38471.051	36.054	 
1100.0	1.0	0.0	7.44145	7.45021	-5.40499	21.01532	27.98211	1.59902	0.62538	112.32387	120.56815	41.76448	0.34473	 	680037.7068	 	9.85534E-6	 	38291.047	36.0008	 
1095.0	1.0	0.0	7.44401	7.44766	-5.43742	20.99949	27.91538	1.59701	0.62617	112.74827	120.85624	41.92898	0.34451	 	739845.3596	 	9.02567E-6	 	38111.309	35.9476	 
1090.0	1.0	0.0	7.44656	7.4451	-5.4698	20.98368	27.84865	1.59499	0.62696	113.17241	121.14328	42.09345	0.3443	 	805413.2261	 	8.2606E-6	 	37931.836	35.8946	 
1085.0	1.0	0.0	7.4491	7.44256	-5.50213	20.96788	27.78192	1.59295	0.62776	113.59631	121.42926	42.25788	0.34408	 	877342.9316	 	7.55553E-6	 	37752.628	35.8416	 
1080.0	1.0	0.0	7.45165	7.44002	-5.53442	20.95211	27.71519	1.59091	0.62857	114.01996	121.71418	42.42226	0.34387	 	956303.731	 	6.90616E-6	 	37573.684	35.7888	 
1075.0	1.0	0.0	7.45419	7.43748	-5.56666	20.93635	27.64846	1.58886	0.62938	114.44335	121.99805	42.58661	0.34365	 	1043040.641	 	6.30846E-6	 	37395.004	35.736	 
1070.0	1.0	0.0	7.45674	7.43494	-5.59885	20.92062	27.58173	1.58679	0.6302	114.86648	122.28086	42.75091	0.34344	 	1138383.613	 	5.75868E-6	 	37216.586	35.6836	 
1065.0	1.0	0.0	7.45928	7.43241	-5.631	20.9049	27.515	1.58472	0.63103	115.28936	122.56263	42.91517	0.34322	 	1243257.892	 	5.25328E-6	 	37038.431	35.631	 
1060.0	1.0	0.0	7.46181	7.42988	-5.6631	20.8892	27.44826	1.58264	0.63186	115.71197	122.84334	43.07938	0.34301	 	1358695.713	 	4.78899E-6	 	36860.538	35.5786	 
1055.0	1.0	0.0	7.46435	7.42736	-5.69515	20.87352	27.38153	1.58055	0.63269	116.13432	123.123	43.24355	0.34279	 	1485849.531	 	4.36274E-6	 	36682.905	35.5266	 
1050.0	1.0	0.0	7.46688	7.42484	-5.72715	20.85786	27.31479	1.57844	0.63354	116.5564	123.40162	43.40767	0.34258	 	1626006.991	 	3.97167E-6	 	36505.533	35.4744	 
1045.0	1.0	0.0	7.46942	7.42232	-5.75911	20.84222	27.24806	1.57633	0.63439	116.97821	123.67919	43.57174	0.34236	 	1780607.875	 	3.61313E-6	 	36328.421	35.4224	 
1040.0	1.0	0.0	7.47195	7.41981	-5.79102	20.82659	27.18132	1.57421	0.63524	117.39975	123.95572	43.73576	0.34215	 	1951263.32	 	3.28462E-6	 	36151.568	35.3706	 
1035.0	1.0	0.0	7.47447	7.4173	-5.82289	20.81099	27.11458	1.57207	0.6361	117.82101	124.2312	43.89973	0.34193	 	2139777.609	 	2.98384E-6	 	35974.973	35.319	 
1030.0	1.0	0.0	7.477	7.41479	-5.8547	20.7954	27.04784	1.56993	0.63697	118.242	124.50565	44.06365	0.34172	 	2348172.912	 	2.70864E-6	 	35798.637	35.2672	 
1025.0	1.0	0.0	7.47953	7.41229	-5.88647	20.77983	26.9811	1.56777	0.63785	118.6627	124.77905	44.22752	0.3415	 	2578717.398	 	2.45702E-6	 	35622.557	35.216	 
1020.0	1.0	0.0	7.48205	7.40979	-5.9182	20.76429	26.91436	1.56561	0.63873	119.08313	125.05141	44.39134	0.34129	 	2833957.204	 	2.22711E-6	 	35446.735	35.1644	 
1015.0	1.0	0.0	7.48457	7.40729	-5.94988	20.74876	26.84762	1.56343	0.63962	119.50326	125.32274	44.5551	0.34107	 	3116752.817	 	2.01721E-6	 	35271.168	35.1134	 
1010.0	1.0	0.0	7.48709	7.4048	-5.98151	20.73324	26.78088	1.56124	0.64052	119.92311	125.59304	44.71881	0.34086	 	3430320.529	 	1.8257E-6	 	35095.856	35.0624	 
1005.0	1.0	0.0	7.4896	7.40232	-6.0131	20.71775	26.71414	1.55904	0.64142	120.34267	125.8623	44.88246	0.34064	 	3778279.687	 	1.6511E-6	 	34920.799	35.0114	 
1000.0	1.0	0.0	7.49212	7.39983	-6.04464	20.70228	26.64739	1.55684	0.64233	120.76194	126.13053	45.04606	0.34043	 	4164706.629	 	1.49204E-6	 	34745.996	34.9606	 
995.0	1.0	0.0	7.49463	7.39735	-6.07613	20.68683	26.58065	1.55461	0.64325	121.18091	126.39773	45.2096	0.34021	 	4594196.279	 	1.34725E-6	 	34571.446	34.91	 
990.0	1.0	0.0	7.49714	7.39487	-6.10758	20.67139	26.5139	1.55238	0.64417	121.59958	126.6639	45.37308	0.34	 	5071932.567	 	1.21554E-6	 	34397.148	34.8596	 
985.0	1.0	0.0	7.49965	7.3924	-6.13898	20.65597	26.44716	1.55014	0.6451	122.01795	126.92904	45.5365	0.33978	 	5603769.012	 	1.09582E-6	 	34223.102	34.8092	 
980.0	1.0	0.0	7.50215	7.38993	-6.17034	20.64058	26.38041	1.54789	0.64604	122.43602	127.19316	45.69986	0.33957	 	6196321.017	 	9.87088E-7	 	34049.308	34.7588	 
975.0	1.0	0.0	7.50466	7.38746	-6.20165	20.6252	26.31366	1.54562	0.64699	122.85378	127.45626	45.86315	0.33935	 	6857071.674	 	8.88413E-7	 	33875.763	34.709	 
970.0	1.0	0.0	7.50716	7.385	-6.23292	20.60984	26.24691	1.54335	0.64794	123.27124	127.71833	46.02639	0.33914	 	7594493.185	 	7.98935E-7	 	33702.469	34.6588	 
965.0	1.0	0.0	7.50966	7.38254	-6.26414	20.5945	26.18016	1.54106	0.64891	123.68839	127.97938	46.18956	0.33892	 	8418186.317	 	7.17863E-7	 	33529.423	34.6092	 
960.0	1.0	0.0	7.51216	7.38009	-6.29531	20.57917	26.11341	1.53876	0.64988	124.10522	128.23941	46.35267	0.33871	 	9339040.75	 	6.44466E-7	 	33356.625	34.5596	 
955.0	1.0	0.0	7.51466	7.37764	-6.32644	20.56387	26.04666	1.53645	0.65085	124.52174	128.49843	46.51571	0.33849	 	1.036941961E7	 	5.78074E-7	 	33184.075	34.51	 
950.0	1.0	0.0	7.51715	7.37519	-6.35753	20.54859	25.97991	1.53412	0.65184	124.93794	128.75643	46.67869	0.33828	 	1.152337203E7	 	5.18068E-7	 	33011.771	34.4608	 
945.0	1.0	0.0	7.51964	7.37274	-6.38857	20.53332	25.91315	1.53179	0.65283	125.35382	129.01341	46.84159	0.33806	 	1.281687833E7	 	4.6388E-7	 	32839.713	34.4116	 
940.0	1.0	0.0	7.52213	7.3703	-6.41956	20.51807	25.8464	1.52944	0.65383	125.76938	129.26938	47.00444	0.33785	 	1.426813298E7	 	4.14987E-7	 	32667.9	34.3626	 
935.0	1.0	0.0	7.52462	7.36787	-6.45051	20.50285	25.77964	1.52708	0.65484	126.18461	129.52434	47.16721	0.33763	 	1.589787157E7	 	3.7091E-7	 	32496.332	34.3136	 
930.0	1.0	0.0	7.52711	7.36543	-6.48141	20.48764	25.71289	1.52471	0.65586	126.59952	129.77829	47.32991	0.33742	 	1.772974905E7	 	3.3121E-7	 	32325.006	34.2652	 
925.0	1.0	0.0	7.52959	7.363	-6.51227	20.47245	25.64613	1.52232	0.65689	127.0141	130.03123	47.49254	0.3372	 	1.979077775E7	 	2.95485E-7	 	32153.923	34.2166	 
920.0	1.0	0.0	7.53207	7.36057	-6.54308	20.45728	25.57937	1.51993	0.65793	127.42834	130.28317	47.6551	0.33699	 	2.211183504E7	 	2.63364E-7	 	31983.082	34.1682	 
915.0	1.0	0.0	7.53456	7.35815	-6.57385	20.44212	25.51261	1.51752	0.65897	127.84225	130.5341	47.81758	0.33677	 	2.472825248E7	 	2.34512E-7	 	31812.482	34.12	 
910.0	1.0	0.0	7.53703	7.35573	-6.60458	20.42699	25.44585	1.5151	0.66002	128.25583	130.78402	47.98	0.33656	 	2.768050027E7	 	2.08618E-7	 	31642.122	34.072	 
905.0	1.0	0.0	7.53951	7.35331	-6.63526	20.41187	25.37909	1.51266	0.66109	128.66906	131.03295	48.14234	0.33634	 	3.101498319E7	 	1.85403E-7	 	31472.001	34.0242	 
900.0	1.0	0.0	7.54199	7.3509	-6.66589	20.39678	25.31233	1.51022	0.66216	129.08196	131.28087	48.3046	0.33612	 	3.478496734E7	 	1.64607E-7	 	31302.118	33.9766	 
895.0	1.0	0.0	7.54446	7.34849	-6.69648	20.3817	25.24557	1.50776	0.66324	129.49451	131.5278	48.46678	0.33591	 	3.905166033E7	 	1.45998E-7	 	31132.473	33.929	 
890.0	1.0	0.0	7.54693	7.34609	-6.72703	20.36664	25.17881	1.50528	0.66433	129.90671	131.77372	48.62889	0.33569	 	4.388547184E7	 	1.2936E-7	 	30963.063	33.882	 
885.0	1.0	0.0	7.5494	7.34368	-6.75753	20.3516	25.11204	1.5028	0.66543	130.31857	132.01866	48.79092	0.33548	 	4.936748624E7	 	1.14501E-7	 	30793.889	33.8348	 
880.0	1.0	0.0	7.55186	7.34129	-6.78799	20.33658	25.04528	1.5003	0.66653	130.73007	132.26259	48.95288	0.33526	 	5.559118511E7	 	1.01243E-7	 	30624.95	33.7878	 
875.0	1.0	0.0	7.55433	7.33889	-6.8184	20.32158	24.97851	1.49779	0.66765	131.14122	132.50554	49.11475	0.33505	 	6.266446437E7	 	8.9426E-8	 	30456.244	33.7412	 
870.0	1.0	0.0	7.55679	7.3365	-6.84877	20.3066	24.91174	1.49526	0.66878	131.55202	132.74749	49.27654	0.33483	 	7.071199933E7	 	7.89036E-8	 	30287.77	33.6948	 
865.0	1.0	0.0	7.55925	7.33411	-6.8791	20.29163	24.84497	1.49272	0.66992	131.96246	132.98846	49.43825	0.33462	 	7.987802087E7	 	6.95439E-8	 	30119.527	33.6486	 
860.0	1.0	0.0	7.56171	7.33173	-6.90938	20.27669	24.7782	1.49017	0.67107	132.37254	133.22844	49.59987	0.3344	 	9.032957849E7	 	6.12272E-8	 	29951.515	33.6024	 
855.0	1.0	0.0	7.56417	7.32934	-6.93962	20.26176	24.71143	1.4876	0.67222	132.78226	133.46743	49.76142	0.33419	 	1.022603802E8	 	5.38451E-8	 	29783.732	33.5566	 
850.0	1.0	0.0	7.56662	7.32697	-6.96981	20.24686	24.64466	1.48502	0.67339	133.19162	133.70543	49.92287	0.33397	 	1.15895317E8	 	4.72997E-8	 	29616.177	33.511	 
845.0	1.0	0.0	7.56908	7.32459	-6.99996	20.23197	24.57789	1.48243	0.67457	133.6006	133.94246	50.08425	0.33376	 	1.314958007E8	 	4.15026E-8	 	29448.849	33.4656	 
840.0	1.0	0.0	7.57153	7.32222	-7.03007	20.2171	24.51112	1.47982	0.67576	134.00922	134.1785	50.24554	0.33354	 	1.4936607E8	 	3.63738E-8	 	29281.746	33.4206	 
835.0	1.0	0.0	7.57398	7.31985	-7.06013	20.20225	24.44434	1.4772	0.67696	134.41747	134.41356	50.40674	0.33333	 	1.698606494E8	 	3.18414E-8	 	29114.868	33.3756	 
830.0	1.0	0.0	7.57642	7.31749	-7.09015	20.18741	24.37757	1.47456	0.67817	134.82535	134.64765	50.56785	0.33311	 	1.933931834E8	 	2.78407E-8	 	28948.213	33.331	 
825.0	1.0	0.0	7.57887	7.31513	-7.12012	20.1726	24.31079	1.47191	0.67939	135.23285	134.88076	50.72887	0.3329	 	2.204469156E8	 	2.43133E-8	 	28781.78	33.2866	 
820.0	1.0	0.0	7.58131	7.31277	-7.15006	20.15781	24.24401	1.46924	0.68062	135.63998	135.11289	50.88981	0.33268	 	2.515871327E8	 	2.12069E-8	 	28615.567	33.2426	 
815.0	1.0	0.0	7.58375	7.31042	-7.17995	20.14303	24.17724	1.46656	0.68187	136.04672	135.34405	51.05065	0.33247	 	2.874759649E8	 	1.84746E-8	 	28449.574	33.1986	 
810.0	1.0	0.0	7.58619	7.30806	-7.20979	20.12827	24.11046	1.46386	0.68312	136.45308	135.57424	51.2114	0.33225	 	3.288900122E8	 	1.6074E-8	 	28283.798	33.1552	 
805.0	1.0	0.0	7.58863	7.30572	-7.2396	20.11354	24.04368	1.46115	0.68439	136.85906	135.80345	51.37206	0.33204	 	3.76741367E8	 	1.39676E-8	 	28118.239	33.1118	 
800.0	1.0	0.0	7.59107	7.30337	-7.26936	20.09882	23.9769	1.45843	0.68567	137.26466	136.0317	51.53263	0.33182	 	4.321027213E8	 	1.21216E-8	 	27952.894	33.069	 
795.0	1.0	0.0	7.5935	7.30103	-7.29907	20.08412	23.91011	1.45569	0.68696	137.66986	136.25899	51.6931	0.33161	 	4.96237399E8	 	1.05058E-8	 	27787.763	33.0262	 
790.0	1.0	0.0	7.59593	7.2987	-7.32875	20.06944	23.84333	1.45293	0.68826	138.07468	136.4853	51.85348	0.33139	 	5.706353291E8	 	9.09332E-9	 	27622.843	32.984	 
785.0	1.0	0.0	7.59836	7.29636	-7.35838	20.05477	23.77655	1.45016	0.68958	138.4791	136.71066	52.01377	0.33118	 	6.570562013E8	 	7.86016E-9	 	27458.133	32.942	 
780.0	1.0	0.0	7.60079	7.29403	-7.38797	20.04013	23.70976	1.44737	0.69091	138.88313	136.93505	52.17395	0.33096	 	7.575813167E8	 	6.78497E-9	 	27293.631	32.9004	 
775.0	1.0	0.0	7.60321	7.29171	-7.41751	20.0255	23.64297	1.44457	0.69225	139.28676	137.15848	52.33404	0.33075	 	8.746759796E8	 	5.84875E-9	 	27129.335	32.8592	 
770.0	1.0	0.0	7.60564	7.28938	-7.44701	20.0109	23.57619	1.44175	0.6936	139.69	137.38095	52.49404	0.33053	 	1.011264691E9	 	5.03464E-9	 	26965.243	32.8184	 
765.0	1.0	0.0	7.60806	7.28706	-7.47648	19.99631	23.5094	1.43892	0.69497	140.09283	137.60247	52.65393	0.33032	 	1.170821914E9	 	4.32769E-9	 	26801.354	32.7778	 
760.0	1.0	0.0	7.61048	7.28474	-7.50589	19.98174	23.44261	1.43607	0.69635	140.49526	137.82302	52.81372	0.3301	 	1.357481812E9	 	3.71463E-9	 	26637.665	32.7378	 
755.0	1.0	0.0	7.6129	7.28243	-7.53527	19.96719	23.37582	1.4332	0.69774	140.89729	138.04263	52.97342	0.32989	 	1.576171131E9	 	3.18376E-9	 	26474.173	32.6984	 
750.0	1.0	0.0	7.61531	7.28012	-7.5646	19.95266	23.30903	1.43032	0.69914	141.29891	138.26128	53.13301	0.32967	 	1.832770394E9	 	2.7247E-9	 	26310.877	32.6592	 
745.0	1.0	0.0	7.61773	7.27781	-7.59389	19.93815	23.24224	1.42742	0.70057	141.70012	138.47898	53.2925	0.32946	 	2.134309737E9	 	2.32831E-9	 	26147.775	32.6204	 
740.0	1.0	0.0	7.62014	7.27551	-7.62314	19.92366	23.17544	1.4245	0.702	142.10092	138.69574	53.45188	0.32924	 	2.489207257E9	 	1.98655E-9	 	25984.863	32.5824	 
735.0	1.0	0.0	7.62255	7.27321	-7.65235	19.90919	23.10865	1.42157	0.70345	142.5013	138.91154	53.61117	0.32903	 	2.907559579E9	 	1.69232E-9	 	25822.139	32.5448	 
730.0	1.0	0.0	7.62496	7.27091	-7.68151	19.89473	23.04186	1.41862	0.70491	142.90128	139.1264	53.77035	0.32881	 	3.401496714E9	 	1.4394E-9	 	25659.599	32.508	 
725.0	1.0	0.0	7.62736	7.26862	-7.71064	19.88029	22.97506	1.41565	0.70639	143.30083	139.34031	53.92942	0.3286	 	3.985616185E9	 	1.22233E-9	 	25497.242	32.4714	 
720.0	1.0	0.0	7.62977	7.26633	-7.73972	19.86588	22.90826	1.41267	0.70788	143.69997	139.55328	54.08838	0.32838	 	4.677515081E9	 	1.0363E-9	 	25335.063	32.4358	 
715.0	1.0	0.0	7.63217	7.26404	-7.76876	19.85148	22.84146	1.40967	0.70939	144.09868	139.76531	54.24724	0.32817	 	5.498443312E9	 	8.77142E-10	 	25173.06	32.4006	 
710.0	1.0	0.0	7.63457	7.26176	-7.79776	19.8371	22.77467	1.40665	0.71091	144.49697	139.9764	54.406	0.32795	 	6.47410715E9	 	7.41185E-10	 	25011.228	32.3664	 
705.0	1.0	0.0	7.63697	7.25948	-7.82671	19.82274	22.70787	1.40361	0.71245	144.89484	140.18656	54.56464	0.32774	 	7.635659461E9	 	6.25238E-10	 	24849.564	32.3328	 
700.0	1.0	0.0	7.63936	7.2572	-7.85563	19.8084	22.64106	1.40056	0.714	145.29228	140.39577	54.72317	0.32752	 	9.020922341E9	 	5.26521E-10	 	24688.063	32.3002	 
695.0	1.0	0.0	7.64176	7.25493	-7.8845	19.79407	22.57426	1.39748	0.71557	145.68929	140.60405	54.8816	0.32731	 	1.06759E10	 	4.42614E-10	 	24526.721	32.2684	 
690.0	1.0	0.0	7.64415	7.25265	-7.91333	19.77977	22.50746	1.39439	0.71716	146.08587	140.8114	55.03991	0.32709	 	1.2656699999999998E10	 	3.71417E-10	 	24365.533	32.2376	 
685.0	1.0	0.0	7.64654	7.25039	-7.94212	19.76548	22.44065	1.39128	0.71876	146.48202	141.01781	55.19811	0.32688	 	1.5031599999999998E10	 	3.1111E-10	 	24204.494	32.2078	 
680.0	1.0	0.0	7.64893	7.24812	-7.97087	19.75122	22.37385	1.38816	0.72038	146.87773	141.2233	55.3562	0.32666	 	1.78845E10	 	2.60118E-10	 	24043.598	32.1792	 
675.0	1.0	0.0	7.65132	7.24586	-7.99958	19.73697	22.30704	1.38501	0.72202	147.27301	141.42786	55.51417	0.32645	 	2.1318E10	 	2.17079E-10	 	23882.839	32.1518	 
670.0	1.0	0.0	7.6537	7.2436	-8.02825	19.72274	22.24023	1.38184	0.72367	147.66784	141.63149	55.67204	0.32623	 	2.5458099999999996E10	 	1.80818E-10	 	23722.21	32.1258	 
665.0	1.0	0.0	7.65609	7.24135	-8.05687	19.70853	22.17342	1.37866	0.72534	148.06224	141.83419	55.82978	0.32601	 	3.0459799999999996E10	 	1.50325E-10	 	23561.705	32.101	 
660.0	1.0	0.0	7.65847	7.2391	-8.08546	19.69434	22.10661	1.37546	0.72703	148.45619	142.03597	55.98741	0.3258	 	3.65145E10	 	1.2473E-10	 	23401.314	32.0782	 
655.0	1.0	0.0	7.66085	7.23685	-8.114	19.68017	22.03979	1.37223	0.72874	148.8497	142.23683	56.14492	0.32558	 	4.38584E10	 	1.03288E-10	 	23241.031	32.0566	 
650.0	1.0	0.0	7.66322	7.23461	-8.1425	19.66601	21.97298	1.36899	0.73046	149.24277	142.43677	56.30232	0.32537	 	5.278419999999999E10	 	8.53601E-11	 	23080.844	32.0374	 
645.0	1.0	0.0	7.6656	7.23236	-8.17097	19.65188	21.90616	1.36573	0.73221	149.63538	142.63578	56.4596	0.32515	 	6.365499999999999E10	 	7.03992E-11	 	22920.743	32.0202	 
640.0	1.0	0.0	7.66797	7.23013	-8.19939	19.63776	21.83934	1.36245	0.73397	150.02754	142.83389	56.61676	0.32494	 	7.69224E10	 	5.79397E-11	 	22760.718	32.005	 
635.0	1.0	0.0	7.67034	7.22789	-8.22777	19.62367	21.77253	1.35915	0.73576	150.41926	143.03107	56.7738	0.32472	 	9.31492E10	 	4.75844E-11	 	22600.755	31.9926	 
630.0	1.0	0.0	7.67271	7.22566	-8.25611	19.60959	21.7057	1.35583	0.73756	150.81051	143.22734	56.93072	0.32451	 	1.13039E11	 	3.89959E-11	 	22440.84	31.983	 
625.0	1.0	0.0	7.67508	7.22343	-8.28441	19.59553	21.63888	1.35248	0.73938	151.20131	143.4227	57.08751	0.32429	 	1.37472E11	 	3.18877E-11	 	22280.958	31.9764	 
620.0	1.0	0.0	7.67745	7.2212	-8.31267	19.58149	21.57206	1.34912	0.74122	151.59166	143.61714	57.24419	0.32408	 	1.67553E11	 	2.60172E-11	 	22121.091	31.9734	 
615.0	1.0	0.0	7.67981	7.21898	-8.34089	19.56747	21.50523	1.34574	0.74309	151.98154	143.81068	57.40074	0.32386	 	2.04672E11	 	2.11795E-11	 	21961.219	31.9744	 
610.0	1.0	0.0	7.68217	7.21676	-8.36907	19.55346	21.4384	1.34233	0.74497	152.37096	144.00331	57.55717	0.32365	 	2.50582E11	 	1.72017E-11	 	21801.321	31.9796	 
605.0	1.0	0.0	7.68453	7.21455	-8.39721	19.53948	21.37157	1.33891	0.74688	152.75992	144.19503	57.71348	0.32343	 	3.07499E11	 	1.39384E-11	 	21640.565	32.1512	 
600.0	1.0	0.0	7.68689	7.21233	-8.42531	19.52551	21.30474	1.33546	0.74881	153.14842	144.38585	57.86966	0.32322	 	3.78231E11	 	1.12673E-11	 	21478.674	32.3782	 
595.0	1.0	0.0	7.68925	7.21012	-8.45337	19.51157	21.23791	1.33199	0.75076	153.53644	144.57576	58.02571	0.323	 	4.66345E11	 	9.08603E-12	 	21317.265	32.2818	 
590.0	1.0	0.0	7.6916	7.20792	-8.48139	19.49764	21.17107	1.3285	0.75273	153.924	144.76477	58.18164	0.32279	 	5.76384E11	 	7.30905E-12	 	21156.328	32.1874	 
585.0	1.0	0.0	7.69395	7.20571	-8.50937	19.48373	21.10423	1.32499	0.75472	154.31109	144.95288	58.33744	0.32257	 	7.14151E11	 	5.86489E-12	 	20995.851	32.0954	 
580.0	1.0	0.0	7.6963	7.20351	-8.53731	19.46984	21.03739	1.32145	0.75674	154.6977	145.14009	58.49312	0.32236	 	8.87075E11	 	4.69409E-12	 	20835.825	32.0052	 
575.0	1.0	0.0	7.69865	7.20131	-8.56521	19.45597	20.97055	1.31789	0.75879	155.08384	145.32641	58.64866	0.32214	 	1.10469E12	 	3.74729E-12	 	20676.24	31.917	 
570.0	1.0	0.0	7.701	7.19912	-8.59307	19.44212	20.90371	1.31431	0.76085	155.4695	145.51183	58.80407	0.32193	 	1.37929E12	 	2.98357E-12	 	20517.089	31.8302	 
565.0	1.0	0.0	7.70334	7.19693	-8.62089	19.42829	20.83686	1.31071	0.76294	155.85468	145.69635	58.95936	0.32171	 	1.72671E12	 	2.36913E-12	 	20358.362	31.7454	 
560.0	1.0	0.0	7.70568	7.19474	-8.64867	19.41447	20.77001	1.30709	0.76506	156.23939	145.87998	59.11451	0.3215	 	2.16748E12	 	1.87609E-12	 	20200.051	31.6622	 
555.0	1.0	0.0	7.70803	7.19256	-8.67641	19.40068	20.70316	1.30344	0.7672	156.62361	146.06272	59.26953	0.32128	 	2.72826E12	 	1.48153E-12	 	20042.151	31.58	 
550.0	1.0	0.0	7.71036	7.19037	-8.70412	19.3869	20.63631	1.29976	0.76937	157.00735	146.24457	59.42442	0.32107	 	3.44374E12	 	1.16664E-12	 	19884.652	31.4998	 
545.0	1.0	0.0	7.7127	7.18819	-8.73178	19.37314	20.56945	1.29607	0.77156	157.3906	146.42554	59.57917	0.32085	 	4.35925E12	 	9.16026E-13	 	19727.549	31.4206	 
540.0	1.0	0.0	7.71504	7.18602	-8.75941	19.35941	20.5026	1.29235	0.77379	157.77337	146.60561	59.73379	0.32064	 	5.53419E12	 	7.17139E-13	 	19570.835	31.3428	 
535.0	1.0	0.0	7.71737	7.18385	-8.78699	19.34569	20.43574	1.2886	0.77603	158.15564	146.7848	59.88828	0.32042	 	7.0466E12	 	5.59756E-13	 	19414.504	31.2662	 
530.0	1.0	0.0	7.7197	7.18168	-8.81454	19.33198	20.36888	1.28483	0.77831	158.53743	146.96311	60.04263	0.32021	 	8.99938E12	 	4.35583E-13	 	19258.551	31.1906	 
525.0	1.0	0.0	7.72203	7.17951	-8.84205	19.3183	20.30202	1.28104	0.78062	158.91872	147.14054	60.19685	0.31999	 	1.15286E13	 	3.37904E-13	 	19102.97	31.1162	 
520.0	1.0	0.0	7.72436	7.17735	-8.86951	19.30464	20.23515	1.27722	0.78295	159.29952	147.31708	60.35092	0.31978	 	1.48149E13	 	2.61302E-13	 	18947.756	31.0428	 
515.0	1.0	0.0	7.72668	7.17519	-8.89694	19.29099	20.16828	1.27338	0.78531	159.67983	147.49275	60.50486	0.31956	 	1.90987E13	 	2.01414E-13	 	18792.905	30.9702	 
510.0	1.0	0.0	7.72901	7.17303	-8.92434	19.27737	20.10142	1.26951	0.78771	160.05963	147.66754	60.65866	0.31935	 	2.47013E13	 	1.54743E-13	 	18638.41	30.899	 
505.0	1.0	0.0	7.73133	7.17087	-8.95169	19.26376	20.03454	1.26561	0.79013	160.43894	147.84145	60.81232	0.31913	 	3.20531E13	 	1.18489E-13	 	18484.269	30.8282	 
500.0	1.0	0.0	7.73365	7.16872	-8.979	19.25017	19.96767	1.26169	0.79259	160.81774	148.01449	60.96585	0.31892	 	4.17336E13	 	9.042E-14	 	18330.477	30.7584	 
495.0	1.0	0.0	7.73597	7.16658	-9.00628	19.2366	19.9008	1.25775	0.79507	161.19605	148.18666	61.11923	0.3187	 	5.45249E13	 	6.87603E-14	 	18177.03	30.6894	 
490.0	1.0	0.0	7.73828	7.16443	-9.03352	19.22305	19.83392	1.25377	0.79759	161.57384	148.35796	61.27247	0.31849	 	7.14868E13	 	5.2104E-14	 	18023.924	30.6212	 
485.0	1.0	0.0	7.7406	7.16229	-9.06072	19.20952	19.76704	1.24977	0.80015	161.95113	148.52838	61.42557	0.31827	 	9.40609E13	 	3.93399E-14	 	17871.155	30.5538	 
480.0	1.0	0.0	7.74291	7.16015	-9.08788	19.19601	19.70016	1.24575	0.80273	162.32792	148.69794	61.57852	0.31806	 	1.24216E14	 	2.95932E-14	 	17718.721	30.4868	 
475.0	1.0	0.0	7.74522	7.15801	-9.115	19.18252	19.63328	1.24169	0.80535	162.70419	148.86663	61.73133	0.31784	 	1.64648E14	 	2.21778E-14	 	17566.618	30.4206	 
470.0	1.0	0.0	7.74753	7.15588	-9.14208	19.16904	19.56639	1.23761	0.80801	163.07995	149.03446	61.884	0.31763	 	2.19072E14	 	1.65568E-14	 	17414.842	30.3552	 
465.0	1.0	0.0	7.74984	7.15375	-9.16913	19.15559	19.49951	1.2335	0.8107	163.4552	149.20142	62.03652	0.31741	 	2.92616E14	 	1.23121E-14	 	17263.392	30.29	 
460.0	1.0	0.0	7.75214	7.15162	-9.19614	19.14215	19.43262	1.22936	0.81343	163.82993	149.36752	62.1889	0.3172	 	3.92395E14	 	9.11918E-15	 	17112.264	30.2256	 
455.0	1.0	0.0	7.75445	7.1495	-9.22311	19.12873	19.36573	1.22519	0.8162	164.20415	149.53276	62.34113	0.31698	 	5.2832499999999994E14	 	6.72677E-15	 	16961.455	30.1618	 
450.0	1.0	0.0	7.75675	7.14738	-9.25004	19.11533	19.29884	1.221	0.819	164.57785	149.69714	62.49321	0.31677	 	7.14274E14	 	4.9414E-15	 	16810.963	30.0984	 
445.0	1.0	0.0	7.75905	7.14526	-9.27694	19.10195	19.23194	1.21677	0.82185	164.95103	149.86067	62.64515	0.31655	 	9.69736E14	 	3.6145E-15	 	16660.785	30.0356	 
440.0	1.0	0.0	7.76134	7.14314	-9.3038	19.08859	19.16505	1.21252	0.82473	165.32369	150.02334	62.79694	0.31634	 	1.32222E15	 	2.63247E-15	 	16510.92	29.973	 
435.0	1.0	0.0	7.76364	7.14103	-9.33062	19.07525	19.09815	1.20824	0.82765	165.69583	150.18515	62.94858	0.31612	 	1.81075E15	 	1.90877E-15	 	16361.365	29.911	 
430.0	1.0	0.0	7.76593	7.13892	-9.3574	19.06192	19.03125	1.20392	0.83062	166.06744	150.34611	63.10007	0.31591	 	2.49089E15	 	1.37778E-15	 	16212.117	29.8496	 
425.0	1.0	0.0	7.76823	7.13682	-9.38414	19.04862	18.96435	1.19958	0.83363	166.43852	150.50622	63.2514	0.31569	 	3.44219E15	 	9.89921E-16	 	16063.176	29.7882	 
420.0	1.0	0.0	7.77052	7.13471	-9.41085	19.03533	18.89744	1.1952	0.83668	166.80908	150.66549	63.40259	0.31548	 	4.77907E15	 	7.07898E-16	 	15914.538	29.7276	 
415.0	1.0	0.0	7.7728	7.13261	-9.43752	19.02206	18.83054	1.1908	0.83977	167.17911	150.8239	63.55363	0.31526	 	6.66689E15	 	5.03787E-16	 	15766.203	29.667	 
410.0	1.0	0.0	7.77509	7.13051	-9.46415	19.00881	18.76363	1.18636	0.84291	167.54861	150.98147	63.70451	0.31505	 	9.34587E15	 	3.56766E-16	 	15618.168	29.607	 
405.0	1.0	0.0	7.77738	7.12842	-9.49075	18.99558	18.69672	1.18189	0.8461	167.91758	151.13819	63.85524	0.31483	 	1.31668E16	 	2.51381E-16	 	15470.433	29.547	 
400.0	1.0	0.0	7.77966	7.12633	-9.51731	18.98237	18.62981	1.17739	0.84933	168.28601	151.29407	64.00582	0.31461	 	1.86446E16	 	1.76216E-16	 	15322.994	29.4878	 
395.0	1.0	0.0	7.78194	7.12424	-9.54383	18.96918	18.5629	1.17286	0.85262	168.65391	151.44911	64.15624	0.3144	 	2.65392E16	 	1.22878E-16	 	15175.851	29.4286	 
390.0	1.0	0.0	7.78422	7.12215	-9.57032	18.95601	18.49598	1.16829	0.85595	169.02127	151.60331	64.30651	0.31418	 	3.79783E16	 	8.52243E-17	 	15029.003	29.3696	 
385.0	1.0	0.0	7.7865	7.12007	-9.59677	18.94285	18.42907	1.1637	0.85933	169.38809	151.75667	64.45662	0.31397	 	5.46447E16	 	5.87846E-17	 	14882.448	29.311	 
380.0	1.0	0.0	7.78877	7.11799	-9.62318	18.92972	18.36215	1.15906	0.86277	169.75438	151.90919	64.60658	0.31375	 	7.90643E16	 	4.03199E-17	 	14736.185	29.2526	 
375.0	1.0	0.0	7.79105	7.11591	-9.64955	18.9166	18.29523	1.1544	0.86625	170.12012	152.06088	64.75638	0.31354	 	1.15051E17	 	2.74962E-17	 	14590.213	29.1944	 
370.0	1.0	0.0	7.79332	7.11384	-9.67589	18.9035	18.2283	1.1497	0.86979	170.48532	152.21173	64.90602	0.31332	 	1.68396E17	 	1.86409E-17	 	14444.53	29.1366	 
365.0	1.0	0.0	7.79559	7.11177	-9.70219	18.89042	18.16138	1.14496	0.87339	170.84998	152.36176	65.05551	0.31311	 	2.47951E17	 	1.25615E-17	 	14299.135	29.079	 
360.0	1.0	0.0	7.79786	7.1097	-9.72846	18.87736	18.09445	1.14019	0.87704	171.21409	152.51095	65.20483	0.31289	 	3.6733E17	 	8.41274E-18	 	14154.029	29.0212	 
355.0	1.0	0.0	7.80012	7.10763	-9.75469	18.86432	18.02752	1.13539	0.88075	171.57766	152.65932	65.354	0.31268	 	5.476E17	 	5.59869E-18	 	14009.208	28.9642	 
350.0	1.0	0.0	7.80239	7.10557	-9.78088	18.8513	17.96059	1.13055	0.88453	171.94068	152.80685	65.50301	0.31246	 	8.21589E17	 	3.7019E-18	 	13864.674	28.9068	 
345.0	1.0	0.0	7.80465	7.10351	-9.80704	18.8383	17.89366	1.12567	0.88836	172.30315	152.95357	65.65185	0.31225	 	1.24078E18	 	2.43156E-18	 	13720.424	28.85	 
340.0	1.0	0.0	7.80691	7.10145	-9.83316	18.82531	17.82672	1.12076	0.89225	172.66507	153.09946	65.80054	0.31203	 	1.88651E18	 	1.58634E-18	 	13576.459	28.793	 
335.0	1.0	0.0	7.80917	7.0994	-9.85924	18.81235	17.75978	1.11581	0.89621	173.02644	153.24453	65.94906	0.31182	 	2.88811E18	 	1.02774E-18	 	13432.777	28.7364	 
330.0	1.0	0.0	7.81143	7.09735	-9.88529	18.7994	17.69284	1.11082	0.90023	173.38726	153.38878	66.09743	0.3116	 	4.45281E18	 	6.61116E-19	 	13289.378	28.6798	 
325.0	1.0	0.0	7.81368	7.0953	-9.9113	18.78647	17.6259	1.1058	0.90432	173.74752	153.53221	66.24563	0.31139	 	6.91513E18	 	4.22179E-19	 	13146.261	28.6234	 
320.0	1.0	0.0	7.81594	7.09325	-9.93728	18.77356	17.55895	1.10074	0.90848	174.10723	153.67483	66.39366	0.31117	 	1.0819E19	 	2.67585E-19	 	13003.427	28.5668	 
315.0	1.0	0.0	7.81819	7.09121	-9.96322	18.76067	17.49201	1.09564	0.91271	174.46638	153.81663	66.54154	0.31096	 	1.70562E19	 	1.68303E-19	 	12860.873	28.5108	 
310.0	1.0	0.0	7.82044	7.08917	-9.98913	18.7478	17.42506	1.0905	0.91701	174.82498	153.95762	66.68925	0.31074	 	2.70999E19	 	1.05027E-19	 	12718.6	28.4546	 
305.0	1.0	0.0	7.82269	7.08713	-10.015	18.73495	17.3581	1.08532	0.92139	175.18302	154.0978	66.83679	0.31053	 	4.34042E19	 	6.50124E-20	 	12576.608	28.3984	 
300.0	1.0	0.0	7.82493	7.0851	-10.04083	18.72211	17.29115	1.0801	0.92584	175.5405	154.23717	66.98418	0.31031	 	7.00913E19	 	3.99108E-20	 	12434.896	28.3424	 
295.0	1.0	0.0	7.82718	7.08306	-10.06663	18.7093	17.22419	1.07484	0.93038	175.89742	154.37573	67.13139	0.3101	 	1.1414599999999998E20	 	2.42935E-20	 	12293.465	28.2862	 
290.0	1.0	0.0	7.82942	7.08103	-10.09239	18.6965	17.15723	1.06953	0.93499	176.25378	154.51349	67.27844	0.30988	 	1.87507E20	 	1.46586E-20	 	12152.313	28.2304	 
285.0	1.0	0.0	7.83166	7.07901	-10.11812	18.68372	17.09027	1.06419	0.93968	176.60958	154.65045	67.42533	0.30967	 	3.1076899999999997E20	 	8.76596E-21	 	12011.441	28.1744	 
280.0	1.0	0.0	7.8339	7.07698	-10.14381	18.67097	17.0233	1.05881	0.94446	176.96482	154.7866	67.57204	0.30945	 	5.1978699999999997E20	 	5.19403E-21	 	11870.848	28.1186	 
275.0	1.0	0.0	7.83614	7.07496	-10.16947	18.65823	16.95633	1.05338	0.94932	177.3195	154.92196	67.7186	0.30924	 	8.775829999999999E20	 	3.04858E-21	 	11730.536	28.0624	 
270.0	1.0	0.0	7.83837	7.07295	-10.19509	18.6455	16.88936	1.04791	0.95428	177.67361	155.05652	67.86498	0.30902	 	1.49603E21	 	1.77201E-21	 	11590.503	28.0066	 
265.0	1.0	0.0	7.84061	7.07093	-10.22068	18.6328	16.82239	1.0424	0.95933	178.02715	155.19029	68.0112	0.30881	 	2.5757E21	 	1.01975E-21	 	11450.75	27.9506	 
260.0	1.0	0.0	7.84284	7.06892	-10.24623	18.62012	16.75541	1.03684	0.96447	178.38014	155.32327	68.15725	0.30859	 	4.47999E21	 	5.80844E-22	 	11311.278	27.8944	 
255.0	1.0	0.0	7.84507	7.06691	-10.27175	18.60746	16.68843	1.03124	0.96971	178.73255	155.45545	68.30313	0.30838	 	7.87427E21	 	3.27366E-22	 	11172.086	27.8384	 
250.0	1.0	0.0	7.8473	7.0649	-10.29723	18.59481	16.62145	1.02559	0.97505	179.08441	155.58685	68.44884	0.30816	 	1.3990299999999999E22	 	1.8251E-22	 	11033.175	27.7822	 
245.0	1.0	0.0	7.84953	7.0629	-10.32268	18.58218	16.55447	1.0199	0.98049	179.43569	155.71747	68.59439	0.30795	 	2.5133799999999998E22	 	1.0062E-22	 	10894.544	27.7262	 
240.0	1.0	0.0	7.85175	7.0609	-10.3481	18.56958	16.48748	1.01416	0.98603	179.78641	155.8473	68.73976	0.30773	 	4.5672E22	 	5.48379E-23	 	10756.196	27.6696	 
235.0	1.0	0.0	7.85398	7.0589	-10.37348	18.55699	16.42049	1.00838	0.99169	180.13657	155.97635	68.88497	0.30752	 	8.397439999999999E22	 	2.95346E-23	 	10618.13	27.6132	 
230.0	1.0	0.0	7.8562	7.0569	-10.39882	18.54442	16.35349	1.00255	0.99746	180.48615	156.10462	69.03001	0.3073	 	1.5627899999999998E23	 	1.57139E-23	 	10480.347	27.5566	 
225.0	1.0	0.0	7.85842	7.05491	-10.42413	18.53187	16.2865	0.99667	1.00334	180.83518	156.23212	69.17488	0.30709	 	2.9448899999999997E23	 	8.25615E-24	 	10342.848	27.4998	 
220.0	1.0	0.0	7.86063	7.05292	-10.44941	18.51933	16.2195	0.99074	1.00935	181.18363	156.35884	69.31958	0.30687	 	5.6210599999999996E23	 	4.28201E-24	 	10205.633	27.443	 
215.0	1.0	0.0	7.86285	7.05093	-10.47465	18.50682	16.15249	0.98476	1.01547	181.53152	156.4848	69.46411	0.30666	 	1.0872200000000001E24	 	2.1914E-24	 	10068.703	27.386	 
210.0	1.0	0.0	7.86507	7.04894	-10.49985	18.49432	16.08549	0.97874	1.02173	181.87884	156.60999	69.60847	0.30644	 	2.13181E24	 	1.10616E-24	 	9932.06	27.3286	 
205.0	1.0	0.0	7.86728	7.04696	-10.52503	18.48185	16.01848	0.97266	1.02811	182.2256	156.73441	69.75267	0.30623	 	4.2393100000000003E24	 	5.50498E-25	 	9795.704	27.2712	 
200.0	1.0	0.0	7.86949	7.04498	-10.55017	18.46939	15.95147	0.96653	1.03463	182.57179	156.85808	69.89669	0.30601	 	8.55365E24	 	2.69981E-25	 	9659.637	27.2134	 
195.0	1.0	0.0	7.8717	7.043	-10.57527	18.45695	15.88445	0.96035	1.04128	182.91742	156.98098	70.04055	0.3058	 	1.7519400000000002E25	 	1.30422E-25	 	9523.86	27.1554	 
190.0	1.0	0.0	7.87391	7.04103	-10.60034	18.44453	15.81743	0.95412	1.04809	183.26248	157.10313	70.18423	0.30558	 	3.6442800000000004E25	 	6.20293E-26	 	9388.374	27.0972	 
185.0	1.0	0.0	7.87611	7.03906	-10.62538	18.43213	15.75041	0.94784	1.05503	183.60698	157.22453	70.32775	0.30537	 	7.7027500000000005E25	 	2.90301E-26	 	9253.181	27.0386	 
180.0	1.0	0.0	7.87832	7.03709	-10.65039	18.41975	15.68339	0.9415	1.06214	183.95092	157.34518	70.4711	0.30515	 	1.6552100000000002E26	 	1.33621E-26	 	9118.283	26.9796	 
175.0	1.0	0.0	7.88052	7.03512	-10.67536	18.40739	15.61636	0.93511	1.0694	184.2943	157.46509	70.61429	0.30494	 	3.6180400000000004E26	 	6.04556E-27	 	8983.68	26.9206	 
170.0	1.0	0.0	7.88272	7.03316	-10.70029	18.39505	15.54933	0.92866	1.07682	184.63712	157.58425	70.7573	0.30472	 	8.04929E26	 	2.68708E-27	 	8849.376	26.8608	 
165.0	1.0	0.0	7.88492	7.0312	-10.7252	18.38272	15.48229	0.92216	1.08441	184.97938	157.70268	70.90015	0.30451	 	1.82376E27	 	1.17258E-27	 	8715.372	26.8008	 
160.0	1.0	0.0	7.88711	7.02924	-10.75006	18.37042	15.41525	0.9156	1.09218	185.32109	157.82038	71.04284	0.30429	 	4.2109399999999995E27	 	5.02049E-28	 	8581.671	26.7402	 
155.0	1.0	0.0	7.88931	7.02728	-10.7749	18.35813	15.34821	0.90898	1.10013	185.66224	157.93734	71.18536	0.30408	 	9.91466E27	 	2.10768E-28	 	8448.274	26.6794	 
150.0	1.0	0.0	7.8915	7.02533	-10.7997	18.34586	15.28116	0.90231	1.10827	186.00284	158.05358	71.32771	0.30386	 	2.38213E28	 	8.66992E-29	 	8315.184	26.618	 
145.0	1.0	0.0	7.8937	7.02338	-10.82447	18.33361	15.21411	0.89558	1.1166	186.34289	158.1691	71.4699	0.30365	 	5.84464E28	 	3.49189E-29	 	8182.404	26.556	 
140.0	1.0	0.0	7.89589	7.02143	-10.84921	18.32138	15.14706	0.88879	1.12513	186.6824	158.28391	71.61193	0.30343	 	1.4655E29	 	1.37597E-29	 	8049.936	26.4936	 
135.0	1.0	0.0	7.89807	7.01948	-10.87391	18.30917	15.08	0.88193	1.13387	187.02136	158.398	71.7538	0.30322	 	3.7583200000000004E29	 	5.30046E-30	 	7917.785	26.4302	 
130.0	1.0	0.0	7.90026	7.01754	-10.89858	18.29697	15.01294	0.87502	1.14283	187.35978	158.51138	71.8955	0.303	 	9.866130000000001E29	 	1.99437E-30	 	7785.952	26.3666	 
125.0	1.0	0.0	7.90245	7.0156	-10.92322	18.2848	14.94588	0.86805	1.15201	187.69766	158.62407	72.03705	0.30279	 	2.6535599999999996E30	 	7.32327E-31	 	7654.441	26.3022	 
120.0	1.0	0.0	7.90463	7.01366	-10.94783	18.27265	14.87881	0.86101	1.16143	188.03501	158.73606	72.17843	0.30257	 	7.318779999999999E30	 	2.62184E-31	 	7523.257	26.2368	 
115.0	1.0	0.0	7.90681	7.01173	-10.9724	18.26051	14.81174	0.85391	1.17109	188.37183	158.84735	72.31966	0.30236	 	2.07205E31	 	9.14293E-32	 	7392.402	26.171	 
110.0	1.0	0.0	7.90899	7.00979	-10.99694	18.24839	14.74466	0.84674	1.181	188.70812	158.95797	72.46074	0.30214	 	6.0277999999999995E31	 	3.10239E-32	 	7261.881	26.1042	 
105.0	1.0	0.0	7.91117	7.00786	-11.02145	18.23629	14.67759	0.83951	1.19117	189.04389	159.0679	72.60166	0.30193	 	1.8037699999999998E32	 	1.02322E-32	 	7131.699	26.0364	 
100.0	1.0	0.0	7.91335	7.00594	-11.04592	18.22421	14.6105	0.83222	1.20161	189.37915	159.17717	72.74243	0.30171	 	5.55852E32	 	3.2765E-33	 	7001.859	25.968	 
95.0	1.0	0.0	7.91552	7.00401	-11.07036	18.21215	14.54341	0.82485	1.21234	189.71389	159.28577	72.88305	0.3015	 	1.7661E33	 	1.01741E-33	 	6872.368	25.8982	 
90.0	1.0	0.0	7.9177	7.00209	-11.09477	18.20011	14.47632	0.81742	1.22336	190.04814	159.39371	73.02353	0.30128	 	5.79289E33	 	3.05969E-34	 	6743.231	25.8274	 
85.0	1.0	0.0	7.91987	7.00017	-11.11915	18.18809	14.40923	0.80992	1.23469	190.38188	159.50101	73.16386	0.30107	 	1.96417E34	 	8.89962E-35	 	6614.452	25.7558	 
80.0	1.0	0.0	7.92204	6.99825	-11.14349	18.17608	14.34213	0.80235	1.24634	190.71514	159.60766	73.30404	0.30085	 	6.894150000000001E34	 	2.50015E-35	 	6486.039	25.6826	 
75.0	1.0	0.0	7.9242	6.99634	-11.16781	18.1641	14.27502	0.79471	1.25832	191.04791	159.71368	73.44409	0.30063	 	2.5086699999999996E35	 	6.77344E-36	 	6357.998	25.6082	 
70.0	1.0	0.0	7.92637	6.99442	-11.19209	18.15213	14.20792	0.78699	1.27066	191.38021	159.81907	73.584	0.30042	 	9.478819999999999E35	 	1.76692E-36	 	6230.335	25.5326	 
65.0	1.0	0.0	7.92854	6.99251	-11.21634	18.14018	14.1408	0.77921	1.28336	191.71205	159.92385	73.72378	0.3002	 	3.7251E36	 	4.43056E-37	 	6103.058	25.4554	 
60.0	1.0	0.0	7.9307	6.99061	-11.24055	18.12825	14.07369	0.77135	1.29643	192.04342	160.02802	73.86344	0.29999	 	1.5253299999999998E37	 	1.06602E-37	 	5976.175	25.3766	 
55.0	1.0	0.0	7.93286	6.9887	-11.26474	18.11634	14.00657	0.76341	1.30991	192.37436	160.1316	74.00296	0.29977	 	6.51995E37	 	2.45649E-38	 	5849.694	25.2962	 
50.0	1.0	0.0	7.93502	6.9868	-11.28889	18.10445	13.93944	0.7554	1.3238	192.70485	160.2346	74.14236	0.29956	 	2.91507E38	 	5.41056E-39	 	5723.624	25.214	 
45.0	1.0	0.0	7.93718	6.9849	-11.31301	18.09258	13.87231	0.74731	1.33813	193.03493	160.33703	74.28165	0.29934	 	1.36614E39	 	1.13664E-39	 	5597.975	25.1298	 
40.0	1.0	0.0	7.93934	6.983	-11.3371	18.08072	13.80518	0.73914	1.35292	193.3646	160.4389	74.42083	0.29913	 	6.72615E39	 	2.27234E-40	 	5472.757	25.0436	 
35.0	1.0	0.0	7.94149	6.98111	-11.36116	18.06889	13.73804	0.7309	1.36818	193.69387	160.54022	74.5599	0.29891	 	3.4874E40	 	4.31267E-41	 	5347.981	24.9552	 
30.0	1.0	0.0	7.94364	6.97922	-11.38519	18.05707	13.67089	0.72257	1.38395	194.02276	160.64101	74.69887	0.2987	 	1.90904E41	 	7.75049E-42	 	5223.658	24.8646	 
25.0	1.0	0.0	7.9458	6.97733	-11.40918	 	13.60374	0.71416	1.40025	194.35129	160.74129	74.83775	0.29848	 	1.10635E42	 	1.31532E-42	 	5099.801	 	 
