T (C)	Fraction solid (wt)-TOTAL	Fraction liquid (wt)-LIQUID	Density (g/(cm)^3)-TOTAL	Molar volume (cm^3)-TOTAL	Volume change (%)-  	Average expansion coeff. (10e-6 1/K)-  	Thermal conductivity (W/(m*K))-TOTAL	Electrical resistivity (10e-6 Ohm*m)-TOTAL	Electrical conductivity (10e6 1/(Ohm*m))-TOTAL	Young's modulus (GPa)-TOTAL	Bulk modulus (GPa)-TOTAL	Shear modulus(GPa)-TOTAL	Poisson's ratio-TOTAL	Liquid viscosity (mPa s)-  	Total viscosity (mPa s)-  	Liquid diffusivity (10e-9 (m^2)/s)-  	Total diffusivity (10e-9 (m^2)/s)-  	Surface Tension (mN/m)-  	Enthalpy (J/mole)-TOTAL	Specific heat (J/(mole K))-TOTAL	Latent heat (J/mole)-TOTAL
1500.0	0.0	1.0	7.01142	7.89561	0.0	28.99405	30.8588	1.87234	0.53409	0.0	107.26953	0.0	0.49776	6.78376	6.78376	1.27574	1.27574	1770.28583	64581.803	 	0.0
1495.0	0.0	1.0	7.01532	7.89121	-0.0556464	28.9503	30.78221	1.8717	0.53427	0.0	107.45416	0.0	0.49776	6.84351	6.84351	1.26103	1.26103	1772.08415	64361.744	44.0118	0.0
1490.0	0.0	1.0	7.01922	7.88683	-0.11114	28.90665	30.70561	1.87107	0.53445	0.0	107.6388	0.0	0.49776	6.90414	6.90414	1.24642	1.24642	1773.87942	64142.172	43.9144	0.0
1485.0	0.0	1.0	7.02311	7.88246	-0.16648	28.86309	30.62902	1.87043	0.53464	0.0	107.82343	0.0	0.49776	6.96566	6.96566	1.23191	1.23191	1775.67162	63923.084	43.8176	0.0
1480.0	0.0	1.0	7.02699	7.8781	-0.22166	28.81963	30.55242	1.86978	0.53482	0.0	108.00807	0.0	0.49776	7.02808	7.02808	1.2175	1.2175	1777.4607	63704.476	43.7216	0.0
1475.0	0.0	1.0	7.03087	7.87376	-0.27669	28.77628	30.47583	1.86914	0.53501	0.0	108.19271	0.0	0.49776	7.09142	7.09142	1.20318	1.20318	1779.24663	63486.345	43.6262	0.0
1470.0	0.0	1.0	7.03474	7.86943	-0.33157	28.73302	30.39923	1.86849	0.53519	0.0	108.37734	0.0	0.49776	7.1557	7.1557	1.18897	1.18897	1781.02937	63268.688	43.5314	0.0
1465.0	0.0	1.0	7.03861	7.86511	-0.38629	28.68987	30.32263	1.86783	0.53538	0.0	108.56198	0.0	0.49776	7.22094	7.22094	1.17484	1.17484	1782.80888	63051.502	43.4372	0.0
1460.0	0.0	1.0	7.04246	7.8608	-0.44085	28.64682	30.24604	1.86718	0.53557	0.0	108.74662	0.0	0.49776	7.28715	7.28715	1.16082	1.16082	1784.58513	62834.784	43.3436	0.0
1455.0	0.0	1.0	7.04631	7.8565	-0.49527	28.60387	30.16944	1.86652	0.53576	0.0	108.93125	0.0	0.49776	7.35436	7.35436	1.14689	1.14689	1786.35807	62618.531	43.2506	0.0
1450.0	0.0	1.0	7.05016	7.85222	-0.54952	28.56103	30.09285	1.86585	0.53595	0.0	109.11589	0.0	0.49776	7.42258	7.42258	1.13306	1.13306	1788.12766	62402.772	43.1518	0.0
1445.0	0.0	1.0	7.054	7.84795	-0.60363	28.5183	30.01625	1.86519	0.53614	0.0	109.30053	0.0	0.49776	7.49185	7.49185	1.11933	1.11933	1789.89386	62187.558	43.0428	0.0
1440.0	0.0	1.0	7.05783	7.84369	-0.65758	28.47568	29.93966	1.86452	0.53633	0.0	109.48516	0.0	0.49776	7.56216	7.56216	1.1057	1.1057	1791.65663	61972.878	42.936	0.0
1435.0	0.0	1.0	7.06165	7.83944	-0.71137	28.43316	29.86306	1.86384	0.53653	0.0	109.6698	0.0	0.49776	7.63356	7.63356	1.09216	1.09216	1793.41593	61758.731	42.8294	0.0
1430.0	0.0	1.0	7.06547	7.8352	-0.76502	28.39075	29.78647	1.86317	0.53672	0.0	109.85443	0.0	0.49776	7.70605	7.70605	1.07872	1.07872	1795.1717	61545.112	42.7238	0.0
1425.0	0.0	1.0	7.06928	7.83098	-0.8185	28.34846	29.70987	1.86249	0.53692	0.0	110.03907	0.0	0.49776	7.77966	7.77966	1.06537	1.06537	1796.92391	61332.018	42.6188	0.0
1420.0	0.0	1.0	7.07308	7.82677	-0.87184	28.30628	29.63328	1.8618	0.53711	0.0	110.22371	0.0	0.49776	7.85442	7.85442	1.05213	1.05213	1798.67252	61119.445	42.5146	0.0
1417.8	0.0	1.0	7.07475	7.82492	-0.89523	28.28778	29.59961	1.8615	0.5372	0.0	110.30486	0.0	0.49776	7.88765	7.88765	1.04633	1.04633	1799.43992	61026.198	42.4305	0.0
1415.0	0.11076	0.88924	7.09352	7.80417	-1.15807	27.63361	29.77149	1.84769	0.54122	0.0115612	109.43835	0.00389823	0.48288	7.92922	10.69341	1.03912	0.77052	1798.36303	59634.092	496.762	1273.294
1410.85	0.24822	0.75178	7.11729	7.77815	-1.48756	26.82227	29.98451	1.83005	0.54643	0.29695	108.39967	0.1014	0.46423	7.99122	51.21484	1.02852	0.16048	1796.86219	57884.028	 	2847.575
1410.0	0.27804	0.72196	7.12255	7.77241	-1.56029	26.64113	30.06355	1.82432	0.54815	0.40825	107.91015	0.13981	0.46004	8.00005	74.05691	1.02687	0.11093	1796.3937	57532.973	420.224	3162.873
1405.0	0.43254	0.56746	7.15013	7.74241	-1.94023	25.7022	30.47363	1.79442	0.55728	1.60658	105.5122	0.55854	0.4382	8.05285	378.47485	1.01711	0.0216412	1793.79282	55688.186	368.957	4796.628
1400.0	0.54535	0.45465	7.1712	7.71968	-2.22814	25.00813	30.76596	1.77207	0.56431	3.64028	103.93159	1.27992	0.42208	8.10666	968.29938	1.00735	0.00843358	1791.38163	54282.92	281.053	5991.369
1395.0	0.6301	0.3699	7.18788	7.70181	-2.45454	24.47789	30.97594	1.7548	0.56986	6.47534	102.88829	2.29646	0.40985	8.16153	1792.96077	0.99759	0.00454099	1789.14214	53174.174	221.749	6890.091
1390.0	0.69536	0.30464	7.20157	7.68721	-2.6394	24.0582	31.12273	1.74129	0.57429	10.1459	102.20882	3.62265	0.40034	8.2172	2788.10534	0.98786	0.00291145	1787.05923	52271.568	180.521	7583.173
1385.0	0.74672	0.25328	7.21313	7.67493	-2.79496	23.71646	31.22547	1.73034	0.57792	14.70022	101.78259	5.27728	0.39279	8.27401	3903.28253	0.97812	0.00207339	1785.11722	51516.629	150.988	8129.085
1380.0	0.78789	0.21211	7.22316	7.66433	-2.92919	23.4314	31.29563	1.72126	0.58097	20.11559	101.53756	7.25323	0.38666	8.33199	5105.47939	0.96839	0.00158038	1783.30123	50870.203	129.285	8566.978
1375.0	0.82143	0.17857	7.23207	7.65497	-3.04772	23.18797	31.34113	1.71356	0.58358	26.24729	101.42471	9.49872	0.38162	8.39116	6375.38555	0.95865	0.00126176	1781.59803	50305.355	112.97	8923.782
1370.0	0.84916	0.15084	7.24013	7.64654	-3.15451	22.97556	31.36764	1.70692	0.58585	32.84178	101.40969	11.9216	0.37741	8.45184	7703.58686	0.94888	0.00104105	1779.9957	49803.096	100.452	9218.484
1365.0	0.87237	0.12763	7.24756	7.63879	-3.2527	22.7857	31.3792	1.7011	0.58786	39.59415	101.46851	14.41013	0.37383	8.51371	9087.13737	0.93912	8.79859E-4	1778.48638	49349.741	90.671	9464.766
1360.0	0.89201	0.10799	7.25451	7.63158	-3.34402	22.61378	31.37897	1.69592	0.58965	46.2183	101.58409	16.85861	0.37076	8.57673	10526.89335	0.92938	7.57203E-4	1777.05821	48935.226	82.903	9672.689
1355.0	0.9088	0.0911954	7.26108	7.62478	-3.43007	22.45546	31.36913	1.69126	0.59128	52.49577	101.74347	19.18563	0.3681	8.6413	12026.29588	0.91961	6.60768E-4	1775.70386	48552.016	76.642	9849.784
1350.3	0.92255	0.0774474	7.26702	7.61866	-3.50757	22.31522	31.35295	1.68724	0.59268	57.9957	101.9243	21.23001	0.36589	8.70323	13500.6044	0.91042	5.8691E-4	1774.48812	48214.4	 	9993.923
1350.0	0.92371	0.0762895	7.26753	7.61813	-3.51428	22.30115	31.35304	1.68693	0.59279	58.46922	101.9321	21.40622	0.36571	8.70818	13615.7113	0.90974	5.81842E-4	1774.49341	48189.441	72.515	10006.72
1345.0	0.94211	0.0578937	7.27591	7.60955	-3.62299	22.0759	31.35049	1.68187	0.59458	66.13693	102.0853	24.26551	0.36278	8.79493	15626.80052	0.89799	5.054E-4	1774.57818	47782.709	81.3464	10208.283
1340.0	0.9575	0.042498	7.28359	7.60171	-3.72232	21.87573	31.33687	1.6774	0.59616	72.68136	102.2831	26.71563	0.36028	8.8835	17696.95988	0.88629	4.449E-4	1774.6687	47410.857	74.3704	10375.436
1335.0	0.97055	0.0294465	7.29075	7.59442	-3.8146	21.6943	31.31442	1.6734	0.59759	78.26219	102.51412	28.81279	0.35812	8.97395	19840.16778	0.87464	3.95611E-4	1774.76589	47066.41	68.8894	10515.651
1330.0	0.98175	0.0182526	7.2975	7.58757	-3.90134	21.52745	31.28487	1.66977	0.59888	83.07554	102.77044	30.62758	0.35622	9.0663	22070.99176	0.86304	3.54519E-4	1774.86583	46743.842	64.5136	10634.449
1325.0	0.99145	0.008552	7.30394	7.58106	-3.98377	21.37177	31.2495	1.66645	0.60008	87.30429	103.04637	32.22652	0.35454	9.16108	24404.59865	0.85145	3.19619E-4	1774.96647	46438.998	60.9688	10735.984
1320.0	1.0	0.0	7.31016	7.57479	-4.06327	21.22339	31.20953	1.66336	0.60119	91.12745	103.33699	33.67544	0.35303	 	26863.49938	 	2.89455E-4	 	46148.15	58.1696	10823.98
1315.0	1.0	0.0	7.31276	7.5721	-4.09733	21.20636	31.14368	1.66165	0.60181	91.57183	103.69185	33.84494	0.35281	 	28584.9803	 	2.71169E-4	 	45940.446	41.5408	 
1310.0	1.0	0.0	7.31535	7.56941	-4.13133	21.18934	31.07783	1.65993	0.60244	92.01644	104.04596	34.01458	0.3526	 	30428.90768	 	2.53935E-4	 	45748.029	38.4834	 
1305.0	1.0	0.0	7.31794	7.56673	-4.16529	21.17233	31.01198	1.6582	0.60306	92.46127	104.39931	34.18436	0.35239	 	32404.82132	 	2.37698E-4	 	45555.92	38.4218	 
1300.0	1.0	0.0	7.32053	7.56405	-4.1992	21.15534	30.94612	1.65646	0.6037	92.90633	104.75189	34.35427	0.35218	 	34523.06719	 	2.22406E-4	 	45364.106	38.3628	 
1295.0	1.0	0.0	7.32312	7.56138	-4.23305	21.13837	30.88026	1.65472	0.60433	93.35159	105.10371	34.52431	0.35197	 	36794.87076	 	2.08011E-4	 	45172.583	38.3046	 
1290.0	1.0	0.0	7.32571	7.55871	-4.26686	21.12141	30.8144	1.65297	0.60497	93.79705	105.45475	34.69447	0.35176	 	39232.41744	 	1.94465E-4	 	44981.35	38.2466	 
1285.0	1.0	0.0	7.32829	7.55605	-4.30062	21.10447	30.74854	1.65121	0.60562	94.24271	105.805	34.86477	0.35155	 	41848.94095	 	1.81724E-4	 	44790.407	38.1886	 
1280.0	1.0	0.0	7.33087	7.55339	-4.33432	21.08754	30.68268	1.64944	0.60626	94.68855	106.15447	35.03518	0.35134	 	44658.82033	 	1.69743E-4	 	44599.752	38.131	 
1275.0	1.0	0.0	7.33345	7.55073	-4.36798	21.07063	30.61682	1.64767	0.60692	95.13456	106.50314	35.20571	0.35112	 	47677.6866	 	1.58484E-4	 	44409.386	38.0732	 
1270.0	1.0	0.0	7.33603	7.54807	-4.40158	21.05374	30.55096	1.64589	0.60757	95.58074	106.85101	35.37636	0.35091	 	50922.54001	 	1.47906E-4	 	44219.308	38.0156	 
1265.0	1.0	0.0	7.33861	7.54543	-4.43514	21.03686	30.48509	1.6441	0.60823	96.02709	107.19807	35.54712	0.3507	 	54411.87906	 	1.37972E-4	 	44029.519	37.9578	 
1260.0	1.0	0.0	7.34118	7.54278	-4.46864	21.01999	30.41923	1.64231	0.6089	96.47358	107.54432	35.71798	0.35049	 	58165.8425	 	1.28648E-4	 	43840.018	37.9002	 
1255.0	1.0	0.0	7.34375	7.54014	-4.5021	21.00315	30.35336	1.6405	0.60957	96.92021	107.88975	35.88896	0.35028	 	62206.36569	 	1.199E-4	 	43650.805	37.8426	 
1250.0	1.0	0.0	7.34632	7.5375	-4.5355	20.98631	30.28749	1.63869	0.61024	97.36698	108.23436	36.06004	0.35007	 	66557.35297	 	1.11695E-4	 	43461.879	37.7852	 
1245.0	1.0	0.0	7.34889	7.53487	-4.56886	20.9695	30.22162	1.63687	0.61092	97.81387	108.57814	36.23121	0.34986	 	71244.8676	 	1.04003E-4	 	43273.241	37.7276	 
1240.0	1.0	0.0	7.35145	7.53224	-4.60216	20.95269	30.15575	1.63504	0.6116	98.26089	108.92109	36.40249	0.34965	 	76297.3414	 	9.67964E-5	 	43084.885	37.6712	 
1235.0	1.0	0.0	7.35402	7.52961	-4.63542	20.93591	30.08987	1.63321	0.61229	98.70801	109.26319	36.57386	0.34943	 	81745.80605	 	9.00463E-5	 	42896.808	37.6154	 
1230.0	1.0	0.0	7.35658	7.52699	-4.66862	20.91914	30.024	1.63137	0.61298	99.15524	109.60446	36.74532	0.34922	 	87624.14856	 	8.37269E-5	 	42709.008	37.56	 
1225.0	1.0	0.0	7.35914	7.52437	-4.70178	20.90238	29.95812	1.62952	0.61368	99.60256	109.94487	36.91687	0.34901	 	93969.39356	 	7.78136E-5	 	42521.485	37.5046	 
1220.0	1.0	0.0	7.3617	7.52176	-4.73489	20.88564	29.89225	1.62766	0.61438	100.04997	110.28442	37.08851	0.3488	 	100822.0154	 	7.22828E-5	 	42334.238	37.4494	 
1215.0	1.0	0.0	7.36425	7.51915	-4.76794	20.86892	29.82637	1.62579	0.61509	100.49745	110.62312	37.26023	0.34859	 	108226.2834	 	6.71121E-5	 	42147.268	37.394	 
1210.0	1.0	0.0	7.36681	7.51654	-4.80095	20.85221	29.76049	1.62391	0.6158	100.94501	110.96095	37.43203	0.34838	 	116230.644	 	6.22804E-5	 	41960.572	37.3392	 
1205.0	1.0	0.0	7.36936	7.51394	-4.83391	20.83552	29.69461	1.62203	0.61651	101.39263	111.29792	37.6039	0.34817	 	124888.1442	 	5.77676E-5	 	41774.151	37.2842	 
1200.0	1.0	0.0	7.37191	7.51134	-4.86682	20.81885	29.62872	1.62014	0.61723	101.84031	111.634	37.77586	0.34796	 	134256.9001	 	5.35546E-5	 	41588.003	37.2296	 
1195.0	1.0	0.0	7.37445	7.50875	-4.89968	20.80219	29.56284	1.61824	0.61796	102.28804	111.96921	37.94788	0.34774	 	144400.6178	 	4.96236E-5	 	41402.129	37.1748	 
1190.0	1.0	0.0	7.377	7.50616	-4.93249	20.78554	29.49695	1.61633	0.61869	102.73581	112.30354	38.11997	0.34753	 	155389.1697	 	4.59573E-5	 	41216.527	37.1204	 
1185.0	1.0	0.0	7.37954	7.50357	-4.96525	20.76891	29.43107	1.61441	0.61942	103.18361	112.63698	38.29213	0.34732	 	167299.2359	 	4.25398E-5	 	41031.196	37.0662	 
1180.0	1.0	0.0	7.38208	7.50099	-4.99797	20.7523	29.36518	1.61248	0.62016	103.63144	112.96952	38.46436	0.34711	 	180215.0152	 	3.93556E-5	 	40846.137	37.0118	 
1175.0	1.0	0.0	7.38462	7.49841	-5.03063	20.7357	29.29929	1.61055	0.62091	104.07929	113.30117	38.63664	0.3469	 	194229.017	 	3.63903E-5	 	40661.347	36.958	 
1170.0	1.0	0.0	7.38716	7.49583	-5.06324	20.71912	29.2334	1.60861	0.62166	104.52715	113.63192	38.80898	0.34669	 	209442.9407	 	3.36304E-5	 	40476.827	36.904	 
1165.0	1.0	0.0	7.38969	7.49326	-5.09581	20.70255	29.1675	1.60666	0.62241	104.97501	113.96176	38.98138	0.34648	 	225968.6553	 	3.10629E-5	 	40292.576	36.8502	 
1160.0	1.0	0.0	7.39223	7.49069	-5.12833	20.686	29.10161	1.60469	0.62317	105.42287	114.29069	39.15383	0.34627	 	243929.2901	 	2.86757E-5	 	40108.593	36.7966	 
1155.0	1.0	0.0	7.39476	7.48813	-5.1608	20.66946	29.03571	1.60273	0.62394	105.87072	114.61871	39.32634	0.34605	 	263460.4505	 	2.64573E-5	 	39924.878	36.743	 
1150.0	1.0	0.0	7.39729	7.48557	-5.19322	20.65294	28.96981	1.60075	0.62471	106.31855	114.94581	39.49888	0.34584	 	284711.5731	 	2.43968E-5	 	39741.428	36.69	 
1145.0	1.0	0.0	7.39981	7.48301	-5.22559	20.63644	28.90391	1.59876	0.62548	106.76636	115.27199	39.67148	0.34563	 	307847.4386	 	2.2484E-5	 	39558.245	36.6366	 
1140.0	1.0	0.0	7.40234	7.48046	-5.25791	20.61995	28.83801	1.59676	0.62627	107.21414	115.59725	39.84412	0.34542	 	333049.8606	 	2.07093E-5	 	39375.327	36.5836	 
1135.0	1.0	0.0	7.40486	7.47791	-5.29019	20.60348	28.77211	1.59476	0.62705	107.66188	115.92158	40.01679	0.34521	 	360519.573	 	1.90637E-5	 	39192.673	36.5308	 
1130.0	1.0	0.0	7.40738	7.47537	-5.32241	20.58702	28.70621	1.59274	0.62785	108.10957	116.24497	40.1895	0.345	 	390478.3398	 	1.75386E-5	 	39010.283	36.478	 
1125.0	1.0	0.0	7.4099	7.47283	-5.35459	20.57058	28.6403	1.59072	0.62865	108.55721	116.56743	40.36225	0.34479	 	423171.3165	 	1.61259E-5	 	38828.155	36.4256	 
1120.0	1.0	0.0	7.41241	7.47029	-5.38672	20.55415	28.57439	1.58869	0.62945	109.00479	116.88894	40.53503	0.34457	 	458869.6936	 	1.48182E-5	 	38646.29	36.373	 
1115.0	1.0	0.0	7.41493	7.46776	-5.4188	20.53774	28.50849	1.58665	0.63026	109.4523	117.20952	40.70784	0.34436	 	497873.6585	 	1.36083E-5	 	38464.685	36.321	 
1110.0	1.0	0.0	7.41744	7.46523	-5.45084	20.52135	28.44258	1.58459	0.63108	109.89974	117.52914	40.88068	0.34415	 	540515.7164	 	1.24896E-5	 	38283.341	36.2688	 
1105.0	1.0	0.0	7.41995	7.4627	-5.48282	20.50497	28.37666	1.58253	0.6319	110.3471	117.84782	41.05354	0.34394	 	587164.4176	 	1.14557E-5	 	38102.257	36.2168	 
1100.0	1.0	0.0	7.42246	7.46018	-5.51476	20.4886	28.31075	1.58046	0.63273	110.79437	118.16554	41.22642	0.34373	 	638228.5408	 	1.05009E-5	 	37921.431	36.1652	 
1095.0	1.0	0.0	7.42496	7.45766	-5.54665	20.47225	28.24483	1.57838	0.63356	111.24155	118.4823	41.39933	0.34352	 	694161.7954	 	9.61966E-6	 	37740.863	36.1136	 
1090.0	1.0	0.0	7.42747	7.45515	-5.57849	20.45592	28.17892	1.57629	0.6344	111.68862	118.79811	41.57225	0.34331	 	755468.1086	 	8.80672E-6	 	37560.552	36.0622	 
1085.0	1.0	0.0	7.42997	7.45264	-5.61028	20.4396	28.113	1.57419	0.63525	112.13559	119.11295	41.74518	0.3431	 	822707.575	 	8.05729E-6	 	37380.498	36.0108	 
1080.0	1.0	0.0	7.43247	7.45013	-5.64203	20.4233	28.04708	1.57209	0.6361	112.58245	119.42682	41.91813	0.34289	 	896503.1576	 	7.36683E-6	 	37200.699	35.9598	 
1075.0	1.0	0.0	7.43497	7.44763	-5.67373	20.40702	27.98116	1.56997	0.63696	113.02919	119.73972	42.09108	0.34267	 	977548.2387	 	6.73111E-6	 	37021.154	35.909	 
1070.0	1.0	0.0	7.43746	7.44513	-5.70538	20.39075	27.91523	1.56784	0.63782	113.4758	120.05165	42.26405	0.34246	 	1066615.139	 	6.14615E-6	 	36841.863	35.8582	 
1065.0	1.0	0.0	7.43996	7.44264	-5.73698	20.37449	27.84931	1.5657	0.63869	113.92227	120.36261	42.43701	0.34225	 	1164564.729	 	5.60826E-6	 	36662.825	35.8076	 
1060.0	1.0	0.0	7.44245	7.44015	-5.76853	20.35826	27.78338	1.56355	0.63957	114.36861	120.67258	42.60998	0.34204	 	1272357.296	 	5.11395E-6	 	36484.038	35.7574	 
1055.0	1.0	0.0	7.44494	7.43766	-5.80004	20.34203	27.71745	1.56139	0.64045	114.8148	120.98158	42.78295	0.34183	 	1391064.815	 	4.66001E-6	 	36305.502	35.7072	 
1050.0	1.0	0.0	7.44743	7.43517	-5.8315	20.32582	27.65152	1.55922	0.64135	115.26084	121.28959	42.95592	0.34162	 	1521884.85	 	4.2434E-6	 	36127.216	35.6572	 
1045.0	1.0	0.0	7.44991	7.43269	-5.86292	20.30963	27.58559	1.55704	0.64224	115.70672	121.59661	43.12888	0.34141	 	1666156.28	 	3.86132E-6	 	35949.179	35.6074	 
1040.0	1.0	0.0	7.45239	7.43022	-5.89428	20.29346	27.51966	1.55485	0.64315	116.15243	121.90264	43.30184	0.3412	 	1825377.132	 	3.51114E-6	 	35771.391	35.5576	 
1035.0	1.0	0.0	7.45487	7.42774	-5.9256	20.2773	27.45372	1.55265	0.64406	116.59797	122.20768	43.47479	0.34098	 	2001224.803	 	3.19042E-6	 	35593.849	35.5084	 
1030.0	1.0	0.0	7.45735	7.42527	-5.95687	20.26115	27.38778	1.55044	0.64498	117.04333	122.51173	43.64772	0.34077	 	2195579.014	 	2.89689E-6	 	35416.553	35.4592	 
1025.0	1.0	0.0	7.45983	7.42281	-5.9881	20.24502	27.32184	1.54822	0.6459	117.48851	122.81477	43.82064	0.34056	 	2410547.895	 	2.62843E-6	 	35239.502	35.4102	 
1020.0	1.0	0.0	7.4623	7.42035	-6.01927	20.22891	27.2559	1.54599	0.64684	117.9335	123.11682	43.99354	0.34035	 	2648497.638	 	2.38307E-6	 	35062.695	35.3614	 
1015.0	1.0	0.0	7.46478	7.41789	-6.0504	20.21281	27.18996	1.54375	0.64778	118.37829	123.41786	44.16643	0.34014	 	2912086.255	 	2.15898E-6	 	34886.132	35.3126	 
1010.0	1.0	0.0	7.46725	7.41544	-6.08149	20.19673	27.12401	1.54149	0.64872	118.82288	123.7179	44.33929	0.33993	 	3204302.019	 	1.95448E-6	 	34709.81	35.2644	 
1005.0	1.0	0.0	7.46972	7.41299	-6.11253	20.18066	27.05807	1.53923	0.64968	119.26726	124.01693	44.51213	0.33972	 	3528507.303	 	1.76798E-6	 	34533.729	35.2162	 
1000.0	1.0	0.0	7.47218	7.41054	-6.14352	20.16461	26.99212	1.53695	0.65064	119.71143	124.31495	44.68494	0.33951	 	3888488.59	 	1.59803E-6	 	34357.887	35.1684	 
995.0	1.0	0.0	7.47465	7.4081	-6.17446	20.14858	26.92617	1.53467	0.65161	120.15537	124.61196	44.85773	0.33929	 	4288513.606	 	1.44328E-6	 	34182.285	35.1204	 
990.0	1.0	0.0	7.47711	7.40566	-6.20535	20.13256	26.86022	1.53237	0.65258	120.59909	124.90795	45.03048	0.33908	 	4733396.617	 	1.30247E-6	 	34006.919	35.0732	 
985.0	1.0	0.0	7.47957	7.40322	-6.2362	20.11655	26.79426	1.53006	0.65357	121.04257	125.20293	45.20321	0.33887	 	5228573.16	 	1.17445E-6	 	33831.79	35.0258	 
980.0	1.0	0.0	7.48203	7.40079	-6.26701	20.10056	26.72831	1.52774	0.65456	121.48581	125.49689	45.37589	0.33866	 	5780185.611	 	1.05815E-6	 	33656.897	34.9786	 
975.0	1.0	0.0	7.48448	7.39836	-6.29777	20.08459	26.66235	1.52541	0.65556	121.92881	125.78982	45.54854	0.33845	 	6395181.3	 	9.52578E-7	 	33482.237	34.932	 
970.0	1.0	0.0	7.48694	7.39593	-6.32848	20.06863	26.59639	1.52307	0.65657	122.37156	126.08174	45.72116	0.33824	 	7081425.07	 	8.5682E-7	 	33307.809	34.8856	 
965.0	1.0	0.0	7.48939	7.39351	-6.35914	20.05269	26.53043	1.52071	0.65759	122.81405	126.37262	45.89373	0.33803	 	7847828.577	 	7.70035E-7	 	33133.614	34.839	 
960.0	1.0	0.0	7.49184	7.3911	-6.38976	20.03676	26.46446	1.51835	0.65861	123.25628	126.66248	46.06625	0.33782	 	8704498.931	 	6.91447E-7	 	32959.648	34.7932	 
955.0	1.0	0.0	7.49429	7.38868	-6.42033	20.02085	26.3985	1.51597	0.65964	123.69823	126.95131	46.23873	0.3376	 	9662909.758	 	6.20341E-7	 	32785.911	34.7474	 
950.0	1.0	0.0	7.49673	7.38627	-6.45086	20.00496	26.33253	1.51358	0.66069	124.13992	127.23911	46.41116	0.33739	 	1.073609826E7	 	5.56058E-7	 	32612.402	34.7018	 
945.0	1.0	0.0	7.49918	7.38387	-6.48134	19.98908	26.26656	1.51118	0.66174	124.58132	127.52588	46.58354	0.33718	 	1.193889244E7	 	4.97993E-7	 	32439.119	34.6566	 
940.0	1.0	0.0	7.50162	7.38146	-6.51177	19.97322	26.20059	1.50876	0.66279	125.02244	127.8116	46.75587	0.33697	 	1.328817339E7	 	4.4559E-7	 	32266.061	34.6116	 
935.0	1.0	0.0	7.50406	7.37906	-6.54216	19.95737	26.13461	1.50634	0.66386	125.46326	128.09629	46.92815	0.33676	 	1.480317836E7	 	3.98339E-7	 	32093.226	34.567	 
930.0	1.0	0.0	7.50649	7.37667	-6.5725	19.94154	26.06864	1.5039	0.66494	125.90378	128.37994	47.10036	0.33655	 	1.650585135E7	 	3.55769E-7	 	31920.613	34.5226	 
925.0	1.0	0.0	7.50893	7.37428	-6.60279	19.92572	26.00266	1.50145	0.66602	126.344	128.66255	47.27252	0.33634	 	1.842124896E7	 	3.17453E-7	 	31748.22	34.4786	 
920.0	1.0	0.0	7.51136	7.37189	-6.63304	19.90992	25.93668	1.49899	0.66712	126.78391	128.94412	47.44461	0.33613	 	2.0578011E7	 	2.82995E-7	 	31576.046	34.4348	 
915.0	1.0	0.0	7.51379	7.3695	-6.66325	19.89413	25.8707	1.49651	0.66822	127.2235	129.22464	47.61664	0.33591	 	2.300890639E7	 	2.52036E-7	 	31404.09	34.3912	 
910.0	1.0	0.0	7.51622	7.36712	-6.69341	19.87836	25.80471	1.49403	0.66933	127.66277	129.50411	47.78861	0.3357	 	2.575146752E7	 	2.24246E-7	 	31232.349	34.3482	 
905.0	1.0	0.0	7.51865	7.36474	-6.72352	19.86261	25.73873	1.49153	0.67045	128.10172	129.78253	47.9605	0.33549	 	2.884872779E7	 	1.99324E-7	 	31060.822	34.3054	 
900.0	1.0	0.0	7.52107	7.36237	-6.75359	19.84687	25.67274	1.48901	0.67158	128.54033	130.0599	48.13233	0.33528	 	3.235008046E7	 	1.76997E-7	 	30889.508	34.2628	 
895.0	1.0	0.0	7.52349	7.36	-6.78361	19.83115	25.60675	1.48649	0.67273	128.9786	130.33622	48.30408	0.33507	 	3.631227962E7	 	1.57012E-7	 	30718.404	34.2208	 
890.0	1.0	0.0	7.52591	7.35763	-6.81359	19.81544	25.54076	1.48395	0.67388	129.41652	130.61148	48.47576	0.33486	 	4.080060827E7	 	1.39141E-7	 	30547.509	34.179	 
885.0	1.0	0.0	7.52833	7.35527	-6.84352	19.79975	25.47476	1.4814	0.67504	129.85409	130.88569	48.64736	0.33465	 	4.589024295E7	 	1.23177E-7	 	30376.821	34.1376	 
880.0	1.0	0.0	7.53075	7.35291	-6.8734	19.78407	25.40877	1.47884	0.67621	130.29131	131.15884	48.81888	0.33444	 	5.166784988E7	 	1.08931E-7	 	30206.338	34.0966	 
875.0	1.0	0.0	7.53316	7.35055	-6.90325	19.76841	25.34277	1.47626	0.67739	130.72817	131.43093	48.99032	0.33422	 	5.823345416E7	 	9.62305E-8	 	30036.058	34.056	 
870.0	1.0	0.0	7.53557	7.3482	-6.93304	19.75277	25.27677	1.47367	0.67858	131.16466	131.70196	49.16168	0.33401	 	6.570263119E7	 	8.49194E-8	 	29865.979	34.0158	 
865.0	1.0	0.0	7.53798	7.34585	-6.96279	19.73714	25.21076	1.47106	0.67978	131.60077	131.97192	49.33295	0.3338	 	7.420907927E7	 	7.48564E-8	 	29696.099	33.976	 
860.0	1.0	0.0	7.54039	7.34351	-6.9925	19.72153	25.14476	1.46844	0.68099	132.03651	132.24083	49.50413	0.33359	 	8.390764321E7	 	6.59132E-8	 	29526.416	33.9366	 
855.0	1.0	0.0	7.5428	7.34116	-7.02216	19.70593	25.07875	1.46581	0.68222	132.47186	132.50866	49.67522	0.33338	 	9.497787252E7	 	5.79737E-8	 	29356.928	33.8976	 
850.0	1.0	0.0	7.5452	7.33883	-7.05177	19.69035	25.01274	1.46317	0.68345	132.90683	132.77543	49.84623	0.33317	 	1.07628214E8	 	5.09329E-8	 	29187.632	33.8592	 
845.0	1.0	0.0	7.5476	7.33649	-7.08135	19.67478	24.94673	1.46051	0.68469	133.3414	133.04114	50.01713	0.33296	 	1.221009581E8	 	4.46959E-8	 	29018.526	33.8212	 
840.0	1.0	0.0	7.55	7.33416	-7.11087	19.65923	24.88072	1.45784	0.68595	133.77556	133.30577	50.18795	0.33275	 	1.386780825E8	 	3.91771E-8	 	28849.607	33.7838	 
835.0	1.0	0.0	7.5524	7.33183	-7.14035	19.64369	24.8147	1.45515	0.68722	134.20933	133.56933	50.35866	0.33253	 	1.576881639E8	 	3.42994E-8	 	28680.874	33.7466	 
830.0	1.0	0.0	7.55479	7.32951	-7.16979	19.62817	24.74869	1.45245	0.68849	134.64268	133.83182	50.52927	0.33232	 	1.795145655E8	 	2.99931E-8	 	28512.323	33.7102	 
825.0	1.0	0.0	7.55718	7.32719	-7.19918	19.61267	24.68267	1.44973	0.68978	135.07561	134.09323	50.69978	0.33211	 	2.046051471E8	 	2.61958E-8	 	28343.952	33.6742	 
820.0	1.0	0.0	7.55957	7.32487	-7.22853	19.59718	24.61664	1.447	0.69108	135.50812	134.35357	50.87019	0.3319	 	2.334837981E8	 	2.28512E-8	 	28175.757	33.639	 
815.0	1.0	0.0	7.56196	7.32256	-7.25783	19.58171	24.55062	1.44426	0.6924	135.94021	134.61283	51.04049	0.33169	 	2.66764154E8	 	1.99089E-8	 	28007.736	33.6042	 
810.0	1.0	0.0	7.56435	7.32025	-7.28709	19.56625	24.4846	1.4415	0.69372	136.37186	134.87102	51.21068	0.33148	 	3.051659322E8	 	1.73236E-8	 	27839.886	33.57	 
805.0	1.0	0.0	7.56673	7.31794	-7.31631	19.55081	24.41857	1.43872	0.69506	136.80307	135.12813	51.38076	0.33127	 	3.495344162E8	 	1.50548E-8	 	27672.204	33.5364	 
800.0	1.0	0.0	7.56912	7.31564	-7.34548	19.53538	24.35254	1.43593	0.69641	137.23384	135.38416	51.55073	0.33106	 	4.008637268E8	 	1.30662E-8	 	27504.685	33.5038	 
795.0	1.0	0.0	7.5715	7.31334	-7.3746	19.51997	24.28651	1.43313	0.69777	137.66416	135.6391	51.72058	0.33085	 	4.603246585E8	 	1.13254E-8	 	27337.328	33.4714	 
790.0	1.0	0.0	7.57387	7.31104	-7.40368	19.50458	24.22047	1.43031	0.69915	138.09403	135.89297	51.89032	0.33063	 	5.292980244E8	 	9.8035E-9	 	27170.127	33.4402	 
785.0	1.0	0.0	7.57625	7.30875	-7.43272	19.4892	24.15444	1.42747	0.70054	138.52344	136.14575	52.05994	0.33042	 	6.094146607E8	 	8.47464E-9	 	27003.08	33.4094	 
780.0	1.0	0.0	7.57862	7.30646	-7.46172	19.47384	24.0884	1.42462	0.70194	138.95238	136.39744	52.22943	0.33021	 	7.026034927E8	 	7.31588E-9	 	26836.182	33.3796	 
775.0	1.0	0.0	7.581	7.30417	-7.49067	19.45849	24.02236	1.42176	0.70335	139.38085	136.64806	52.39881	0.33	 	8.11149377E8	 	6.3068E-9	 	26669.429	33.3506	 
770.0	1.0	0.0	7.58336	7.30189	-7.51957	19.44316	23.95632	1.41888	0.70478	139.80885	136.89758	52.56806	0.32979	 	9.377628141E8	 	5.42926E-9	 	26502.817	33.3224	 
765.0	1.0	0.0	7.58573	7.29961	-7.54843	19.42784	23.89027	1.41598	0.70623	140.23637	137.14602	52.73718	0.32958	 	1.085664104E9	 	4.66715E-9	 	26336.34	33.2954	 
760.0	1.0	0.0	7.5881	7.29734	-7.57725	19.41254	23.82423	1.41307	0.70768	140.66341	137.39337	52.90618	0.32937	 	1.258685098E9	 	4.0062E-9	 	26169.995	33.269	 
755.0	1.0	0.0	7.59046	7.29506	-7.60603	19.39725	23.75818	1.41014	0.70915	141.08995	137.63963	53.07504	0.32916	 	1.461392419E9	 	3.43381E-9	 	26003.775	33.244	 
750.0	1.0	0.0	7.59282	7.2928	-7.63476	19.38199	23.69213	1.40719	0.71064	141.516	137.8848	53.24377	0.32894	 	1.699236946E9	 	2.93881E-9	 	25837.675	33.22	 
745.0	1.0	0.0	7.59518	7.29053	-7.66344	19.36673	23.62608	1.40423	0.71213	141.94155	138.12888	53.41237	0.32873	 	1.978735433E9	 	2.51137E-9	 	25671.691	33.1968	 
740.0	1.0	0.0	7.59754	7.28827	-7.69209	19.35149	23.56002	1.40125	0.71365	142.3666	138.37187	53.58083	0.32852	 	2.307691573E9	 	2.14281E-9	 	25505.814	33.1754	 
735.0	1.0	0.0	7.59989	7.28601	-7.72069	19.33627	23.49397	1.39826	0.71518	142.79113	138.61376	53.74915	0.32831	 	2.695465517E9	 	1.82548E-9	 	25340.04	33.1548	 
730.0	1.0	0.0	7.60224	7.28376	-7.74925	19.32106	23.42791	1.39524	0.71672	143.21515	138.85456	53.91733	0.3281	 	3.153303047E9	 	1.5527E-9	 	25174.36	33.136	 
725.0	1.0	0.0	7.6046	7.2815	-7.77776	19.30587	23.36185	1.39222	0.71828	143.63864	139.09427	54.08537	0.32789	 	3.694738317E9	 	1.31856E-9	 	25008.768	33.1184	 
720.0	1.0	0.0	7.60694	7.27926	-7.80623	19.2907	23.29578	1.38917	0.71985	144.06162	139.33288	54.25327	0.32768	 	4.336087489E9	 	1.1179E-9	 	24843.255	33.1026	 
715.0	1.0	0.0	7.60929	7.27701	-7.83466	19.27554	23.22972	1.38611	0.72145	144.48406	139.57039	54.42101	0.32747	 	5.097054863E9	 	9.46216E-10	 	24677.813	33.0884	 
710.0	1.0	0.0	7.61163	7.27477	-7.86304	19.26039	23.16365	1.38303	0.72305	144.90597	139.80681	54.58861	0.32725	 	6.001478528E9	 	7.99555E-10	 	24512.434	33.0758	 
705.0	1.0	0.0	7.61398	7.27253	-7.89138	19.24526	23.09758	1.37993	0.72468	145.32733	140.04213	54.75606	0.32704	 	7.07824935E9	 	6.74476E-10	 	24347.106	33.0656	 
700.0	1.0	0.0	7.61632	7.2703	-7.91968	19.23015	23.03151	1.37681	0.72631	145.74815	140.27635	54.92336	0.32683	 	8.36244574E9	 	5.6798E-10	 	24181.82	33.0572	 
695.0	1.0	0.0	7.61865	7.26807	-7.94793	19.21505	22.96544	1.37368	0.72797	146.16842	140.50948	55.0905	0.32662	 	9.896737569E9	 	4.7746E-10	 	24016.565	33.051	 
690.0	1.0	0.0	7.62099	7.26584	-7.97615	19.19997	22.89936	1.37053	0.72965	146.58814	140.7415	55.25749	0.32641	 	1.1733099999999998E10	 	4.00652E-10	 	23851.327	33.0476	 
685.0	1.0	0.0	7.62332	7.26362	-8.00431	19.1849	22.83328	1.36736	0.73134	147.00729	140.97242	55.42432	0.3262	 	1.3935099999999998E10	 	3.35591E-10	 	23686.094	33.0466	 
680.0	1.0	0.0	7.62565	7.2614	-8.03244	19.16985	22.7672	1.36417	0.73305	147.42589	141.20225	55.59099	0.32599	 	1.6580399999999998E10	 	2.80578E-10	 	23520.852	33.0484	 
675.0	1.0	0.0	7.62798	7.25918	-8.06052	19.15482	22.70111	1.36097	0.73477	147.84391	141.43097	55.75749	0.32578	 	1.97641E10	 	2.34146E-10	 	23355.584	33.0536	 
670.0	1.0	0.0	7.63031	7.25696	-8.08857	19.1398	22.63503	1.35774	0.73652	148.26135	141.65858	55.92384	0.32556	 	2.3603299999999996E10	 	1.95027E-10	 	23190.274	33.062	 
665.0	1.0	0.0	7.63264	7.25475	-8.11656	19.12479	22.56894	1.3545	0.73828	148.67822	141.8851	56.09002	0.32535	 	2.8241799999999996E10	 	1.62131E-10	 	23024.902	33.0744	 
660.0	1.0	0.0	7.63496	7.25255	-8.14452	19.10981	22.50284	1.35124	0.74006	149.09451	142.11051	56.25603	0.32514	 	3.3857199999999996E10	 	1.3452E-10	 	22859.448	33.0908	 
655.0	1.0	0.0	7.63728	7.25034	-8.17243	19.09483	22.43674	1.34796	0.74186	149.5102	142.33482	56.42187	0.32493	 	4.06688E10	 	1.11389E-10	 	22693.89	33.1116	 
650.0	1.0	0.0	7.6396	7.24814	-8.2003	19.07988	22.37064	1.34466	0.74368	149.9253	142.55802	56.58754	0.32472	 	4.894829999999999E10	 	9.20495E-11	 	22528.203	33.1374	 
645.0	1.0	0.0	7.64192	7.24595	-8.22813	19.06493	22.30454	1.34134	0.74552	150.3398	142.78012	56.75303	0.32451	 	5.903279999999999E10	 	7.59114E-11	 	22362.359	33.1688	 
640.0	1.0	0.0	7.64423	7.24375	-8.25592	19.05001	22.23843	1.338	0.74738	150.7537	143.00111	56.91836	0.3243	 	7.13416E10	 	6.24721E-11	 	22196.327	33.2064	 
635.0	1.0	0.0	7.64654	7.24156	-8.28366	19.0351	22.17232	1.33464	0.74927	151.167	143.221	57.0835	0.32409	 	8.63976E10	 	5.1303E-11	 	22030.076	33.2502	 
630.0	1.0	0.0	7.64885	7.23937	-8.31136	19.0202	22.1062	1.33126	0.75117	151.57967	143.43978	57.24847	0.32388	 	1.04854E11	 	4.20399E-11	 	21863.566	33.302	 
625.0	1.0	0.0	7.65116	7.23719	-8.33902	19.00533	22.04008	1.32786	0.75309	151.99174	143.65745	57.41325	0.32366	 	1.27528E11	 	3.43739E-11	 	21696.757	33.3618	 
620.0	1.0	0.0	7.65347	7.23501	-8.36664	18.99046	21.97396	1.32444	0.75503	152.40318	143.87402	57.57786	0.32345	 	1.55447E11	 	2.80432E-11	 	21529.601	33.4312	 
615.0	1.0	0.0	7.65577	7.23283	-8.39422	18.97562	21.90783	1.32101	0.757	152.81399	144.08948	57.74228	0.32324	 	1.89903E11	 	2.28266E-11	 	21362.048	33.5106	 
610.0	1.0	0.0	7.65807	7.23066	-8.42175	18.96078	21.8417	1.31755	0.75899	153.22417	144.30383	57.90651	0.32303	 	2.32524E11	 	1.85376E-11	 	21192.608	33.888	 
605.0	1.0	0.0	7.66037	7.22849	-8.44924	18.94597	21.77556	1.31407	0.761	153.63372	144.51707	58.07056	0.32282	 	2.8537E11	 	1.50192E-11	 	21019.349	34.6518	 
600.0	1.0	0.0	7.66267	7.22632	-8.47669	18.93117	21.70942	1.31056	0.76303	154.04262	144.7292	58.23441	0.32261	 	3.51051E11	 	1.21396E-11	 	20846.931	34.4836	 
595.0	1.0	0.0	7.66496	7.22416	-8.5041	18.91638	21.64328	1.30704	0.76509	154.45089	144.94022	58.39808	0.3224	 	4.32884E11	 	9.78836E-12	 	20675.328	34.3206	 
590.0	1.0	0.0	7.66726	7.22199	-8.53147	18.90161	21.57713	1.3035	0.76717	154.8585	145.15013	58.56155	0.32219	 	5.35094E11	 	7.87305E-12	 	20504.514	34.1628	 
585.0	1.0	0.0	7.66955	7.21984	-8.55879	18.88686	21.51097	1.29993	0.76927	155.26545	145.35894	58.72482	0.32197	 	6.63078E11	 	6.31663E-12	 	20334.467	34.0094	 
580.0	1.0	0.0	7.67184	7.21768	-8.58608	18.87212	21.44481	1.29635	0.7714	155.67175	145.56663	58.8879	0.32176	 	8.23746E11	 	5.05497E-12	 	20165.164	33.8606	 
575.0	1.0	0.0	7.67413	7.21553	-8.61332	18.8574	21.37865	1.29274	0.77355	156.07739	145.77321	59.05078	0.32155	 	1.02597E12	 	4.03481E-12	 	19996.584	33.716	 
570.0	1.0	0.0	7.67641	7.21338	-8.64052	18.84269	21.31248	1.28911	0.77573	156.48235	145.97868	59.21346	0.32134	 	1.28119E12	 	3.21202E-12	 	19828.706	33.5756	 
565.0	1.0	0.0	7.67869	7.21124	-8.66768	18.828	21.2463	1.28545	0.77794	156.88665	146.18304	59.37593	0.32113	 	1.60414E12	 	2.55015E-12	 	19661.513	33.4386	 
560.0	1.0	0.0	7.68097	7.2091	-8.6948	18.81332	21.18012	1.28178	0.78017	157.29026	146.38629	59.53821	0.32092	 	2.01395E12	 	2.01912E-12	 	19494.985	33.3056	 
555.0	1.0	0.0	7.68325	7.20696	-8.72188	18.79866	21.11394	1.27808	0.78242	157.6932	146.58842	59.70027	0.32071	 	2.53542E12	 	1.59421E-12	 	19329.106	33.1758	 
550.0	1.0	0.0	7.68553	7.20483	-8.74891	18.78402	21.04775	1.27436	0.78471	158.09545	146.78945	59.86213	0.3205	 	3.20087E12	 	1.25516E-12	 	19163.86	33.0492	 
545.0	1.0	0.0	7.6878	7.2027	-8.77591	18.76939	20.98155	1.27061	0.78702	158.49701	146.98936	60.02378	0.32029	 	4.05254E12	 	9.85355E-13	 	18999.232	32.9256	 
540.0	1.0	0.0	7.69007	7.20057	-8.80286	18.75478	20.91535	1.26684	0.78936	158.89787	147.18816	60.18522	0.32007	 	5.14574E12	 	7.71275E-13	 	18835.206	32.8052	 
535.0	1.0	0.0	7.69234	7.19844	-8.82977	18.74018	20.84915	1.26305	0.79173	159.29804	147.38585	60.34644	0.31986	 	6.55323E12	 	6.01898E-13	 	18671.77	32.6872	 
530.0	1.0	0.0	7.69461	7.19632	-8.85664	18.7256	20.78294	1.25924	0.79413	159.6975	147.58242	60.50745	0.31965	 	8.37092E12	 	4.68285E-13	 	18508.91	32.572	 
525.0	1.0	0.0	7.69688	7.1942	-8.88348	18.71103	20.71672	1.2554	0.79656	160.09626	147.77788	60.66824	0.31944	 	1.07257E13	 	3.632E-13	 	18346.614	32.4592	 
520.0	1.0	0.0	7.69914	7.19209	-8.91027	18.69648	20.6505	1.25153	0.79902	160.4943	147.97223	60.82881	0.31923	 	1.3786E13	 	2.80805E-13	 	18184.871	32.3486	 
515.0	1.0	0.0	7.7014	7.18997	-8.93702	18.68195	20.58428	1.24764	0.80151	160.89163	148.16547	60.98917	0.31902	 	1.77761E13	 	2.16401E-13	 	18023.668	32.2406	 
510.0	1.0	0.0	7.70366	7.18787	-8.96372	18.66743	20.51805	1.24373	0.80403	161.28823	148.35759	61.1493	0.31881	 	2.29957E13	 	1.66221E-13	 	17862.996	32.1344	 
505.0	1.0	0.0	7.70592	7.18576	-8.99039	18.65292	20.45182	1.23979	0.80659	161.68411	148.5486	61.30921	0.3186	 	2.98466E13	 	1.27249E-13	 	17702.844	32.0304	 
500.0	1.0	0.0	7.70818	7.18366	-9.01702	18.63844	20.38558	1.23583	0.80917	162.07926	148.7385	61.46889	0.31838	 	3.88698E13	 	9.70819E-14	 	17543.202	31.9284	 
495.0	1.0	0.0	7.71043	7.18156	-9.04361	18.62396	20.31934	1.23184	0.81179	162.47368	148.92728	61.62834	0.31817	 	5.07955E13	 	7.38087E-14	 	17384.062	31.828	 
490.0	1.0	0.0	7.71268	7.17946	-9.07015	18.60951	20.25309	1.22782	0.81445	162.86736	149.11495	61.78757	0.31796	 	6.66136E13	 	5.59157E-14	 	17225.416	31.7292	 
485.0	1.0	0.0	7.71493	7.17737	-9.09666	18.59507	20.18684	1.22378	0.81714	163.26029	149.30151	61.94656	0.31775	 	8.76711E13	 	4.22071E-14	 	17067.253	31.6326	 
480.0	1.0	0.0	7.71718	7.17528	-9.12313	18.58064	20.12058	1.21972	0.81986	163.65248	149.48696	62.10533	0.31754	 	1.15807E14	 	3.17419E-14	 	16909.568	31.537	 
475.0	1.0	0.0	7.71942	7.17319	-9.14955	18.56623	20.05432	1.21562	0.82262	164.04392	149.67129	62.26386	0.31733	 	1.53544E14	 	2.37817E-14	 	16752.351	31.4434	 
470.0	1.0	0.0	7.72166	7.17111	-9.17594	18.55184	19.98806	1.2115	0.82542	164.43461	149.85451	62.42215	0.31712	 	2.04353E14	 	1.77493E-14	 	16595.597	31.3508	 
465.0	1.0	0.0	7.7239	7.16903	-9.20228	18.53746	19.92179	1.20735	0.82826	164.82454	150.03661	62.58021	0.31691	 	2.7303199999999997E14	 	1.31952E-14	 	16439.298	31.2598	 
460.0	1.0	0.0	7.72614	7.16695	-9.22859	18.52309	19.85551	1.20318	0.83113	165.2137	150.21761	62.73802	0.3167	 	3.66239E14	 	9.77046E-15	 	16283.447	31.1702	 
455.0	1.0	0.0	7.72838	7.16488	-9.25485	18.50875	19.78924	1.19897	0.83405	165.6021	150.39749	62.8956	0.31648	 	4.93253E14	 	7.20507E-15	 	16128.039	31.0816	 
450.0	1.0	0.0	7.73061	7.16281	-9.28108	18.49442	19.72296	1.19474	0.837	165.98972	150.57625	63.05293	0.31627	 	6.67059E14	 	5.29116E-15	 	15973.068	30.9942	 
445.0	1.0	0.0	7.73284	7.16074	-9.30727	18.4801	19.65667	1.19048	0.84	166.37657	150.75391	63.21002	0.31606	 	9.05914E14	 	3.86914E-15	 	15818.527	30.9082	 
440.0	1.0	0.0	7.73507	7.15868	-9.33341	18.4658	19.59038	1.18619	0.84303	166.76265	150.93046	63.36687	0.31585	 	1.23559E15	 	2.81703E-15	 	15664.412	30.823	 
435.0	1.0	0.0	7.7373	7.15662	-9.35952	18.45151	19.52409	1.18188	0.84611	167.14794	151.10589	63.52347	0.31564	 	1.69266E15	 	2.04194E-15	 	15510.717	30.739	 
430.0	1.0	0.0	7.73953	7.15456	-9.38559	18.43724	19.45779	1.17753	0.84923	167.53244	151.28021	63.67981	0.31543	 	2.32921E15	 	1.47342E-15	 	15357.437	30.656	 
425.0	1.0	0.0	7.74175	7.1525	-9.41161	18.42299	19.39149	1.17315	0.8524	167.91615	151.45342	63.83591	0.31522	 	3.21986E15	 	1.05828E-15	 	15204.567	30.574	 
420.0	1.0	0.0	7.74397	7.15045	-9.4376	18.40875	19.32518	1.16875	0.85562	168.29907	151.62552	63.99176	0.31501	 	4.47193E15	 	7.56517E-16	 	15052.103	30.4928	 
415.0	1.0	0.0	7.74619	7.1484	-9.46355	18.39453	19.25887	1.16431	0.85888	168.68119	151.79651	64.14735	0.31479	 	6.24063E15	 	5.38197E-16	 	14900.041	30.4124	 
410.0	1.0	0.0	7.74841	7.14636	-9.48946	18.38032	19.19256	1.15985	0.86218	169.0625	151.96639	64.30269	0.31458	 	8.75149E15	 	3.80996E-16	 	14748.376	30.333	 
405.0	1.0	0.0	7.75063	7.14431	-9.51533	18.36613	19.12624	1.15535	0.86554	169.44301	152.13516	64.45777	0.31437	 	1.2334E16	 	2.68355E-16	 	14597.105	30.2542	 
400.0	1.0	0.0	7.75284	7.14227	-9.54116	18.35196	19.05992	1.15082	0.86894	169.82272	152.30282	64.61259	0.31416	 	1.7471900000000002E16	 	1.88044E-16	 	14446.223	30.1764	 
395.0	1.0	0.0	7.75505	7.14024	-9.56695	18.3378	18.9936	1.14626	0.8724	170.2016	152.46937	64.76716	0.31395	 	2.48795E16	 	1.31075E-16	 	14295.726	30.0994	 
390.0	1.0	0.0	7.75726	7.1382	-9.5927	18.32365	18.92727	1.14167	0.87591	170.57968	152.63482	64.92146	0.31374	 	3.5617200000000004E16	 	9.08738E-17	 	14145.612	30.0228	 
385.0	1.0	0.0	7.75947	7.13617	-9.61841	18.30953	18.86093	1.13705	0.87947	170.95693	152.79915	65.0755	0.31353	 	5.12681E16	 	6.26562E-17	 	13995.877	29.947	 
380.0	1.0	0.0	7.76167	7.13415	-9.64408	18.29541	18.79459	1.13239	0.88308	171.33336	152.96238	65.22927	0.31332	 	7.42093E16	 	4.29577E-17	 	13846.517	29.872	 
375.0	1.0	0.0	7.76387	7.13212	-9.66972	18.28132	18.72825	1.12771	0.88676	171.70896	153.12451	65.38278	0.31311	 	1.08031E17	 	2.92829E-17	 	13697.529	29.7976	 
370.0	1.0	0.0	7.76607	7.1301	-9.69531	18.26723	18.6619	1.12299	0.89048	172.08373	153.28553	65.53603	0.31289	 	1.58189E17	 	1.98437E-17	 	13548.912	29.7234	 
365.0	1.0	0.0	7.76827	7.12808	-9.72087	18.25317	18.59555	1.11823	0.89427	172.45766	153.44544	65.689	0.31268	 	2.33024E17	 	1.33662E-17	 	13400.661	29.6502	 
360.0	1.0	0.0	7.77047	7.12607	-9.74639	18.23912	18.52919	1.11344	0.89812	172.83076	153.60425	65.8417	0.31247	 	3.4537E17	 	8.94764E-18	 	13252.773	29.5776	 
355.0	1.0	0.0	7.77266	7.12406	-9.77187	18.22508	18.46283	1.10862	0.90202	173.20302	153.76196	65.99414	0.31226	 	5.15098E17	 	5.95197E-18	 	13105.247	29.5052	 
350.0	1.0	0.0	7.77485	7.12205	-9.79731	18.21106	18.39647	1.10376	0.90599	173.57443	153.91856	66.1463	0.31205	 	7.73182E17	 	3.93367E-18	 	12958.08	29.4334	 
345.0	1.0	0.0	7.77704	7.12004	-9.82271	18.19706	18.3301	1.09887	0.91002	173.945	154.07407	66.29818	0.31184	 	1.16823E18	 	2.58257E-18	 	12811.269	29.3622	 
340.0	1.0	0.0	7.77923	7.11804	-9.84807	18.18307	18.26372	1.09394	0.91412	174.31472	154.22847	66.4498	0.31163	 	1.77706E18	 	1.68404E-18	 	12664.812	29.2914	 
335.0	1.0	0.0	7.78142	7.11604	-9.8734	18.1691	18.19734	1.08898	0.91829	174.68358	154.38178	66.60113	0.31142	 	2.72188E18	 	1.09051E-18	 	12518.707	29.221	 
330.0	1.0	0.0	7.7836	7.11404	-9.89868	18.15514	18.13096	1.08398	0.92252	175.05159	154.53399	66.75219	0.3112	 	4.19865E18	 	7.01137E-19	 	12372.951	29.1512	 
325.0	1.0	0.0	7.78578	7.11205	-9.92393	18.1412	18.06457	1.07895	0.92683	175.41874	154.6851	66.90297	0.31099	 	6.52375E18	 	4.47507E-19	 	12227.543	29.0816	 
320.0	1.0	0.0	7.78796	7.11006	-9.94914	18.12728	17.99817	1.07388	0.93121	175.78503	154.83511	67.05347	0.31078	 	1.02121E19	 	2.8349E-19	 	12082.481	29.0124	 
315.0	1.0	0.0	7.79014	7.10807	-9.97431	18.11337	17.93177	1.06877	0.93566	176.15045	154.98403	67.20368	0.31057	 	1.61079E19	 	1.78211E-19	 	11937.763	28.9436	 
310.0	1.0	0.0	7.79232	7.10609	-9.99945	18.09947	17.86537	1.06362	0.94019	176.51501	155.13186	67.35362	0.31036	 	2.56071E19	 	1.11149E-19	 	11793.387	28.8752	 
305.0	1.0	0.0	7.79449	7.10411	-10.02454	18.08559	17.79896	1.05843	0.94479	176.8787	155.2786	67.50327	0.31015	 	4.10359E19	 	6.87643E-20	 	11649.352	28.807	 
300.0	1.0	0.0	7.79666	7.10213	-10.0496	18.07173	17.73254	1.05321	0.94948	177.24152	155.42425	67.65264	0.30994	 	6.63045E19	 	4.21902E-20	 	11505.655	28.7394	 
295.0	1.0	0.0	7.79883	7.10015	-10.07462	18.05788	17.66612	1.04795	0.95425	177.60346	155.56881	67.80172	0.30973	 	1.0804099999999998E20	 	2.56661E-20	 	11362.297	28.6716	 
290.0	1.0	0.0	7.801	7.09818	-10.0996	18.04405	17.59969	1.04265	0.9591	177.96453	155.71228	67.95052	0.30952	 	1.77584E20	 	1.54777E-20	 	11219.274	28.6046	 
285.0	1.0	0.0	7.80316	7.09621	-10.12454	18.03024	17.53326	1.0373	0.96404	178.32472	155.85467	68.09903	0.3093	 	2.9449899999999997E20	 	9.25024E-21	 	11076.586	28.5376	 
280.0	1.0	0.0	7.80533	7.09425	-10.14945	18.01644	17.46682	1.03192	0.96907	178.68403	155.99598	68.24725	0.30909	 	4.9287599999999993E20	 	5.47762E-21	 	10934.232	28.4708	 
275.0	1.0	0.0	7.80749	7.09228	-10.17432	18.00265	17.40037	1.0265	0.97418	179.04246	156.13621	68.39518	0.30888	 	8.32668E20	 	3.21303E-21	 	10792.21	28.4044	 
270.0	1.0	0.0	7.80965	7.09032	-10.19915	17.98888	17.33392	1.02104	0.9794	179.40001	156.27535	68.54282	0.30867	 	1.42036E21	 	1.86641E-21	 	10650.52	28.338	 
265.0	1.0	0.0	7.8118	7.08836	-10.22394	17.97513	17.26746	1.01553	0.98471	179.75667	156.41343	68.69017	0.30846	 	2.44702E21	 	1.07338E-21	 	10509.161	28.2718	 
260.0	1.0	0.0	7.81396	7.08641	-10.2487	17.96139	17.201	1.00998	0.99012	180.11245	156.55043	68.83723	0.30825	 	4.2590000000000003E21	 	6.10982E-22	 	10368.131	28.206	 
255.0	1.0	0.0	7.81611	7.08446	-10.27341	17.94767	17.13453	1.00439	0.99563	180.46734	156.68636	68.984	0.30804	 	7.49093E21	 	3.44119E-22	 	10227.43	28.1402	 
250.0	1.0	0.0	7.81826	7.08251	-10.29809	17.93396	17.06806	0.99876	1.00124	180.82134	156.82122	69.13048	0.30783	 	1.33184E22	 	1.91717E-22	 	10087.057	28.0746	 
245.0	1.0	0.0	7.82041	7.08056	-10.32274	17.92027	17.00157	0.99308	1.00697	181.17445	156.95501	69.27666	0.30762	 	2.39437E22	 	1.05621E-22	 	9947.012	28.009	 
240.0	1.0	0.0	7.82255	7.07862	-10.34734	17.9066	16.93509	0.98736	1.0128	181.52668	157.08774	69.42256	0.3074	 	4.35407E22	 	5.75222E-23	 	9807.294	27.9436	 
235.0	1.0	0.0	7.8247	7.07668	-10.37191	17.89294	16.86859	0.98159	1.01875	181.87801	157.21941	69.56815	0.30719	 	8.01145E22	 	3.09576E-23	 	9667.903	27.8782	 
230.0	1.0	0.0	7.82684	7.07474	-10.39644	17.87929	16.80209	0.97578	1.02482	182.22845	157.35003	69.71346	0.30698	 	1.4920699999999998E23	 	1.64586E-23	 	9528.839	27.8128	 
225.0	1.0	0.0	7.82898	7.07281	-10.42094	17.86567	16.73558	0.96992	1.03101	182.578	157.47959	69.85847	0.30677	 	2.81379E23	 	8.64082E-24	 	9390.1	27.7478	 
220.0	1.0	0.0	7.83112	7.07088	-10.44539	17.85205	16.66907	0.96402	1.03732	182.92666	157.60811	70.00318	0.30656	 	5.3750299999999995E23	 	4.47801E-24	 	9251.688	27.6824	 
215.0	1.0	0.0	7.83326	7.06895	-10.46981	17.83846	16.60255	0.95807	1.04377	183.27444	157.73558	70.14761	0.30635	 	1.0404700000000001E24	 	2.28988E-24	 	9113.602	27.6172	 
210.0	1.0	0.0	7.83539	7.06703	-10.4942	17.82487	16.53602	0.95207	1.05034	183.62132	157.862	70.29174	0.30614	 	2.0418E24	 	1.15493E-24	 	8975.842	27.552	 
205.0	1.0	0.0	7.83752	7.0651	-10.51854	17.81131	16.46948	0.94602	1.05706	183.96732	157.9874	70.43557	0.30593	 	4.0637E24	 	5.74288E-25	 	8838.409	27.4866	 
200.0	1.0	0.0	7.83965	7.06318	-10.54285	17.79776	16.40294	0.93993	1.06391	184.31243	158.11175	70.57912	0.30572	 	8.206310000000001E24	 	2.81409E-25	 	8701.303	27.4212	 
195.0	1.0	0.0	7.84178	7.06127	-10.56712	17.78422	16.33639	0.93378	1.07091	184.65665	158.23508	70.72237	0.3055	 	1.6822600000000001E25	 	1.35824E-25	 	8564.524	27.3558	 
190.0	1.0	0.0	7.8439	7.05935	-10.59136	17.7707	16.26984	0.92759	1.07806	184.99999	158.35739	70.86533	0.30529	 	3.50245E25	 	6.45411E-26	 	8428.072	27.2904	 
185.0	1.0	0.0	7.84603	7.05744	-10.61556	17.7572	16.20328	0.92135	1.08537	185.34245	158.47868	71.00799	0.30508	 	7.409720000000001E25	 	3.01782E-26	 	8291.95	27.2244	 
180.0	1.0	0.0	7.84815	7.05554	-10.63972	17.74371	16.13671	0.91505	1.09284	185.68403	158.59896	71.15037	0.30487	 	1.59372E26	 	1.38776E-26	 	8156.156	27.1588	 
175.0	1.0	0.0	7.85027	7.05363	-10.66385	17.73024	16.07013	0.9087	1.10047	186.02474	158.71823	71.29246	0.30466	 	3.48696E26	 	6.27283E-27	 	8020.694	27.0924	 
170.0	1.0	0.0	7.85239	7.05173	-10.68794	17.71679	16.00354	0.9023	1.10828	186.36457	158.8365	71.43425	0.30445	 	7.765210000000001E26	 	2.78538E-27	 	7885.562	27.0264	 
165.0	1.0	0.0	7.8545	7.04983	-10.71199	17.70334	15.93695	0.89585	1.11626	186.70354	158.95378	71.57577	0.30424	 	1.76115E27	 	1.21427E-27	 	7750.764	26.9596	 
160.0	1.0	0.0	7.85662	7.04793	-10.73601	17.68992	15.87035	0.88934	1.12442	187.04164	159.07007	71.71699	0.30403	 	4.0705199999999996E27	 	5.19368E-28	 	7616.299	26.893	 
155.0	1.0	0.0	7.85873	7.04604	-10.75999	17.67651	15.80374	0.88278	1.13278	187.37888	159.18538	71.85794	0.30381	 	9.59405E27	 	2.17811E-28	 	7482.171	26.8256	 
150.0	1.0	0.0	7.86084	7.04415	-10.78394	17.66312	15.73713	0.87617	1.14134	187.71527	159.29972	71.9986	0.3036	 	2.30756E28	 	8.95009E-29	 	7348.38	26.7582	 
145.0	1.0	0.0	7.86294	7.04226	-10.80785	17.64974	15.6705	0.86949	1.15009	188.05081	159.41309	72.13898	0.30339	 	5.66789E28	 	3.60079E-29	 	7214.929	26.6902	 
140.0	1.0	0.0	7.86505	7.04038	-10.83172	17.63638	15.60387	0.86277	1.15906	188.38551	159.52552	72.27908	0.30318	 	1.4227700000000002E29	 	1.41729E-29	 	7081.819	26.622	 
135.0	1.0	0.0	7.86715	7.03849	-10.85556	17.62303	15.53723	0.85598	1.16825	188.71938	159.63699	72.41891	0.30297	 	3.65293E29	 	5.45337E-30	 	6949.054	26.553	 
130.0	1.0	0.0	7.86925	7.03661	-10.87936	17.6097	15.47058	0.84914	1.17767	189.05242	159.74753	72.55847	0.30276	 	9.60078E29	 	2.0495E-30	 	6816.635	26.4838	 
125.0	1.0	0.0	7.87135	7.03474	-10.90312	17.59638	15.40393	0.84223	1.18732	189.38464	159.85714	72.69776	0.30255	 	2.5852999999999997E30	 	7.51661E-31	 	6684.565	26.414	 
120.0	1.0	0.0	7.87345	7.03287	-10.92685	17.58308	15.33726	0.83527	1.19721	189.71605	159.96583	72.83678	0.30234	 	7.13937E30	 	2.68773E-31	 	6552.848	26.3434	 
115.0	1.0	0.0	7.87554	7.03099	-10.95054	17.5698	15.27059	0.82825	1.20736	190.04666	160.07363	72.97554	0.30213	 	2.02383E31	 	9.36081E-32	 	6421.487	26.2722	 
110.0	1.0	0.0	7.87764	7.02913	-10.9742	17.55653	15.20391	0.82117	1.21778	190.37649	160.18052	73.11404	0.30191	 	5.89518E31	 	3.17219E-32	 	6290.485	26.2004	 
105.0	1.0	0.0	7.87973	7.02726	-10.99782	17.54327	15.13722	0.81402	1.22847	190.70554	160.28654	73.25229	0.3017	 	1.76644E32	 	1.04484E-32	 	6159.846	26.1278	 
100.0	1.0	0.0	7.88182	7.0254	-11.02141	17.53004	15.07052	0.80681	1.23944	191.03382	160.3917	73.39029	0.30149	 	5.4509799999999995E32	 	3.34114E-33	 	6029.574	26.0544	 
95.0	1.0	0.0	7.8839	7.02354	-11.04496	17.51681	15.00382	0.79954	1.25072	191.36136	160.496	73.52805	0.30128	 	1.7343800000000002E33	 	1.03602E-33	 	5899.674	25.98	 
90.0	1.0	0.0	7.88599	7.02168	-11.06848	17.50361	14.9371	0.7922	1.2623	191.68815	160.59946	73.66557	0.30107	 	5.69709E33	 	3.11114E-34	 	5770.151	25.9046	 
85.0	1.0	0.0	7.88807	7.01983	-11.09196	17.49042	14.87038	0.7848	1.2742	192.01424	160.70211	73.80286	0.30086	 	1.9345700000000002E34	 	9.0358E-35	 	5641.009	25.8284	 
80.0	1.0	0.0	7.89015	7.01798	-11.1154	17.47724	14.80364	0.77734	1.28645	192.33962	160.80395	73.93992	0.30065	 	6.80066E34	 	2.53452E-35	 	5512.255	25.7508	 
75.0	1.0	0.0	7.89223	7.01613	-11.13881	17.46408	14.7369	0.7698	1.29904	192.66431	160.90501	74.07677	0.30044	 	2.4785599999999998E35	 	6.85574E-36	 	5383.894	25.6722	 
70.0	1.0	0.0	7.89431	7.01428	-11.16219	17.45094	14.67015	0.7622	1.312	192.98835	161.0053	74.2134	0.30023	 	9.380239999999999E35	 	1.78549E-36	 	5255.932	25.5924	 
65.0	1.0	0.0	7.89638	7.01244	-11.18553	17.43781	14.60339	0.75452	1.32534	193.31174	161.10485	74.34984	0.30001	 	3.69252E36	 	4.46965E-37	 	5128.377	25.511	 
60.0	1.0	0.0	7.89845	7.0106	-11.20883	17.4247	14.53661	0.74678	1.33908	193.63452	161.20367	74.48608	0.2998	 	1.5145899999999998E37	 	1.07357E-37	 	5001.236	25.4282	 
55.0	1.0	0.0	7.90052	7.00876	-11.2321	17.4116	14.46983	0.73897	1.35324	193.95671	161.3018	74.62214	0.29959	 	6.48555E37	 	2.46952E-38	 	4874.517	25.3438	 
50.0	1.0	0.0	7.90259	7.00693	-11.25533	17.39852	14.40304	0.73108	1.36783	194.27834	161.39925	74.75802	0.29938	 	2.9049899999999998E38	 	5.42933E-39	 	4748.229	25.2576	 
45.0	1.0	0.0	7.90466	7.0051	-11.27853	17.38546	14.33624	0.72313	1.38288	194.59943	161.49605	74.89374	0.29917	 	1.36399E39	 	1.13843E-39	 	4622.38	25.1698	 
40.0	1.0	0.0	7.90672	7.00327	-11.3017	17.3724	14.26943	0.71509	1.39842	194.92002	161.59224	75.02932	0.29896	 	6.72863E39	 	2.2715E-40	 	4496.98	25.08	 
35.0	1.0	0.0	7.90878	7.00144	-11.32483	17.35937	14.20261	0.70699	1.41445	195.24014	161.68784	75.16476	0.29875	 	3.49571E40	 	4.30243E-41	 	4372.04	24.988	 
30.0	1.0	0.0	7.91085	6.99962	-11.34793	17.34635	14.13578	0.6988	1.43102	195.55983	161.78288	75.30008	0.29854	 	1.9175600000000003E41	 	7.71606E-42	 	4247.572	24.8936	 
25.0	1.0	0.0	7.9129	6.9978	-11.37099	 	14.06894	0.69054	1.44813	195.87914	161.87741	75.43529	0.29833	 	1.1136699999999999E42	 	1.30667E-42	 	4123.588	 	 
