T (C)	Fraction solid (wt)-TOTAL	Fraction liquid (wt)-LIQUID	Density (g/(cm)^3)-TOTAL	Molar volume (cm^3)-TOTAL	Volume change (%)-  	Average expansion coeff. (10e-6 1/K)-  	Thermal conductivity (W/(m*K))-TOTAL	Electrical resistivity (10e-6 Ohm*m)-TOTAL	Electrical conductivity (10e6 1/(Ohm*m))-TOTAL	Young's modulus (GPa)-TOTAL	Bulk modulus (GPa)-TOTAL	Shear modulus(GPa)-TOTAL	Poisson's ratio-TOTAL	Liquid viscosity (mPa s)-  	Total viscosity (mPa s)-  	Liquid diffusivity (10e-9 (m^2)/s)-  	Total diffusivity (10e-9 (m^2)/s)-  	Surface Tension (mN/m)-  	Enthalpy (J/mole)-TOTAL	Specific heat (J/(mole K))-TOTAL	Latent heat (J/mole)-TOTAL
1400.0	0.0	1.0	7.40805	7.88871	0.0	32.16774	30.19704	1.35749	0.73665	0.0	124.67065	0.0	0.5	7.04725	7.04725	1.15878	1.15878	1804.05932	45815.484	 	0.0
1395.0	0.0	1.0	7.41222	7.88427	-0.0562639	32.13008	30.11428	1.35715	0.73684	0.0	124.81225	0.0	0.5	7.12357	7.12357	1.14294	1.14294	1807.42792	45613.581	40.3806	0.0
1390.0	0.0	1.0	7.41638	7.87984	-0.11237	32.09259	30.03152	1.35681	0.73702	0.0	124.95386	0.0	0.5	7.20118	7.20118	1.12723	1.12723	1810.82409	45412.135	40.2892	0.0
1385.0	0.0	1.0	7.42054	7.87543	-0.16831	32.05526	29.94876	1.35647	0.73721	0.0	125.09546	0.0	0.5	7.28012	7.28012	1.11166	1.11166	1814.24767	45211.145	40.198	0.0
1380.0	0.0	1.0	7.42468	7.87103	-0.22409	32.01811	29.866	1.35613	0.73739	0.0	125.23706	0.0	0.5	7.3604	7.3604	1.09622	1.09622	1817.69839	45010.606	40.1078	0.0
1375.0	0.0	1.0	7.42883	7.86664	-0.27972	31.98113	29.78324	1.35579	0.73758	0.0	125.37866	0.0	0.5	7.44206	7.44206	1.08091	1.08091	1821.176	44810.516	40.018	0.0
1370.0	0.0	1.0	7.43296	7.86226	-0.33518	31.94433	29.70047	1.35544	0.73777	0.0	125.52026	0.0	0.5	7.52514	7.52514	1.06574	1.06574	1824.68022	44610.874	39.9284	0.0
1365.0	0.0	1.0	7.43709	7.8579	-0.39048	31.9077	29.61771	1.35509	0.73796	0.0	125.66186	0.0	0.5	7.60966	7.60966	1.05069	1.05069	1828.21077	44411.675	39.8398	0.0
1364.48	0.0	1.0	7.43751	7.85745	-0.3962	31.90392	29.60914	1.35505	0.73798	0.0	125.67653	0.0	0.5	7.61849	7.61849	1.04914	1.04914	1828.57801	44391.062	39.79497	0.0010
1360.0	0.16816	0.83184	7.49133	7.801	-1.11183	29.9871	30.09455	1.32955	0.75213	0.077869	128.94255	0.0263283	0.47881	7.69498	23.86114	1.03587	0.33406	1826.60254	41693.42	601.88085	2519.496
1355.0	0.31643	0.68357	7.5398	7.75084	-1.74761	28.29497	30.52978	1.30658	0.76536	1.00592	131.83723	0.34455	0.45976	7.78366	200.22203	1.02093	0.0396889	1824.39265	39292.718	480.1404	4721.878
1350.0	0.43252	0.56748	7.57859	7.71122	-2.24981	26.9707	30.87506	1.288	0.7764	3.59681	134.1335	1.24492	0.44459	7.87585	707.28414	1.00588	0.0112009	1822.19633	37389.566	380.6304	6427.146
1345.0	0.52462	0.47538	7.61007	7.67933	-2.65406	25.91657	31.14977	1.27271	0.78572	7.94111	135.98814	2.77202	0.43237	7.97156	1599.36018	0.99075	0.00493809	1820.03089	35856.27	306.6592	7762.992
1340.0	0.59856	0.40144	7.63595	7.65331	-2.984	25.06777	31.36734	1.25998	0.79366	13.68287	137.51447	4.80973	0.42242	8.07093	2851.3456	0.97552	0.00276129	1817.90908	34601.401	250.9738	8820.842
1335.0	0.65854	0.34146	7.65748	7.63179	-3.25671	24.37745	31.53791	1.24928	0.80046	20.33544	138.79323	7.18954	0.41424	8.17391	4407.69968	0.96025	0.00178074	1815.84201	33558.625	208.5552	9667.027
1330.0	0.70766	0.29234	7.6756	7.61378	-3.48506	23.81019	31.66943	1.24022	0.80631	27.45285	139.88278	9.75265	0.40746	8.2807	6211.01876	0.94492	0.00125979	1813.83901	32679.212	175.8826	10350.275
1325.0	0.74823	0.25177	7.69101	7.59849	-3.67887	23.33889	31.76839	1.2325	0.81136	34.68414	140.82503	12.37144	0.40178	8.39137	8212.59916	0.92955	9.49781E-4	1811.90838	31926.941	150.4542	10906.803
1320.0	0.78202	0.21798	7.70426	7.58537	-3.84514	22.94424	31.84046	1.22587	0.81575	41.78376	141.65259	14.95483	0.397	8.50591	10376.97876	0.91416	7.49329E-4	1810.05638	31274.597	130.4688	11363.824
1315.0	0.81036	0.18964	7.71578	7.57401	-3.98916	22.61162	31.89015	1.22012	0.81959	48.5966	142.39026	17.44398	0.39293	8.62455	12681.55725	0.89876	6.11231E-4	1808.28698	30701.517	114.616	11742.001
1310.0	0.8343	0.1657	7.72587	7.56405	-4.11546	22.32852	31.92102	1.2151	0.82298	55.02604	143.05527	19.80132	0.38945	8.74733	15111.63575	0.88335	5.11325E-4	1806.60539	30191.859	101.9316	12057.17
1305.0	0.85464	0.14536	7.73481	7.55523	-4.22731	22.08582	31.93627	1.21068	0.82598	61.03334	143.66258	22.01063	0.38645	8.87436	17663.46343	0.86796	4.36073E-4	1805.01463	29733.369	91.698	12321.586
1300.0	0.87206	0.12794	7.74279	7.54736	-4.32703	21.87713	31.93837	1.20677	0.82866	66.60493	144.22321	24.06517	0.38385	9.00587	20337.98213	0.85257	3.77528E-4	1803.51511	29316.482	83.3774	12544.809
1295.0	0.88704	0.11296	7.74998	7.54025	-4.41713	21.69541	31.92932	1.20327	0.83107	71.7441	144.74483	25.96476	0.38157	9.14181	23139.30794	0.83722	3.30768E-4	1802.11221	28933.672	76.562	12734.363
1290.0	0.89999	0.10001	7.75651	7.53379	-4.49906	21.53662	31.91085	1.20013	0.83324	76.4752	145.23473	27.71721	0.37956	9.28243	26078.18736	0.82191	2.92557E-4	1800.80586	28578.972	70.94	12896.213
1285.0	0.91127	0.0887322	7.76248	7.52788	-4.57399	21.39755	31.88442	1.19728	0.83522	80.82645	145.69852	29.332	0.37779	9.42799	29167.59244	0.80663	2.60733E-4	1799.59495	28247.617	66.271	13035.122
1280.0	0.92113	0.0788706	7.76798	7.52241	-4.64328	21.27435	31.85118	1.19469	0.83704	84.82649	146.14002	30.81901	0.3762	9.57841	32421.58601	0.79142	2.33811E-4	1798.48342	27935.772	62.369	13154.922
1278.32	0.92411	0.0758946	7.76973	7.52068	-4.66517	21.23692	31.83833	1.19388	0.83761	86.07424	146.28357	31.28336	0.37572	9.62997	33547.16636	0.78633	2.25722E-4	1798.13268	27835.512	 	13190.74
1275.0	0.93236	0.0676382	7.77356	7.51673	-4.71529	21.14192	31.82424	1.19185	0.83903	89.54637	146.62083	32.57641	0.37441	9.74772	36251.1354	0.77517	2.08439E-4	1798.46677	27603.348	66.4848	13295.701
1270.0	0.94326	0.0567357	7.77889	7.51121	-4.78527	21.01461	31.79597	1.18906	0.841	94.33842	147.09848	34.36386	0.37264	9.92985	40474.60993	0.75849	1.86085E-4	1798.98695	27275.291	65.6114	13432.51
1265.0	0.95242	0.0475796	7.7837	7.50617	-4.84921	20.90464	31.7594	1.18657	0.84277	98.57175	147.54369	35.94569	0.37112	10.11746	44865.61672	0.74202	1.67329E-4	1799.52227	26971.455	60.7672	13545.491
1260.0	0.96017	0.0398316	7.7881	7.50151	-4.90824	20.80883	31.71602	1.18433	0.84436	102.3246	147.96283	37.35021	0.3698	10.31075	49454.48323	0.72574	1.51309E-4	1800.07347	26687.019	56.8872	13639.465
1255.0	0.96677	0.0332266	7.79217	7.49716	-4.96332	20.72434	31.66705	1.18229	0.84582	105.66596	148.36116	38.60253	0.36864	10.50982	54273.60106	0.70967	1.37424E-4	1800.64272	26418.282	53.7474	13718.13
1250.0	0.97244	0.0275605	7.79595	7.49308	-5.01515	20.64919	31.6134	1.18042	0.84715	108.65416	148.7423	39.72399	0.36761	10.71494	59355.48761	0.69381	1.25247E-4	1801.23057	26162.368	51.1828	13784.36
1245.0	0.97733	0.0226685	7.79951	7.4892	-5.06423	20.58192	31.55584	1.17869	0.8484	111.33968	149.10926	40.7331	0.3667	10.92632	64734.72419	0.67815	1.14463E-4	1801.8358	25917.024	49.0688	13840.406
1240.0	0.98158	0.0184204	7.80288	7.4855	-5.11114	20.52083	31.495	1.17708	0.84956	113.76578	149.46435	41.64581	0.36587	11.14398	70447.68424	0.66272	1.04834E-4	1802.46208	25680.464	47.312	13888.05
1235.0	0.98529	0.0147133	7.80608	7.48195	-5.15613	20.46524	31.43136	1.17557	0.85065	115.96672	149.80947	42.47473	0.36513	11.36832	76531.35505	0.64749	9.61816E-5	1803.10532	25451.263	45.8402	13928.718
1230.0	0.98854	0.0114611	7.80914	7.47853	-5.19953	20.41417	31.36532	1.17414	0.85169	117.9746	150.14591	43.23175	0.36444	11.59949	83026.48444	0.63248	8.83634E-5	1803.76691	25228.272	44.5982	13963.554
1225.0	0.9914	0.0085956	7.81209	7.47521	-5.24155	20.36703	31.29719	1.17278	0.85268	119.81404	150.47473	43.92599	0.36382	11.83772	89974.87193	0.61769	8.12682E-5	1804.44625	25010.559	43.5426	13993.488
1220.0	0.99394	0.00606015	7.81493	7.47199	-5.28244	20.32305	31.22728	1.17148	0.85362	121.50749	150.79719	44.56576	0.36324	12.08326	97422.79646	0.60312	7.48048E-5	1805.14314	24797.362	42.6394	14019.282
1215.0	0.99619	0.00380775	7.81769	7.46884	-5.32233	20.2819	31.1558	1.17024	0.85453	123.07422	151.11387	45.15824	0.3627	12.33637	105419.6393	0.58877	6.88988E-5	1805.85693	24588.051	41.8622	14041.563
1210.0	0.9982	0.00179769	7.82037	7.46577	-5.36132	20.24325	31.083	1.16904	0.8554	124.52883	151.42528	45.70885	0.3622	12.59732	114017.2443	0.57464	6.34894E-5	1806.58676	24382.116	41.187	14060.838
1205.0	1.0	0.0	7.82299	7.46275	-5.39956	20.20665	31.01026	1.16783	0.85629	125.88614	151.73215	46.2231	0.36172	 	123274.0637	 	5.85239E-5	 	24179.12	40.5992	14077.542
1200.0	1.0	0.0	7.8255	7.46034	-5.43017	20.19427	30.92536	1.16707	0.85684	126.30476	152.01042	46.38382	0.36152	 	132447.6979	 	5.42862E-5	 	23973.08014	41.20797	 
1195.0	1.0	0.0	7.82801	7.45794	-5.46055	20.18254	30.84051	1.16631	0.8574	126.72299	152.28858	46.54441	0.36131	 	142372.1135	 	5.03306E-5	 	23792.57746	36.10054	 
1190.0	1.0	0.0	7.83053	7.45555	-5.49088	20.17087	30.75565	1.16555	0.85797	127.14035	152.56506	46.70472	0.36111	 	153115.7665	 	4.66397E-5	 	23612.33152	36.04919	 
1185.0	1.0	0.0	7.83303	7.45316	-5.52115	20.15928	30.67078	1.16478	0.85853	127.55684	152.83987	46.86476	0.3609	 	164752.3326	 	4.31974E-5	 	23432.34197	35.99791	 
1180.0	1.0	0.0	7.83554	7.45077	-5.55137	20.14776	30.58592	1.16401	0.8591	127.97245	153.11302	47.02451	0.3607	 	177362.6368	 	3.99885E-5	 	23252.60844	35.94671	 
1175.0	1.0	0.0	7.83804	7.44839	-5.58154	20.13631	30.50105	1.16323	0.85968	128.38718	153.38452	47.18399	0.3605	 	191035.414	 	3.69987E-5	 	23073.13058	35.89557	 
1170.0	1.0	0.0	7.84055	7.44602	-5.61166	20.12493	30.41617	1.16245	0.86025	128.80104	153.65437	47.34318	0.36029	 	205868.122	 	3.42144E-5	 	22893.90801	35.84451	 
1165.0	1.0	0.0	7.84304	7.44365	-5.64172	20.11363	30.33129	1.16166	0.86084	129.21403	153.92259	47.50209	0.36009	 	221967.8801	 	3.16228E-5	 	22714.94038	35.79353	 
1160.0	1.0	0.0	7.84554	7.44128	-5.67173	20.10241	30.24641	1.16087	0.86142	129.62614	154.18918	47.66073	0.35988	 	239452.4812	 	2.92118E-5	 	22536.22732	35.74261	 
1155.0	1.0	0.0	7.84803	7.43892	-5.70169	20.09126	30.16152	1.16008	0.86201	130.03737	154.45415	47.81908	0.35968	 	258451.5377	 	2.697E-5	 	22357.76846	35.69177	 
1150.0	1.0	0.0	7.85052	7.43656	-5.73159	20.08019	30.07662	1.15928	0.86261	130.44773	154.71751	47.97716	0.35948	 	279107.7483	 	2.48866E-5	 	22179.56346	35.641	 
1147.18	1.0	0.0	7.85193	7.43523	-5.74845	20.07398	30.02869	1.15883	0.86294	130.67905	154.8655	48.06629	0.35936	 	291561.7068	 	2.37763E-5	 	22079.05467	 	 
1145.0	1.0	0.0	7.85428	7.43299	-5.77676	20.01759	29.90478	1.16184	0.8607	131.1201	155.0323	48.23997	0.35904	 	303381.3925	 	2.2815E-5	 	21935.56275	48.80014	 
1140.0	1.0	0.0	7.85962	7.42794	-5.84078	19.89056	29.63056	1.16846	0.85583	132.10705	155.40181	48.62896	0.35832	 	332533.3517	 	2.07415E-5	 	21610.16989	65.07857	 
1135.0	1.0	0.0	7.86486	7.423	-5.90347	19.7669	29.36614	1.17481	0.8512	133.05972	155.75406	49.00485	0.35762	 	364727.8227	 	1.88437E-5	 	21290.40795	63.95239	 
1130.0	1.0	0.0	7.87	7.41815	-5.9649	19.64644	29.11114	1.18089	0.84682	133.98044	156.09089	49.36853	0.35694	 	400306.1046	 	1.7108E-5	 	20976.02462	62.87667	 
1125.0	1.0	0.0	7.87504	7.4134	-6.02513	19.52903	28.86511	1.18672	0.84266	134.87135	156.41389	49.72076	0.35629	 	439650.2799	 	1.55215E-5	 	20666.78302	61.84832	 
1120.0	1.0	0.0	7.88	7.40874	-6.08419	19.41454	28.62759	1.19228	0.83873	135.73435	156.72443	50.06228	0.35565	 	483188.4107	 	1.40724E-5	 	20362.46043	60.86452	 
1115.0	1.0	0.0	7.88486	7.40417	-6.14215	19.30284	28.39816	1.1976	0.835	136.57117	157.02371	50.39371	0.35504	 	531400.419	 	1.27497E-5	 	20062.84718	59.92265	 
1113.1	1.0	0.0	7.88669	7.40245	-6.16392	19.26106	28.31292	1.19956	0.83364	136.883	157.13484	50.51728	0.35481	 	551079.5585	 	1.22776E-5	 	19950.05841	 	 
1110.0	1.0	0.0	7.88963	7.39969	-6.19894	19.19418	28.17643	1.20268	0.83148	137.3839	157.31359	50.71583	0.35445	 	584844.7045	 	1.15429E-5	 	19767.48202	59.07303	 
1105.0	1.0	0.0	7.89432	7.39529	-6.25465	19.08826	27.96202	1.20752	0.82814	138.17372	157.59457	51.02909	0.35387	 	644121.4876	 	1.04428E-5	 	19476.31178	58.23405	 
1100.0	1.0	0.0	7.89894	7.39098	-6.30941	18.98474	27.75455	1.21213	0.82499	138.94166	157.86697	51.33388	0.35331	 	709899.4584	 	9.44078E-6	 	19189.32629	57.3971	 
1095.0	1.0	0.0	7.90348	7.38673	-6.36324	18.88351	27.55369	1.21652	0.82202	139.68896	158.13151	51.63066	0.35277	 	782942.967	 	8.52885E-6	 	18906.3555	56.59416	 
1090.0	1.0	0.0	7.90795	7.38255	-6.41618	18.78448	27.35909	1.2207	0.8192	140.41675	158.38882	51.91988	0.35224	 	864112.038	 	7.69946E-6	 	18627.23851	55.8234	 
1085.0	1.0	0.0	7.91235	7.37844	-6.46827	18.68754	27.17046	1.22466	0.81655	141.12611	158.63949	52.20192	0.35173	 	954375.0362	 	6.94569E-6	 	18351.82297	55.08311	 
1080.0	1.0	0.0	7.91669	7.3744	-6.51954	18.59262	26.98749	1.22843	0.81405	141.818	158.88403	52.47717	0.35124	 	1054823.279	 	6.26113E-6	 	18079.96433	54.37173	 
1075.0	1.0	0.0	7.92097	7.37042	-6.57002	18.49962	26.80991	1.23199	0.81169	142.49336	159.1229	52.74597	0.35075	 	1166687.345	 	5.63989E-6	 	17811.52544	53.68778	 
1070.0	1.0	0.0	7.92519	7.36649	-6.61975	18.40846	26.63746	1.23537	0.80947	143.15303	159.35653	53.00864	0.35028	 	1291356.152	 	5.07651E-6	 	17546.37586	53.02992	 
1065.0	1.0	0.0	7.92935	7.36263	-6.66875	18.31908	26.46987	1.23857	0.80739	143.79783	159.58528	53.2655	0.34982	 	1430398.368	 	4.56599E-6	 	17284.39155	52.39686	 
1060.0	1.0	0.0	7.93346	7.35882	-6.71705	18.23138	26.30692	1.24158	0.80542	144.4285	159.8095	53.51684	0.34937	 	1585587.212	 	4.1037E-6	 	17025.45433	51.78744	 
1055.0	1.0	0.0	7.93751	7.35506	-6.76467	18.14532	26.14837	1.24442	0.80358	145.04575	160.02952	53.76292	0.34894	 	1758928.609	 	3.68541E-6	 	16769.4515	51.20057	 
1050.0	1.0	0.0	7.94151	7.35135	-6.81164	18.0608	25.99402	1.2471	0.80186	145.65024	160.24561	54.004	0.34851	 	1952693.675	 	3.30721E-6	 	16516.27557	50.63519	 
1045.0	1.0	0.0	7.94546	7.3477	-6.85799	17.97779	25.84364	1.24962	0.80024	146.2426	160.45804	54.24031	0.3481	 	2169455.782	 	2.96552E-6	 	16265.82384	50.09035	 
1040.0	1.0	0.0	7.94936	7.34409	-6.90373	17.8962	25.69707	1.25198	0.79874	146.82343	160.66704	54.4721	0.34769	 	2412133.16	 	2.65705E-6	 	16017.99814	49.56514	 
1035.0	1.0	0.0	7.95322	7.34053	-6.94889	17.81598	25.55409	1.25419	0.79733	147.39328	160.87285	54.69957	0.3473	 	2684038.15	 	2.37879E-6	 	15772.70458	49.05871	 
1030.0	1.0	0.0	7.95704	7.33701	-6.99348	17.73708	25.41456	1.25626	0.79602	147.95268	161.07567	54.92293	0.34691	 	2988933.166	 	2.12797E-6	 	15529.85328	48.57026	 
1025.0	1.0	0.0	7.96081	7.33353	-7.03754	17.65944	25.27829	1.25818	0.7948	148.50213	161.27568	55.14237	0.34653	 	3331095.897	 	1.90206E-6	 	15289.35823	48.09901	 
1020.0	1.0	0.0	7.96454	7.3301	-7.08107	17.583	25.14513	1.25997	0.79367	149.0421	161.47307	55.35807	0.34616	 	3715393.928	 	1.69875E-6	 	15051.13707	47.64423	 
1015.0	1.0	0.0	7.96822	7.32671	-7.12409	17.50773	25.01493	1.26163	0.79262	149.57304	161.66799	55.57021	0.3458	 	4147371.022	 	1.51593E-6	 	14815.11057	47.2053	 
1010.0	1.0	0.0	7.97188	7.32335	-7.16662	17.43356	24.88755	1.26317	0.79166	150.09537	161.8606	55.77896	0.34545	 	4633346.491	 	1.35167E-6	 	14581.20289	46.78154	 
1005.0	1.0	0.0	7.97549	7.32003	-7.20868	17.36046	24.76286	1.26458	0.79078	150.6095	162.05103	55.98447	0.3451	 	5180530.267	 	1.20419E-6	 	14349.34127	46.37232	 
1000.0	1.0	0.0	7.97907	7.31675	-7.25029	17.28838	24.64073	1.26588	0.78997	151.11581	162.23943	56.18689	0.34476	 	5797156.044	 	1.07189E-6	 	14119.45589	45.97708	 
995.0	1.0	0.0	7.98261	7.3135	-7.29145	17.21727	24.52104	1.26706	0.78923	151.61466	162.42591	56.38635	0.34443	 	6492634.966	 	9.53315E-7	 	13891.47974	45.59523	 
990.0	1.0	0.0	7.98612	7.31029	-7.33219	17.14709	24.40368	1.26814	0.78856	152.1064	162.61059	56.58301	0.3441	 	7277734.224	 	8.47121E-7	 	13665.34847	45.22625	 
985.0	1.0	0.0	7.98959	7.30711	-7.37251	17.07781	24.28853	1.2691	0.78796	152.59134	162.79357	56.77698	0.34378	 	8164784.169	 	7.52098E-7	 	13441.00031	44.86963	 
980.0	1.0	0.0	7.99304	7.30396	-7.41244	17.00938	24.17549	1.26997	0.78742	153.06982	162.97495	56.96839	0.34346	 	9167918.077	 	6.67143E-7	 	13218.37594	44.52487	 
975.0	1.0	0.0	7.99645	7.30084	-7.45197	16.94176	24.06447	1.27074	0.78694	153.54211	163.15483	57.15734	0.34315	 	1.0303352E7	 	5.91255E-7	 	12997.41836	44.19152	 
970.0	1.0	0.0	7.99984	7.29775	-7.49114	16.87493	23.95538	1.27141	0.78653	154.00851	163.3333	57.34396	0.34285	 	1.158971001E7	 	5.23525E-7	 	12778.07287	43.8691	 
965.0	1.0	0.0	8.0032	7.29469	-7.52994	16.80885	23.84812	1.27199	0.78617	154.46927	163.51044	57.52835	0.34255	 	1.304840201E7	 	4.6313E-7	 	12560.28692	43.55719	 
960.0	1.0	0.0	8.00653	7.29166	-7.56838	16.74348	23.74262	1.27249	0.78586	154.92465	163.68632	57.71061	0.34225	 	1.470406521E7	 	4.09322E-7	 	12344.01003	43.25538	 
955.0	1.0	0.0	8.00983	7.28865	-7.60649	16.67879	23.63879	1.27289	0.78561	155.3749	163.86102	57.89083	0.34196	 	1.658508007E7	 	3.61427E-7	 	12129.1937	42.96327	 
950.0	1.0	0.0	8.0131	7.28567	-7.64427	16.61474	23.53657	1.27322	0.78541	155.82024	164.03462	58.0691	0.34168	 	1.872417049E7	 	3.18833E-7	 	11915.79139	42.68046	 
945.0	1.0	0.0	8.01636	7.28272	-7.68172	16.55132	23.43588	1.27346	0.78526	156.2609	164.20716	58.24551	0.3414	 	2.115911053E7	 	2.80989E-7	 	11703.75835	42.40661	 
940.0	1.0	0.0	8.01958	7.27979	-7.71887	16.48849	23.33666	1.27363	0.78516	156.69708	164.37873	58.42015	0.34112	 	2.393354613E7	 	2.47397E-7	 	11493.05164	42.14134	 
935.0	1.0	0.0	8.02279	7.27688	-7.75571	16.42622	23.23884	1.27372	0.7851	157.12898	164.54937	58.59308	0.34085	 	2.709796292E7	 	2.17606E-7	 	11283.63001	41.88433	 
930.0	1.0	0.0	8.02597	7.274	-7.79226	16.36449	23.14236	1.27373	0.78509	157.55678	164.71913	58.76439	0.34058	 	3.07108192E7	 	1.91212E-7	 	11075.45384	41.63524	 
925.0	1.0	0.0	8.02912	7.27114	-7.82853	16.30327	23.04717	1.27368	0.78513	157.98068	164.88808	58.93415	0.34032	 	3.48398801E7	 	1.6785E-7	 	10868.48507	41.39375	 
920.0	1.0	0.0	8.03226	7.2683	-7.86452	16.24253	22.95321	1.27355	0.7852	158.40084	165.05627	59.10242	0.34005	 	3.95637828E7	 	1.47192E-7	 	10662.68718	41.15958	 
915.0	1.0	0.0	8.03537	7.26548	-7.90023	16.18225	22.86044	1.27336	0.78532	158.81742	165.22373	59.26927	0.3398	 	4.497388669E7	 	1.28943E-7	 	10458.02506	40.93242	 
910.0	1.0	0.0	8.03847	7.26268	-7.93569	16.12241	22.7688	1.27311	0.78548	159.23059	165.39051	59.43477	0.33954	 	5.11764405E7	 	1.12838E-7	 	10254.46503	40.71201	 
905.0	1.0	0.0	8.04154	7.25991	-7.97089	16.06298	22.67825	1.27279	0.78567	159.64048	165.55667	59.59896	0.33929	 	5.829516078E7	 	9.86404E-8	 	10051.97472	40.49806	 
900.0	1.0	0.0	8.0446	7.25715	-8.00584	16.00395	22.58874	1.27241	0.78591	160.04725	165.72223	59.76191	0.33904	 	6.647426205E7	 	8.61364E-8	 	9850.52306	40.29033	 
895.0	1.0	0.0	8.04764	7.25441	-8.04056	15.94529	22.50024	1.27197	0.78618	160.45102	165.88723	59.92367	0.3388	 	7.588204474E7	 	7.51357E-8	 	9650.0802	40.08857	 
890.0	1.0	0.0	8.05065	7.25169	-8.07503	15.88698	22.41271	1.27147	0.78649	160.85193	166.05173	60.08429	0.33855	 	8.671515964E7	 	6.54677E-8	 	9450.61749	39.89254	 
885.0	1.0	0.0	8.05365	7.24899	-8.10928	15.829	22.32611	1.27092	0.78683	161.25011	166.21574	60.24382	0.33831	 	9.920364411E7	 	5.69802E-8	 	9252.10739	39.70202	 
880.0	1.0	0.0	8.05664	7.2463	-8.1433	15.77133	22.2404	1.27031	0.78721	161.64566	166.3793	60.40231	0.33808	 	1.136169165E8	 	4.9537E-8	 	9054.5233	39.51682	 
875.0	1.0	0.0	8.0596	7.24364	-8.1771	15.71395	22.15555	1.26964	0.78762	162.03871	166.54245	60.5598	0.33784	 	1.302709152E8	 	4.30168E-8	 	8857.83964	39.33673	 
870.0	1.0	0.0	8.06255	7.24099	-8.21069	15.65686	22.07153	1.26893	0.78807	162.42935	166.70523	60.71634	0.33761	 	1.495365619E8	 	3.73115E-8	 	8662.03255	39.16142	 
865.0	1.0	0.0	8.06549	7.23836	-8.24407	15.60002	21.98831	1.26816	0.78854	162.8177	166.86765	60.87197	0.33738	 	1.718498997E8	 	3.23249E-8	 	8467.0786	38.99079	 
860.0	1.0	0.0	8.0684	7.23574	-8.27724	15.54342	21.90587	1.26734	0.78905	163.20386	167.02975	61.02672	0.33715	 	1.977241364E8	 	2.79714E-8	 	8272.95535	38.82465	 
855.0	1.0	0.0	8.0713	7.23314	-8.31022	15.48705	21.82417	1.26647	0.7896	163.58791	167.19156	61.18063	0.33693	 	2.277641198E8	 	2.41751E-8	 	8079.64119	38.66283	 
850.0	1.0	0.0	8.07419	7.23055	-8.343	15.4309	21.74319	1.26555	0.79017	163.96995	167.3531	61.33374	0.3367	 	2.626835587E8	 	2.08685E-8	 	7887.11538	38.50516	 
845.0	1.0	0.0	8.07645	7.22853	-8.3686	15.4071	21.67706	1.26376	0.79129	164.31603	167.55693	61.46989	0.33656	 	2.987990721E8	 	1.82645E-8	 	7726.91043	32.04099	 
840.0	1.0	0.0	8.0787	7.22652	-8.39414	15.38329	21.61092	1.26196	0.79242	164.66149	167.75982	61.60583	0.33641	 	3.402735505E8	 	1.59666E-8	 	7563.65995	32.6501	 
835.0	1.0	0.0	8.08095	7.22451	-8.41962	15.35948	21.54477	1.26015	0.79356	165.00633	167.96177	61.74157	0.33627	 	3.879596323E8	 	1.39412E-8	 	7400.63503	32.60498	 
830.0	1.0	0.0	8.08319	7.2225	-8.44504	15.33566	21.47861	1.25833	0.7947	165.35055	168.16278	61.87711	0.33612	 	4.428546507E8	 	1.21579E-8	 	7237.83499	32.56001	 
825.0	1.0	0.0	8.08543	7.2205	-8.4704	15.31184	21.41244	1.2565	0.79586	165.69414	168.36286	62.01243	0.33598	 	5.061267111E8	 	1.05898E-8	 	7075.25912	32.51517	 
820.0	1.0	0.0	8.08766	7.21851	-8.49569	15.28801	21.34626	1.25465	0.79703	166.03712	168.562	62.14756	0.33583	 	5.791457385E8	 	9.21252E-9	 	6912.90668	32.47049	 
815.0	1.0	0.0	8.0899	7.21651	-8.52093	15.26417	21.28006	1.2528	0.79821	166.37948	168.76022	62.28248	0.33568	 	6.63520499E8	 	8.00426E-9	 	6750.77693	32.42595	 
810.0	1.0	0.0	8.09212	7.21453	-8.5461	15.24032	21.21385	1.25094	0.7994	166.72121	168.9575	62.41719	0.33554	 	7.611428036E8	 	6.94559E-9	 	6588.86908	32.38157	 
805.0	1.0	0.0	8.09434	7.21255	-8.57121	15.21647	21.14763	1.24906	0.8006	167.06233	169.15387	62.5517	0.33539	 	8.742403653E8	 	6.01915E-9	 	6427.18234	32.33735	 
800.0	1.0	0.0	8.09656	7.21057	-8.59626	15.19261	21.0814	1.24717	0.80181	167.40283	169.34931	62.686	0.33525	 	1.005440096E9	 	5.20944E-9	 	6265.71588	32.29329	 
795.0	1.0	0.0	8.09878	7.2086	-8.62124	15.16875	21.01516	1.24528	0.80303	167.74271	169.54383	62.82009	0.3351	 	1.157844017E9	 	4.50266E-9	 	6104.46883	32.24941	 
790.0	1.0	0.0	8.10099	7.20663	-8.64617	15.14488	20.9489	1.24337	0.80427	168.08196	169.73743	62.95399	0.33496	 	1.33512043E9	 	3.88652E-9	 	5943.44031	32.2057	 
785.0	1.0	0.0	8.10319	7.20467	-8.67103	15.121	20.88262	1.24145	0.80551	168.4206	169.93012	63.08767	0.33481	 	1.541613593E9	 	3.3501E-9	 	5782.62939	32.16218	 
780.0	1.0	0.0	8.10539	7.20272	-8.69583	15.09711	20.81634	1.23952	0.80677	168.75862	170.1219	63.22115	0.33467	 	1.782475838E9	 	2.88372E-9	 	5622.03513	32.11885	 
775.0	1.0	0.0	8.10759	7.20077	-8.72057	15.07322	20.75004	1.23757	0.80803	169.09601	170.31278	63.35443	0.33452	 	2.063827001E9	 	2.47877E-9	 	5461.65651	32.07572	 
770.0	1.0	0.0	8.10978	7.19882	-8.74525	15.04932	20.68372	1.23562	0.80931	169.43279	170.50274	63.4875	0.33438	 	2.392947092E9	 	2.12765E-9	 	5301.49251	32.0328	 
765.0	1.0	0.0	8.11197	7.19688	-8.76986	15.02542	20.6174	1.23365	0.8106	169.76895	170.69181	63.62036	0.33423	 	2.778509503E9	 	1.82362E-9	 	5141.54204	31.99009	 
760.0	1.0	0.0	8.11415	7.19494	-8.79441	15.00151	20.55105	1.23167	0.8119	170.10449	170.87997	63.75302	0.33409	 	3.230863778E9	 	1.56074E-9	 	4981.80401	31.94761	 
755.0	1.0	0.0	8.11633	7.19301	-8.8189	14.97759	20.4847	1.22968	0.81322	170.43941	171.06723	63.88547	0.33395	 	3.762378989E9	 	1.33377E-9	 	4822.27721	31.90536	 
750.0	1.0	0.0	8.11851	7.19108	-8.84333	14.95366	20.41833	1.22768	0.81454	170.77371	171.2536	64.01772	0.3338	 	4.387861457E9	 	1.13808E-9	 	4662.96044	31.86335	 
745.0	1.0	0.0	8.12068	7.18916	-8.8677	14.92973	20.35194	1.22567	0.81588	171.10739	171.43908	64.14976	0.33366	 	5.12506373E9	 	9.69615E-10	 	4503.85241	31.82161	 
740.0	1.0	0.0	8.12284	7.18724	-8.892	14.90579	20.28554	1.22364	0.81723	171.44045	171.62366	64.28159	0.33351	 	5.995305847E9	 	8.24801E-10	 	4344.95181	31.78012	 
735.0	1.0	0.0	8.12501	7.18533	-8.91625	14.88185	20.21912	1.2216	0.8186	171.77289	171.80736	64.41322	0.33337	 	7.024234969E9	 	7.00508E-10	 	4186.25723	31.73892	 
730.0	1.0	0.0	8.12716	7.18342	-8.94043	14.8579	20.15269	1.21955	0.81998	172.10472	171.99017	64.54464	0.33322	 	8.242755831E9	 	5.93991E-10	 	4027.76721	31.698	 
725.0	1.0	0.0	8.12932	7.18152	-8.96454	14.83394	20.08624	1.21748	0.82137	172.43592	172.1721	64.67586	0.33308	 	9.688172465E9	 	5.02853E-10	 	3869.4802	31.6574	 
720.0	1.0	0.0	8.13147	7.17962	-8.9886	14.80997	20.01977	1.21541	0.82277	172.76651	172.35315	64.80687	0.33293	 	1.14056E10	 	4.24995E-10	 	3711.39462	31.61712	 
715.0	1.0	0.0	8.13361	7.17773	-9.01259	14.786	19.95329	1.21332	0.82419	173.09647	172.53333	64.93767	0.33279	 	1.3449699999999998E10	 	3.5859E-10	 	3553.50877	31.57717	 
710.0	1.0	0.0	8.13575	7.17584	-9.03652	14.76202	19.88679	1.21121	0.82562	173.42582	172.71262	65.06827	0.33265	 	1.5886699999999998E10	 	3.02047E-10	 	3395.82087	31.53758	 
705.0	1.0	0.0	8.13789	7.17396	-9.06039	14.73804	19.82027	1.2091	0.82706	173.75455	172.89105	65.19866	0.3325	 	1.87972E10	 	2.5398E-10	 	3238.32906	31.49836	 
700.0	1.0	0.0	8.14002	7.17208	-9.0842	14.71405	19.75374	1.20697	0.82852	174.08266	173.0686	65.32884	0.33236	 	2.22795E10	 	2.13187E-10	 	3081.03138	31.45954	 
695.0	1.0	0.0	8.14214	7.17021	-9.10794	14.69005	19.68719	1.20483	0.82999	174.41015	173.24529	65.45882	0.33221	 	2.6453199999999996E10	 	1.78628E-10	 	2923.92575	31.42113	 
690.0	1.0	0.0	8.14426	7.16834	-9.13162	14.66604	19.62062	1.20267	0.83148	174.73702	173.42111	65.58859	0.33207	 	3.1464899999999996E10	 	1.49401E-10	 	2767.01	31.38315	 
685.0	1.0	0.0	8.14638	7.16648	-9.15524	14.64203	19.55403	1.2005	0.83298	175.06327	173.59606	65.71816	0.33192	 	3.7494E10	 	1.24726E-10	 	2610.28182	31.34564	 
680.0	1.0	0.0	8.1485	7.16462	-9.1788	14.61801	19.48742	1.19832	0.8345	175.38891	173.77016	65.84752	0.33178	 	4.47605E10	 	1.03933E-10	 	2453.73879	31.30861	 
675.0	1.0	0.0	8.1506	7.16276	-9.20229	14.59399	19.4208	1.19612	0.83603	175.71392	173.9434	65.97667	0.33164	 	5.353519999999999E10	 	8.64418E-11	 	2297.37834	31.27209	 
670.0	1.0	0.0	8.15271	7.16092	-9.22573	14.56996	19.35415	1.19391	0.83758	176.03832	174.11578	66.10561	0.33149	 	6.415179999999999E10	 	7.17561E-11	 	2141.19776	31.23612	 
665.0	1.0	0.0	8.15481	7.15907	-9.2491	14.54592	19.28749	1.19169	0.83915	176.3621	174.28731	66.23435	0.33135	 	7.70221E10	 	5.94489E-11	 	1985.19417	31.20072	 
660.0	1.0	0.0	8.1569	7.15723	-9.2724	14.52187	19.22081	1.18945	0.84073	176.68526	174.45799	66.36288	0.33121	 	9.26559E10	 	4.91547E-11	 	1829.37229	31.16438	 
655.0	1.0	0.0	8.15899	7.1554	-9.29565	14.49782	19.1541	1.1872	0.84232	177.00781	174.62782	66.4912	0.33106	 	1.11685E11	 	4.05611E-11	 	1673.77514	31.11943	 
650.0	1.0	0.0	8.16108	7.15357	-9.31883	14.47376	19.08738	1.18493	0.84393	177.32973	174.79681	66.61932	0.33092	 	1.34895E11	 	3.34012E-11	 	1518.45986	31.06306	 
645.0	1.0	0.0	8.16316	7.15175	-9.34195	14.4497	19.02063	1.18265	0.84556	177.65104	174.96495	66.74723	0.33077	 	1.63264E11	 	2.7448E-11	 	1363.42542	31.00689	 
640.0	1.0	0.0	8.16524	7.14993	-9.365	14.42563	18.95386	1.18035	0.84721	177.97172	175.13224	66.87493	0.33063	 	1.98012E11	 	2.2508E-11	 	1208.6708	30.95092	 
635.0	1.0	0.0	8.16731	7.14811	-9.388	14.40155	18.88707	1.17804	0.84887	178.29179	175.2987	67.00242	0.33049	 	2.40667E11	 	1.84174E-11	 	1054.19502	30.89516	 
630.0	1.0	0.0	8.16938	7.14631	-9.41093	14.37747	18.82026	1.17571	0.85055	178.61124	175.46432	67.12971	0.33034	 	2.93143E11	 	1.50372E-11	 	899.99705	30.83959	 
625.0	1.0	0.0	8.17144	7.1445	-9.4338	14.35337	18.75343	1.17337	0.85225	178.93008	175.62911	67.25679	0.3302	 	3.57846E11	 	1.22501E-11	 	746.07557	30.78429	 
620.0	1.0	0.0	8.1735	7.1427	-9.4566	14.32928	18.68657	1.17101	0.85396	179.24829	175.79307	67.38366	0.33006	 	4.37807E11	 	9.957E-12	 	592.42883	30.72935	 
615.0	1.0	0.0	8.17555	7.14091	-9.47934	14.30517	18.61969	1.16864	0.8557	179.56589	175.95619	67.51033	0.32991	 	5.36853E11	 	8.07454E-12	 	439.05623	30.67452	 
610.0	1.0	0.0	8.1776	7.13912	-9.50202	14.28106	18.55279	1.16625	0.85745	179.88287	176.11849	67.63679	0.32977	 	6.59828E11	 	6.53267E-12	 	285.95678	30.61989	 
605.0	1.0	0.0	8.17964	7.13733	-9.52464	14.25694	18.48586	1.16384	0.85922	180.19923	176.27996	67.76303	0.32963	 	8.12879E11	 	5.27266E-12	 	133.12947	30.56546	 
600.0	1.0	0.0	8.18168	7.13556	-9.5472	14.23282	18.41891	1.16142	0.86101	180.51497	176.44061	67.88908	0.32948	 	1.00383E12	 	4.24538E-12	 	-19.42666	30.51122	 
595.0	1.0	0.0	8.18372	7.13378	-9.56969	14.20868	18.35193	1.15899	0.86282	180.8301	176.60044	68.01491	0.32934	 	1.24265E12	 	3.40984E-12	 	-171.7126	30.45719	 
590.0	1.0	0.0	8.18575	7.13201	-9.59212	14.18455	18.28493	1.15654	0.86465	181.1446	176.75944	68.14054	0.3292	 	1.54209E12	 	2.73189E-12	 	-323.72933	30.40335	 
585.0	1.0	0.0	8.18777	7.13025	-9.61448	14.1604	18.2179	1.15407	0.8665	181.45849	176.91764	68.26595	0.32906	 	1.91851E12	 	2.18316E-12	 	-475.47784	30.3497	 
580.0	1.0	0.0	8.18979	7.12849	-9.63678	14.13625	18.15085	1.15158	0.86837	181.77177	177.07501	68.39116	0.32891	 	2.39294E12	 	1.74012E-12	 	-626.95908	30.29625	 
575.0	1.0	0.0	8.19181	7.12673	-9.65902	14.11209	18.08376	1.14908	0.87026	182.08442	177.23158	68.51617	0.32877	 	2.99247E12	 	1.38334E-12	 	-778.17405	30.24299	 
570.0	1.0	0.0	8.19382	7.12498	-9.6812	14.08793	18.01666	1.14656	0.87217	182.39646	177.38733	68.64096	0.32863	 	3.75215E12	 	1.09676E-12	 	-929.12371	30.18993	 
565.0	1.0	0.0	8.19583	7.12324	-9.70331	14.06376	17.94952	1.14402	0.87411	182.70787	177.54228	68.76554	0.32848	 	4.71739E12	 	8.67174E-13	 	-1079.80901	30.13706	 
560.0	1.0	0.0	8.19783	7.1215	-9.72536	14.03958	17.88235	1.14147	0.87606	183.01867	177.69642	68.88992	0.32834	 	5.94727E12	 	6.83742E-13	 	-1230.23094	30.08439	 
555.0	1.0	0.0	8.19983	7.11977	-9.74735	14.01539	17.81516	1.1389	0.87804	183.32886	177.84976	69.01409	0.3282	 	7.51879E12	 	5.37586E-13	 	-1380.39045	30.0319	 
550.0	1.0	0.0	8.20182	7.11804	-9.76927	13.9912	17.74794	1.13631	0.88004	183.63842	178.0023	69.13805	0.32806	 	9.53269E12	 	4.21454E-13	 	-1530.2885	29.97961	 
545.0	1.0	0.0	8.20381	7.11631	-9.79114	13.967	17.68069	1.1337	0.88206	183.94737	178.15404	69.2618	0.32791	 	1.21211E13	 	3.29441E-13	 	-1679.92605	29.92751	 
540.0	1.0	0.0	8.20579	7.11459	-9.81293	13.9428	17.6134	1.13108	0.88411	184.2557	178.30498	69.38535	0.32777	 	1.5458E13	 	2.56747E-13	 	-1829.30406	29.8756	 
535.0	1.0	0.0	8.20777	7.11288	-9.83467	13.91859	17.54609	1.12844	0.88618	184.56341	178.45512	69.50868	0.32763	 	1.97729E13	 	1.99484E-13	 	-1978.42346	29.82388	 
530.0	1.0	0.0	8.20974	7.11117	-9.85634	13.89437	17.47874	1.12578	0.88827	184.87051	178.60448	69.63181	0.32749	 	2.53699E13	 	1.54513E-13	 	-2127.28521	29.77235	 
525.0	1.0	0.0	8.21171	7.10946	-9.87795	13.87015	17.41136	1.1231	0.89039	185.17699	178.75304	69.75472	0.32734	 	3.2653E13	 	1.19302E-13	 	-2275.89025	29.72101	 
520.0	1.0	0.0	8.21367	7.10776	-9.89949	13.84591	17.34395	1.1204	0.89254	185.48285	178.90081	69.87743	0.3272	 	4.21608E13	 	9.18191E-14	 	-2424.23953	29.66985	 
515.0	1.0	0.0	8.21563	7.10607	-9.92097	13.82168	17.27651	1.11768	0.89471	185.78809	179.0478	69.99993	0.32706	 	5.4614E13	 	7.04356E-14	 	-2572.33398	29.61889	 
510.0	1.0	0.0	8.21759	7.10438	-9.94239	13.79743	17.20903	1.11495	0.8969	186.09272	179.19401	70.12222	0.32692	 	7.09796E13	 	5.38516E-14	 	-2720.17455	29.56812	 
505.0	1.0	0.0	8.21953	7.10269	-9.96375	13.77318	17.14152	1.11219	0.89912	186.39672	179.33943	70.2443	0.32677	 	9.25606E13	 	4.10321E-14	 	-2867.76217	29.51752	 
500.0	1.0	0.0	8.22148	7.10102	-9.98504	13.74892	17.07397	1.10942	0.90137	186.70011	179.48407	70.36617	0.32663	 	1.21118E14	 	3.11559E-14	 	-3015.09776	29.46712	 
495.0	1.0	0.0	8.22342	7.09934	-10.00627	13.72466	17.00639	1.10662	0.90365	187.00289	179.62793	70.48783	0.32649	 	1.59043E14	 	2.35732E-14	 	-3162.18224	29.4169	 
490.0	1.0	0.0	8.22535	7.09767	-10.02743	13.70039	16.93876	1.10381	0.90595	187.30504	179.77102	70.60929	0.32635	 	2.09589E14	 	1.77717E-14	 	-3309.01653	29.36686	 
485.0	1.0	0.0	8.22728	7.09601	-10.04853	13.67611	16.8711	1.10098	0.90829	187.60658	179.91333	70.73053	0.32621	 	2.7720599999999997E14	 	1.33487E-14	 	-3455.60153	29.317	 
480.0	1.0	0.0	8.22921	7.09435	-10.06957	13.65182	16.80341	1.09812	0.91065	187.9075	180.05487	70.85156	0.32606	 	3.68003E14	 	9.98889E-15	 	-3601.93816	29.26733	 
475.0	1.0	0.0	8.23113	7.09269	-10.09054	13.62753	16.73567	1.09525	0.91304	188.20781	180.19564	70.97239	0.32592	 	4.90392E14	 	7.44616E-15	 	-3748.02731	29.21783	 
470.0	1.0	0.0	8.23304	7.09104	-10.11145	13.60323	16.6679	1.09235	0.91546	188.50749	180.33564	71.093	0.32578	 	6.56014E14	 	5.52904E-15	 	-3893.86989	29.16852	 
465.0	1.0	0.0	8.23495	7.0894	-10.1323	13.57893	16.60008	1.08943	0.91791	188.80656	180.47488	71.21341	0.32564	 	8.81039E14	 	4.08918E-15	 	-4039.46677	29.11938	 
460.0	1.0	0.0	8.23686	7.08776	-10.15308	13.55462	16.53222	1.0865	0.92039	189.10501	180.61335	71.3336	0.3255	 	1.18802E15	 	3.012E-15	 	-4184.81887	29.07042	 
455.0	1.0	0.0	8.23876	7.08612	-10.1738	13.5303	16.46432	1.08354	0.9229	189.40285	180.75106	71.45359	0.32536	 	1.60856E15	 	2.20938E-15	 	-4329.92705	29.02164	 
450.0	1.0	0.0	8.24065	7.08449	-10.19446	13.50597	16.39638	1.08055	0.92545	189.70007	180.88802	71.57337	0.32521	 	2.1871E15	 	1.61379E-15	 	-4474.79219	28.97303	 
445.0	1.0	0.0	8.24254	7.08287	-10.21505	13.48164	16.32839	1.07755	0.92803	189.99667	181.02421	71.69293	0.32507	 	2.98647E15	 	1.17366E-15	 	-4619.41517	28.9246	 
440.0	1.0	0.0	8.24443	7.08125	-10.23558	13.45731	16.26035	1.07453	0.93064	190.29265	181.15964	71.81229	0.32493	 	4.09587E15	 	8.49809E-16	 	-4763.79684	28.87633	 
435.0	1.0	0.0	8.24631	7.07964	-10.25604	13.43296	16.19227	1.07148	0.93329	190.58801	181.29433	71.93143	0.32479	 	5.64249E15	 	6.1255E-16	 	-4907.93808	28.82825	 
430.0	1.0	0.0	8.24818	7.07803	-10.27645	13.40861	16.12415	1.06841	0.93597	190.88276	181.42826	72.05037	0.32465	 	7.80861E15	 	4.39502E-16	 	-5051.83973	28.78033	 
425.0	1.0	0.0	8.25005	7.07642	-10.29678	13.38425	16.05597	1.06532	0.93869	191.17689	181.56144	72.16909	0.32451	 	1.08567E16	 	3.13861E-16	 	-5195.50253	28.73256	 
420.0	1.0	0.0	8.25192	7.07482	-10.31706	13.35989	15.98775	1.0622	0.94144	191.47041	181.69387	72.28761	0.32437	 	1.51665E16	 	2.23063E-16	 	-5338.9275	28.68499	 
415.0	1.0	0.0	8.25378	7.07323	-10.33727	13.33552	15.91948	1.05906	0.94423	191.76331	181.82556	72.40591	0.32422	 	2.12905E16	 	1.57755E-16	 	-5482.115	28.6375	 
410.0	1.0	0.0	8.25563	7.07164	-10.35741	13.31114	15.85115	1.0559	0.94706	192.05559	181.9565	72.52401	0.32408	 	3.00359E16	 	1.1101E-16	 	-5625.06524	28.59005	 
405.0	1.0	0.0	8.25748	7.07006	-10.37749	13.28675	15.78278	1.05271	0.94993	192.34725	182.0867	72.64189	0.32394	 	4.25892E16	 	7.77165E-17	 	-5767.77839	28.54263	 
400.0	1.0	0.0	8.25933	7.06848	-10.39751	13.26236	15.71435	1.0495	0.95284	192.6383	182.21615	72.75956	0.3238	 	6.07031E16	 	5.41237E-17	 	-5910.25462	28.49525	 
395.0	1.0	0.0	8.26117	7.0669	-10.41747	13.23796	15.64586	1.04626	0.95578	192.92872	182.34487	72.87702	0.32366	 	8.69814E16	 	3.74916E-17	 	-6052.49411	28.4479	 
390.0	1.0	0.0	8.263	7.06533	-10.43736	13.21356	15.57732	1.043	0.95877	193.21854	182.47286	72.99427	0.32352	 	1.25313E17	 	2.58286E-17	 	-6194.497	28.40058	 
385.0	1.0	0.0	8.26483	7.06377	-10.45718	13.18915	15.50872	1.03972	0.9618	193.50773	182.6001	73.11131	0.32338	 	1.81542E17	 	1.76943E-17	 	-6336.26346	28.35329	 
380.0	1.0	0.0	8.26665	7.06221	-10.47694	13.16473	15.44007	1.03641	0.96487	193.79631	182.72662	73.22814	0.32324	 	2.64498E17	 	1.20525E-17	 	-6477.79362	28.30603	 
375.0	1.0	0.0	8.26847	7.06066	-10.49664	13.14031	15.37135	1.03307	0.96799	194.08427	182.8524	73.34476	0.3231	 	3.87605E17	 	8.16155E-18	 	-6619.08762	28.2588	 
370.0	1.0	0.0	8.27029	7.05911	-10.51627	13.11587	15.30257	1.02971	0.97115	194.37161	182.97745	73.46117	0.32295	 	5.71396E17	 	5.49366E-18	 	-6760.14555	28.21159	 
365.0	1.0	0.0	8.2721	7.05756	-10.53584	13.09144	15.23373	1.02632	0.97436	194.65834	183.10178	73.57736	0.32281	 	8.47472E17	 	3.67522E-18	 	-6900.96757	28.1644	 
360.0	1.0	0.0	8.2739	7.05603	-10.55535	13.06699	15.16483	1.0229	0.97761	194.94445	183.22538	73.69334	0.32267	 	1.26479E18	 	2.44329E-18	 	-7041.55377	28.11724	 
355.0	1.0	0.0	8.2757	7.05449	-10.57479	13.04254	15.09586	1.01946	0.98091	195.22994	183.34826	73.80912	0.32253	 	1.89967E18	 	1.61388E-18	 	-7181.90421	28.07009	 
350.0	1.0	0.0	8.27749	7.05296	-10.59417	13.01808	15.02682	1.01599	0.98426	195.51481	183.47041	73.92468	0.32239	 	2.87193E18	 	1.05902E-18	 	-7322.01901	28.02296	 
345.0	1.0	0.0	8.27928	7.05144	-10.61348	12.99362	14.95772	1.0125	0.98766	195.79907	183.59185	74.04003	0.32225	 	4.37092E18	 	6.90251E-19	 	-7461.89822	27.97584	 
340.0	1.0	0.0	8.28106	7.04992	-10.63273	12.96915	14.88854	1.00898	0.9911	196.08271	183.71256	74.15517	0.32211	 	6.69803E18	 	4.46793E-19	 	-7601.5419	27.92874	 
335.0	1.0	0.0	8.28284	7.04841	-10.65192	12.94467	14.8193	1.00542	0.99461	196.36574	183.83256	74.27009	0.32197	 	1.03364E19	 	2.87163E-19	 	-7740.95009	27.88164	 
330.0	1.0	0.0	8.28462	7.0469	-10.67104	12.92018	14.74997	1.00184	0.99816	196.64814	183.95185	74.38481	0.32183	 	1.60663E19	 	1.8323E-19	 	-7880.12284	27.83455	 
325.0	1.0	0.0	8.28638	7.0454	-10.69009	12.89569	14.68058	0.99824	1.00177	196.92993	184.07042	74.49931	0.32169	 	2.51573E19	 	1.16047E-19	 	-8019.06016	27.78746	 
320.0	1.0	0.0	8.28815	7.0439	-10.70908	12.8712	14.6111	0.9946	1.00543	197.21111	184.18828	74.6136	0.32155	 	3.96914E19	 	7.29382E-20	 	-8157.76204	27.74038	 
315.0	1.0	0.0	8.2899	7.0424	-10.72801	12.84669	14.54155	0.99093	1.00915	197.49166	184.30543	74.72768	0.32141	 	6.31095E19	 	4.54862E-20	 	-8296.2285	27.69329	 
310.0	1.0	0.0	8.29165	7.04092	-10.74687	12.82218	14.47191	0.98723	1.01293	197.7716	184.42187	74.84154	0.32127	 	1.01146E20	 	2.81397E-20	 	-8434.45949	27.6462	 
305.0	1.0	0.0	8.2934	7.03943	-10.76567	12.79766	14.40219	0.98351	1.01677	198.05092	184.53761	74.9552	0.32113	 	1.63434E20	 	1.72657E-20	 	-8572.45498	27.5991	 
300.0	1.0	0.0	8.29514	7.03796	-10.78441	12.77314	14.33239	0.97975	1.02067	198.32963	184.65265	75.06864	0.32099	 	2.6630199999999997E20	 	1.05046E-20	 	-8710.21491	27.55199	 
295.0	1.0	0.0	8.29688	7.03648	-10.80307	12.74861	14.26249	0.97596	1.02463	198.60771	184.76698	75.18187	0.32085	 	4.3766199999999993E20	 	6.33594E-21	 	-8847.7392	27.50486	 
290.0	1.0	0.0	8.29861	7.03502	-10.82168	12.72407	14.19251	0.97214	1.02865	198.88518	184.88061	75.29489	0.32071	 	7.25661E20	 	3.78771E-21	 	-8985.02778	27.45772	 
285.0	1.0	0.0	8.30034	7.03355	-10.84022	12.69952	14.12243	0.96829	1.03274	199.16204	184.99354	75.40769	0.32057	 	1.21412E21	 	2.24375E-21	 	-9122.08051	27.41055	 
280.0	1.0	0.0	8.30206	7.0321	-10.8587	12.67497	14.05226	0.96441	1.0369	199.43827	185.10577	75.52028	0.32043	 	2.0503800000000001E21	 	1.31673E-21	 	-9258.89728	27.36335	 
275.0	1.0	0.0	8.30377	7.03064	-10.87711	12.65041	13.98199	0.9605	1.04113	199.71389	185.21731	75.63266	0.32029	 	3.4958700000000003E21	 	7.65298E-22	 	-9395.47792	27.31613	 
270.0	1.0	0.0	8.30548	7.0292	-10.89545	12.62585	13.91162	0.95655	1.04542	199.9889	185.32815	75.74483	0.32015	 	6.019270000000001E21	 	4.40416E-22	 	-9531.82228	27.26887	 
265.0	1.0	0.0	8.30719	7.02775	-10.91374	12.60128	13.84114	0.95257	1.04979	200.26328	185.43831	75.85678	0.32001	 	1.0469299999999999E22	 	2.50884E-22	 	-9667.93014	27.22157	 
260.0	1.0	0.0	8.30888	7.02632	-10.93195	12.5767	13.77056	0.94856	1.05423	200.53705	185.54777	75.96852	0.31987	 	1.8399199999999999E22	 	1.41429E-22	 	-9803.80131	27.17423	 
255.0	1.0	0.0	8.31058	7.02488	-10.95011	12.55212	13.69987	0.94451	1.05875	200.8102	185.65654	76.08005	0.31973	 	3.2682699999999997E22	 	7.88726E-23	 	-9939.43551	27.12684	 
250.0	1.0	0.0	8.31227	7.02346	-10.96819	12.52753	13.62907	0.94043	1.06334	201.08273	185.76463	76.19136	0.31959	 	5.869559999999999E22	 	4.35018E-23	 	-10074.8325	27.0794	 
245.0	1.0	0.0	8.31395	7.02204	-10.98622	12.50293	13.55815	0.93631	1.06802	201.35465	185.87203	76.30247	0.31945	 	1.0661099999999998E23	 	2.37214E-23	 	-10209.99198	27.0319	 
240.0	1.0	0.0	8.31563	7.02062	-11.00418	12.47832	13.48711	0.93216	1.07277	201.62595	185.97875	76.41335	0.31931	 	1.9590599999999997E23	 	1.27845E-23	 	-10344.9136	26.98433	 
235.0	1.0	0.0	8.3173	7.01921	-11.02207	12.45371	13.41596	0.92798	1.07761	201.89663	186.08478	76.52403	0.31917	 	3.6432999999999996E23	 	6.80743E-24	 	-10479.59705	26.93669	 
230.0	1.0	0.0	8.31897	7.0178	-11.0399	12.42909	13.34467	0.92375	1.08254	202.1667	186.19013	76.63449	0.31903	 	6.85958E23	 	3.58003E-24	 	-10614.04191	26.88897	 
225.0	1.0	0.0	8.32063	7.0164	-11.05766	12.40447	13.27325	0.91949	1.08755	202.43614	186.29481	76.74474	0.31889	 	1.3080300000000001E24	 	1.85879E-24	 	-10748.24777	26.84117	 
220.0	1.0	0.0	8.32228	7.015	-11.07536	12.37984	13.20171	0.9152	1.09266	202.70497	186.39881	76.85477	0.31875	 	2.52708E24	 	9.5246E-25	 	-10882.21417	26.79328	 
215.0	1.0	0.0	8.32393	7.01361	-11.093	12.3552	13.13002	0.91087	1.09786	202.97319	186.50213	76.96459	0.31861	 	4.94858E24	 	4.81459E-25	 	-11015.94064	26.74529	 
210.0	1.0	0.0	8.32558	7.01223	-11.11056	12.33056	13.05819	0.90649	1.10315	203.24078	186.60478	77.0742	0.31847	 	9.82615E24	 	2.39986E-25	 	-11149.42664	26.6972	 
205.0	1.0	0.0	8.32722	7.01084	-11.12807	12.30591	12.98621	0.90209	1.10854	203.50776	186.70676	77.18359	0.31834	 	1.9793200000000003E25	 	1.17906E-25	 	-11282.67161	26.64899	 
200.0	1.0	0.0	8.32885	7.00947	-11.14551	12.28125	12.91409	0.89764	1.11403	203.77413	186.80807	77.29277	0.3182	 	4.04648E25	 	5.70701E-26	 	-11415.67493	26.60067	 
195.0	1.0	0.0	8.33048	7.0081	-11.16288	12.25658	12.8418	0.89315	1.11963	204.03987	186.9087	77.40174	0.31806	 	8.399860000000001E25	 	2.72019E-26	 	-11548.43595	26.5522	 
190.0	1.0	0.0	8.33211	7.00673	-11.18019	12.23191	12.76936	0.88863	1.12533	204.305	187.00867	77.51049	0.31792	 	1.77139E26	 	1.27613E-26	 	-11680.95399	26.50361	 
185.0	1.0	0.0	8.33372	7.00537	-11.19744	12.20723	12.69675	0.88406	1.13115	204.56951	187.10798	77.61902	0.31778	 	3.79692E26	 	5.88929E-27	 	-11813.22827	26.45486	 
180.0	1.0	0.0	8.33534	7.00402	-11.21462	12.18255	12.62396	0.87945	1.13707	204.8334	187.20662	77.72735	0.31764	 	8.276640000000001E26	 	2.67223E-27	 	-11945.258	26.40595	 
175.0	1.0	0.0	8.33694	7.00267	-11.23173	12.15786	12.551	0.8748	1.14311	205.09668	187.3046	77.83545	0.3175	 	1.8358099999999998E27	 	1.19147E-27	 	-12077.04232	26.35687	 
170.0	1.0	0.0	8.33855	7.00132	-11.24878	12.13316	12.47786	0.87012	1.14927	205.35934	187.40191	77.94335	0.31736	 	4.1458199999999996E27	 	5.21707E-28	 	-12208.58034	26.3076	 
165.0	1.0	0.0	8.34014	6.99998	-11.26576	12.10846	12.40452	0.86538	1.15556	205.62138	187.49857	78.05103	0.31722	 	9.538209999999999E27	 	2.24204E-28	 	-12339.87105	26.25814	 
160.0	1.0	0.0	8.34173	6.99865	-11.28268	12.08375	12.33099	0.86061	1.16197	205.8828	187.59457	78.15849	0.31709	 	2.23706E28	 	9.45035E-29	 	-12470.91343	26.20848	 
155.0	1.0	0.0	8.34332	6.99732	-11.29953	12.05903	12.25725	0.85579	1.16851	206.14361	187.68991	78.26574	0.31695	 	5.3522200000000005E28	 	3.90435E-29	 	-12601.70637	26.15859	 
150.0	1.0	0.0	8.3449	6.99599	-11.31632	12.0343	12.18331	0.85093	1.17518	206.4038	187.7846	78.37277	0.31681	 	1.30721E29	 	1.57993E-29	 	-12732.24868	26.10846	 
145.0	1.0	0.0	8.34647	6.99468	-11.33304	12.00957	12.10914	0.84603	1.18199	206.66337	187.87863	78.47959	0.31667	 	3.2615900000000005E29	 	6.25734E-30	 	-12862.53911	26.05809	 
140.0	1.0	0.0	8.34804	6.99336	-11.3497	11.98484	12.03475	0.84108	1.18895	206.92232	187.97202	78.5862	0.31653	 	8.320030000000001E29	 	2.42365E-30	 	-12992.57631	26.00744	 
135.0	1.0	0.0	8.3496	6.99205	-11.36629	11.96009	11.96012	0.83608	1.19605	207.18066	188.06475	78.69259	0.31639	 	2.17163E30	 	9.17321E-31	 	-13122.35887	25.95651	 
130.0	1.0	0.0	8.35116	6.99075	-11.38282	11.93534	11.88525	0.83104	1.2033	207.43838	188.15683	78.79876	0.31625	 	5.80471E30	 	3.38979E-31	 	-13251.88526	25.90528	 
125.0	1.0	0.0	8.35271	6.98945	-11.39928	11.91058	11.81012	0.82596	1.21071	207.69548	188.24827	78.90472	0.31612	 	1.59038E31	 	1.22189E-31	 	-13381.15386	25.85372	 
120.0	1.0	0.0	8.35426	6.98816	-11.41568	11.88582	11.73473	0.82083	1.21829	207.95197	188.33906	79.01047	0.31598	 	4.47048E31	 	4.29231E-32	 	-13510.16296	25.80182	 
115.0	1.0	0.0	8.3558	6.98687	-11.43201	11.86105	11.65907	0.81565	1.22602	208.20783	188.42921	79.116	0.31584	 	1.2905399999999999E32	 	1.46796E-32	 	-13638.91072	25.74955	 
110.0	1.0	0.0	8.35733	6.98558	-11.44827	11.83627	11.58313	0.81042	1.23393	208.46308	188.51871	79.22131	0.3157	 	3.83006E32	 	4.88259E-33	 	-13767.39519	25.69689	 
105.0	1.0	0.0	8.35886	6.98431	-11.46447	11.81149	11.50688	0.80514	1.24202	208.71772	188.60758	79.32641	0.31556	 	1.16986E33	 	1.57768E-33	 	-13895.61431	25.64382	 
100.0	1.0	0.0	8.36038	6.98303	-11.48061	11.78669	11.43033	0.79982	1.25029	208.97173	188.6958	79.43129	0.31542	 	3.68176E33	 	4.94669E-34	 	-14023.56586	25.59031	 
95.0	1.0	0.0	8.3619	6.98177	-11.49668	11.7619	11.35346	0.79444	1.25874	209.22513	188.78339	79.53596	0.31529	 	1.19537E34	 	1.50317E-34	 	-14151.2475	25.53633	 
90.0	1.0	0.0	8.36341	6.9805	-11.51268	11.73709	11.27626	0.78902	1.2674	209.47791	188.87034	79.64041	0.31515	 	4.00899E34	 	4.42118E-35	 	-14278.6567	25.48184	 
85.0	1.0	0.0	8.36492	6.97925	-11.52862	11.71228	11.1987	0.78354	1.27625	209.73007	188.95665	79.74464	0.31501	 	1.3907199999999999E35	 	1.25693E-35	 	-14405.79083	25.42682	 
80.0	1.0	0.0	8.36642	6.97799	-11.54449	11.68746	11.12078	0.77802	1.28532	209.98161	189.04233	79.84866	0.31487	 	4.9973699999999995E35	 	3.44909E-36	 	-14532.64702	25.37124	 
75.0	1.0	0.0	8.36792	6.97675	-11.5603	11.66264	11.04248	0.77244	1.2946	210.23254	189.12738	79.95246	0.31473	 	1.86294E36	 	9.12124E-37	 	-14659.22225	25.31505	 
70.0	1.0	0.0	8.36941	6.97551	-11.57604	11.63781	10.96379	0.76681	1.3041	210.48285	189.2118	80.05605	0.3146	 	7.216229999999999E36	 	2.32092E-37	 	-14785.51328	25.25821	 
65.0	1.0	0.0	8.37089	6.97427	-11.59171	11.61297	10.88467	0.76113	1.31383	210.73254	189.29559	80.15942	0.31446	 	2.9094599999999997E37	 	5.67261E-38	 	-14911.51667	25.20068	 
60.0	1.0	0.0	8.37237	6.97304	-11.60732	11.58813	10.80513	0.7554	1.3238	210.98162	189.37875	80.26257	0.31432	 	1.22318E38	 	1.32934E-38	 	-15037.22874	25.14241	 
55.0	1.0	0.0	8.37384	6.97181	-11.62286	11.56327	10.72512	0.74961	1.33402	211.23007	189.46128	80.36551	0.31418	 	5.37248E38	 	2.98115E-39	 	-15162.64557	25.08337	 
50.0	1.0	0.0	8.37531	6.97059	-11.63834	11.53842	10.64464	0.74377	1.3445	211.47791	189.54319	80.46823	0.31405	 	2.47028E39	 	6.38475E-40	 	-15287.76293	25.02347	 
45.0	1.0	0.0	8.37677	6.96938	-11.65375	11.51355	10.56366	0.73788	1.35524	211.72513	189.62448	80.57074	0.31391	 	1.19164E40	 	1.30309E-40	 	-15412.57636	24.96269	 
40.0	1.0	0.0	8.37822	6.96816	-11.6691	11.48868	10.48215	0.73193	1.36626	211.97174	189.70514	80.67302	0.31377	 	6.04457E40	 	2.52856E-41	 	-15537.08104	24.90094	 
35.0	1.0	0.0	8.37967	6.96696	-11.68438	11.4638	10.40009	0.72592	1.37755	212.21772	189.78518	80.77509	0.31363	 	3.23201E41	 	4.65347E-42	 	-15661.27184	24.83816	 
30.0	1.0	0.0	8.38112	6.96576	-11.69959	11.43892	10.31745	0.71987	1.38915	212.46309	189.86461	80.87695	0.3135	 	1.8263999999999997E42	 	8.10116E-43	 	-15785.14324	24.77428	 
25.0	1.0	0.0	8.38256	6.96456	-11.71474	 	10.23419	0.71375	1.40105	212.70784	189.94341	80.97858	0.31336	 	1.0938300000000001E43	 	1.33037E-43	 	-15908.68932	 	 
