T (C)	Fraction solid (wt)-TOTAL	Fraction liquid (wt)-LIQUID	Density (g/(cm)^3)-TOTAL	Molar volume (cm^3)-TOTAL	Volume change (%)-  	Average expansion coeff. (10e-6 1/K)-  	Thermal conductivity (W/(m*K))-TOTAL	Electrical resistivity (10e-6 Ohm*m)-TOTAL	Electrical conductivity (10e6 1/(Ohm*m))-TOTAL	Young's modulus (GPa)-TOTAL	Bulk modulus (GPa)-TOTAL	Shear modulus(GPa)-TOTAL	Poisson's ratio-TOTAL	Liquid viscosity (mPa s)-  	Total viscosity (mPa s)-  	Liquid diffusivity (10e-9 (m^2)/s)-  	Total diffusivity (10e-9 (m^2)/s)-  	Surface Tension (mN/m)-  	Enthalpy (J/mole)-TOTAL	Specific heat (J/(mole K))-TOTAL	Latent heat (J/mole)-TOTAL
1500.0	0.0	1.0	6.97753	7.85767	0.0	26.69762	31.3895	1.84068	0.54328	0.0	106.55595	0.0	0.49974	6.79913	6.79913	1.27286	1.27286	1764.98454	65360.634	 	0.0
1495.0	0.0	1.0	6.98142	7.85329	-0.0557108	26.64717	31.3141	1.83991	0.5435	0.0	106.74255	0.0	0.49974	6.85874	6.85874	1.25823	1.25823	1766.75704	65138.447	44.4374	0.0
1490.0	0.0	1.0	6.9853	7.84893	-0.11127	26.59678	31.2387	1.83914	0.54373	0.0	106.92916	0.0	0.49974	6.91922	6.91922	1.24371	1.24371	1768.52638	64916.769	44.3356	0.0
1485.0	0.0	1.0	6.98918	7.84458	-0.16666	26.54644	31.1633	1.83836	0.54396	0.0	107.11577	0.0	0.49974	6.98058	6.98058	1.22928	1.22928	1770.29251	64695.597	44.2344	0.0
1480.0	0.0	1.0	6.99305	7.84023	-0.22191	26.49616	31.0879	1.83758	0.5442	0.0	107.30238	0.0	0.49974	7.04284	7.04284	1.21495	1.21495	1772.05541	64474.927	44.134	0.0
1475.0	0.0	1.0	6.99691	7.83591	-0.27699	26.44593	31.0125	1.83679	0.54443	0.0	107.48898	0.0	0.49974	7.10601	7.10601	1.20071	1.20071	1773.81504	64254.757	44.034	0.0
1470.0	0.0	1.0	7.00077	7.83159	-0.33192	26.39576	30.9371	1.836	0.54466	0.0	107.67559	0.0	0.49974	7.17012	7.17012	1.18657	1.18657	1775.57135	64035.083	43.9348	0.0
1465.0	0.0	1.0	7.00462	7.82729	-0.38669	26.34564	30.8617	1.83521	0.5449	0.0	107.8622	0.0	0.49974	7.23519	7.23519	1.17253	1.17253	1777.32431	63815.901	43.8364	0.0
1460.0	0.0	1.0	7.00846	7.82299	-0.44131	26.29558	30.78629	1.83441	0.54513	0.0	108.04881	0.0	0.49974	7.30122	7.30122	1.15858	1.15858	1779.07389	63597.209	43.7384	0.0
1455.0	0.0	1.0	7.0123	7.81871	-0.49577	26.24558	30.71089	1.83361	0.54537	0.0	108.23542	0.0	0.49974	7.36824	7.36824	1.14473	1.14473	1780.82003	63379.004	43.641	0.0
1450.0	0.0	1.0	7.01613	7.81445	-0.55008	26.19563	30.63549	1.8328	0.54561	0.0	108.42202	0.0	0.49974	7.43628	7.43628	1.13098	1.13098	1782.56271	63161.309	43.539	0.0
1445.0	0.0	1.0	7.01995	7.81019	-0.60423	26.14575	30.56009	1.83199	0.54585	0.0	108.60863	0.0	0.49974	7.50534	7.50534	1.11732	1.11732	1784.30187	62944.167	43.4284	0.0
1440.0	0.0	1.0	7.02376	7.80595	-0.65822	26.09592	30.48469	1.83118	0.5461	0.0	108.79524	0.0	0.49974	7.57545	7.57545	1.10376	1.10376	1786.03749	62727.57	43.3194	0.0
1439.14	0.0	1.0	7.02442	7.80522	-0.66747	26.08736	30.47176	1.83104	0.54614	0.0	108.82725	0.0	0.49974	7.58758	7.58758	1.10144	1.10144	1786.33481	62690.469	43.2624	0.0060
1435.0	0.15338	0.84662	7.05152	7.77525	-1.04891	25.15572	31.0347	1.79348	0.55758	0.0319266	103.22024	0.0108057	0.47731	7.6208	11.31592	1.09399	0.73675	1785.15484	61164.978	368.261	1346.534
1430.0	0.29643	0.70357	7.07753	7.74664	-1.413	24.2794	31.57031	1.75789	0.56886	0.45498	98.07429	0.15622	0.45618	7.66172	40.58497	1.08496	0.20482	1783.86577	59698.514	293.293	2597.48
1428.53	0.33045	0.66955	7.08385	7.73983	-1.49965	24.07469	31.69849	1.74927	0.57167	0.70638	96.87241	0.24339	0.45113	7.67409	57.6886	1.08228	0.14397	1783.50826	59338.736	 	2894.075
1425.0	0.45846	0.54154	7.10534	7.71637	-1.79829	23.34037	32.03263	1.72743	0.57889	2.09449	94.24355	0.73078	0.43306	7.70073	232.33202	1.07629	0.0356742	1780.74482	57866.462	366.41	4214.548
1420.0	0.58694	0.41306	7.12769	7.69226	-2.10513	22.60423	32.36262	1.70478	0.58658	5.7915	91.8714	2.04687	0.41472	7.73895	704.25846	1.06782	0.0117341	1777.25725	56335.001	306.292	5531.555
1415.0	0.674	0.326	7.14377	7.67501	-2.32465	22.09692	32.57052	1.6889	0.5921	11.07797	90.45889	3.95037	0.40214	7.77733	1340.62003	1.05942	0.00614599	1774.15797	55236.938	219.613	6415.69
1410.0	0.73569	0.26431	7.15595	7.66205	-2.48951	21.73304	32.70322	1.67707	0.59628	17.10017	89.61406	6.13732	0.39313	7.8169	2053.59903	1.05093	0.00400031	1771.38552	54403.713	166.645	7035.512
1405.0	0.78097	0.21903	7.16566	7.65179	-2.62017	21.45891	32.78562	1.66788	0.59956	23.14069	89.12573	8.34542	0.38643	7.85695	2793.88145	1.04247	0.00293163	1768.89551	53741.061	132.53	7485.279
1400.0	0.8152	0.1848	7.17369	7.64334	-2.72771	21.24544	32.8335	1.66049	0.60223	28.79568	88.87229	10.42344	0.38129	7.8978	3539.35711	1.03399	0.00230726	1766.64761	53192.97	109.618	7821.001
1395.0	0.8417	0.1583	7.18052	7.63619	-2.81871	21.07541	32.85686	1.65435	0.60447	33.89774	88.78054	12.30622	0.37726	7.93975	4281.98096	1.02545	0.00190142	1764.60605	52724.638	93.6664	8077.476
1390.0	0.86265	0.13735	7.18651	7.62996	-2.89788	20.93643	32.86245	1.64911	0.60639	38.42588	88.80287	13.98302	0.37402	7.98278	5021.8136	1.01687	0.00161643	1762.74309	52313.556	82.2164	8277.21
1385.0	0.8795	0.1205	7.19186	7.62439	-2.96884	20.81893	32.85465	1.64454	0.60807	42.41847	88.90738	15.4658	0.37136	8.02649	5761.77627	1.00829	0.0014046	1761.04101	51944.652	73.7808	8435.273
1380.0	0.89337	0.10663	7.19678	7.6193	-3.03355	20.71775	32.83714	1.64046	0.60959	45.96571	89.07248	16.78638	0.36914	8.07122	6510.38644	0.99968	0.00123934	1759.47565	51606.545	67.6214	8563.041
1375.0	0.90499	0.0950129	7.20138	7.61457	-3.0938	20.62815	32.81214	1.63674	0.61097	49.13667	89.28312	17.96936	0.36724	8.11692	7273.87363	0.99104	0.0011059	1758.03292	51291.816	62.9458	8667.93
1370.0	0.91482	0.085176	7.20573	7.61012	-3.15038	20.54805	32.78129	1.63331	0.61225	51.98918	89.5296	19.03544	0.36559	8.16395	8058.1012	0.98234	9.95248E-4	1756.69559	50995.432	59.2768	8754.971
1365.14	0.92293	0.0770696	7.20972	7.60604	-3.20231	20.4782	32.74668	1.6302	0.61342	54.47325	89.79519	19.9653	0.3642	8.21049	8840.17941	0.97388	9.04514E-4	1755.48684	50722.365	 	8824.852
1365.0	0.92324	0.0767621	7.20987	7.60588	-3.20438	20.47452	32.74603	1.63009	0.61346	54.56742	89.80066	20.00057	0.36415	8.2121	8866.09566	0.97361	9.01795E-4	1755.49554	50713.794	56.3276	8827.76
1360.0	0.93372	0.0662756	7.21531	7.60035	-3.27478	20.35466	32.7196	1.62643	0.61484	57.85804	90.02469	21.23421	0.36238	8.27931	9837.35309	0.96276	8.10279E-4	1755.80182	50407.75	61.2088	8925.445
1355.0	0.94237	0.0576332	7.22031	7.5953	-3.33909	20.25095	32.68674	1.62308	0.61611	60.73329	90.28757	22.31399	0.36088	8.34747	10825.49023	0.95198	7.34063E-4	1756.14673	50122.076	57.1348	9003.246
1350.0	0.9496	0.0504023	7.22497	7.59062	-3.39864	20.15986	32.64892	1.61997	0.61729	63.27632	90.5803	23.27041	0.35959	8.41695	11840.31227	0.94122	6.69086E-4	1756.52278	49851.982	54.0188	9065.952
1345.0	0.95573	0.0442711	7.22937	7.58622	-3.4546	20.07823	32.60723	1.61705	0.61841	65.55211	90.89578	24.12742	0.35846	8.48748	12890.5511	0.93052	6.1268E-4	1756.92834	49594.047	51.587	9116.981
1340.0	0.96098	0.0390186	7.23356	7.58206	-3.50758	20.00441	32.56241	1.61427	0.61948	67.60725	91.22972	24.9022	0.35746	8.55944	13983.89227	0.91985	5.63032E-4	1757.3565	49345.806	49.6482	9158.792
1335.0	0.96553	0.0344674	7.23759	7.57807	-3.55833	19.93637	32.51507	1.61161	0.6205	69.48316	91.57814	25.61012	0.35656	8.63243	15128.39339	0.90924	5.18824E-4	1757.80851	49105.351	48.091	9193.295
1330.0	0.96951	0.0304905	7.24148	7.57423	-3.60718	19.87323	32.46568	1.60904	0.62149	71.20954	91.93828	26.26218	0.35574	8.70698	16331.27909	0.89866	4.79116E-4	1758.27855	48871.268	46.8166	9221.897
1325.0	0.97301	0.0269872	7.24527	7.57052	-3.65443	19.81422	32.41459	1.60655	0.62245	72.81044	92.30825	26.86733	0.355	8.7831	17600.00402	0.88809	4.43192E-4	1758.76111	48642.469	45.7598	9245.685
1320.0	0.97612	0.0238784	7.24896	7.5669	-3.70042	19.75836	32.36206	1.60413	0.62339	74.30558	92.6863	27.43292	0.35431	8.86032	18941.94011	0.87759	4.10505E-4	1759.25888	48418.103	44.8732	9265.507
1315.0	0.9789	0.0211026	7.25259	7.56337	-3.74541	19.70494	32.3083	1.60175	0.62432	75.7111	93.07101	27.96498	0.35368	8.93883	20364.79152	0.86716	3.80626E-4	1759.77312	48197.494	44.1218	9282.036
1310.0	0.98139	0.0186093	7.25614	7.55991	-3.78944	19.65391	32.25351	1.59942	0.62523	77.03855	93.46153	28.4678	0.35308	9.01894	21876.24099	0.85675	3.53213E-4	1760.29487	47980.1	43.4788	9295.811
1305.0	0.98364	0.0163584	7.25965	7.55651	-3.83273	19.60462	32.19781	1.59713	0.62612	78.29988	93.85682	28.94586	0.35252	9.10035	23484.92437	0.8464	3.27979E-4	1760.82798	47765.485	42.923	9307.265
1300.0	0.98569	0.0143149	7.26311	7.55316	-3.87533	19.55697	32.14135	1.59486	0.62701	79.50331	94.25628	29.40223	0.35199	9.18345	25199.44739	0.83609	3.04695E-4	1761.36687	47553.287	42.4396	9316.758
1295.0	0.98755	0.012453	7.26653	7.54986	-3.91737	19.51059	32.08421	1.59263	0.62789	80.65684	94.65932	29.83991	0.35149	9.26784	27029.34319	0.82584	2.83165E-4	1761.91341	47343.213	42.0148	9324.58
1290.0	0.98925	0.0107481	7.26991	7.54659	-3.9589	19.46535	32.02645	1.59041	0.62877	81.7662	95.06558	30.26104	0.35101	9.354	28984.68768	0.81562	2.6322E-4	1762.4653	47135.015	41.6396	9330.977
1285.0	0.99082	0.00918045	7.27327	7.54337	-3.99998	19.42108	31.9682	1.58821	0.62964	82.83723	95.47438	30.66782	0.35056	9.44198	31076.02967	0.80544	2.44721E-4	1763.01892	46928.487	41.3056	9336.152
1280.0	0.99227	0.00773368	7.2766	7.54017	-4.04071	19.37751	31.90949	1.58603	0.63051	83.87495	95.88553	31.06214	0.35012	9.53092	33315.20616	0.79536	2.2754E-4	1763.58098	46723.456	41.0062	9340.275
1275.0	0.99361	0.00639228	7.2799	7.53699	-4.08108	19.33465	31.85036	1.58386	0.63137	84.88274	96.29874	31.44526	0.34969	9.62216	35714.7718	0.78528	2.11569E-4	1764.14284	46519.774	40.7364	9343.492
1270.0	0.99485	0.00514697	7.28319	7.53384	-4.12116	19.29231	31.79088	1.5817	0.63223	85.86453	96.71362	31.81865	0.34928	9.71483	38288.28073	0.77528	1.96711E-4	1764.70737	46317.316	40.4916	9345.925
1265.0	0.99602	0.00398434	7.28646	7.53071	-4.16098	19.2504	31.73104	1.57955	0.63309	86.82352	97.13022	32.18353	0.34888	9.809	41050.95088	0.76535	1.82878E-4	1765.27523	46115.973	40.2686	9347.679
1260.0	0.9971	0.00289508	7.28972	7.52761	-4.20056	19.2089	31.67093	1.5774	0.63395	87.76173	97.54809	32.54065	0.34849	9.90518	44018.02808	0.75546	1.69997E-4	1765.84145	45915.655	40.0636	9348.846
1255.0	0.99813	0.00187302	7.29296	7.52451	-4.23993	19.16768	31.61057	1.57526	0.63482	88.6822	97.96719	32.89117	0.34812	10.00286	47207.21622	0.74564	1.57995E-4	1766.40832	45716.28	39.875	9349.501
1250.0	0.99909	9.10301E-4	7.29619	7.52143	-4.27912	19.12667	31.55	1.57312	0.63568	89.58698	98.38734	33.23585	0.34775	10.10311	50637.94324	0.73582	1.46809E-4	1766.97131	45517.779	39.7002	9349.712
1245.0	1.0	0.0	7.29941	7.51836	-4.31816	19.08579	31.48936	1.57097	0.63655	90.47809	98.80835	33.57545	0.34738	 	54330.38275	 	1.36382E-4	 	45320.091	39.5376	9349.538
1240.0	1.0	0.0	7.30179	7.51591	-4.34936	19.06863	31.42557	1.56898	0.63736	90.98958	99.23294	33.77043	0.34718	 	58076.9833	 	1.27164E-4	 	45099.681	44.082	 
1235.0	1.0	0.0	7.30417	7.51346	-4.38051	19.05147	31.36179	1.56697	0.63817	91.50213	99.65753	33.96585	0.34697	 	62110.73424	 	1.18513E-4	 	44907.977	38.3408	 
1230.0	1.0	0.0	7.30655	7.51102	-4.41161	19.03433	31.298	1.56496	0.63899	92.01571	100.0821	34.16172	0.34677	 	66455.76466	 	1.10397E-4	 	44716.53	38.2894	 
1225.0	1.0	0.0	7.30892	7.50858	-4.44267	19.01718	31.23421	1.56294	0.63982	92.5303	100.50663	34.35802	0.34656	 	71138.40429	 	1.02787E-4	 	44525.348	38.2364	 
1220.0	1.0	0.0	7.31129	7.50614	-4.47367	19.00005	31.17042	1.56091	0.64065	93.04587	100.93108	34.55475	0.34635	 	76187.39972	 	9.56548E-5	 	44334.433	38.183	 
1215.0	1.0	0.0	7.31366	7.50371	-4.50463	18.98292	31.10663	1.55888	0.64149	93.56241	101.35545	34.7519	0.34615	 	81634.15329	 	8.89737E-5	 	44143.785	38.1296	 
1210.0	1.0	0.0	7.31603	7.50128	-4.53554	18.96579	31.04284	1.55683	0.64233	94.07989	101.7797	34.94946	0.34594	 	87512.9872	 	8.27179E-5	 	43953.404	38.0762	 
1205.0	1.0	0.0	7.3184	7.49886	-4.5664	18.94868	30.97904	1.55478	0.64318	94.59828	102.20381	35.14742	0.34574	 	93861.43581	 	7.68631E-5	 	43763.286	38.0236	 
1200.0	1.0	0.0	7.32076	7.49644	-4.59722	18.93157	30.91524	1.55272	0.64403	95.11758	102.62776	35.34577	0.34553	 	100720.5692	 	7.13864E-5	 	43573.433	37.9706	 
1195.0	1.0	0.0	7.32312	7.49402	-4.62798	18.91446	30.85144	1.55065	0.64489	95.63776	103.05153	35.54451	0.34532	 	108135.3515	 	6.62658E-5	 	43383.84	37.9186	 
1190.0	1.0	0.0	7.32548	7.49161	-4.6587	18.89736	30.78764	1.54857	0.64576	96.15879	103.47509	35.74363	0.34512	 	116155.0384	 	6.14805E-5	 	43194.509	37.8662	 
1185.0	1.0	0.0	7.32784	7.4892	-4.68937	18.88027	30.72384	1.54648	0.64663	96.68065	103.89842	35.94313	0.34491	 	124833.6176	 	5.70108E-5	 	43005.437	37.8144	 
1180.0	1.0	0.0	7.3302	7.48679	-4.72	18.86318	30.66004	1.54438	0.64751	97.20333	104.3215	36.14298	0.34471	 	134230.2979	 	5.2838E-5	 	42816.623	37.7628	 
1175.0	1.0	0.0	7.33255	7.48439	-4.75057	18.8461	30.59623	1.54228	0.64839	97.7268	104.7443	36.34319	0.3445	 	144410.0521	 	4.89444E-5	 	42628.065	37.7116	 
1170.0	1.0	0.0	7.3349	7.48199	-4.7811	18.82902	30.53242	1.54017	0.64928	98.25103	105.16682	36.54375	0.34429	 	155444.221	 	4.53131E-5	 	42439.762	37.6606	 
1165.0	1.0	0.0	7.33725	7.47959	-4.81158	18.81195	30.46861	1.53805	0.65018	98.77602	105.58901	36.74465	0.34409	 	167411.1834	 	4.19282E-5	 	42251.713	37.6098	 
1160.0	1.0	0.0	7.3396	7.4772	-4.84201	18.79489	30.4048	1.53592	0.65108	99.30173	106.01087	36.94588	0.34388	 	180397.1037	 	3.87747E-5	 	42063.916	37.5594	 
1155.0	1.0	0.0	7.34194	7.47481	-4.8724	18.77784	30.34098	1.53378	0.65199	99.82816	106.43237	37.14743	0.34368	 	194496.7622	 	3.58384E-5	 	41876.37	37.5092	 
1150.0	1.0	0.0	7.34428	7.47243	-4.90274	18.76078	30.27717	1.53163	0.6529	100.35526	106.8535	37.3493	0.34347	 	209814.4819	 	3.31056E-5	 	41689.073	37.4594	 
1145.0	1.0	0.0	7.34662	7.47005	-4.93303	18.74374	30.21335	1.52947	0.65382	100.88304	107.27422	37.55148	0.34326	 	226465.1598	 	3.05638E-5	 	41502.024	37.4098	 
1140.0	1.0	0.0	7.34896	7.46767	-4.96327	18.7267	30.14953	1.5273	0.65475	101.41145	107.69452	37.75397	0.34306	 	244575.4195	 	2.82008E-5	 	41315.22	37.3608	 
1135.0	1.0	0.0	7.3513	7.4653	-4.99346	18.70967	30.08571	1.52513	0.65568	101.94049	108.11439	37.95674	0.34285	 	264284.8962	 	2.60054E-5	 	41128.662	37.3116	 
1130.0	1.0	0.0	7.35363	7.46293	-5.02361	18.69264	30.02188	1.52294	0.65662	102.47014	108.53379	38.15981	0.34264	 	285747.6731	 	2.39667E-5	 	40942.346	37.2632	 
1125.0	1.0	0.0	7.35596	7.46057	-5.05371	18.67562	29.95806	1.52075	0.65757	103.00037	108.95272	38.36315	0.34244	 	309133.8863	 	2.20747E-5	 	40756.271	37.215	 
1120.0	1.0	0.0	7.35829	7.45821	-5.08376	18.65861	29.89423	1.51855	0.65852	103.53116	109.37115	38.56677	0.34223	 	334631.5213	 	2.03197E-5	 	40570.436	37.167	 
1115.0	1.0	0.0	7.36062	7.45585	-5.11377	18.6416	29.8304	1.51633	0.65949	104.06249	109.78905	38.77065	0.34203	 	362448.4228	 	1.86929E-5	 	40384.839	37.1194	 
1110.0	1.0	0.0	7.36294	7.45349	-5.14372	18.6246	29.76657	1.51411	0.66045	104.59435	110.20642	38.97479	0.34182	 	392814.5472	 	1.71857E-5	 	40199.478	37.0722	 
1105.0	1.0	0.0	7.36526	7.45114	-5.17363	18.6076	29.70273	1.51188	0.66143	105.12671	110.62324	39.17918	0.34161	 	425984.4865	 	1.57903E-5	 	40014.351	37.0254	 
1100.0	1.0	0.0	7.36758	7.4488	-5.2035	18.59061	29.6389	1.50964	0.66241	105.65956	111.03948	39.38381	0.34141	 	462240.3014	 	1.4499E-5	 	39829.456	36.979	 
1095.0	1.0	0.0	7.3699	7.44645	-5.23331	18.57363	29.57506	1.50739	0.6634	106.19286	111.45512	39.58868	0.3412	 	501894.7004	 	1.33048E-5	 	39644.793	36.9326	 
1090.0	1.0	0.0	7.37222	7.44412	-5.26308	18.55665	29.51122	1.50513	0.66439	106.72661	111.87016	39.79377	0.341	 	545294.6123	 	1.22011E-5	 	39460.358	36.887	 
1085.0	1.0	0.0	7.37453	7.44178	-5.2928	18.53968	29.44737	1.50286	0.6654	107.26078	112.28456	39.99909	0.34079	 	592825.2033	 	1.11817E-5	 	39276.15	36.8416	 
1080.0	1.0	0.0	7.37684	7.43945	-5.32247	18.52272	29.38353	1.50058	0.66641	107.79536	112.69832	40.20462	0.34058	 	644914.396	 	1.02407E-5	 	39092.166	36.7968	 
1075.0	1.0	0.0	7.37915	7.43712	-5.3521	18.50576	29.31968	1.49829	0.66743	108.33032	113.1114	40.41036	0.34038	 	702037.9591	 	9.37269E-6	 	38908.406	36.752	 
1070.0	1.0	0.0	7.38146	7.4348	-5.38168	18.4888	29.25583	1.49599	0.66845	108.86565	113.52381	40.61629	0.34017	 	764725.2427	 	8.57247E-6	 	38724.867	36.7078	 
1065.0	1.0	0.0	7.38376	7.43248	-5.41121	18.47186	29.19198	1.49368	0.66949	109.40132	113.93551	40.82242	0.33997	 	833565.647	 	7.83523E-6	 	38541.546	36.6642	 
1060.0	1.0	0.0	7.38606	7.43016	-5.4407	18.45492	29.12813	1.49137	0.67053	109.93731	114.3465	41.02874	0.33976	 	909215.9229	 	7.15647E-6	 	38358.442	36.6208	 
1055.0	1.0	0.0	7.38836	7.42785	-5.47013	18.43798	29.06427	1.48904	0.67158	110.47362	114.75674	41.23523	0.33955	 	992408.42	 	6.53196E-6	 	38175.552	36.578	 
1050.0	1.0	0.0	7.39066	7.42554	-5.49952	18.42105	29.00042	1.4867	0.67263	111.01021	115.16624	41.44189	0.33935	 	1083960.41	 	5.95775E-6	 	37992.874	36.5356	 
1045.0	1.0	0.0	7.39296	7.42323	-5.52887	18.40413	28.93656	1.48435	0.6737	111.54707	115.57496	41.64872	0.33914	 	1184784.635	 	5.43015E-6	 	37810.406	36.4936	 
1040.0	1.0	0.0	7.39525	7.42093	-5.55816	18.38721	28.87269	1.48199	0.67477	112.08418	115.9829	41.8557	0.33894	 	1295901.258	 	4.94572E-6	 	37628.146	36.452	 
1035.0	1.0	0.0	7.39754	7.41863	-5.58741	18.3703	28.80883	1.47962	0.67585	112.62152	116.39003	42.06283	0.33873	 	1418451.393	 	4.50122E-6	 	37446.091	36.411	 
1030.0	1.0	0.0	7.39983	7.41634	-5.61662	18.3534	28.74496	1.47724	0.67694	113.15908	116.79635	42.27011	0.33852	 	1553712.473	 	4.09365E-6	 	37264.239	36.3704	 
1025.0	1.0	0.0	7.40212	7.41404	-5.64577	18.3365	28.68109	1.47485	0.67804	113.69682	117.20182	42.47752	0.33832	 	1703115.671	 	3.72021E-6	 	37082.587	36.3304	 
1020.0	1.0	0.0	7.4044	7.41176	-5.67488	18.31961	28.61722	1.47245	0.67914	114.23474	117.60645	42.68506	0.33811	 	1868265.717	 	3.37829E-6	 	36901.132	36.291	 
1015.0	1.0	0.0	7.40668	7.40947	-5.70394	18.30272	28.55335	1.47003	0.68026	114.77281	118.01021	42.89272	0.33791	 	2050963.422	 	3.06546E-6	 	36719.873	36.2518	 
1010.0	1.0	0.0	7.40896	7.40719	-5.73295	18.28584	28.48947	1.46761	0.68138	115.31103	118.41308	43.1005	0.3377	 	2253231.313	 	2.77945E-6	 	36538.806	36.2134	 
1005.0	1.0	0.0	7.41124	7.40492	-5.76192	18.26897	28.42559	1.46518	0.68251	115.84936	118.81505	43.30838	0.33749	 	2477342.847	 	2.51815E-6	 	36357.928	36.1756	 
1000.0	1.0	0.0	7.41352	7.40265	-5.79084	18.2521	28.36171	1.46273	0.68365	116.38779	119.21611	43.51637	0.33729	 	2725855.713	 	2.27963E-6	 	36177.237	36.1382	 
995.0	1.0	0.0	7.41579	7.40038	-5.81972	18.23524	28.29783	1.46028	0.6848	116.9263	119.61624	43.72445	0.33708	 	3001649.841	 	2.06204E-6	 	35996.73	36.1014	 
990.0	1.0	0.0	7.41806	7.39811	-5.84854	18.21839	28.23394	1.45781	0.68596	117.46487	120.01542	43.93262	0.33688	 	3307970.824	 	1.86372E-6	 	35816.404	36.0652	 
985.0	1.0	0.0	7.42033	7.39585	-5.87732	18.20154	28.17006	1.45533	0.68713	118.00349	120.41364	44.14087	0.33667	 	3648479.564	 	1.68309E-6	 	35636.256	36.0296	 
980.0	1.0	0.0	7.42259	7.39359	-5.90606	18.18469	28.10617	1.45284	0.6883	118.54213	120.81088	44.34919	0.33646	 	4027309.087	 	1.51871E-6	 	35456.282	35.9948	 
975.0	1.0	0.0	7.42486	7.39134	-5.93474	18.16786	28.04227	1.45034	0.68949	119.08079	121.20714	44.55758	0.33626	 	4449129.635	 	1.36924E-6	 	35276.479	35.9606	 
970.0	1.0	0.0	7.42712	7.38909	-5.96338	18.15102	27.97838	1.44783	0.69069	119.61943	121.60238	44.76604	0.33605	 	4919223.292	 	1.23343E-6	 	35096.845	35.9268	 
965.0	1.0	0.0	7.42938	7.38684	-5.99198	18.1342	27.91448	1.44531	0.69189	120.15804	121.99661	44.97454	0.33585	 	5443569.654	 	1.11014E-6	 	34917.375	35.894	 
960.0	1.0	0.0	7.43163	7.3846	-6.02052	18.11738	27.85058	1.44278	0.69311	120.69661	122.3898	45.18309	0.33564	 	6028944.235	 	9.98301E-7	 	34738.066	35.8618	 
955.0	1.0	0.0	7.43389	7.38236	-6.04902	18.10057	27.78668	1.44023	0.69433	121.23511	122.78195	45.39169	0.33543	 	6683031.655	 	8.96942E-7	 	34558.915	35.8302	 
950.0	1.0	0.0	7.43614	7.38012	-6.07748	18.08376	27.72277	1.43768	0.69557	121.77354	123.17303	45.60031	0.33523	 	7414555.927	 	8.05158E-7	 	34379.917	35.7996	 
945.0	1.0	0.0	7.43839	7.37789	-6.10588	18.06696	27.65887	1.43511	0.69681	122.31186	123.56303	45.80896	0.33502	 	8233430.606	 	7.22115E-7	 	34201.069	35.7696	 
940.0	1.0	0.0	7.44064	7.37566	-6.13424	18.05017	27.59496	1.43253	0.69807	122.85006	123.95194	46.01764	0.33481	 	9150931.985	 	6.47047E-7	 	34022.368	35.7402	 
935.0	1.0	0.0	7.44288	7.37344	-6.16256	18.03338	27.53104	1.42993	0.69933	123.38813	124.33975	46.22632	0.33461	 	1.01798991E7	 	5.79247E-7	 	33843.808	35.712	 
930.0	1.0	0.0	7.44513	7.37122	-6.19082	18.01659	27.46713	1.42733	0.70061	123.92604	124.72644	46.43502	0.3344	 	1.133496492E7	 	5.18067E-7	 	33665.386	35.6844	 
925.0	1.0	0.0	7.44737	7.369	-6.21904	17.99982	27.40321	1.42471	0.7019	124.46379	125.11199	46.64371	0.3342	 	1.263282388E7	 	4.62911E-7	 	33487.097	35.6578	 
920.0	1.0	0.0	7.4496	7.36679	-6.24722	17.98305	27.33929	1.42208	0.70319	125.00134	125.4964	46.8524	0.33399	 	1.409254182E7	 	4.13231E-7	 	33308.937	35.632	 
915.0	1.0	0.0	7.45184	7.36457	-6.27535	17.96628	27.27537	1.41944	0.7045	125.53869	125.87966	47.06107	0.33378	 	1.573591541E7	 	3.68524E-7	 	33130.901	35.6072	 
910.0	1.0	0.0	7.45407	7.36237	-6.30343	17.94953	27.21145	1.41679	0.70582	126.07581	126.26173	47.26973	0.33358	 	1.758788941E7	 	3.28332E-7	 	32952.984	35.5834	 
905.0	1.0	0.0	7.4563	7.36017	-6.33146	17.93277	27.14752	1.41413	0.70715	126.61269	126.64262	47.47836	0.33337	 	1.967704169E7	 	2.92232E-7	 	32775.182	35.5604	 
900.0	1.0	0.0	7.45853	7.35797	-6.35945	17.91603	27.08359	1.41145	0.70849	127.14931	127.02231	47.68695	0.33317	 	2.203614761E7	 	2.59839E-7	 	32597.489	35.5386	 
895.0	1.0	0.0	7.46076	7.35577	-6.38739	17.89929	27.01966	1.40876	0.70985	127.68566	127.40079	47.89551	0.33296	 	2.47028374E7	 	2.30801E-7	 	32419.9	35.5178	 
890.0	1.0	0.0	7.46298	7.35358	-6.41529	17.88256	26.95573	1.40606	0.71121	128.2217	127.77804	48.10402	0.33275	 	2.77203629E7	 	2.04797E-7	 	32242.41	35.498	 
885.0	1.0	0.0	7.4652	7.35139	-6.44314	17.86583	26.8918	1.40334	0.71259	128.75744	128.15405	48.31247	0.33255	 	3.113849289E7	 	1.81532E-7	 	32065.012	35.4796	 
880.0	1.0	0.0	7.46742	7.34921	-6.47094	17.84911	26.82786	1.40061	0.71397	129.29284	128.52881	48.52087	0.33234	 	3.501455965E7	 	1.6074E-7	 	31887.701	35.4622	 
875.0	1.0	0.0	7.46964	7.34702	-6.4987	17.83239	26.76392	1.39787	0.71537	129.8279	128.90231	48.7292	0.33214	 	3.941468394E7	 	1.42176E-7	 	31710.47	35.4462	 
870.0	1.0	0.0	7.47186	7.34485	-6.52641	17.81568	26.69998	1.39511	0.71679	130.36259	129.27452	48.93746	0.33193	 	4.441521052E7	 	1.2562E-7	 	31533.314	35.4312	 
865.0	1.0	0.0	7.47407	7.34267	-6.55407	17.79898	26.63604	1.39235	0.71821	130.89689	129.64545	49.14563	0.33172	 	5.010439237E7	 	1.10869E-7	 	31356.225	35.4178	 
860.0	1.0	0.0	7.47628	7.3405	-6.58169	17.78228	26.5721	1.38957	0.71965	131.4308	130.01507	49.35373	0.33152	 	5.658436931E7	 	9.77412E-8	 	31179.197	35.4056	 
855.0	1.0	0.0	7.47848	7.33834	-6.60926	17.76559	26.50815	1.38677	0.7211	131.96428	130.38338	49.56172	0.33131	 	6.397349529E7	 	8.60703E-8	 	31002.223	35.3948	 
850.0	1.0	0.0	7.48069	7.33617	-6.63679	17.74891	26.44421	1.38396	0.72256	132.49734	130.75036	49.76962	0.33111	 	7.240907928E7	 	7.57062E-8	 	30825.294	35.3858	 
845.0	1.0	0.0	7.48289	7.33401	-6.66427	17.73223	26.38026	1.38114	0.72404	133.02994	131.116	49.97742	0.3309	 	8.205061764E7	 	6.65128E-8	 	30648.403	35.3782	 
840.0	1.0	0.0	7.48509	7.33186	-6.6917	17.71556	26.31631	1.37831	0.72553	133.56207	131.48029	50.1851	0.33069	 	9.308361071E7	 	5.8367E-8	 	30471.543	35.372	 
835.0	1.0	0.0	7.48729	7.32971	-6.71909	17.69889	26.25236	1.37546	0.72703	134.09371	131.84322	50.39266	0.33049	 	1.057240757E8	 	5.11577E-8	 	30294.703	35.368	 
830.0	1.0	0.0	7.48948	7.32756	-6.74643	17.68223	26.18841	1.3726	0.72855	134.62485	132.20477	50.6001	0.33028	 	1.202238893E8	 	4.47848E-8	 	30117.876	35.3654	 
825.0	1.0	0.0	7.49168	7.32541	-6.77373	17.66557	26.12446	1.36972	0.73008	135.15547	132.56493	50.80741	0.33008	 	1.368771227E8	 	3.91577E-8	 	29941.051	35.365	 
820.0	1.0	0.0	7.49387	7.32327	-6.80098	17.64893	26.06051	1.36683	0.73162	135.68555	132.9237	51.01458	0.32987	 	1.560275609E8	 	3.41952E-8	 	29764.22	35.3662	 
815.0	1.0	0.0	7.49606	7.32113	-6.82818	17.63228	25.99656	1.36393	0.73318	136.21508	133.28106	51.2216	0.32966	 	1.780776439E8	 	2.9824E-8	 	29587.372	35.3696	 
810.0	1.0	0.0	7.49824	7.319	-6.85534	17.61565	25.93261	1.36101	0.73475	136.74404	133.63699	51.42848	0.32946	 	2.034991101E8	 	2.59784E-8	 	29410.495	35.3754	 
805.0	1.0	0.0	7.50042	7.31687	-6.88245	17.59902	25.86865	1.35807	0.73634	137.2724	133.99149	51.63519	0.32925	 	2.328456871E8	 	2.25994E-8	 	29233.579	35.3832	 
800.0	1.0	0.0	7.50261	7.31474	-6.90952	17.58239	25.8047	1.35512	0.73794	137.80017	134.34455	51.84175	0.32905	 	2.667682425E8	 	1.96342E-8	 	29056.612	35.3934	 
795.0	1.0	0.0	7.50478	7.31262	-6.93654	17.56578	25.74075	1.35216	0.73956	138.32731	134.69616	52.04813	0.32884	 	3.06032902E8	 	1.70353E-8	 	28879.58	35.4064	 
790.0	1.0	0.0	7.50696	7.3105	-6.96351	17.54916	25.6768	1.34918	0.74119	138.85381	135.0463	52.25434	0.32863	 	3.515427447E8	 	1.47606E-8	 	28702.471	35.4218	 
785.0	1.0	0.0	7.50913	7.30839	-6.99044	17.53256	25.61285	1.34619	0.74284	139.37966	135.39496	52.46036	0.32843	 	4.043638229E8	 	1.27721E-8	 	28525.27	35.4402	 
780.0	1.0	0.0	7.5113	7.30627	-7.01732	17.51596	25.5489	1.34318	0.7445	139.90483	135.74213	52.6662	0.32822	 	4.65756416E8	 	1.10362E-8	 	28347.962	35.4616	 
775.0	1.0	0.0	7.51347	7.30416	-7.04416	17.49937	25.48496	1.34016	0.74618	140.42932	136.08781	52.87184	0.32802	 	5.372126289E8	 	9.52278E-9	 	28170.531	35.4862	 
770.0	1.0	0.0	7.51564	7.30206	-7.07095	17.48278	25.42101	1.33712	0.74787	140.9531	136.43198	53.07727	0.32781	 	6.20501695E8	 	8.20522E-9	 	27992.962	35.5138	 
765.0	1.0	0.0	7.5178	7.29996	-7.0977	17.4662	25.35706	1.33407	0.74959	141.47616	136.77463	53.28251	0.3276	 	7.177246478E8	 	7.05974E-9	 	27815.235	35.5454	 
760.0	1.0	0.0	7.51996	7.29786	-7.1244	17.44962	25.29312	1.331	0.75131	141.99849	137.11575	53.48752	0.3274	 	8.313804067E8	 	6.06527E-9	 	27637.331	35.5808	 
755.0	1.0	0.0	7.52212	7.29576	-7.15105	17.43305	25.22917	1.32792	0.75306	142.52006	137.45533	53.69232	0.32719	 	9.6444579E8	 	5.20314E-9	 	27459.231	35.62	 
750.0	1.0	0.0	7.52428	7.29367	-7.17766	17.41649	25.16523	1.32482	0.75482	143.04086	137.79336	53.89689	0.32699	 	1.12047255E9	 	4.45682E-9	 	27280.912	35.6638	 
745.0	1.0	0.0	7.52643	7.29159	-7.20422	17.39993	25.10129	1.3217	0.7566	143.56087	138.12983	54.10122	0.32678	 	1.303705253E9	 	3.8117E-9	 	27102.351	35.7122	 
740.0	1.0	0.0	7.52858	7.2895	-7.23074	17.38338	25.03735	1.31857	0.7584	144.08008	138.46473	54.30532	0.32657	 	1.519224716E9	 	3.25491E-9	 	26923.524	35.7654	 
735.0	1.0	0.0	7.53073	7.28742	-7.25721	17.36684	24.97341	1.31542	0.76021	144.59847	138.79805	54.50917	0.32637	 	1.773122863E9	 	2.77506E-9	 	26744.403	35.8242	 
730.0	1.0	0.0	7.53288	7.28535	-7.28364	17.3503	24.90948	1.31226	0.76205	145.11603	139.12978	54.71277	0.32616	 	2.07271623E9	 	2.36218E-9	 	26564.959	35.8888	 
725.0	1.0	0.0	7.53502	7.28327	-7.31002	17.33377	24.84554	1.30908	0.7639	145.63274	139.45991	54.91612	0.32596	 	2.426807147E9	 	2.00746E-9	 	26385.163	35.9592	 
720.0	1.0	0.0	7.53716	7.2812	-7.33636	17.31724	24.7816	1.30588	0.76577	146.14857	139.78843	55.11919	0.32575	 	2.84600381E9	 	1.7032E-9	 	26204.979	36.0368	 
715.0	1.0	0.0	7.5393	7.27914	-7.36265	17.30072	24.71767	1.30267	0.76766	146.66353	140.11533	55.322	0.32554	 	3.343113238E9	 	1.44264E-9	 	26024.371	36.1216	 
710.0	1.0	0.0	7.54144	7.27708	-7.38889	17.28421	24.65373	1.29944	0.76956	147.17758	140.4406	55.52454	0.32534	 	3.933624609E9	 	1.21987E-9	 	25843.301	36.214	 
705.0	1.0	0.0	7.54357	7.27502	-7.41509	17.2677	24.5898	1.29619	0.77149	147.69073	140.76424	55.72679	0.32513	 	4.636304885E9	 	1.02972E-9	 	25661.725	36.3152	 
700.0	1.0	0.0	7.54571	7.27296	-7.44124	17.2512	24.52586	1.29292	0.77344	148.20293	141.08623	55.92875	0.32493	 	5.473934203E9	 	8.67695E-10	 	25479.597	36.4256	 
695.0	1.0	0.0	7.54783	7.27091	-7.46735	17.2347	24.46192	1.28964	0.77541	148.7142	141.40656	56.13041	0.32472	 	6.474215595E9	 	7.29864E-10	 	25296.866	36.5462	 
690.0	1.0	0.0	7.54996	7.26886	-7.49341	17.21821	24.39798	1.28635	0.7774	149.2245	141.72523	56.33178	0.32451	 	7.670902583E9	 	6.12822E-10	 	25113.477	36.6778	 
685.0	1.0	0.0	7.55209	7.26682	-7.51943	17.20173	24.33404	1.28303	0.7794	149.73382	142.04222	56.53284	0.32431	 	9.105199593E9	 	5.13607E-10	 	24929.367	36.822	 
680.0	1.0	0.0	7.55421	7.26478	-7.5454	17.18525	24.2701	1.2797	0.78143	150.24215	142.35752	56.73359	0.3241	 	1.08275E10	 	4.29655E-10	 	24744.472	36.979	 
675.0	1.0	0.0	7.55633	7.26274	-7.57133	17.16878	24.20615	1.27635	0.78349	150.74946	142.67114	56.93401	0.3239	 	1.2899599999999998E10	 	3.58747E-10	 	24558.716	37.1512	 
670.0	1.0	0.0	7.55844	7.26071	-7.59721	17.15231	24.1422	1.27298	0.78556	151.25576	142.98305	57.13412	0.32369	 	1.5397299999999998E10	 	2.98967E-10	 	24372.019	37.3394	 
665.0	1.0	0.0	7.56056	7.25868	-7.62305	17.13585	24.07825	1.26959	0.78765	151.76101	143.29325	57.33389	0.32348	 	1.84139E10	 	2.48664E-10	 	24184.291	37.5456	 
660.0	1.0	0.0	7.56267	7.25665	-7.64884	17.1194	24.01429	1.26619	0.78977	152.2652	143.60174	57.53332	0.32328	 	2.20646E10	 	2.06415E-10	 	23995.433	37.7716	 
655.0	1.0	0.0	7.56478	7.25463	-7.67458	17.10295	23.95033	1.26277	0.79191	152.76832	143.9085	57.73241	0.32307	 	2.6491599999999996E10	 	1.71001E-10	 	23805.334	38.0198	 
650.0	1.0	0.0	7.56688	7.25261	-7.70029	17.08651	23.88636	1.25933	0.79407	153.27036	144.21352	57.93116	0.32287	 	3.1870799999999996E10	 	1.41373E-10	 	23613.873	38.2922	 
645.0	1.0	0.0	7.56899	7.25059	-7.72594	17.07008	23.82238	1.25587	0.79626	153.77129	144.51679	58.12954	0.32266	 	3.84209E10	 	1.16636E-10	 	23420.911	38.5924	 
640.0	1.0	0.0	7.57109	7.24858	-7.75155	17.05365	23.75839	1.2524	0.79847	154.2711	144.81832	58.32757	0.32245	 	4.64137E10	 	9.60247E-11	 	23226.296	38.923	 
635.0	1.0	0.0	7.57319	7.24657	-7.77712	17.03723	23.6944	1.24891	0.8007	154.76979	145.11808	58.52523	0.32225	 	5.618779999999999E10	 	7.88864E-11	 	23018.958	41.4676	 
630.0	1.0	0.0	7.57528	7.24457	-7.80264	17.02081	23.63039	1.24539	0.80296	155.26732	145.41607	58.72251	0.32204	 	6.816659999999999E10	 	6.46658E-11	 	22808.211	42.1494	 
625.0	1.0	0.0	7.57738	7.24256	-7.82811	17.0044	23.56638	1.24186	0.80524	155.76368	145.71229	58.91942	0.32184	 	8.28801E10	 	5.28915E-11	 	22599.417	41.7588	 
620.0	1.0	0.0	7.57947	7.24057	-7.85354	16.988	23.50236	1.23831	0.80755	156.25887	146.00672	59.11594	0.32163	 	1.00993E11	 	4.31637E-11	 	22392.505	41.3824	 
615.0	1.0	0.0	7.58156	7.23857	-7.87893	16.9716	23.43832	1.23475	0.80988	156.75286	146.29935	59.31208	0.32142	 	1.23344E11	 	3.51444E-11	 	22187.406	41.0198	 
610.0	1.0	0.0	7.58364	7.23658	-7.90427	16.9552	23.37427	1.23116	0.81224	157.24565	146.59019	59.50781	0.32122	 	1.50986E11	 	2.85486E-11	 	21984.057	40.6698	 
605.0	1.0	0.0	7.58573	7.23459	-7.92957	16.93882	23.31021	1.22755	0.81463	157.73721	146.87922	59.70314	0.32101	 	1.85256E11	 	2.31358E-11	 	21782.396	40.3322	 
600.0	1.0	0.0	7.58781	7.23261	-7.95482	16.92244	23.24614	1.22393	0.81704	158.22753	147.16643	59.89807	0.32081	 	2.27844E11	 	1.87042E-11	 	21582.367	40.0058	 
595.0	1.0	0.0	7.58989	7.23063	-7.98002	16.90606	23.18205	1.22028	0.81948	158.71659	147.45181	60.09258	0.3206	 	2.809E11	 	1.50844E-11	 	21383.914	39.6906	 
590.0	1.0	0.0	7.59196	7.22865	-8.00518	16.8897	23.11795	1.21662	0.82195	159.20439	147.73537	60.28667	0.32039	 	3.47164E11	 	1.2135E-11	 	21186.985	39.3858	 
585.0	1.0	0.0	7.59404	7.22668	-8.0303	16.87334	23.05384	1.21294	0.82445	159.6909	148.01708	60.48033	0.32019	 	4.30132E11	 	9.73752E-12	 	20991.532	39.0906	 
580.0	1.0	0.0	7.59611	7.22471	-8.05537	16.85698	22.9897	1.20923	0.82697	160.17611	148.29695	60.67357	0.31998	 	5.34285E11	 	7.79362E-12	 	20797.507	38.805	 
575.0	1.0	0.0	7.59817	7.22274	-8.0804	16.84063	22.92556	1.20551	0.82953	160.66001	148.57496	60.86636	0.31978	 	6.65378E11	 	6.22144E-12	 	20604.867	38.528	 
570.0	1.0	0.0	7.60024	7.22078	-8.10538	16.82429	22.8614	1.20177	0.83211	161.14258	148.85112	61.05871	0.31957	 	8.3082E11	 	4.95319E-12	 	20413.569	38.2596	 
565.0	1.0	0.0	7.6023	7.21882	-8.13032	16.80795	22.79722	1.198	0.83472	161.62381	149.1254	61.25062	0.31936	 	1.04018E12	 	3.93277E-12	 	20223.573	37.9992	 
560.0	1.0	0.0	7.60436	7.21686	-8.15521	16.79162	22.73303	1.19422	0.83737	162.10368	149.39781	61.44206	0.31916	 	1.30586E12	 	3.11396E-12	 	20034.841	37.7464	 
555.0	1.0	0.0	7.60642	7.21491	-8.18006	16.77529	22.66882	1.19041	0.84004	162.58217	149.66834	61.63305	0.31895	 	1.64395E12	 	2.4587E-12	 	19847.338	37.5006	 
550.0	1.0	0.0	7.60848	7.21296	-8.20486	16.75897	22.6046	1.18659	0.84275	163.05928	149.93697	61.82357	0.31875	 	2.07544E12	 	1.93578E-12	 	19661.029	37.2618	 
545.0	1.0	0.0	7.61053	7.21101	-8.22962	16.74266	22.54037	1.18274	0.84549	163.53499	150.20371	62.01362	0.31854	 	2.62773E12	 	1.51964E-12	 	19475.881	37.0296	 
540.0	1.0	0.0	7.61258	7.20907	-8.25433	16.72635	22.47611	1.17887	0.84827	164.00929	150.46855	62.20319	0.31833	 	3.33675E12	 	1.18942E-12	 	19291.863	36.8036	 
535.0	1.0	0.0	7.61463	7.20713	-8.279	16.71005	22.41185	1.17498	0.85108	164.48215	150.73148	62.39228	0.31813	 	4.24974E12	 	9.28146E-13	 	19108.947	36.5832	 
530.0	1.0	0.0	7.61667	7.2052	-8.30363	16.69376	22.34756	1.17107	0.85392	164.95357	150.99249	62.58088	0.31792	 	5.42902E12	 	7.22041E-13	 	18927.103	36.3688	 
525.0	1.0	0.0	7.61871	7.20327	-8.32821	16.67747	22.28327	1.16714	0.85679	165.42353	151.25158	62.76899	0.31772	 	6.95706E12	 	5.59945E-13	 	18746.304	36.1598	 
520.0	1.0	0.0	7.62075	7.20134	-8.35274	16.66119	22.21896	1.16319	0.85971	165.89202	151.50874	62.95659	0.31751	 	8.94335E12	 	4.32855E-13	 	18566.527	35.9554	 
515.0	1.0	0.0	7.62279	7.19942	-8.37723	16.64491	22.15464	1.15921	0.86266	166.35902	151.76397	63.14369	0.31731	 	1.15337E13	 	3.33523E-13	 	18387.745	35.7564	 
510.0	1.0	0.0	7.62482	7.19749	-8.40168	16.62864	22.0903	1.15521	0.86564	166.82452	152.01725	63.33028	0.3171	 	1.49232E13	 	2.56135E-13	 	18209.936	35.5618	 
505.0	1.0	0.0	7.62686	7.19558	-8.42608	16.61238	22.02595	1.15119	0.86867	167.28851	152.26859	63.51635	0.31689	 	1.93733E13	 	1.96041E-13	 	18033.077	35.3718	 
500.0	1.0	0.0	7.62889	7.19366	-8.45044	16.59612	21.9616	1.14714	0.87173	167.75097	152.51798	63.7019	0.31669	 	2.52362E13	 	1.4953E-13	 	17857.148	35.1858	 
495.0	1.0	0.0	7.63091	7.19175	-8.47475	16.57987	21.89723	1.14307	0.87483	168.21188	152.7654	63.88693	0.31648	 	3.29874E13	 	1.13654E-13	 	17682.128	35.004	 
490.0	1.0	0.0	7.63294	7.18985	-8.49902	16.56362	21.83285	1.13898	0.87798	168.67124	153.01086	64.07142	0.31628	 	4.32722E13	 	8.6077E-14	 	17507.998	34.826	 
485.0	1.0	0.0	7.63496	7.18794	-8.52325	16.54738	21.76846	1.13487	0.88116	169.12904	153.25435	64.25537	0.31607	 	5.69686E13	 	6.4954E-14	 	17334.74	34.6516	 
480.0	1.0	0.0	7.63698	7.18604	-8.54743	16.53115	21.70406	1.13073	0.88439	169.58524	153.49586	64.43877	0.31586	 	7.52764E13	 	4.88325E-14	 	17162.335	34.481	 
475.0	1.0	0.0	7.63899	7.18415	-8.57156	16.51492	21.63965	1.12656	0.88765	170.03986	153.73539	64.62163	0.31566	 	9.98413E13	 	3.65734E-14	 	16990.766	34.3138	 
470.0	1.0	0.0	7.64101	7.18225	-8.59565	16.4987	21.57524	1.12238	0.89097	170.49286	153.97293	64.80393	0.31545	 	1.3292999999999998E14	 	2.72861E-14	 	16820.018	34.1496	 
465.0	1.0	0.0	7.64302	7.18036	-8.6197	16.48248	21.51082	1.11816	0.89432	170.94424	154.20848	64.98568	0.31525	 	1.77676E14	 	2.02769E-14	 	16650.075	33.9886	 
460.0	1.0	0.0	7.64502	7.17848	-8.64371	16.46627	21.44639	1.11393	0.89773	171.39398	154.44203	65.16685	0.31504	 	2.38432E14	 	1.50077E-14	 	16480.922	33.8306	 
455.0	1.0	0.0	7.64703	7.17659	-8.66766	16.45007	21.38195	1.10966	0.90117	171.84208	154.67357	65.34746	0.31483	 	3.21266E14	 	1.10622E-14	 	16312.544	33.6756	 
450.0	1.0	0.0	7.64903	7.17472	-8.69158	16.43387	21.31751	1.10537	0.90467	172.28851	154.90311	65.52749	0.31463	 	4.34676E14	 	8.11987E-15	 	16144.928	33.5232	 
445.0	1.0	0.0	7.65103	7.17284	-8.71545	16.41768	21.25307	1.10106	0.90822	172.73326	155.13064	65.70694	0.31442	 	5.90615E14	 	5.93468E-15	 	15978.061	33.3734	 
440.0	1.0	0.0	7.65303	7.17097	-8.73928	16.4015	21.18862	1.09672	0.91181	173.17633	155.35614	65.88581	0.31422	 	8.05972E14	 	4.31865E-15	 	15811.93	33.2262	 
435.0	1.0	0.0	7.65503	7.1691	-8.76306	16.38532	21.12417	1.09235	0.91545	173.6177	155.57963	66.06408	0.31401	 	1.10472E15	 	3.12868E-15	 	15646.522	33.0816	 
430.0	1.0	0.0	7.65702	7.16723	-8.7868	16.36915	21.05971	1.08796	0.91915	174.05736	155.80108	66.24176	0.3138	 	1.52103E15	 	2.2563E-15	 	15481.827	32.939	 
425.0	1.0	0.0	7.65901	7.16537	-8.81049	16.35298	20.99525	1.08354	0.9229	174.49528	156.02051	66.41883	0.3136	 	2.1039E15	 	1.61961E-15	 	15317.832	32.799	 
420.0	1.0	0.0	7.66099	7.16351	-8.83414	16.33682	20.93078	1.07909	0.9267	174.93147	156.2379	66.5953	0.31339	 	2.92383E15	 	1.15707E-15	 	15154.527	32.661	 
415.0	1.0	0.0	7.66298	7.16166	-8.85775	16.32066	20.86632	1.07462	0.93056	175.36591	156.45325	66.77116	0.31319	 	4.08287E15	 	8.22629E-16	 	14991.901	32.5252	 
410.0	1.0	0.0	7.66496	7.15981	-8.88131	16.30452	20.80185	1.07012	0.93448	175.79859	156.66655	66.9464	0.31298	 	5.72941E15	 	5.81959E-16	 	14829.944	32.3914	 
405.0	1.0	0.0	7.66694	7.15796	-8.90483	16.28837	20.73738	1.06559	0.93845	176.2295	156.87781	67.12103	0.31277	 	8.0804E15	 	4.09619E-16	 	14668.647	32.2594	 
400.0	1.0	0.0	7.66892	7.15611	-8.92831	16.27224	20.6729	1.06103	0.94248	176.65861	157.08702	67.29502	0.31257	 	1.14546E16	 	2.86825E-16	 	14507.999	32.1296	 
395.0	1.0	0.0	7.67089	7.15427	-8.95174	16.25611	20.60842	1.05645	0.94657	177.08593	157.29417	67.46839	0.31236	 	1.63233E16	 	1.99781E-16	 	14347.992	32.0014	 
390.0	1.0	0.0	7.67286	7.15244	-8.97512	16.23998	20.54395	1.05183	0.95072	177.51144	157.49926	67.64112	0.31216	 	2.33862E16	 	1.38401E-16	 	14188.618	31.8748	 
385.0	1.0	0.0	7.67483	7.1506	-8.99847	16.22387	20.47946	1.04719	0.95494	177.93513	157.70229	67.81321	0.31195	 	3.3689300000000004E16	 	9.53498E-17	 	14029.867	31.7502	 
380.0	1.0	0.0	7.67679	7.14877	-9.02177	16.20775	20.41498	1.04251	0.95922	178.35699	157.90325	67.98466	0.31174	 	4.88044E16	 	6.53191E-17	 	13871.731	31.6272	 
375.0	1.0	0.0	7.67876	7.14694	-9.04502	16.19165	20.35049	1.03781	0.96357	178.77701	158.10215	68.15545	0.31154	 	7.1107800000000008E16	 	4.44882E-17	 	13714.203	31.5056	 
370.0	1.0	0.0	7.68072	7.14512	-9.06823	16.17555	20.28601	1.03308	0.96798	179.19517	158.29898	68.3256	0.31133	 	1.04213E17	 	3.01214E-17	 	13557.274	31.3858	 
365.0	1.0	0.0	7.68267	7.1433	-9.0914	16.15945	20.22152	1.02832	0.97246	179.61146	158.49373	68.49509	0.31113	 	1.53652E17	 	2.02708E-17	 	13400.937	31.2674	 
360.0	1.0	0.0	7.68463	7.14148	-9.11452	16.14337	20.15702	1.02352	0.97702	180.02589	158.6864	68.66391	0.31092	 	2.27941E17	 	1.35572E-17	 	13245.186	31.1502	 
355.0	1.0	0.0	7.68658	7.13967	-9.1376	16.12729	20.09253	1.0187	0.98164	180.43842	158.877	68.83207	0.31071	 	3.40283E17	 	9.00968E-18	 	13090.013	31.0346	 
350.0	1.0	0.0	7.68853	7.13786	-9.16064	16.11121	20.02803	1.01385	0.98634	180.84906	159.06552	68.99956	0.31051	 	5.11279E17	 	5.9487E-18	 	12935.411	30.9204	 
345.0	1.0	0.0	7.69048	7.13605	-9.18363	16.09514	19.96352	1.00896	0.99112	181.2578	159.25195	69.16637	0.3103	 	7.73287E17	 	3.90157E-18	 	12781.373	30.8076	 
340.0	1.0	0.0	7.69242	7.13425	-9.20658	16.07908	19.89902	1.00404	0.99597	181.66462	159.4363	69.33251	0.3101	 	1.1775E18	 	2.54152E-18	 	12627.894	30.6958	 
335.0	1.0	0.0	7.69436	7.13245	-9.22949	16.06302	19.83451	0.9991	1.00091	182.06952	159.61857	69.49796	0.30989	 	1.80546E18	 	1.64403E-18	 	12474.968	30.5852	 
330.0	1.0	0.0	7.6963	7.13065	-9.25235	16.04697	19.76999	0.99411	1.00592	182.47249	159.79875	69.66273	0.30969	 	2.78805E18	 	1.05587E-18	 	12322.587	30.4762	 
325.0	1.0	0.0	7.69824	7.12886	-9.27517	16.03093	19.70547	0.9891	1.01102	182.87351	159.97684	69.82681	0.30948	 	4.33683E18	 	6.7317E-19	 	12170.748	30.3678	 
320.0	1.0	0.0	7.70017	7.12707	-9.29795	16.01489	19.64095	0.98406	1.0162	183.27258	160.15284	69.9902	0.30927	 	6.79648E18	 	4.25958E-19	 	12019.443	30.261	 
315.0	1.0	0.0	7.7021	7.12528	-9.32068	15.99886	19.57642	0.97898	1.02147	183.6697	160.32676	70.15288	0.30907	 	1.07329E19	 	2.67458E-19	 	11868.667	30.1552	 
310.0	1.0	0.0	7.70403	7.1235	-9.34337	15.98283	19.51189	0.97386	1.02684	184.06485	160.49859	70.31487	0.30886	 	1.70829E19	 	1.66612E-19	 	11718.416	30.0502	 
305.0	1.0	0.0	7.70595	7.12172	-9.36601	15.96681	19.44735	0.96872	1.03229	184.45802	160.66832	70.47616	0.30866	 	2.74093E19	 	1.02951E-19	 	11568.684	29.9464	 
300.0	1.0	0.0	7.70787	7.11994	-9.38861	15.95079	19.38281	0.96354	1.03784	184.84921	160.83597	70.63674	0.30845	 	4.43428E19	 	6.30858E-20	 	11419.467	29.8434	 
295.0	1.0	0.0	7.70979	7.11817	-9.41117	15.93479	19.31826	0.95833	1.04349	185.23842	161.00154	70.79661	0.30824	 	7.23486E19	 	3.83283E-20	 	11270.758	29.7418	 
290.0	1.0	0.0	7.71171	7.1164	-9.43368	15.91878	19.2537	0.95308	1.04923	185.62563	161.16501	70.95576	0.30804	 	1.1907399999999998E20	 	2.30831E-20	 	11122.555	29.6406	 
285.0	1.0	0.0	7.71362	7.11464	-9.45616	15.90279	19.18914	0.94779	1.05508	186.01084	161.3264	71.1142	0.30783	 	1.97735E20	 	1.3777E-20	 	10974.852	29.5406	 
280.0	1.0	0.0	7.71553	7.11288	-9.47858	15.8868	19.12457	0.94247	1.06104	186.39404	161.48571	71.27193	0.30763	 	3.31388E20	 	8.14691E-21	 	10827.645	29.4414	 
275.0	1.0	0.0	7.71744	7.11112	-9.50097	15.87081	19.05999	0.93712	1.0671	186.77523	161.64294	71.42893	0.30742	 	5.6064099999999997E20	 	4.77201E-21	 	10680.93	29.343	 
270.0	1.0	0.0	7.71935	7.10936	-9.52331	15.85484	18.99541	0.93173	1.07328	187.1544	161.79808	71.58522	0.30721	 	9.577229999999999E20	 	2.768E-21	 	10534.702	29.2456	 
265.0	1.0	0.0	7.72125	7.10761	-9.54561	15.83887	18.93082	0.9263	1.07956	187.53155	161.95115	71.74077	0.30701	 	1.6524200000000001E21	 	1.58953E-21	 	10388.959	29.1486	 
260.0	1.0	0.0	7.72315	7.10586	-9.56786	15.8229	18.86622	0.92084	1.08597	187.90667	162.10215	71.89561	0.3068	 	2.8803600000000003E21	 	9.03418E-22	 	10243.696	29.0526	 
255.0	1.0	0.0	7.72505	7.10411	-9.59007	15.80694	18.80161	0.91533	1.0925	188.27977	162.25108	72.04971	0.3066	 	5.07395E21	 	5.0804E-22	 	10098.909	28.9574	 
250.0	1.0	0.0	7.72694	7.10237	-9.61224	15.79099	18.737	0.9098	1.09915	188.65083	162.39794	72.20308	0.30639	 	9.035420000000001E21	 	2.82595E-22	 	9954.595	28.8628	 
245.0	1.0	0.0	7.72884	7.10063	-9.63437	15.77504	18.67237	0.90422	1.10593	189.01986	162.54275	72.35573	0.30618	 	1.62701E22	 	1.55436E-22	 	9810.752	28.7686	 
240.0	1.0	0.0	7.73072	7.0989	-9.65645	15.7591	18.60774	0.8986	1.11284	189.38685	162.68549	72.50764	0.30598	 	2.96355E22	 	8.4512E-23	 	9667.374	28.6756	 
235.0	1.0	0.0	7.73261	7.09717	-9.67849	15.74316	18.5431	0.89295	1.11988	189.7518	162.82619	72.65882	0.30577	 	5.462129999999999E22	 	4.54063E-23	 	9524.461	28.5826	 
230.0	1.0	0.0	7.73449	7.09544	-9.70048	15.72724	18.47845	0.88726	1.12707	190.11472	162.96484	72.80927	0.30557	 	1.01904E23	 	2.40986E-23	 	9382.008	28.4906	 
225.0	1.0	0.0	7.73638	7.09371	-9.72244	15.71131	18.41379	0.88152	1.1344	190.4756	163.10146	72.95898	0.30536	 	1.9251299999999998E23	 	1.26295E-23	 	9240.013	28.399	 
220.0	1.0	0.0	7.73825	7.09199	-9.74435	15.6954	18.34912	0.87575	1.14188	190.83445	163.23605	73.10797	0.30515	 	3.6841199999999995E23	 	6.53328E-24	 	9098.473	28.308	 
215.0	1.0	0.0	7.74013	7.09027	-9.76621	15.67949	18.28445	0.86994	1.1495	191.19125	163.36861	73.25622	0.30495	 	7.1447E23	 	3.3347E-24	 	8957.386	28.2174	 
210.0	1.0	0.0	7.742	7.08856	-9.78804	15.66358	18.21976	0.86409	1.15729	191.54603	163.49916	73.40373	0.30474	 	1.40472E24	 	1.67873E-24	 	8816.749	28.1274	 
205.0	1.0	0.0	7.74387	7.08685	-9.80982	15.64768	18.15506	0.85819	1.16524	191.89878	163.62771	73.55052	0.30454	 	2.80115E24	 	8.33134E-25	 	8676.561	28.0376	 
200.0	1.0	0.0	7.74574	7.08514	-9.83156	15.63179	18.09035	0.85225	1.17336	192.2495	163.75426	73.69658	0.30433	 	5.66788E24	 	4.07442E-25	 	8536.819	27.9484	 
195.0	1.0	0.0	7.7476	7.08343	-9.85325	15.6159	18.02564	0.84628	1.18165	192.59821	163.87883	73.84191	0.30413	 	1.16424E25	 	1.96258E-25	 	8397.522	27.8594	 
190.0	1.0	0.0	7.74946	7.08173	-9.8749	15.60002	17.96091	0.84026	1.19011	192.9449	164.00143	73.98651	0.30392	 	2.42896E25	 	9.30655E-26	 	8258.667	27.771	 
185.0	1.0	0.0	7.75132	7.08004	-9.89651	15.58415	17.89617	0.83419	1.19877	193.28959	164.12207	74.13039	0.30371	 	5.1495300000000006E25	 	4.34237E-26	 	8120.254	27.6826	 
180.0	1.0	0.0	7.75318	7.07834	-9.91808	15.56828	17.83142	0.82808	1.20761	193.63228	164.24077	74.27355	0.30351	 	1.10999E26	 	1.99256E-26	 	7982.28	27.5948	 
175.0	1.0	0.0	7.75503	7.07665	-9.9396	15.55242	17.76666	0.82193	1.21665	193.97299	164.35753	74.41599	0.3033	 	2.43396E26	 	8.98664E-27	 	7844.746	27.5068	 
170.0	1.0	0.0	7.75688	7.07496	-9.96108	15.53656	17.70189	0.81573	1.22589	194.31172	164.47238	74.55772	0.3031	 	5.4325500000000006E26	 	3.98138E-27	 	7707.649	27.4194	 
165.0	1.0	0.0	7.75873	7.07328	-9.98252	15.52071	17.6371	0.80949	1.23534	194.64848	164.58533	74.69874	0.30289	 	1.2349599999999999E27	 	1.73163E-27	 	7570.989	27.332	 
160.0	1.0	0.0	7.76057	7.0716	-10.00392	15.50487	17.57231	0.80321	1.24501	194.9833	164.6964	74.83906	0.30268	 	2.86114E27	 	7.38901E-28	 	7434.765	27.2448	 
155.0	1.0	0.0	7.76241	7.06992	-10.02527	15.48903	17.5075	0.79687	1.2549	195.31618	164.80561	74.97868	0.30248	 	6.76E27	 	3.09126E-28	 	7298.978	27.1574	 
150.0	1.0	0.0	7.76425	7.06824	-10.04658	15.4732	17.44269	0.79049	1.26503	195.64715	164.91298	75.1176	0.30227	 	1.62997E28	 	1.26707E-28	 	7163.626	27.0704	 
145.0	1.0	0.0	7.76609	7.06657	-10.06784	15.45738	17.37786	0.78407	1.2754	195.97622	165.01852	75.25585	0.30207	 	4.0138E28	 	5.08468E-29	 	7028.709	26.9834	 
140.0	1.0	0.0	7.76792	7.06491	-10.08907	15.44156	17.31301	0.77759	1.28602	196.30341	165.12227	75.39341	0.30186	 	1.01019E29	 	1.99614E-29	 	6894.229	26.896	 
135.0	1.0	0.0	7.76975	7.06324	-10.11025	15.42574	17.24816	0.77107	1.2969	196.62875	165.22424	75.53031	0.30165	 	2.60061E29	 	7.66005E-30	 	6760.186	26.8086	 
130.0	1.0	0.0	7.77158	7.06158	-10.13139	15.40994	17.18329	0.7645	1.30804	196.95226	165.32447	75.66654	0.30145	 	6.85382E29	 	2.87092E-30	 	6626.579	26.7214	 
125.0	1.0	0.0	7.77341	7.05992	-10.15249	15.39414	17.11841	0.75788	1.31947	197.27396	165.42298	75.80213	0.30124	 	1.85081E30	 	1.04996E-30	 	6493.411	26.6336	 
120.0	1.0	0.0	7.77523	7.05827	-10.17354	15.37834	17.05352	0.75121	1.33118	197.5939	165.5198	75.93708	0.30104	 	5.12582E30	 	3.74353E-31	 	6360.682	26.5458	 
115.0	1.0	0.0	7.77705	7.05662	-10.19455	15.36255	16.98862	0.74449	1.3432	197.91208	165.61496	76.0714	0.30083	 	1.4573499999999999E31	 	1.29994E-31	 	6228.395	26.4574	 
110.0	1.0	0.0	7.77886	7.05497	-10.21552	15.34677	16.9237	0.73772	1.35553	198.22857	165.7085	76.20511	0.30063	 	4.2580399999999995E31	 	4.39183E-32	 	6096.55	26.369	 
105.0	1.0	0.0	7.78068	7.05332	-10.23645	15.33099	16.85877	0.7309	1.36818	198.54338	165.80045	76.33821	0.30042	 	1.2798799999999999E32	 	1.44206E-32	 	5965.151	26.2798	 
100.0	1.0	0.0	7.78249	7.05168	-10.25733	15.31522	16.79382	0.72402	1.38117	198.85656	165.89086	76.47073	0.30021	 	3.96221E32	 	4.59656E-33	 	5834.199	26.1904	 
95.0	1.0	0.0	7.78429	7.05005	-10.27817	15.29946	16.72886	0.71709	1.39452	199.16815	165.97975	76.60269	0.30001	 	1.26484E33	 	1.42061E-33	 	5703.697	26.1004	 
90.0	1.0	0.0	7.7861	7.04841	-10.29897	15.2837	16.66389	0.71011	1.40823	199.4782	166.06718	76.73409	0.2998	 	4.16886E33	 	4.25163E-34	 	5573.65	26.0094	 
85.0	1.0	0.0	7.7879	7.04678	-10.31973	15.26795	16.5989	0.70308	1.42232	199.78677	166.1532	76.86496	0.2996	 	1.42056E34	 	1.23053E-34	 	5444.06	25.918	 
80.0	1.0	0.0	7.7897	7.04515	-10.34044	15.2522	16.5339	0.69599	1.43681	200.0939	166.23785	76.99532	0.29939	 	5.01166E34	 	3.43926E-35	 	5314.932	25.8256	 
75.0	1.0	0.0	7.7915	7.04353	-10.36112	15.23646	16.46888	0.68884	1.45171	200.39965	166.32118	77.1252	0.29918	 	1.83328E35	 	9.26881E-36	 	5186.269	25.7326	 
70.0	1.0	0.0	7.79329	7.04191	-10.38175	15.22073	16.40385	0.68164	1.46705	200.7041	166.40326	77.25461	0.29898	 	6.964509999999999E35	 	2.40481E-36	 	5058.078	25.6382	 
65.0	1.0	0.0	7.79508	7.04029	-10.40233	15.205	16.3388	0.67438	1.48284	201.0073	166.48414	77.38358	0.29877	 	2.7522899999999997E36	 	5.99655E-37	 	4930.364	25.5428	 
60.0	1.0	0.0	7.79687	7.03868	-10.42288	15.18928	16.27374	0.66707	1.4991	201.30933	166.56389	77.51214	0.29857	 	1.1334799999999998E37	 	1.43454E-37	 	4803.132	25.4464	 
55.0	1.0	0.0	7.79865	7.03706	-10.44338	15.17356	16.20866	0.65969	1.51585	201.61027	166.64258	77.64032	0.29836	 	4.8737599999999995E37	 	3.28621E-38	 	4676.391	25.3482	 
50.0	1.0	0.0	7.80044	7.03546	-10.46384	15.15786	16.14357	0.65226	1.53313	201.91022	166.72028	77.76816	0.29815	 	2.1923899999999998E38	 	7.19405E-39	 	4550.146	25.249	 
45.0	1.0	0.0	7.80222	7.03385	-10.48426	15.14215	16.07846	0.64477	1.55094	202.20925	166.79707	77.89569	0.29795	 	1.0339400000000001E39	 	1.50183E-39	 	4424.406	25.148	 
40.0	1.0	0.0	7.80399	7.03225	-10.50464	15.12645	16.01334	0.63722	1.56932	202.50747	166.87304	78.02295	0.29774	 	5.1237400000000006E39	 	2.98299E-40	 	4299.179	25.0454	 
35.0	1.0	0.0	7.80577	7.03065	-10.52497	15.11076	15.9482	0.62961	1.5883	202.80498	166.94828	78.14997	0.29754	 	2.67445E40	 	5.6236E-41	 	4174.476	24.9406	 
30.0	1.0	0.0	7.80754	7.02906	-10.54527	15.09508	15.88304	0.62193	1.6079	203.10191	167.02288	78.27681	0.29733	 	1.4741900000000002E41	 	1.00367E-41	 	4050.307	24.8338	 
25.0	1.0	0.0	7.8093	7.02747	-10.56552	 	15.81786	0.61419	1.62815	203.39838	167.09695	78.40352	0.29713	 	8.60475E41	 	1.69116E-42	 	3926.682	 	 
