T (C)	Fraction solid (wt)-TOTAL	Fraction liquid (wt)-LIQUID	Density (g/(cm)^3)-TOTAL	Molar volume (cm^3)-TOTAL	Volume change (%)-  	Average expansion coeff. (10e-6 1/K)-  	Thermal conductivity (W/(m*K))-TOTAL	Electrical resistivity (10e-6 Ohm*m)-TOTAL	Electrical conductivity (10e6 1/(Ohm*m))-TOTAL	Young's modulus (GPa)-TOTAL	Bulk modulus (GPa)-TOTAL	Shear modulus(GPa)-TOTAL	Poisson's ratio-TOTAL	Liquid viscosity (mPa s)-  	Total viscosity (mPa s)-  	Liquid diffusivity (10e-9 (m^2)/s)-  	Total diffusivity (10e-9 (m^2)/s)-  	Surface Tension (mN/m)-  	Enthalpy (J/mole)-TOTAL	Specific heat (J/(mole K))-TOTAL	Latent heat (J/mole)-TOTAL
1400.0	0.0	1.0	7.53375	7.9457	0.0	34.59571	32.36049	1.26674	0.78943	0.0	124.44754	0.0	0.5	7.05938	7.05938	1.15679	1.15679	1866.35639	42037.326	 	0.0
1395.0	0.0	1.0	7.53814	7.94107	-0.058269	34.55996	32.27454	1.26631	0.78969	0.0	124.5822	0.0	0.5	7.1363	7.1363	1.1409	1.1409	1869.8865	41837.955	39.8742	0.0
1390.0	0.0	1.0	7.54252	7.93645	-0.11637	34.52441	32.18858	1.26589	0.78996	0.0	124.71685	0.0	0.5	7.21453	7.21453	1.12515	1.12515	1873.42731	41639.026	39.7858	0.0
1385.0	0.0	1.0	7.5469	7.93185	-0.17431	34.48907	32.10263	1.26546	0.79022	0.0	124.8515	0.0	0.5	7.2941	7.2941	1.10953	1.10953	1876.97883	41440.534	39.6984	0.0
1380.0	0.0	1.0	7.55127	7.92726	-0.23209	34.45392	32.01667	1.26503	0.79049	0.0	124.98615	0.0	0.5	7.37503	7.37503	1.09405	1.09405	1880.54103	41242.477	39.6114	0.0
1375.81	0.0	1.0	7.55493	7.92342	-0.28043	34.42459	31.94458	1.26467	0.79072	0.0	125.0991	0.0	0.5	7.44399	7.44399	1.08116	1.08116	1883.53716	41076.686	39.53127	0.0
1375.0	0.02464	0.97536	7.56406	7.91384	-0.40097	34.10503	32.00843	1.26153	0.79269	3.61877E-5	125.91124	1.20862E-5	0.49707	7.4566	7.70898	1.0788	1.04349	1883.69792	40658.874	518.32572	385.977
1370.0	0.16501	0.83499	7.61689	7.859	-1.0912	32.27708	32.37581	1.24343	0.80422	0.0751051	130.52644	0.0253705	0.48016	7.5379	18.13384	1.06393	0.44226	1884.57742	38273.604	477.054	2574.051
1365.0	0.27779	0.72221	7.66033	7.8144	-1.65246	30.80211	32.66723	1.22859	0.81394	0.61883	134.27137	0.21101	0.46635	7.62238	84.68045	1.04894	0.0944185	1885.33018	36331.458	388.4292	4319.426
1360.0	0.36969	0.63031	7.69654	7.77761	-2.11544	29.59651	32.89972	1.21619	0.82224	1.9821	137.35536	0.68117	0.45492	7.71004	254.7377	1.03385	0.031291	1885.96379	34725.465	321.1986	5729.073
1355.0	0.4455	0.5545	7.72703	7.74688	-2.50223	28.60004	33.08499	1.20567	0.82941	4.25461	139.92905	1.47181	0.44537	7.80065	549.79586	1.01871	0.0144537	1886.4851	33378.084	269.4762	6880.526
1350.0	0.50875	0.49125	7.75307	7.72081	-2.8303	27.76484	33.23181	1.19666	0.83566	7.34621	142.10506	2.55556	0.4373	7.89446	972.23746	1.00351	0.00814841	1886.90433	32232.255	229.1658	7830.845
1345.0	0.56205	0.43795	7.77546	7.69848	-3.11139	27.05888	33.34663	1.18887	0.84114	11.08649	143.96501	3.87525	0.43042	7.99119	1514.71968	0.98831	0.00521403	1887.22872	31245.394	197.3722	8622.611
1340.0	0.60737	0.39263	7.79493	7.67911	-3.35517	26.45565	33.43478	1.18207	0.84598	15.29198	145.57297	5.36746	0.42451	8.09098	2166.94822	0.97311	0.0036334	1887.467	30385.308	172.0172	9288.013
1335.0	0.64621	0.35379	7.81203	7.66214	-3.56875	25.9356	33.50041	1.1761	0.85027	19.79556	146.97671	6.9733	0.41938	8.19385	2918.72934	0.95791	0.00268918	1887.6271	29627.365	151.5886	9851.681
1330.0	0.67975	0.32025	7.82711	7.64717	-3.7571	25.48522	33.54702	1.17081	0.85411	24.45789	148.21367	8.64292	0.41491	8.29958	3761.61098	0.94277	0.00208011	1887.71409	28952.506	134.9718	10332.671
1325.0	0.70891	0.29109	7.84057	7.63382	-3.92507	25.09108	33.57743	1.1661	0.85756	29.17035	149.3135	10.33694	0.41098	8.40847	4689.25124	0.92766	0.00166342	1887.73809	28345.828	121.3356	10745.883
1320.0	0.73441	0.26559	7.85264	7.62184	-4.07588	24.74438	33.59398	1.16188	0.86067	33.85163	150.29883	12.02546	0.4075	8.52043	5697.66922	0.9126	0.00136473	1887.70907	27795.566	110.0524	11103.08
1315.0	0.75682	0.24318	7.86352	7.61099	-4.2124	24.43717	33.59864	1.15807	0.8635	38.4461	151.18843	13.68771	0.4044	8.63532	6785.41749	0.89763	0.00114236	1887.62531	27292.344	100.6444	11413.635
1310.0	0.77665	0.22335	7.87341	7.60114	-4.33639	24.16473	33.59308	1.15462	0.86609	42.91057	151.99756	15.30735	0.40163	8.75334	7952.09795	0.88274	9.71688E-4	1887.49437	26828.63	92.7428	11685.077
1305.0	0.79427	0.20573	7.88246	7.59209	-4.45032	23.92008	33.57873	1.15146	0.86846	47.2241	152.73855	16.87612	0.39914	8.87461	9200.1015	0.86793	8.37225E-4	1887.32664	26398.321	86.0618	11923.507
1300.0	0.80999	0.19001	7.89077	7.58374	-4.55547	23.69977	33.55665	1.14857	0.87065	51.36848	153.42053	18.3868	0.39688	8.99897	10532.03057	0.85323	7.29029E-4	1887.1269	25996.439	80.3764	12133.901
1295.0	0.82409	0.17591	7.89844	7.57601	-4.65271	23.50142	33.5279	1.1459	0.87268	55.3338	154.05215	19.83521	0.39484	9.12657	11951.97893	0.83862	6.40375E-4	1886.89707	25618.891	75.5096	12320.348
1290.0	0.83676	0.16324	7.90556	7.5688	-4.74343	23.32114	33.4933	1.14343	0.87456	59.12133	154.64022	21.22135	0.39297	9.25748	13465.93368	0.82413	5.66566E-4	1886.6458	25262.29	71.3202	12486.233
1285.0	0.84821	0.15179	7.91221	7.56205	-4.82838	23.1569	33.45355	1.14112	0.87633	62.73152	155.19044	22.54493	0.39126	9.39177	15080.19255	0.80975	5.043E-4	1886.37685	24923.82	67.694	12634.371
1280.0	0.8586	0.1414	7.91842	7.55569	-4.90841	23.00626	33.40929	1.13897	0.87799	66.17099	155.70742	23.80804	0.38968	9.52938	16802.69889	0.79549	4.5115E-4	1886.09685	24601.118	64.5404	12767.12
1275.0	0.86804	0.13196	7.92427	7.5497	-4.98386	22.86837	33.36105	1.13694	0.87955	69.44519	156.19557	25.01231	0.38822	9.67051	18641.96979	0.78136	4.05329E-4	1885.80486	24292.198	61.784	12886.466
1270.0	0.87666	0.12334	7.92978	7.54402	-5.05535	22.74147	33.30925	1.13504	0.88103	72.55812	156.65754	26.15895	0.38687	9.81505	20606.6604	0.76737	3.655E-4	1885.50813	23995.377	59.3642	12994.088
1265.0	0.88453	0.11547	7.935	7.5386	-5.12353	22.62373	33.25428	1.13323	0.88244	75.52003	157.09664	27.25149	0.38561	9.9633	22707.6428	0.7535	3.30608E-4	1885.21453	23709.224	57.2306	13091.414
1264.87	0.88472	0.11528	7.93513	7.53847	-5.12516	22.62113	33.25282	1.13318	0.88247	75.59709	157.10813	27.27992	0.38558	9.9672	22765.39713	0.75314	3.29741E-4	1885.20329	23701.846	 	13093.817
1262.18	0.8898	0.1102	7.93803	7.53536	-5.16424	22.55008	33.22557	1.13212	0.8833	77.53409	157.37869	27.99503	0.38478	10.05282	24072.4734	0.74542	3.11291E-4	1887.73625	23534.544	 	13159.579
1260.0	0.89399	0.10601	7.94072	7.5325	-5.2003	22.47857	33.17813	1.13214	0.88329	79.19261	157.58049	28.6086	0.38407	10.13175	25209.53182	0.73856	2.96829E-4	1890.05423	23389.847	63.8754	13222.335
1255.0	0.90288	0.0971206	7.94657	7.52624	-5.2791	22.32592	33.07064	1.13211	0.8833	82.82211	158.02195	29.95296	0.38254	10.31582	27942.62069	0.72302	2.66923E-4	1895.36264	23069.186	64.1322	13354.91
1250.0	0.91076	0.0892439	7.95196	7.5204	-5.3526	22.18851	32.96567	1.132	0.88339	86.17384	158.43435	31.19644	0.38115	10.50374	30841.45658	0.70776	2.41043E-4	1900.64366	22765.03	60.8312	13471.345
1245.0	0.91778	0.082217	7.95697	7.51492	-5.4215	22.06431	32.8629	1.13181	0.88354	89.2811	158.82273	32.35093	0.37988	10.69564	33925.529	0.69278	2.18411E-4	1905.89229	22474.869	58.0322	13574.149
1240.0	0.92408	0.0759173	7.96165	7.50977	-5.48637	21.95174	32.76202	1.13156	0.88374	92.16465	159.19006	33.4238	0.37873	10.89136	37212.38718	0.67809	1.98464E-4	1911.10754	22196.665	55.6408	13665.358
1235.0	0.92975	0.0702539	7.96605	7.50487	-5.54803	21.84837	32.66272	1.13125	0.88398	94.84923	159.53917	34.42398	0.37766	11.09126	40722.59885	0.66367	1.80757E-4	1916.29963	21928.744	53.5842	13746.642
1230.0	0.93486	0.065136	7.9702	7.50021	-5.60663	21.75377	32.56485	1.13089	0.88426	97.35402	159.87263	35.35833	0.37668	11.29531	44478.22123	0.64952	1.64946E-4	1921.45845	21669.726	51.8036	13819.381
1225.0	0.93951	0.0604917	7.97415	7.49575	-5.66281	21.66611	32.46819	1.13048	0.88458	99.6979	160.1924	36.23372	0.37576	11.50383	48503.15119	0.63562	1.50755E-4	1926.59391	21418.459	50.2534	13884.724
1220.0	0.94374	0.0562639	7.97791	7.49146	-5.71675	21.58482	32.37262	1.13003	0.88493	101.89704	160.49989	37.05601	0.37491	11.71669	52822.77014	0.62199	1.37965E-4	1931.7031	21173.98	48.8958	13943.632
1215.0	0.9476	0.0524016	7.9815	7.48733	-5.76876	21.50904	32.278	1.12955	0.88531	103.96466	160.79661	37.82998	0.3741	11.93404	57464.78447	0.60862	1.26396E-4	1936.78804	20935.475	47.701	13996.915
1210.0	0.95114	0.0488602	7.98496	7.48334	-5.81901	21.43826	32.18421	1.12904	0.88571	105.91404	161.08378	38.56048	0.37335	12.15626	62459.57642	0.59549	1.15897E-4	1941.84669	20702.257	46.6436	14045.262
1205.0	0.9544	0.0456045	7.98829	7.47946	-5.86778	21.37167	32.09117	1.12849	0.88614	107.75664	161.3622	39.25169	0.37264	12.38309	67839.84609	0.58261	1.06346E-4	1946.88408	20473.736	45.7042	14089.257
1200.0	0.9574	0.0426036	7.99025	7.47468	-5.92803	21.26731	31.83219	1.13383	0.88197	109.59123	161.26155	39.95142	0.37156	12.61496	73641.07857	0.56996	9.76368E-5	1950.99978	20146.5702	65.43316	14129.403
1195.0	0.96017	0.0398285	7.99828	7.46824	-6.00896	21.09471	31.5045	1.14173	0.87586	111.6133	161.16175	40.72911	0.37019	12.85193	81393.14957	0.55756	8.80378E-5	1955.11031	19805.50936	68.21217	14166.138
1190.0	0.96274	0.0372569	8.00587	7.46199	-6.08767	20.92791	31.19033	1.1493	0.87009	113.52749	161.05829	41.46695	0.36889	13.0943	89905.71087	0.54537	7.94307E-5	1959.20434	19471.4508	66.81171	14199.824
1185.0	0.96513	0.0348682	8.01304	7.45589	-6.16439	20.76618	30.88844	1.15657	0.86462	115.34361	160.95268	42.16848	0.36765	13.34192	99256.93779	0.53342	7.17015E-5	1963.28997	19143.93373	65.50341	14230.792
1180.0	0.96736	0.0326433	8.01982	7.44995	-6.23919	20.60943	30.5979	1.16355	0.85944	117.06947	160.84628	42.83649	0.36647	13.59491	109533.1553	0.5217	6.47518E-5	1967.36251	18822.5518	64.27639	14259.324
1175.0	0.96943	0.030567	8.02625	7.44416	-6.31209	20.45757	30.31792	1.17025	0.85452	118.71082	160.74002	43.47301	0.36534	13.85391	120828.4049	0.51019	5.84967E-5	1971.41851	18506.93602	63.12316	14285.668
1170.0	0.97137	0.0286253	8.03235	7.4385	-6.38332	20.30994	30.04787	1.17669	0.84984	120.27534	160.63473	44.08085	0.36426	14.11875	133248.9855	0.49889	5.28609E-5	1975.46662	18196.75124	62.03696	14310.042
1165.0	0.97319	0.0268064	8.03815	7.43297	-6.45289	20.16656	29.78714	1.18288	0.84539	121.7678	160.53086	44.66172	0.36322	14.38955	146910.0238	0.4878	4.77793E-5	1979.50317	17891.69098	61.01205	14332.637
1160.0	0.9749	0.0250995	8.04366	7.42757	-6.5209	20.02715	29.53521	1.18882	0.84117	123.19359	160.42911	45.21758	0.36223	14.66675	161941.3916	0.47692	4.31937E-5	1983.52725	17591.47431	60.04333	14353.624
1155.0	0.97651	0.0234938	8.04891	7.42228	-6.5874	19.89163	29.29156	1.19453	0.83715	124.55785	160.32991	45.75029	0.36128	14.95036	178486.6507	0.46624	3.9053E-5	1987.53346	17295.84363	59.12614	14373.152
1150.0	0.97802	0.0219807	8.05393	7.41711	-6.65247	19.75971	29.05575	1.20001	0.83333	125.86454	160.23346	46.26131	0.36037	15.24045	196703.5146	0.45576	3.53122E-5	1991.52623	17004.56191	58.25634	14391.357
1145.0	0.97945	0.0205536	8.05871	7.41205	-6.71621	19.63114	28.82734	1.20527	0.82969	126.82264	160.14	46.64359	0.35949	15.53755	216767.8808	0.44548	3.19311E-5	1995.50831	16717.40763	57.43086	14408.355
1140.0	0.9808	0.019205	8.06329	7.40709	-6.77865	19.50587	28.6059	1.21032	0.82623	128.06959	160.0498	47.13152	0.35864	15.84162	238875.5082	0.43539	2.88738E-5	1999.47415	16434.17611	56.6463	14424.257
1135.0	0.98209	0.0179097	8.06773	7.40222	-6.83987	19.38365	28.39081	1.21517	0.82293	129.26732	159.96352	47.60092	0.35782	16.14262	263252.7268	0.42576	2.61073E-5	2003.43695	16154.06901	56.02142	14439.769
1130.0	0.98342	0.0165821	8.07221	7.39745	-6.89994	19.26432	28.18047	1.21989	0.81974	130.45177	159.88335	48.06539	0.35702	16.40069	290196.5468	0.41757	2.35993E-5	2007.43007	15874.39857	55.93409	14457.487
1125.0	0.98468	0.0153244	8.0765	7.39277	-6.95881	19.148	27.97617	1.22442	0.81671	131.58835	159.80678	48.51173	0.35625	16.66705	319919.4716	0.40943	2.13304E-5	2011.40203	15598.41189	55.19734	14474.079
1120.0	0.98587	0.0141311	8.08064	7.38818	-7.01662	19.03435	27.77764	1.22876	0.81383	132.68156	159.73391	48.94161	0.35551	16.94237	352722.8368	0.40134	1.92775E-5	2015.35866	15325.92744	54.49689	14489.641
1115.0	0.987	0.012999	8.08462	7.38367	-7.07337	18.92335	27.58461	1.23292	0.81108	133.7347	159.6648	49.35624	0.35479	17.22651	388940.5697	0.3933	1.74197E-5	2019.29166	15056.78083	53.82932	14504.259
1110.0	0.98808	0.0119226	8.08846	7.37924	-7.12915	18.81475	27.3968	1.2369	0.80847	134.75101	159.59951	49.75683	0.3541	17.51991	428946.7847	0.38532	1.57381E-5	2023.20366	14790.81479	53.19321	14518.013
1105.0	0.9891	0.0108976	8.09217	7.37488	-7.18402	18.70832	27.21394	1.24071	0.80599	135.73371	159.53811	50.14459	0.35342	17.82315	473158.8583	0.3774	1.4216E-5	2027.09606	14527.88487	52.58598	14530.973
1100.0	0.99008	0.00992184	8.09576	7.37059	-7.23799	18.60409	27.03576	1.24436	0.80363	136.68392	159.48042	50.51991	0.35277	18.13603	522036.3191	0.36954	1.28382E-5	2030.966	14267.85156	52.00666	14543.206
1095.0	0.99101	0.00898983	8.09924	7.36637	-7.29115	18.5018	26.86204	1.24785	0.80138	137.6046	159.4266	50.88392	0.35214	18.45954	576100.1536	0.36174	1.1591E-5	2034.81523	14010.58911	51.45249	14554.771
1085.0	0.99349	0.00651289	8.10551	7.35754	-7.40222	18.27723	26.52199	1.25461	0.79706	139.8458	159.36526	51.76384	0.35081	19.19687	704218.9983	0.34531	9.41297E-6	2041.99626	13486.1056	52.44835	14593.806
1080.0	0.99467	0.00532888	8.10843	7.35319	-7.45697	18.16618	26.35761	1.25778	0.79505	140.93649	159.34142	52.19241	0.35016	19.58979	778936.5095	0.33713	8.47873E-6	2045.51051	13227.09933	51.80125	14612.921
1075.0	0.99575	0.00424697	8.11127	7.34893	-7.51054	18.05833	26.19751	1.26079	0.79315	141.96295	159.31862	52.5965	0.34955	19.99234	861619.7299	0.32913	7.63676E-6	2049.03367	12971.90603	51.03866	14630.084
1070.0	0.99674	0.00325623	8.11402	7.34477	-7.563	17.95353	26.04087	1.26367	0.79134	142.93195	159.29717	52.97866	0.34896	20.40512	953180.0211	0.32127	6.87759E-6	2052.55161	12720.21101	50.339	14645.554
1065.0	0.99766	0.0023446	8.11675	7.34066	-7.61464	17.85071	25.8873	1.26644	0.78962	143.85061	159.27709	53.34159	0.34839	20.82857	1054683.285	0.31357	6.19255E-6	2056.06713	12471.25918	49.79037	14659.55
1060.0	0.9985	0.00150332	8.11939	7.33664	-7.66522	17.75083	25.73751	1.26905	0.78799	144.72386	159.25911	53.68713	0.34785	21.26242	1167207.855	0.30602	5.57465E-6	2059.58571	12225.57845	49.13615	14672.244
1055.0	0.99928	7.23611E-4	8.12197	7.3327	-7.7149	17.65325	25.59077	1.27154	0.78645	145.55661	159.24314	54.01712	0.34732	21.70754	1292068.28	0.29862	5.01705E-6	2063.10481	11982.7042	48.57485	14683.796
1050.0	1.0	0.0	8.1245	7.32881	-7.76376	17.55782	25.44747	1.27389	0.785	146.35287	159.22932	54.33311	0.34681	 	1430706.765	 	4.51383E-6	 	11742.45796	48.04925	14694.337
1045.0	1.0	0.0	8.12817	7.32551	-7.80539	17.48841	25.30869	1.27603	0.78368	146.70157	159.19236	54.47876	0.34641	 	1588241.91	 	4.05074E-6	 	11649.48411	18.59477	 
1040.0	1.0	0.0	8.13181	7.32223	-7.84664	17.41976	25.17252	1.27807	0.78243	147.04595	159.15922	54.62258	0.34602	 	1764538.106	 	3.6322E-6	 	11438.19186	42.25845	 
1035.0	1.0	0.0	8.13542	7.31898	-7.88752	17.35182	25.03885	1.28	0.78125	147.38626	159.12983	54.76465	0.34563	 	1961993.437	 	3.25422E-6	 	11228.23735	41.9909	 
1030.0	1.0	0.0	8.139	7.31576	-7.92804	17.28457	24.90758	1.28183	0.78014	147.72273	159.10411	54.90507	0.34526	 	2183333.245	 	2.91314E-6	 	11019.58243	41.73098	 
1025.0	1.0	0.0	8.14255	7.31257	-7.96821	17.21799	24.77862	1.28355	0.77909	148.05557	159.082	55.04393	0.34489	 	2431657.299	 	2.60561E-6	 	10812.19059	41.47837	 
1020.0	1.0	0.0	8.14607	7.3094	-8.00804	17.15205	24.65189	1.28518	0.7781	148.38499	159.06343	55.18131	0.34452	 	2710494.424	 	2.32856E-6	 	10606.02693	41.23273	 
1015.0	1.0	0.0	8.14957	7.30627	-8.04753	17.08673	24.5273	1.28672	0.77717	148.71118	159.04835	55.31728	0.34417	 	3023865.7	 	2.07917E-6	 	10401.05734	40.99392	 
1010.0	1.0	0.0	8.15305	7.30315	-8.0867	17.02201	24.40477	1.28816	0.7763	149.03434	159.03668	55.45193	0.34382	 	3376357.103	 	1.85488E-6	 	10197.24939	40.76159	 
1005.0	1.0	0.0	8.15649	7.30007	-8.12555	16.95785	24.28423	1.28951	0.77549	149.35464	159.02837	55.58533	0.34347	 	3773204.151	 	1.65332E-6	 	9994.57188	40.5355	 
1000.0	1.0	0.0	8.15992	7.29701	-8.16409	16.89425	24.16561	1.29077	0.77473	149.67226	159.02336	55.71755	0.34313	 	4220388.958	 	1.47236E-6	 	9792.99488	40.3154	 
995.0	1.0	0.0	8.16332	7.29397	-8.20232	16.83118	24.04882	1.29194	0.77403	149.98734	159.02158	55.84865	0.3428	 	4724753.636	 	1.31002E-6	 	9592.48955	40.10107	 
990.0	1.0	0.0	8.16669	7.29095	-8.24027	16.76861	23.93325	1.29306	0.77336	150.30005	159.02299	55.97869	0.34248	 	5294131.433	 	1.16452E-6	 	9393.02819	39.89227	 
985.0	1.0	0.0	8.17004	7.28796	-8.27793	16.70653	23.81995	1.29407	0.77276	150.61053	159.02753	56.10774	0.34215	 	5937498.807	 	1.03423E-6	 	9194.58416	39.68881	 
980.0	1.0	0.0	8.17337	7.28499	-8.3153	16.64493	23.70831	1.295	0.7722	150.91892	159.03515	56.23585	0.34184	 	6665152.318	 	9.17656E-7	 	8997.1318	39.49047	 
975.0	1.0	0.0	8.17668	7.28204	-8.3524	16.58377	23.59827	1.29584	0.7717	151.22535	159.04578	56.36308	0.34153	 	7488914.826	 	8.13457E-7	 	8800.64642	39.29707	 
970.0	1.0	0.0	8.17997	7.27912	-8.38924	16.52305	23.48979	1.29661	0.77124	151.52995	159.05939	56.48947	0.34122	 	8422375.45	 	7.20403E-7	 	8605.10425	39.10843	 
965.0	1.0	0.0	8.18324	7.27621	-8.42581	16.46274	23.3828	1.29731	0.77083	151.83284	159.07593	56.61509	0.34092	 	9481168.726	 	6.37379E-7	 	8410.48238	38.92437	 
960.0	1.0	0.0	8.18648	7.27332	-8.46213	16.40283	23.27726	1.29793	0.77046	152.13414	159.09534	56.73997	0.34063	 	1.068330138E7	 	5.63374E-7	 	8216.75876	38.74472	 
955.0	1.0	0.0	8.18971	7.27046	-8.49819	16.34331	23.17313	1.29847	0.77014	152.43395	159.11758	56.86416	0.34033	 	1.204953363E7	 	4.97471E-7	 	8023.91212	38.56933	 
950.0	1.0	0.0	8.19292	7.26761	-8.53401	16.28415	23.07036	1.29895	0.76985	152.73239	159.14262	56.98772	0.34005	 	1.360382572E7	 	4.38839E-7	 	7831.92193	38.39804	 
945.0	1.0	0.0	8.19611	7.26479	-8.56959	16.22534	22.9689	1.29935	0.76961	153.02955	159.17039	57.11066	0.33976	 	1.537385994E7	 	3.86727E-7	 	7640.76845	38.2307	 
940.0	1.0	0.0	8.19928	7.26198	-8.60494	16.16686	22.86872	1.29969	0.76942	153.32554	159.20087	57.23305	0.33948	 	1.739165444E7	 	3.40455E-7	 	7450.43256	38.06718	 
935.0	1.0	0.0	8.20243	7.25919	-8.64005	16.10871	22.76977	1.29995	0.76926	153.62043	159.23401	57.35492	0.33921	 	1.969428033E7	 	2.99411E-7	 	7260.89585	37.90734	 
930.0	1.0	0.0	8.20556	7.25641	-8.67494	16.05086	22.67202	1.30016	0.76914	153.91433	159.26977	57.4763	0.33894	 	2.232470931E7	 	2.63039E-7	 	7072.14055	37.75106	 
925.0	1.0	0.0	8.20868	7.25366	-8.70961	15.99331	22.57544	1.30029	0.76906	154.20732	159.30812	57.59722	0.33867	 	2.5332804E7	 	2.30842E-7	 	6884.14948	37.59822	 
920.0	1.0	0.0	8.21178	7.25092	-8.74406	15.93604	22.47998	1.30036	0.76901	154.49948	159.34902	57.71774	0.33841	 	2.877649358E7	 	2.02369E-7	 	6696.90601	37.44869	 
915.0	1.0	0.0	8.21486	7.2482	-8.7783	15.87903	22.38562	1.30037	0.76901	154.79089	159.39243	57.83787	0.33814	 	3.272315067E7	 	1.77216E-7	 	6510.39414	37.30238	 
910.0	1.0	0.0	8.21792	7.2455	-8.81233	15.82227	22.29232	1.30032	0.76904	155.08163	159.43832	57.95765	0.33789	 	3.725122379E7	 	1.55019E-7	 	6324.59833	37.15916	 
905.0	1.0	0.0	8.22097	7.24281	-8.84616	15.76576	22.20006	1.30021	0.76911	155.37176	159.48665	58.07711	0.33763	 	4.245215968E7	 	1.35453E-7	 	6139.50356	37.01895	 
900.0	1.0	0.0	8.22401	7.24014	-8.87978	15.70947	22.1088	1.30003	0.76921	155.66136	159.5374	58.19627	0.33738	 	4.843269268E7	 	1.18223E-7	 	5955.09533	36.88165	 
895.0	1.0	0.0	8.22703	7.23748	-8.91321	15.6534	22.01851	1.2998	0.76935	155.95049	159.59053	58.31517	0.33713	 	5.531753363E7	 	1.03068E-7	 	5771.35956	36.74715	 
890.0	1.0	0.0	8.23003	7.23484	-8.94645	15.59753	21.92918	1.29951	0.76952	156.23923	159.64601	58.43384	0.33689	 	6.325259141E7	 	8.9752E-8	 	5588.28265	36.61538	 
885.0	1.0	0.0	8.23302	7.23222	-8.97949	15.54185	21.84077	1.29916	0.76973	156.52763	159.70382	58.5523	0.33665	 	7.240876548E7	 	7.80657E-8	 	5405.85139	36.48625	 
880.0	1.0	0.0	8.23599	7.2296	-9.01235	15.48636	21.75326	1.29876	0.76997	156.81575	159.76392	58.67057	0.33641	 	8.298648829E7	 	6.78211E-8	 	5224.05293	36.35969	 
875.0	1.0	0.0	8.23895	7.22701	-9.04502	15.43104	21.66663	1.2983	0.77024	157.10365	159.82629	58.78868	0.33617	 	9.522111465E7	 	5.88508E-8	 	5042.87485	36.23561	 
870.0	1.0	0.0	8.24189	7.22443	-9.07752	15.37587	21.58085	1.29778	0.77055	157.39138	159.89091	58.90666	0.33594	 	1.093893526E8	 	5.10052E-8	 	4862.30523	36.11393	 
865.0	1.0	0.0	8.24482	7.22186	-9.10983	15.32086	21.4959	1.29721	0.77089	157.67901	159.95774	59.02452	0.33571	 	1.258169567E8	 	4.41517E-8	 	4682.33237	35.99457	 
860.0	1.0	0.0	8.24774	7.21931	-9.14197	15.26598	21.41176	1.29659	0.77126	157.96658	160.02677	59.14229	0.33548	 	1.448879024E8	 	3.81717E-8	 	4502.94496	35.87748	 
855.0	1.0	0.0	8.25064	7.21677	-9.17394	15.21123	21.32841	1.29591	0.77166	158.25414	160.09797	59.25999	0.33525	 	1.670554002E8	 	3.29604E-8	 	4324.13198	35.7626	 
850.0	1.0	0.0	8.25353	7.21424	-9.20574	15.1566	21.24584	1.29518	0.77209	158.54175	160.17132	59.37764	0.33503	 	1.928550701E8	 	2.84245E-8	 	4145.88271	35.64985	 
845.0	1.0	0.0	8.2558	7.21225	-9.23072	15.13298	21.1841	1.29317	0.77329	158.86284	160.359	59.50417	0.33489	 	2.190674194E8	 	2.4912E-8	 	3995.15693	30.14516	 
840.0	1.0	0.0	8.25807	7.21027	-9.25565	15.10935	21.12235	1.29115	0.7745	159.18341	160.54588	59.63052	0.33475	 	2.491275358E8	 	2.18081E-8	 	3841.54874	30.72164	 
835.0	1.0	0.0	8.26033	7.2083	-9.28051	15.08571	21.06058	1.28912	0.77572	159.50343	160.73196	59.75669	0.33461	 	2.836413937E8	 	1.90685E-8	 	3688.13541	30.68266	 
830.0	1.0	0.0	8.26259	7.20633	-9.30531	15.06206	20.99881	1.28708	0.77695	159.82292	160.91725	59.88269	0.33447	 	3.233168059E8	 	1.6653E-8	 	3534.91628	30.64383	 
825.0	1.0	0.0	8.26485	7.20436	-9.33005	15.03841	20.93702	1.28503	0.77819	160.14188	161.10174	60.00851	0.33433	 	3.689816057E8	 	1.45259E-8	 	3381.89057	30.60514	 
820.0	1.0	0.0	8.2671	7.2024	-9.35472	15.01475	20.87522	1.28297	0.77944	160.46029	161.28545	60.13415	0.33419	 	4.216052651E8	 	1.2655E-8	 	3229.05754	30.56661	 
815.0	1.0	0.0	8.26934	7.20044	-9.37934	14.99108	20.8134	1.28089	0.78071	160.77817	161.46836	60.25962	0.33405	 	4.823246335E8	 	1.10112E-8	 	3076.41638	30.52823	 
810.0	1.0	0.0	8.27159	7.19849	-9.4039	14.9674	20.75158	1.2788	0.78198	161.09552	161.65048	60.38491	0.33391	 	5.524746262E8	 	9.56892E-9	 	2923.96626	30.49002	 
805.0	1.0	0.0	8.27382	7.19655	-9.4284	14.94372	20.68974	1.2767	0.78327	161.41233	161.83182	60.51002	0.33377	 	6.336248666E8	 	8.30489E-9	 	2771.70633	30.45199	 
800.0	1.0	0.0	8.27606	7.19461	-9.45284	14.92002	20.62788	1.27459	0.78456	161.7286	162.01238	60.63495	0.33363	 	7.276234994E8	 	7.19847E-9	 	2619.63567	30.41413	 
795.0	1.0	0.0	8.27828	7.19267	-9.47721	14.89632	20.56601	1.27247	0.78587	162.04434	162.19216	60.7597	0.33349	 	8.36649656E8	 	6.23125E-9	 	2467.75334	30.37647	 
790.0	1.0	0.0	8.28051	7.19074	-9.50153	14.87261	20.50413	1.27034	0.78719	162.35954	162.37116	60.88428	0.33335	 	9.632763738E8	 	5.38679E-9	 	2316.05836	30.339	 
785.0	1.0	0.0	8.28273	7.18881	-9.52578	14.8489	20.44224	1.26819	0.78852	162.6742	162.54938	61.00868	0.33321	 	1.110546165E9	 	4.65048E-9	 	2164.54971	30.30173	 
780.0	1.0	0.0	8.28494	7.18689	-9.54998	14.82517	20.38033	1.26603	0.78987	162.98833	162.72683	61.1329	0.33307	 	1.282061919E9	 	4.00929E-9	 	2013.22631	30.26468	 
775.0	1.0	0.0	8.28716	7.18497	-9.57411	14.80144	20.3184	1.26386	0.79123	163.30192	162.90351	61.25695	0.33293	 	1.48209641E9	 	3.45171E-9	 	1862.08704	30.22785	 
770.0	1.0	0.0	8.28936	7.18306	-9.59818	14.7777	20.25647	1.26168	0.79259	163.61497	163.07941	61.38081	0.33279	 	1.715724441E9	 	2.96747E-9	 	1711.13071	30.19126	 
765.0	1.0	0.0	8.29156	7.18115	-9.62219	14.75396	20.19451	1.25948	0.79398	163.92749	163.25455	61.5045	0.33265	 	1.988982538E9	 	2.54751E-9	 	1560.35609	30.15492	 
760.0	1.0	0.0	8.29376	7.17925	-9.64614	14.7302	20.13254	1.25728	0.79537	164.23947	163.42893	61.62801	0.33251	 	2.30906226E9	 	2.18381E-9	 	1409.7619	30.11884	 
755.0	1.0	0.0	8.29596	7.17735	-9.67003	14.70644	20.07056	1.25506	0.79678	164.55092	163.60254	61.75134	0.33237	 	2.684544574E9	 	1.86927E-9	 	1259.34676	30.08303	 
750.0	1.0	0.0	8.29814	7.17545	-9.69386	14.68267	20.00856	1.25282	0.7982	164.86183	163.77538	61.87449	0.33223	 	3.125684507E9	 	1.59765E-9	 	1109.10925	30.0475	 
745.0	1.0	0.0	8.30033	7.17357	-9.71763	14.65889	19.94654	1.25058	0.79963	165.1722	163.94747	61.99747	0.33209	 	3.644757407E9	 	1.36342E-9	 	959.04785	30.01228	 
740.0	1.0	0.0	8.30251	7.17168	-9.74134	14.6351	19.88451	1.24832	0.80108	165.48204	164.1188	62.12026	0.33195	 	4.2564809E9	 	1.16174E-9	 	809.16101	29.97737	 
735.0	1.0	0.0	8.30469	7.1698	-9.76499	14.61131	19.82246	1.24604	0.80254	165.79134	164.28938	62.24288	0.33181	 	4.978529949E9	 	9.8835E-10	 	659.44706	29.94279	 
730.0	1.0	0.0	8.30686	7.16793	-9.78857	14.58751	19.76039	1.24376	0.80401	166.1001	164.4592	62.36532	0.33167	 	5.83216667E9	 	8.39504E-10	 	509.90423	29.90857	 
725.0	1.0	0.0	8.30902	7.16606	-9.81209	14.5637	19.69831	1.24146	0.8055	166.40833	164.62827	62.48758	0.33153	 	6.843011835E9	 	7.11927E-10	 	360.53069	29.87471	 
720.0	1.0	0.0	8.31119	7.1642	-9.83556	14.53988	19.63621	1.23915	0.80701	166.71602	164.7966	62.60966	0.33139	 	8.041991636E9	 	6.02751E-10	 	211.3245	29.84124	 
715.0	1.0	0.0	8.31334	7.16234	-9.85896	14.51606	19.57409	1.23682	0.80852	167.02317	164.96417	62.73156	0.33125	 	9.466501646E9	 	5.09472E-10	 	62.28358	29.80818	 
710.0	1.0	0.0	8.3155	7.16048	-9.8823	14.49223	19.51196	1.23448	0.81006	167.32979	165.131	62.85329	0.33111	 	1.11618E10	 	4.29903E-10	 	-86.59422	29.77556	 
705.0	1.0	0.0	8.31764	7.15863	-9.90558	14.46839	19.4498	1.23213	0.8116	167.63587	165.29709	62.97483	0.33098	 	1.3182999999999998E10	 	3.62142E-10	 	-235.31119	29.74339	 
700.0	1.0	0.0	8.31979	7.15679	-9.9288	14.44454	19.38763	1.22976	0.81317	167.94141	165.46243	63.09619	0.33084	 	1.5596699999999998E10	 	3.04532E-10	 	-383.86977	29.71172	 
695.0	1.0	0.0	8.32193	7.15495	-9.95195	14.42068	19.32544	1.22738	0.81474	168.24642	165.62704	63.21738	0.3307	 	1.84845E10	 	2.55635E-10	 	-532.27252	29.68055	 
690.0	1.0	0.0	8.32406	7.15311	-9.97505	14.39682	19.26323	1.22499	0.81634	168.55089	165.79091	63.33839	0.33056	 	2.19457E10	 	2.14206E-10	 	-680.52214	29.64992	 
685.0	1.0	0.0	8.32619	7.15128	-9.99809	14.37295	19.201	1.22258	0.81795	168.85482	165.95404	63.45921	0.33042	 	2.6101699999999996E10	 	1.79165E-10	 	-828.62152	29.61988	 
680.0	1.0	0.0	8.32832	7.14946	-10.02106	14.34907	19.13875	1.22015	0.81957	169.15822	166.11644	63.57986	0.33028	 	3.1101199999999996E10	 	1.49579E-10	 	-976.57369	29.59043	 
675.0	1.0	0.0	8.33044	7.14764	-10.04397	14.32518	19.07648	1.21771	0.82121	169.46108	166.27811	63.70033	0.33014	 	3.71269E10	 	1.24645E-10	 	-1124.3819	29.56164	 
670.0	1.0	0.0	8.33256	7.14582	-10.06682	14.30129	19.01419	1.21526	0.82287	169.76341	166.43905	63.82062	0.33	 	4.44033E10	 	1.0367E-10	 	-1272.04956	29.53353	 
665.0	1.0	0.0	8.33467	7.14401	-10.08961	14.27739	18.95188	1.21279	0.82454	170.06519	166.59926	63.94072	0.32987	 	5.320729999999999E10	 	8.60574E-11	 	-1419.58031	29.50615	 
660.0	1.0	0.0	8.33678	7.1422	-10.11234	14.25348	18.88954	1.21031	0.82624	170.36644	166.75874	64.06065	0.32973	 	6.388049999999999E10	 	7.12968E-11	 	-1566.9677	29.47748	 
655.0	1.0	0.0	8.33888	7.1404	-10.135	14.22956	18.82719	1.20781	0.82794	170.66715	166.91751	64.1804	0.32959	 	7.6846E10	 	5.895E-11	 	-1714.15424	29.43731	 
650.0	1.0	0.0	8.34098	7.13861	-10.15761	14.20563	18.76481	1.2053	0.82967	170.96733	167.07555	64.29997	0.32945	 	9.26282E10	 	4.86425E-11	 	-1861.0637	29.38189	 
645.0	1.0	0.0	8.34307	7.13681	-10.18015	14.1817	18.70242	1.20277	0.83142	171.26697	167.23287	64.41936	0.32931	 	1.11879E11	 	4.00545E-11	 	-2007.69724	29.32671	 
640.0	1.0	0.0	8.34516	7.13503	-10.20263	14.15776	18.63999	1.20022	0.83318	171.56607	167.38947	64.53857	0.32917	 	1.35411E11	 	3.29137E-11	 	-2154.05603	29.27176	 
635.0	1.0	0.0	8.34724	7.13325	-10.22505	14.13381	18.57755	1.19766	0.83496	171.86464	167.54535	64.6576	0.32904	 	1.64236E11	 	2.69883E-11	 	-2300.14125	29.21704	 
630.0	1.0	0.0	8.34932	7.13147	-10.24741	14.10986	18.51508	1.19509	0.83676	172.16266	167.70053	64.77644	0.3289	 	1.99625E11	 	2.20817E-11	 	-2445.95405	29.16256	 
625.0	1.0	0.0	8.3514	7.1297	-10.26971	14.08589	18.45259	1.1925	0.83858	172.46015	167.85498	64.89511	0.32876	 	2.43166E11	 	1.80274E-11	 	-2591.49566	29.10832	 
620.0	1.0	0.0	8.35347	7.12793	-10.29194	14.06192	18.39008	1.18989	0.84041	172.75711	168.00873	65.0136	0.32862	 	2.96859E11	 	1.46846E-11	 	-2736.76743	29.05435	 
615.0	1.0	0.0	8.35553	7.12617	-10.31411	14.03794	18.32754	1.18727	0.84227	173.05352	168.16177	65.1319	0.32849	 	3.63223E11	 	1.19344E-11	 	-2881.77042	29.0006	 
610.0	1.0	0.0	8.35759	7.12441	-10.33623	14.01395	18.26497	1.18463	0.84415	173.3494	168.3141	65.25003	0.32835	 	4.45439E11	 	9.67683E-12	 	-3026.50578	28.94707	 
605.0	1.0	0.0	8.35965	7.12266	-10.35827	13.98996	18.20238	1.18197	0.84604	173.64475	168.46573	65.36797	0.32821	 	5.47536E11	 	7.82785E-12	 	-3170.97467	28.89378	 
600.0	1.0	0.0	8.3617	7.12091	-10.38026	13.96595	18.13976	1.1793	0.84796	173.93955	168.61666	65.48574	0.32807	 	6.74627E11	 	6.31702E-12	 	-3315.17826	28.84072	 
595.0	1.0	0.0	8.36375	7.11917	-10.40219	13.94194	18.07712	1.17661	0.8499	174.23382	168.76688	65.60332	0.32793	 	8.33218E11	 	5.08537E-12	 	-3459.11766	28.78788	 
590.0	1.0	0.0	8.36579	7.11744	-10.42405	13.91793	18.01445	1.1739	0.85186	174.52755	168.9164	65.72072	0.3278	 	1.03161E12	 	4.08373E-12	 	-3602.79405	28.73528	 
585.0	1.0	0.0	8.36782	7.1157	-10.44585	13.8939	17.95175	1.17118	0.85384	174.82074	169.06523	65.83794	0.32766	 	1.28043E12	 	3.27111E-12	 	-3746.20855	28.6829	 
580.0	1.0	0.0	8.36986	7.11398	-10.46759	13.86987	17.88902	1.16844	0.85585	175.11339	169.21336	65.95498	0.32752	 	1.59328E12	 	2.61348E-12	 	-3889.36234	28.63076	 
575.0	1.0	0.0	8.37188	7.11225	-10.48927	13.84582	17.82627	1.16568	0.85787	175.40551	169.36079	66.07184	0.32738	 	1.9877E12	 	2.08262E-12	 	-4032.25652	28.57884	 
570.0	1.0	0.0	8.37391	7.11054	-10.51089	13.82177	17.76348	1.1629	0.85992	175.69709	169.50753	66.18852	0.32725	 	2.48626E12	 	1.65518E-12	 	-4174.89227	28.52715	 
565.0	1.0	0.0	8.37592	7.10882	-10.53244	13.79772	17.70067	1.16011	0.86199	175.98813	169.65358	66.30501	0.32711	 	3.1182E12	 	1.31191E-12	 	-4317.2707	28.47569	 
560.0	1.0	0.0	8.37794	7.10712	-10.55393	13.77365	17.63782	1.1573	0.86408	176.27864	169.79895	66.42133	0.32697	 	3.9214E12	 	1.03698E-12	 	-4459.39296	28.42445	 
555.0	1.0	0.0	8.37994	7.10541	-10.57536	13.74958	17.57495	1.15447	0.8662	176.56861	169.94362	66.53746	0.32684	 	4.94515E12	 	8.17365E-13	 	-4601.26017	28.37344	 
550.0	1.0	0.0	8.38195	7.10371	-10.59673	13.7255	17.51204	1.15162	0.86834	176.85804	170.08761	66.65341	0.3267	 	6.25378E12	 	6.42426E-13	 	-4742.87348	28.32266	 
545.0	1.0	0.0	8.38394	7.10202	-10.61804	13.70141	17.4491	1.14875	0.87051	177.14693	170.23092	66.76918	0.32656	 	7.93143E12	 	5.03463E-13	 	-4884.23401	28.27211	 
540.0	1.0	0.0	8.38594	7.10033	-10.63928	13.67731	17.38613	1.14587	0.8727	177.43528	170.37354	66.88477	0.32643	 	1.00886E13	 	3.93394E-13	 	-5025.34288	28.22177	 
535.0	1.0	0.0	8.38793	7.09865	-10.66046	13.65321	17.32313	1.14296	0.87492	177.7231	170.51548	67.00017	0.32629	 	1.28707E13	 	3.06463E-13	 	-5166.20123	28.17167	 
530.0	1.0	0.0	8.38991	7.09697	-10.68158	13.6291	17.26009	1.14004	0.87716	178.01038	170.65675	67.11539	0.32615	 	1.64698E13	 	2.38009E-13	 	-5306.81016	28.12179	 
525.0	1.0	0.0	8.39189	7.0953	-10.70264	13.60498	17.19702	1.1371	0.87943	178.29712	170.79733	67.23043	0.32601	 	2.11407E13	 	1.84269E-13	 	-5447.17081	28.07213	 
520.0	1.0	0.0	8.39386	7.09363	-10.72363	13.58085	17.13391	1.13414	0.88173	178.58332	170.93725	67.34529	0.32588	 	2.72217E13	 	1.42209E-13	 	-5587.28429	28.02269	 
515.0	1.0	0.0	8.39583	7.09197	-10.74456	13.55672	17.07077	1.13115	0.88405	178.86898	171.07649	67.45997	0.32574	 	3.51646E13	 	1.09393E-13	 	-5727.1517	27.97348	 
510.0	1.0	0.0	8.39779	7.09031	-10.76543	13.53258	17.00759	1.12815	0.8864	179.15411	171.21505	67.57446	0.32561	 	4.55738E13	 	8.38718E-14	 	-5866.77416	27.92449	 
505.0	1.0	0.0	8.39975	7.08866	-10.78624	13.50843	16.94437	1.12513	0.88878	179.4387	171.35295	67.68877	0.32547	 	5.92615E13	 	6.40881E-14	 	-6006.15279	27.87573	 
500.0	1.0	0.0	8.4017	7.08701	-10.80699	13.48427	16.88111	1.12209	0.89119	179.72275	171.49018	67.8029	0.32533	 	7.73223E13	 	4.88029E-14	 	-6145.28867	27.82718	 
495.0	1.0	0.0	8.40365	7.08537	-10.82767	13.4601	16.81782	1.11903	0.89363	180.00626	171.62674	67.91684	0.3252	 	1.01237E14	 	3.70333E-14	 	-6284.18292	27.77885	 
490.0	1.0	0.0	8.4056	7.08373	-10.84829	13.43593	16.75448	1.11595	0.8961	180.28923	171.76264	68.03061	0.32506	 	1.3301799999999998E14	 	2.80018E-14	 	-6422.83663	27.73074	 
485.0	1.0	0.0	8.40754	7.08209	-10.86884	13.41175	16.69111	1.11285	0.89859	180.57167	171.89787	68.14419	0.32492	 	1.75406E14	 	2.10959E-14	 	-6561.2509	27.68285	 
480.0	1.0	0.0	8.40947	7.08046	-10.88934	13.38756	16.62769	1.10973	0.90112	180.85356	172.03244	68.25758	0.32479	 	2.32152E14	 	1.58342E-14	 	-6699.42681	27.63518	 
475.0	1.0	0.0	8.4114	7.07884	-10.90977	13.36336	16.56424	1.10658	0.90368	181.13492	172.16635	68.3708	0.32465	 	3.0841E14	 	1.18399E-14	 	-6837.36546	27.58773	 
470.0	1.0	0.0	8.41332	7.07722	-10.93014	13.33916	16.50073	1.10342	0.90628	181.41574	172.2996	68.48383	0.32452	 	4.11287E14	 	8.81899E-15	 	-6975.06793	27.54049	 
465.0	1.0	0.0	8.41524	7.07561	-10.95045	13.31495	16.43719	1.10023	0.9089	181.69602	172.4322	68.59667	0.32438	 	5.5062199999999994E14	 	6.54301E-15	 	-7112.5353	27.49347	 
460.0	1.0	0.0	8.41715	7.074	-10.97069	13.29073	16.3736	1.09702	0.91156	181.97577	172.56414	68.70934	0.32424	 	7.40102E14	 	4.83491E-15	 	-7249.76863	27.44667	 
455.0	1.0	0.0	8.41906	7.0724	-10.99087	13.2665	16.30996	1.09379	0.91425	182.25497	172.69542	68.82182	0.32411	 	9.98833E14	 	3.55807E-15	 	-7386.76901	27.40008	 
450.0	1.0	0.0	8.42097	7.0708	-11.01099	13.24226	16.24628	1.09054	0.91698	182.53364	172.82606	68.93411	0.32397	 	1.35361E15	 	2.60747E-15	 	-7523.53751	27.3537	 
445.0	1.0	0.0	8.42286	7.06921	-11.03105	13.21802	16.18255	1.08726	0.91974	182.81176	172.95604	69.04623	0.32384	 	1.84219E15	 	1.90268E-15	 	-7660.07519	27.30754	 
440.0	1.0	0.0	8.42476	7.06762	-11.05104	13.19377	16.11877	1.08396	0.92254	183.08935	173.08537	69.15816	0.3237	 	2.51798E15	 	1.38234E-15	 	-7796.3831	27.26158	 
435.0	1.0	0.0	8.42665	7.06603	-11.07097	13.16951	16.05494	1.08064	0.92537	183.3664	173.21406	69.2699	0.32356	 	3.45689E15	 	9.99831E-16	 	-7932.46229	27.21584	 
430.0	1.0	0.0	8.42853	7.06445	-11.09084	13.14524	15.99106	1.0773	0.92825	183.64291	173.3421	69.38146	0.32343	 	4.76734E15	 	7.19877E-16	 	-8068.31382	27.17031	 
425.0	1.0	0.0	8.43041	7.06288	-11.11064	13.12097	15.92713	1.07393	0.93116	183.91888	173.4695	69.49284	0.32329	 	6.6049E15	 	5.15904E-16	 	-8203.93858	27.12495	 
420.0	1.0	0.0	8.43228	7.06131	-11.13038	13.09669	15.86314	1.07054	0.93411	184.19432	173.59625	69.60404	0.32316	 	9.19389E15	 	3.67972E-16	 	-8339.33786	27.07985	 
415.0	1.0	0.0	8.43415	7.05975	-11.15006	13.0724	15.7991	1.06713	0.93709	184.46921	173.72236	69.71504	0.32302	 	1.28594E16	 	2.61186E-16	 	-8474.51206	27.03484	 
410.0	1.0	0.0	8.43601	7.05819	-11.16968	13.0481	15.73501	1.06369	0.94012	184.74356	173.84784	69.82587	0.32289	 	1.80748E16	 	1.84472E-16	 	-8609.46137	26.98986	 
405.0	1.0	0.0	8.43787	7.05664	-11.18923	13.02379	15.67086	1.06023	0.94319	185.01738	173.97267	69.93651	0.32275	 	2.55332E16	 	1.2963E-16	 	-8744.18596	26.94492	 
400.0	1.0	0.0	8.43972	7.05509	-11.20872	12.99948	15.60664	1.05674	0.94631	185.29066	174.09687	70.04697	0.32262	 	3.6255E16	 	9.06213E-17	 	-8878.68599	26.90001	 
395.0	1.0	0.0	8.44157	7.05354	-11.22815	12.97516	15.54237	1.05323	0.94946	185.56339	174.22043	70.15724	0.32248	 	5.17499E16	 	6.30161E-17	 	-9012.96163	26.85513	 
390.0	1.0	0.0	8.44341	7.05201	-11.24751	12.95083	15.47804	1.04969	0.95266	185.83559	174.34336	70.26732	0.32235	 	7.42644E16	 	4.35831E-17	 	-9147.01302	26.81028	 
385.0	1.0	0.0	8.44524	7.05047	-11.26681	12.92649	15.41365	1.04613	0.9559	186.10725	174.46566	70.37723	0.32221	 	1.07161E17	 	2.99762E-17	 	-9280.84032	26.76546	 
380.0	1.0	0.0	8.44707	7.04894	-11.28605	12.90215	15.34919	1.04254	0.95919	186.37837	174.58733	70.48694	0.32208	 	1.55499E17	 	2.05008E-17	 	-9414.44368	26.72067	 
375.0	1.0	0.0	8.4489	7.04742	-11.30522	12.8778	15.28467	1.03893	0.96253	186.64895	174.70837	70.59648	0.32194	 	2.26943E17	 	1.39394E-17	 	-9547.82321	26.67591	 
370.0	1.0	0.0	8.45072	7.0459	-11.32433	12.85344	15.22008	1.03529	0.96591	186.91899	174.82878	70.70582	0.32181	 	3.33164E17	 	9.42196E-18	 	-9680.97905	26.63117	 
365.0	1.0	0.0	8.45254	7.04439	-11.34338	12.82907	15.15542	1.03162	0.96935	187.18849	174.94856	70.81499	0.32167	 	4.92053E17	 	6.32992E-18	 	-9813.91132	26.58645	 
360.0	1.0	0.0	8.45435	7.04288	-11.36236	12.8047	15.09069	1.02793	0.97283	187.45745	175.06772	70.92396	0.32154	 	7.31206E17	 	4.22623E-18	 	-9946.62012	26.54176	 
355.0	1.0	0.0	8.45615	7.04138	-11.38129	12.78031	15.02589	1.02421	0.97636	187.72587	175.18626	71.03275	0.3214	 	1.09347E18	 	2.80377E-18	 	-10079.10557	26.49709	 
350.0	1.0	0.0	8.45795	7.03988	-11.40014	12.75592	14.96101	1.02046	0.97995	187.99375	175.30418	71.14136	0.32127	 	1.64581E18	 	1.84799E-18	 	-10211.36774	26.45243	 
345.0	1.0	0.0	8.45975	7.03838	-11.41894	12.73153	14.89606	1.01669	0.98358	188.26109	175.42147	71.24978	0.32113	 	2.49358E18	 	1.20992E-18	 	-10343.40674	26.4078	 
340.0	1.0	0.0	8.46154	7.0369	-11.43767	12.70712	14.83103	1.01289	0.98728	188.52789	175.53815	71.35802	0.321	 	3.80374E18	 	7.86761E-19	 	-10475.22261	26.36318	 
335.0	1.0	0.0	8.46332	7.03541	-11.45633	12.68271	14.76593	1.00906	0.99102	188.79415	175.65421	71.46606	0.32087	 	5.8427E18	 	5.08024E-19	 	-10606.81544	26.31857	 
330.0	1.0	0.0	8.4651	7.03394	-11.47494	12.65828	14.70074	1.0052	0.99483	189.05987	175.76965	71.57393	0.32073	 	9.03871E18	 	3.25691E-19	 	-10738.18528	26.27397	 
325.0	1.0	0.0	8.46687	7.03246	-11.49348	12.63385	14.63546	1.00131	0.99869	189.32505	175.88448	71.68161	0.3206	 	1.40854E19	 	2.07266E-19	 	-10869.33219	26.22938	 
320.0	1.0	0.0	8.46864	7.03099	-11.51196	12.60942	14.5701	0.9974	1.00261	189.58969	175.9987	71.7891	0.32046	 	2.21145E19	 	1.3091E-19	 	-11000.25618	26.1848	 
315.0	1.0	0.0	8.4704	7.02953	-11.53037	12.58497	14.50466	0.99345	1.00659	189.85379	176.11231	71.8964	0.32033	 	3.49879E19	 	8.2046E-20	 	-11130.95727	26.14022	 
310.0	1.0	0.0	8.47216	7.02807	-11.54872	12.56052	14.43912	0.98948	1.01064	190.11735	176.2253	72.00352	0.32019	 	5.57923E19	 	5.10144E-20	 	-11261.43548	26.09564	 
305.0	1.0	0.0	8.47391	7.02662	-11.567	12.53606	14.37349	0.98547	1.01474	190.38037	176.33769	72.11045	0.32006	 	8.96885E19	 	3.14623E-20	 	-11391.69082	26.05107	 
300.0	1.0	0.0	8.47566	7.02517	-11.58523	12.51159	14.30776	0.98144	1.01891	190.64285	176.44947	72.2172	0.31993	 	1.4537699999999998E20	 	1.92424E-20	 	-11521.72324	26.00648	 
295.0	1.0	0.0	8.4774	7.02373	-11.60338	12.48712	14.24194	0.97737	1.02315	190.90479	176.56064	72.32376	0.31979	 	2.3765499999999997E20	 	1.16682E-20	 	-11651.53275	25.9619	 
290.0	1.0	0.0	8.47913	7.02229	-11.62148	12.46263	14.17602	0.97328	1.02746	191.16619	176.67121	72.43013	0.31966	 	3.91912E20	 	7.0133E-21	 	-11781.11928	25.91731	 
285.0	1.0	0.0	8.48086	7.02086	-11.63951	12.43814	14.10999	0.96915	1.03183	191.42704	176.78118	72.53632	0.31953	 	6.52112E20	 	4.17749E-21	 	-11910.48277	25.8727	 
280.0	1.0	0.0	8.48259	7.01943	-11.65748	12.41364	14.04385	0.96499	1.03628	191.68736	176.89055	72.64232	0.31939	 	1.0951E21	 	2.46534E-21	 	-12039.62317	25.82808	 
275.0	1.0	0.0	8.48431	7.01801	-11.67538	12.38913	13.97761	0.9608	1.0408	191.94713	176.99931	72.74813	0.31926	 	1.85649E21	 	1.4411E-21	 	-12168.54038	25.78344	 
270.0	1.0	0.0	8.48602	7.01659	-11.69322	12.36462	13.91125	0.95658	1.04539	192.20637	177.10748	72.85376	0.31912	 	3.17798E21	 	8.34172E-22	 	-12297.23428	25.73878	 
265.0	1.0	0.0	8.48773	7.01518	-11.711	12.3401	13.84478	0.95232	1.05007	192.46506	177.21505	72.9592	0.31899	 	5.49475E21	 	4.78016E-22	 	-12425.70476	25.6941	 
260.0	1.0	0.0	8.48943	7.01377	-11.72871	12.31557	13.77819	0.94803	1.05482	192.72322	177.32202	73.06445	0.31886	 	9.598540000000001E21	 	2.71101E-22	 	-12553.95168	25.64938	 
255.0	1.0	0.0	8.49113	7.01237	-11.74636	12.29103	13.71148	0.94371	1.05965	192.98083	177.4284	73.16952	0.31872	 	1.6945299999999998E22	 	1.52123E-22	 	-12681.97487	25.60464	 
250.0	1.0	0.0	8.49282	7.01097	-11.76394	12.26648	13.64464	0.93936	1.06456	193.2379	177.53418	73.27439	0.31859	 	3.02421E22	 	8.44307E-23	 	-12809.77414	25.55986	 
245.0	1.0	0.0	8.49451	7.00958	-11.78146	12.24193	13.57767	0.93497	1.06956	193.49443	177.63937	73.37908	0.31846	 	5.45796E22	 	4.63353E-23	 	-12937.34931	25.51503	 
240.0	1.0	0.0	8.49619	7.00819	-11.79892	12.21737	13.51056	0.93054	1.07464	193.75042	177.74398	73.48359	0.31832	 	9.964259999999999E22	 	2.51354E-23	 	-13064.70014	25.47017	 
235.0	1.0	0.0	8.49787	7.00681	-11.81631	12.1928	13.44332	0.92609	1.07981	194.00586	177.84799	73.5879	0.31819	 	1.84079E23	 	1.34733E-23	 	-13191.82638	25.42525	 
230.0	1.0	0.0	8.49954	7.00543	-11.83364	12.16822	13.37594	0.92159	1.08508	194.26077	177.95141	73.69203	0.31806	 	3.4424E23	 	7.13384E-24	 	-13318.72778	25.38028	 
225.0	1.0	0.0	8.5012	7.00406	-11.8509	12.14364	13.30841	0.91707	1.09044	194.51513	178.05425	73.79597	0.31793	 	6.51891E23	 	3.72968E-24	 	-13445.404	25.33525	 
220.0	1.0	0.0	8.50286	7.0027	-11.8681	12.11905	13.24072	0.9125	1.09589	194.76895	178.1565	73.89972	0.31779	 	1.2505800000000001E24	 	1.92466E-24	 	-13571.85476	25.29015	 
215.0	1.0	0.0	8.50452	7.00133	-11.88524	12.09445	13.17288	0.9079	1.10144	195.02223	178.25817	74.00328	0.31766	 	2.43134E24	 	9.79927E-25	 	-13698.07967	25.24498	 
210.0	1.0	0.0	8.50616	6.99998	-11.90231	12.06984	13.10488	0.90326	1.1071	195.27497	178.35926	74.10666	0.31753	 	4.7924300000000003E24	 	4.92054E-25	 	-13824.07838	25.19974	 
205.0	1.0	0.0	8.50781	6.99863	-11.91931	12.04522	13.03672	0.89859	1.11285	195.52717	178.45976	74.20984	0.31739	 	9.58141E24	 	2.43569E-25	 	-13949.85047	25.15442	 
200.0	1.0	0.0	8.50944	6.99728	-11.93626	12.0206	12.96838	0.89388	1.11872	195.77882	178.55969	74.31284	0.31726	 	1.94385E25	 	1.18802E-25	 	-14075.39547	25.109	 
195.0	1.0	0.0	8.51107	6.99594	-11.95313	11.99597	12.89986	0.88913	1.12469	196.02994	178.65903	74.41565	0.31713	 	4.0036600000000005E25	 	5.70709E-26	 	-14200.71293	25.06349	 
190.0	1.0	0.0	8.5127	6.9946	-11.96995	11.97133	12.83116	0.88435	1.13078	196.28051	178.7578	74.51827	0.317	 	8.375810000000001E25	 	2.69887E-26	 	-14325.80231	25.01788	 
185.0	1.0	0.0	8.51432	6.99327	-11.9867	11.94669	12.76226	0.87952	1.13698	196.53054	178.85599	74.6207	0.31686	 	1.7807100000000002E26	 	1.25574E-26	 	-14450.66308	24.97215	 
180.0	1.0	0.0	8.51593	6.99195	-12.00338	11.92203	12.69317	0.87466	1.14331	196.78003	178.95361	74.72295	0.31673	 	3.84937E26	 	5.74564E-27	 	-14575.29462	24.92631	 
175.0	1.0	0.0	8.51754	6.99063	-12.02	11.89737	12.62388	0.86975	1.14975	197.02897	179.05065	74.825	0.3166	 	8.46558E26	 	2.58377E-27	 	-14699.69631	24.88034	 
170.0	1.0	0.0	8.51915	6.98931	-12.03656	11.8727	12.55438	0.86481	1.15632	197.27737	179.14713	74.92687	0.31647	 	1.8951599999999998E27	 	1.14128E-27	 	-14823.86748	24.83423	 
165.0	1.0	0.0	8.52074	6.988	-12.05305	11.84802	12.48465	0.85983	1.16302	197.52523	179.24302	75.02855	0.31633	 	4.3214E27	 	4.94863E-28	 	-14947.80738	24.78798	 
160.0	1.0	0.0	8.52234	6.98669	-12.06948	11.82334	12.4147	0.85481	1.16985	197.77255	179.33835	75.13003	0.3162	 	1.00431E28	 	2.10503E-28	 	-15071.51525	24.74157	 
155.0	1.0	0.0	8.52392	6.98539	-12.08584	11.79864	12.34451	0.84974	1.17683	198.01932	179.43312	75.23133	0.31607	 	2.38047E28	 	8.77848E-29	 	-15194.99026	24.695	 
150.0	1.0	0.0	8.5255	6.9841	-12.10214	11.77394	12.27408	0.84464	1.18394	198.26556	179.52731	75.33244	0.31594	 	5.7586E28	 	3.58644E-29	 	-15318.23151	24.64825	 
145.0	1.0	0.0	8.52708	6.98281	-12.11838	11.74923	12.2034	0.83949	1.19119	198.51125	179.62094	75.43336	0.31581	 	1.4228100000000001E29	 	1.43441E-29	 	-15441.23808	24.60131	 
140.0	1.0	0.0	8.52865	6.98152	-12.13454	11.72452	12.13245	0.83431	1.1986	198.75639	179.714	75.53409	0.31567	 	3.5932100000000006E29	 	5.61192E-30	 	-15564.00895	24.55417	 
135.0	1.0	0.0	8.53021	6.98025	-12.15065	11.69979	12.06123	0.82908	1.20616	199.001	179.8065	75.63463	0.31554	 	9.282770000000001E29	 	2.146E-30	 	-15686.54306	24.50682	 
130.0	1.0	0.0	8.53177	6.97897	-12.16669	11.67506	11.98972	0.8238	1.21388	199.24506	179.89843	75.73498	0.31541	 	2.45525E30	 	8.01414E-31	 	-15808.83926	24.45924	 
125.0	1.0	0.0	8.53332	6.9777	-12.18266	11.65032	11.91792	0.81849	1.22177	199.48857	179.98981	75.83514	0.31528	 	6.65465E30	 	2.92017E-31	 	-15930.89635	24.41142	 
120.0	1.0	0.0	8.53487	6.97644	-12.19857	11.62558	11.84581	0.81313	1.22982	199.73155	180.08062	75.93511	0.31515	 	1.84998E31	 	1.03724E-31	 	-16052.71303	24.36334	 
115.0	1.0	0.0	8.53641	6.97518	-12.21442	11.60082	11.77338	0.80773	1.23804	199.97398	180.17088	76.03489	0.31501	 	5.2801999999999995E31	 	3.58786E-32	 	-16174.28793	24.31498	 
110.0	1.0	0.0	8.53794	6.97392	-12.2302	11.57606	11.70062	0.80228	1.24645	200.21587	180.26058	76.13449	0.31488	 	1.5488899999999999E32	 	1.20735E-32	 	-16295.6196	24.26633	 
105.0	1.0	0.0	8.53947	6.97268	-12.24592	11.55129	11.6275	0.79679	1.25504	200.45721	180.34972	76.23389	0.31475	 	4.6746699999999995E32	 	3.94821E-33	 	-16416.70646	24.21737	 
100.0	1.0	0.0	8.54099	6.97143	-12.26157	11.52651	11.55403	0.79125	1.26382	200.69802	180.43831	76.3331	0.31462	 	1.45324E33	 	1.25324E-33	 	-16537.54688	24.16808	 
95.0	1.0	0.0	8.54251	6.97019	-12.27715	11.50172	11.48017	0.78567	1.27279	200.93827	180.52634	76.43212	0.31449	 	4.6591200000000003E33	 	3.85663E-34	 	-16658.13909	24.11844	 
90.0	1.0	0.0	8.54402	6.96896	-12.29267	11.47693	11.40592	0.78005	1.28197	201.17799	180.61382	76.53094	0.31436	 	1.54242E34	 	1.14913E-34	 	-16778.48123	24.06843	 
85.0	1.0	0.0	8.54553	6.96773	-12.30813	11.45213	11.33125	0.77438	1.29136	201.41716	180.70075	76.62958	0.31423	 	5.279800000000001E34	 	3.31081E-35	 	-16898.5713	24.01801	 
80.0	1.0	0.0	8.54703	6.96651	-12.32352	11.42732	11.25615	0.76866	1.30096	201.65578	180.78713	76.72803	0.31409	 	1.8714E35	 	9.21043E-36	 	-17018.40718	23.96718	 
75.0	1.0	0.0	8.54852	6.96529	-12.33885	11.4025	11.18059	0.7629	1.31079	201.89387	180.87296	76.82629	0.31396	 	6.87858E35	 	2.47033E-36	 	-17137.98661	23.91589	 
70.0	1.0	0.0	8.55001	6.96408	-12.35411	11.37768	11.10456	0.75709	1.32084	202.13141	180.95824	76.92435	0.31383	 	2.6260699999999997E36	 	6.37771E-37	 	-17257.30721	23.86412	 
65.0	1.0	0.0	8.55149	6.96287	-12.3693	11.35284	11.02803	0.75124	1.33114	202.3684	181.04297	77.02223	0.3137	 	1.0430799999999999E37	 	1.58226E-37	 	-17376.3664	23.81184	 
60.0	1.0	0.0	8.55297	6.96167	-12.38444	11.328	10.95098	0.74534	1.34167	202.60485	181.12716	77.11991	0.31357	 	4.3183E37	 	3.76542E-38	 	-17495.16146	23.75901	 
55.0	1.0	0.0	8.55444	6.96047	-12.3995	11.30316	10.87337	0.73939	1.35246	202.84076	181.2108	77.2174	0.31344	 	1.86685E38	 	8.57927E-39	 	-17613.68951	23.70561	 
50.0	1.0	0.0	8.55591	6.95928	-12.4145	11.2783	10.79519	0.7334	1.36352	203.07612	181.2939	77.3147	0.31331	 	8.4446E38	 	1.86772E-39	 	-17731.94744	23.65159	 
45.0	1.0	0.0	8.55737	6.95809	-12.42944	11.25344	10.7164	0.72736	1.37484	203.31094	181.37646	77.41181	0.31318	 	4.0054600000000003E39	 	3.87674E-40	 	-17849.93196	23.5969	 
40.0	1.0	0.0	8.55882	6.95691	-12.44431	11.22857	10.63697	0.72127	1.38643	203.54521	181.45848	77.50873	0.31305	 	1.99671E40	 	7.65463E-41	 	-17967.63957	23.54152	 
35.0	1.0	0.0	8.56027	6.95574	-12.45911	11.20369	10.55686	0.71514	1.39832	203.77894	181.53995	77.60545	0.31292	 	1.0486200000000001E41	 	1.43427E-41	 	-18085.0665	23.48539	 
30.0	1.0	0.0	8.56171	6.95456	-12.47385	11.17879	10.47604	0.70897	1.4105	204.01212	181.62089	77.70199	0.31279	 	5.81677E41	 	2.54368E-42	 	-18202.20876	23.42845	 
25.0	1.0	0.0	8.56314	6.9534	-12.48853	 	10.39447	0.70275	1.42299	204.24476	181.70129	77.79833	0.31266	 	3.41744E42	 	4.25814E-43	 	-18319.06207	 	 
