T (C)	Fraction solid (wt)-TOTAL	Fraction liquid (wt)-LIQUID	Density (g/(cm)^3)-TOTAL	Molar volume (cm^3)-TOTAL	Volume change (%)-  	Average expansion coeff. (10e-6 1/K)-  	Thermal conductivity (W/(m*K))-TOTAL	Electrical resistivity (10e-6 Ohm*m)-TOTAL	Electrical conductivity (10e6 1/(Ohm*m))-TOTAL	Young's modulus (GPa)-TOTAL	Bulk modulus (GPa)-TOTAL	Shear modulus(GPa)-TOTAL	Poisson's ratio-TOTAL	Liquid viscosity (mPa s)-  	Total viscosity (mPa s)-  	Liquid diffusivity (10e-9 (m^2)/s)-  	Total diffusivity (10e-9 (m^2)/s)-  	Surface Tension (mN/m)-  	Enthalpy (J/mole)-TOTAL	Specific heat (J/(mole K))-TOTAL	Latent heat (J/mole)-TOTAL
1400.0	0.0	1.0	7.53989	7.92162	0.0	33.91141	32.59626	1.25757	0.79518	0.0	124.38249	0.0	0.5	7.23427	7.23427	1.12883	1.12883	1866.91495	40716.278	 	0.0
1395.0	0.0	1.0	7.54428	7.91702	-0.0580924	33.87405	32.51242	1.25705	0.79551	0.0	124.51595	0.0	0.5	7.31387	7.31387	1.1132	1.1132	1870.4274	40516.159	40.0238	0.0
1390.0	0.0	1.0	7.54865	7.91243	-0.11602	33.83689	32.42859	1.25652	0.79585	0.0	124.64942	0.0	0.5	7.39483	7.39483	1.09772	1.09772	1873.95169	40316.489	39.934	0.0
1385.0	0.0	1.0	7.55302	7.90786	-0.17379	33.7999	32.34475	1.25599	0.79618	0.0	124.78288	0.0	0.5	7.47719	7.47719	1.08236	1.08236	1877.48783	40117.265	39.8448	0.0
1380.0	0.0	1.0	7.55738	7.90329	-0.23139	33.76311	32.26091	1.25546	0.79652	0.0	124.91635	0.0	0.5	7.56097	7.56097	1.06714	1.06714	1881.03585	39918.483	39.7564	0.0
1376.75	0.0	1.0	7.56021	7.90034	-0.26873	33.73929	32.20642	1.25511	0.79674	0.0	125.00309	0.0	0.5	7.61619	7.61619	1.05732	1.05732	1883.34817	39789.527	39.68341	0.0
1375.0	0.0663404	0.93366	7.58417	7.87538	-0.5838	32.89626	32.36044	1.24781	0.8014	0.00184695	126.95103	6.18902E-4	0.49211	7.64116	8.576	1.05275	0.93799	1883.68795	38694.394	625.65443	1025.749
1370.0	0.23642	0.76358	7.64643	7.81124	-1.39342	30.7314	32.76015	1.22885	0.81377	0.30856	131.86906	0.10484	0.4716	7.71638	50.37554	1.03932	0.1592	1884.65675	35885.428	561.7932	3636.811
1365.0	0.36982	0.63018	7.69652	7.76044	-2.03478	29.02747	33.07169	1.21357	0.82402	1.90067	135.72036	0.65306	0.45519	7.79589	262.11806	1.02559	0.0305031	1885.55751	33660.893	444.907	5663.875
1360.0	0.4758	0.5242	7.73726	7.71953	-2.55119	27.66639	33.31463	1.20104	0.83261	5.32939	138.77859	1.848	0.44194	7.87951	730.33568	1.01161	0.0109142	1886.39348	31873.302	357.5182	7254.426
1355.0	0.56097	0.43903	7.77076	7.68627	-2.97098	26.57114	33.50288	1.19063	0.83989	10.49507	141.24458	3.66672	0.43113	7.9672	1466.19095	0.99741	0.00541989	1887.16446	30416.191	291.4222	8514.924
1350.0	0.63011	0.36989	7.79862	7.65873	-3.31868	25.67433	33.64625	1.18192	0.84608	16.9765	143.25875	5.96829	0.42222	8.05891	2440.46865	0.98304	0.00324618	1887.87656	29211.786	240.881	9523.142
1345.0	0.68675	0.31325	7.82201	7.63578	-3.60841	24.93758	33.75285	1.17456	0.85138	24.28153	144.92715	8.58103	0.41484	8.15457	3611.32269	0.96851	0.00218695	1888.52867	28202.621	201.833	10336.543
1340.0	0.73351	0.26649	7.84183	7.61637	-3.85336	24.32464	33.82895	1.16829	0.85595	31.97533	146.32662	11.34956	0.40866	8.25419	4938.61689	0.95387	0.00159425	1889.12556	27345.776	171.369	10998.041
1335.0	0.77242	0.22758	7.85876	7.59982	-4.06233	23.81137	33.87989	1.16292	0.8599	39.72391	147.51528	14.1522	0.40345	8.35759	6390.25425	0.93914	0.00122827	1889.66851	26608.87	147.3812	11540.018
1330.0	0.805	0.195	7.87337	7.58555	-4.24246	23.37815	33.90988	1.15828	0.86335	47.28965	148.5372	16.90081	0.39904	8.46491	7942.48309	0.92435	9.85155E-4	1890.16	25967.232	128.3276	11987.14
1325.0	0.83246	0.16754	7.88607	7.57313	-4.39921	23.0099	33.92249	1.15424	0.86637	54.51916	149.42588	19.53727	0.39526	8.57604	9579.63533	0.90953	8.14245E-4	1890.60221	25401.892	113.068	12358.375
1320.0	0.85573	0.14427	7.89719	7.56225	-4.53664	22.69551	33.92059	1.15069	0.86904	61.32161	150.20746	22.02619	0.39202	8.691	11292.62201	0.89469	6.88571E-4	1890.99587	24898.136	100.7512	12668.432
1315.0	0.87558	0.12442	7.90702	7.55259	-4.65856	22.42439	33.90656	1.14756	0.87142	67.65771	150.90239	24.3512	0.38921	8.80988	13078.2677	0.87985	5.92691E-4	1891.34457	24444.458	90.7356	12928.818
1310.0	0.89257	0.10743	7.91579	7.54395	-4.76758	22.18926	33.88238	1.14476	0.87355	73.51779	151.5266	26.50705	0.38676	8.93266	14937.43795	0.86502	5.17288E-4	1891.64944	24031.788	82.534	13148.598
1305.0	0.9072	0.0927993	7.92365	7.53618	-4.86574	21.98457	33.8496	1.14225	0.87547	78.90535	152.09244	28.49359	0.38462	9.05938	16872.69402	0.85023	4.5651E-4	1891.91155	23652.922	75.7732	13334.974
1300.0	0.91986	0.0801435	7.93075	7.52912	-4.95485	21.80524	33.80956	1.13998	0.87721	83.84334	152.6099	30.3181	0.38273	9.18997	18890.06878	0.83549	4.06465E-4	1892.13275	23302.099	70.1646	13493.704
1295.96	0.92876	0.0712399	7.93599	7.52389	-5.0209	21.67707	33.77239	1.1383	0.8785	87.49182	152.99688	31.66847	0.38137	9.29825	20578.90295	0.82364	3.7215E-4	1892.27506	23037.093	 	13603.823
1295.0	0.93082	0.0691841	7.93731	7.52256	-5.0376	21.64351	33.75297	1.13826	0.87853	88.37246	153.09084	31.99502	0.38103	9.32782	21002.16119	0.82053	3.64427E-4	1892.39903	22971.515	66.1168	13632.591
1290.0	0.94086	0.0591385	7.94387	7.51598	-5.12073	21.47934	33.6541	1.13796	0.87876	92.79088	153.56161	33.63515	0.37937	9.48459	23283.63509	0.80439	3.2767E-4	1893.05862	22640.752	66.1526	13772.048
1285.0	0.94941	0.0505936	7.94975	7.51002	-5.19589	21.33793	33.55949	1.13752	0.8791	96.72836	153.99389	35.09926	0.37793	9.6449	25655.23189	0.78849	2.96429E-4	1893.6819	22333.406	61.4692	13888.478
1280.0	0.95673	0.0432659	7.95507	7.50459	-5.26443	21.21543	33.46822	1.13696	0.87954	100.25103	154.39516	36.41116	0.37665	9.80882	28132.98328	0.77283	2.69454E-4	1894.26806	22044.974	57.6864	13986.381
1275.0	0.96307	0.036935	7.95994	7.49959	-5.32763	21.10819	33.37959	1.13631	0.88004	103.41763	154.7709	37.59214	0.37552	9.97637	30733.36159	0.7574	2.45861E-4	1894.81951	21771.974	54.6	14069.237
1270.0	0.96858	0.031425	7.96445	7.49493	-5.38649	21.01332	33.29305	1.13559	0.8806	106.27869	155.12569	38.6606	0.37451	10.14771	33473.61743	0.74221	2.25005E-4	1895.3381	21511.682	52.0584	14139.766
1265.0	0.9734	0.0265997	7.96864	7.49055	-5.44172	20.92883	33.20818	1.1348	0.88121	108.87583	155.46253	39.63173	0.37359	10.32284	36370.58337	0.72725	2.06412E-4	1895.825	21261.947	49.947	14200.118
1260.0	0.97765	0.0223457	7.97258	7.48642	-5.4939	20.85301	33.12464	1.13396	0.88186	111.2455	155.78432	40.51886	0.37276	10.50179	39442.75843	0.71254	1.89716E-4	1896.27908	21021.052	48.179	14252.008
1255.0	0.98143	0.0185739	7.9763	7.48248	-5.54364	20.78414	33.04221	1.13309	0.88255	113.41911	156.09341	41.33354	0.372	10.68486	42709.52872	0.69805	1.74634E-4	1896.70378	20787.613	46.6878	14296.815
1250.0	0.98479	0.0152109	7.97984	7.47871	-5.59118	20.72153	32.96066	1.13217	0.88326	115.42147	156.39126	42.08487	0.37129	10.87201	46190.39238	0.68378	1.60945E-4	1897.09399	20560.509	45.4208	14335.662
1245.0	0.9878	0.0121958	7.98313	7.47492	-5.6391	20.6572	32.8498	1.13226	0.88319	117.31868	156.64725	42.79934	0.37057	11.06343	49907.17563	0.66975	1.4847E-4	1901.0545	20322.45216	47.61137	14369.465
1240.0	0.99052	0.00947745	7.98933	7.46919	-5.71134	20.5163	32.49176	1.14097	0.87645	119.60966	156.72573	43.67961	0.36917	11.2591	54547.63387	0.65594	1.35392E-4	1904.99722	19975.81959	69.32651	14398.983
1235.0	0.99299	0.00701415	7.99527	7.46346	-5.78371	20.37382	32.148	1.14936	0.87005	121.77026	156.80372	44.51172	0.36784	11.45896	59598.9704	0.64237	1.23507E-4	1908.92405	19637.05165	67.75359	14424.842
1230.0	0.99523	0.00477053	8.00097	7.45772	-5.85612	20.23002	31.81738	1.15745	0.86396	123.81412	156.88217	45.30059	0.36658	11.66346	65102.87534	0.62902	1.12691E-4	1912.83464	19305.49177	66.31198	14447.569
1225.0	0.99728	0.0027155	8.00644	7.45199	-5.9285	20.08515	31.49913	1.16526	0.85818	125.75464	156.96139	46.0511	0.36538	11.87248	71105.84789	0.61589	1.02834E-4	1916.72781	18980.56821	64.98471	14467.606
1220.0	1.0	0.0	8.0115	7.4458	-6.00666	19.92067	31.20162	1.17244	0.85292	128.07162	157.07641	46.94332	0.36411	 	77919.46856	 	9.35285E-5	 	18650.19692	66.07426	14496.915
1215.0	1.0	0.0	8.01639	7.44126	-6.06402	19.82123	30.89822	1.17999	0.84746	128.8909	157.08951	47.27335	0.36325	 	84580.87286	 	8.58739E-5	 	18332.5034	63.5387	 
1210.0	1.0	0.0	8.02121	7.43678	-6.12052	19.72368	30.60478	1.1873	0.84224	129.68334	157.09977	47.59303	0.36242	 	91864.89412	 	7.87993E-5	 	18049.57858	56.58496	 
1205.0	1.0	0.0	8.02597	7.43237	-6.1762	19.62798	30.32087	1.19438	0.83725	130.45052	157.10799	47.90295	0.36161	 	99834.29423	 	7.22646E-5	 	17769.94895	55.92593	 
1200.0	1.0	0.0	8.03067	7.42802	-6.23107	19.53405	30.04607	1.20123	0.83248	131.19391	157.11482	48.20363	0.36083	 	108558.6184	 	6.62322E-5	 	17493.50844	55.2881	 
1195.0	1.0	0.0	8.0353	7.42374	-6.28517	19.44184	29.77997	1.20785	0.82792	131.91483	157.12083	48.49558	0.36007	 	118114.9756	 	6.0667E-5	 	17220.15438	54.67081	 
1190.0	1.0	0.0	8.03988	7.41951	-6.33852	19.3513	29.52219	1.21425	0.82356	132.61453	157.12646	48.77925	0.35933	 	128588.9137	 	5.55357E-5	 	16949.78742	54.07339	 
1185.0	1.0	0.0	8.0444	7.41534	-6.39113	19.26236	29.27235	1.22042	0.81939	133.29416	157.1321	49.05506	0.35862	 	140075.4015	 	5.08074E-5	 	16682.31147	53.49519	 
1180.0	1.0	0.0	8.04886	7.41123	-6.44304	19.17498	29.03011	1.22639	0.8154	133.95477	157.13806	49.32343	0.35792	 	152679.9403	 	4.64532E-5	 	16417.63369	52.93556	 
1175.0	1.0	0.0	8.05327	7.40717	-6.49427	19.08909	28.79513	1.23214	0.81159	134.59736	157.14463	49.5847	0.35725	 	166519.8047	 	4.24458E-5	 	16155.66436	52.39387	 
1170.0	1.0	0.0	8.05763	7.40317	-6.54483	19.00466	28.56707	1.23769	0.80796	135.22287	157.15201	49.83925	0.35659	 	181725.4415	 	3.87599E-5	 	15896.31689	51.86949	 
1165.0	1.0	0.0	8.06194	7.39921	-6.59475	18.92163	28.34563	1.24304	0.80448	135.83215	157.16039	50.08739	0.35595	 	198442.0401	 	3.53718E-5	 	15639.5077	51.36184	 
1160.0	1.0	0.0	8.06619	7.39531	-6.64405	18.83995	28.13052	1.24819	0.80116	136.42602	157.16992	50.32942	0.35533	 	216831.3212	 	3.22594E-5	 	15385.15618	50.8703	 
1155.0	1.0	0.0	8.0704	7.39145	-6.69275	18.75958	27.92144	1.25315	0.79799	137.00526	157.18073	50.56565	0.35473	 	237073.5232	 	2.9402E-5	 	15133.1846	50.39432	 
1150.0	1.0	0.0	8.07457	7.38764	-6.74086	18.68046	27.71813	1.25792	0.79496	137.57057	157.19294	50.79635	0.35414	 	259369.6733	 	2.67805E-5	 	14883.51804	49.93331	 
1145.0	1.0	0.0	8.07869	7.38387	-6.7884	18.60257	27.52034	1.26251	0.79207	138.12265	157.20661	51.02178	0.35357	 	283944.1222	 	2.43768E-5	 	14636.08436	49.48674	 
1140.0	1.0	0.0	8.08276	7.38015	-6.83539	18.52585	27.32781	1.26692	0.78932	138.66214	157.22184	51.24217	0.35301	 	311047.45	 	2.21742E-5	 	14390.81402	49.05407	 
1135.0	1.0	0.0	8.08679	7.37647	-6.88185	18.45026	27.14032	1.27116	0.78668	139.18964	157.23867	51.45778	0.35246	 	340959.6956	 	2.01573E-5	 	14147.64008	48.63479	 
1130.0	1.0	0.0	8.09079	7.37283	-6.9278	18.37576	26.95765	1.27523	0.78417	139.70573	157.25716	51.66881	0.35193	 	373994.0653	 	1.83116E-5	 	13906.49813	48.22839	 
1125.0	1.0	0.0	8.09474	7.36923	-6.97324	18.30232	26.77957	1.27913	0.78178	140.21096	157.27734	51.87547	0.35142	 	410501.0985	 	1.66236E-5	 	13667.32615	47.8344	 
1120.0	1.0	0.0	8.09865	7.36567	-7.01819	18.2299	26.6059	1.28288	0.7795	140.70583	157.29926	52.07798	0.35091	 	450873.4055	 	1.5081E-5	 	13430.06447	47.45234	 
1115.0	1.0	0.0	8.10253	7.36214	-7.06268	18.15846	26.43643	1.28647	0.77732	141.19085	157.32292	52.27651	0.35042	 	495551.0292	 	1.36721E-5	 	13194.65567	47.08176	 
1110.0	1.0	0.0	8.10637	7.35866	-7.1067	18.08797	26.271	1.28991	0.77525	141.66648	157.34836	52.47125	0.34994	 	545027.5428	 	1.23862E-5	 	12961.04453	46.72223	 
1105.0	1.0	0.0	8.11017	7.35521	-7.15028	18.01839	26.10943	1.2932	0.77328	142.13316	157.37559	52.66237	0.34948	 	599856.9688	 	1.12134E-5	 	12729.17791	46.37332	 
1100.0	1.0	0.0	8.11394	7.35179	-7.19343	17.9497	25.95155	1.29635	0.7714	142.59131	157.40461	52.85003	0.34902	 	660661.6434	 	1.01444E-5	 	12499.00472	46.03464	 
1095.0	1.0	0.0	8.11768	7.3484	-7.23615	17.88185	25.79721	1.29935	0.76961	143.04134	157.43544	53.03439	0.34857	 	728141.1673	 	9.17075E-6	 	12270.47579	45.70579	 
1090.0	1.0	0.0	8.12139	7.34505	-7.27847	17.81482	25.64626	1.30222	0.76792	143.48361	157.46808	53.21561	0.34813	 	803082.6036	 	8.28457E-6	 	12043.54385	45.38639	 
1085.0	1.0	0.0	8.12506	7.34173	-7.32039	17.74859	25.49856	1.30496	0.76631	143.91851	157.50253	53.39381	0.34771	 	886372.0814	 	7.47857E-6	 	11818.16342	45.07609	 
1080.0	1.0	0.0	8.1287	7.33844	-7.36193	17.68312	25.35398	1.30757	0.76478	144.34636	157.5388	53.56915	0.34729	 	979008.0485	 	6.746E-6	 	11594.29076	44.77453	 
1075.0	1.0	0.0	8.13231	7.33518	-7.40309	17.61838	25.21239	1.31006	0.76333	144.76751	157.57687	53.74174	0.34688	 	1082116.377	 	6.08066E-6	 	11371.88378	44.4814	 
1070.0	1.0	0.0	8.1359	7.33195	-7.44388	17.55435	25.07367	1.31242	0.76195	145.18226	157.61674	53.91171	0.34648	 	1196967.649	 	5.47682E-6	 	11150.90201	44.19636	 
1065.0	1.0	0.0	8.13946	7.32874	-7.48432	17.491	24.93771	1.31466	0.76065	145.59091	157.65841	54.07918	0.34609	 	1324996.884	 	4.9292E-6	 	10931.30649	43.9191	 
1060.0	1.0	0.0	8.14298	7.32557	-7.52441	17.42832	24.80439	1.31679	0.75942	145.99376	157.70188	54.24426	0.34571	 	1467826.137	 	4.43293E-6	 	10713.05974	43.64935	 
1055.0	1.0	0.0	8.14649	7.32242	-7.56417	17.36627	24.67362	1.3188	0.75826	146.39106	157.74712	54.40706	0.34533	 	1627290.361	 	3.98354E-6	 	10496.12567	43.38681	 
1050.0	1.0	0.0	8.14996	7.3193	-7.6036	17.30483	24.54529	1.32071	0.75717	146.78309	157.79414	54.56768	0.34496	 	1805467.079	 	3.5769E-6	 	10280.46959	43.13122	 
1045.0	1.0	0.0	8.15341	7.3162	-7.6427	17.24398	24.41931	1.32251	0.75614	147.17009	157.84293	54.72623	0.3446	 	2004710.39	 	3.20922E-6	 	10066.05804	42.88231	 
1040.0	1.0	0.0	8.15684	7.31312	-7.6815	17.1837	24.29539	1.32421	0.75517	147.55229	157.89346	54.88279	0.34425	 	2227690.029	 	2.87704E-6	 	9852.85885	42.63984	 
1035.0	1.0	0.0	8.16024	7.31008	-7.71999	17.12397	24.17385	1.3258	0.75426	147.92993	157.94574	55.03746	0.3439	 	2477436.26	 	2.57716E-6	 	9640.84103	42.40356	 
1030.0	1.0	0.0	8.16362	7.30705	-7.75818	17.06477	24.0544	1.32729	0.75341	148.30321	157.99975	55.19032	0.34356	 	2757391.535	 	2.30666E-6	 	9429.97471	42.17327	 
1025.0	1.0	0.0	8.16698	7.30405	-7.79608	17.00607	23.93697	1.32868	0.75262	148.67131	158.05437	55.34107	0.34323	 	3071469.952	 	2.06284E-6	 	9220.2314	41.94866	 
1020.0	1.0	0.0	8.17031	7.30107	-7.8337	16.94787	23.82149	1.32998	0.75189	149.03652	158.11183	55.49056	0.3429	 	3424125.631	 	1.84326E-6	 	9011.58389	41.7295	 
1015.0	1.0	0.0	8.17362	7.29811	-7.87105	16.89014	23.70788	1.33119	0.75121	149.39798	158.17097	55.63849	0.34258	 	3820431.95	 	1.64566E-6	 	8804.0048	41.51582	 
1010.0	1.0	0.0	8.17691	7.29517	-7.90812	16.83286	23.59608	1.3323	0.75058	149.75585	158.2318	55.78492	0.34226	 	4266172.643	 	1.468E-6	 	8597.46835	41.30729	 
1005.0	1.0	0.0	8.18018	7.29226	-7.94493	16.77602	23.48603	1.33333	0.75	150.11033	158.29429	55.92992	0.34195	 	4767947.235	 	1.30839E-6	 	8391.94972	41.10373	 
1000.0	1.0	0.0	8.18343	7.28936	-7.98148	16.7196	23.37766	1.33427	0.74947	150.46156	158.35843	56.07356	0.34164	 	5333293.016	 	1.16512E-6	 	8187.42493	40.90496	 
995.0	1.0	0.0	8.18666	7.28648	-8.01779	16.66359	23.27091	1.33513	0.74899	150.80972	158.42422	56.2159	0.34134	 	5970826.228	 	1.03663E-6	 	7983.87086	40.71081	 
990.0	1.0	0.0	8.18987	7.28363	-8.05384	16.60797	23.16573	1.3359	0.74856	151.15495	158.49162	56.357	0.34105	 	6690405.699	 	9.21487E-7	 	7781.26521	40.52113	 
985.0	1.0	0.0	8.19306	7.28079	-8.08966	16.55272	23.06207	1.3366	0.74817	151.49739	158.56064	56.49693	0.34076	 	7503322.646	 	8.184E-7	 	7579.58642	40.33576	 
980.0	1.0	0.0	8.19624	7.27797	-8.12523	16.49783	22.95987	1.33721	0.74783	151.83719	158.63126	56.63574	0.34047	 	8422521.187	 	7.26186E-7	 	7378.81371	40.15454	 
975.0	1.0	0.0	8.19939	7.27517	-8.16058	16.44328	22.85909	1.33775	0.74753	152.17448	158.70346	56.77348	0.34019	 	9462854.49	 	6.43771E-7	 	7178.92699	39.97734	 
970.0	1.0	0.0	8.20253	7.27239	-8.1957	16.38907	22.75968	1.33821	0.74727	152.50939	158.77723	56.9102	0.33991	 	1.064138303E7	 	5.7018E-7	 	6979.90685	39.80403	 
965.0	1.0	0.0	8.20565	7.26963	-8.2306	16.33518	22.66159	1.33859	0.74705	152.84203	158.85256	57.04596	0.33964	 	1.197772184E7	 	5.04529E-7	 	6781.73455	39.63446	 
960.0	1.0	0.0	8.20875	7.26688	-8.26528	16.28159	22.56479	1.33891	0.74688	153.17254	158.92944	57.1808	0.33937	 	1.349444551E7	 	4.46013E-7	 	6584.39195	39.46852	 
955.0	1.0	0.0	8.21183	7.26415	-8.29975	16.22829	22.46923	1.33915	0.74674	153.50102	159.00784	57.31476	0.33911	 	1.521756075E7	 	3.93906E-7	 	6387.86154	39.30608	 
950.0	1.0	0.0	8.2149	7.26143	-8.33402	16.17528	22.37487	1.33932	0.74665	153.82758	159.08777	57.44791	0.33884	 	1.717705893E7	 	3.4755E-7	 	6192.12635	39.14704	 
945.0	1.0	0.0	8.21796	7.25874	-8.36807	16.12253	22.28167	1.33943	0.74659	154.15233	159.1692	57.58026	0.33859	 	1.94075619E7	 	3.06349E-7	 	5997.17	38.99127	 
940.0	1.0	0.0	8.22099	7.25605	-8.40193	16.07004	22.18961	1.33946	0.74657	154.47536	159.25212	57.71188	0.33833	 	2.194907872E7	 	2.69765E-7	 	5802.97662	38.83868	 
935.0	1.0	0.0	8.22402	7.25339	-8.43559	16.01779	22.09864	1.33943	0.74658	154.79678	159.33653	57.84279	0.33808	 	2.484789229E7	 	2.37311E-7	 	5609.53086	38.68915	 
930.0	1.0	0.0	8.22702	7.25074	-8.46906	15.96578	22.00874	1.33934	0.74664	155.11667	159.4224	57.97303	0.33783	 	2.815760046E7	 	2.0855E-7	 	5416.81782	38.54261	 
925.0	1.0	0.0	8.23002	7.2481	-8.50233	15.91399	21.91986	1.33918	0.74672	155.43512	159.50974	58.10264	0.33759	 	3.194033882E7	 	1.83087E-7	 	5224.82313	38.39894	 
920.0	1.0	0.0	8.23299	7.24548	-8.53542	15.86242	21.83199	1.33896	0.74685	155.75223	159.59852	58.23166	0.33735	 	3.626821875E7	 	1.60567E-7	 	5033.53282	38.25806	 
915.0	1.0	0.0	8.23596	7.24287	-8.56833	15.81105	21.74509	1.33868	0.74701	156.06807	159.68874	58.36012	0.33711	 	4.122502192E7	 	1.40669E-7	 	4842.93335	38.11989	 
910.0	1.0	0.0	8.23891	7.24028	-8.60106	15.75987	21.65913	1.33834	0.7472	156.38272	159.78038	58.48805	0.33688	 	4.690819655E7	 	1.23106E-7	 	4653.01164	37.98434	 
905.0	1.0	0.0	8.24184	7.2377	-8.63361	15.70887	21.57408	1.33793	0.74742	156.69626	159.87344	58.61549	0.33665	 	5.343121515E7	 	1.0762E-7	 	4463.75497	37.85133	 
900.0	1.0	0.0	8.24476	7.23514	-8.66598	15.65805	21.48993	1.33747	0.74768	157.00877	159.9679	58.74246	0.33642	 	6.092635927E7	 	9.39799E-8	 	4275.151	37.72079	 
895.0	1.0	0.0	8.24767	7.23259	-8.69819	15.60739	21.40664	1.33695	0.74797	157.32031	160.06375	58.86899	0.33619	 	6.954801626E7	 	8.19786E-8	 	4087.18776	37.59265	 
890.0	1.0	0.0	8.25056	7.23005	-8.73022	15.55688	21.32419	1.33638	0.74829	157.63096	160.16099	58.99512	0.33597	 	7.947658193E7	 	7.14304E-8	 	3899.85366	37.46682	 
885.0	1.0	0.0	8.25345	7.22752	-8.76209	15.50652	21.24257	1.33575	0.74865	157.94077	160.2596	59.12086	0.33574	 	9.092309307E7	 	6.21695E-8	 	3713.13739	37.34325	 
880.0	1.0	0.0	8.25632	7.22501	-8.7938	15.45629	21.16173	1.33506	0.74903	158.24982	160.35959	59.24625	0.33553	 	1.041347235E8	 	5.40477E-8	 	3527.02795	37.22189	 
875.0	1.0	0.0	8.25917	7.22251	-8.82535	15.40619	21.08168	1.33432	0.74945	158.55817	160.46092	59.37131	0.33531	 	1.194013263E8	 	4.69328E-8	 	3341.51463	37.10266	 
870.0	1.0	0.0	8.26202	7.22003	-8.85674	15.35621	21.00238	1.33352	0.74989	158.86587	160.56361	59.49607	0.3351	 	1.370632149E8	 	4.0707E-8	 	3156.58727	36.98547	 
865.0	1.0	0.0	8.26485	7.21755	-8.88797	15.30634	20.92381	1.33268	0.75037	159.17299	160.66763	59.62054	0.33488	 	1.575204439E8	 	3.52654E-8	 	2972.23579	36.8703	 
860.0	1.0	0.0	8.26767	7.21509	-8.91905	15.25658	20.84596	1.33178	0.75088	159.47957	160.77299	59.74476	0.33467	 	1.81243885E8	 	3.05148E-8	 	2788.45043	36.75707	 
855.0	1.0	0.0	8.27048	7.21264	-8.94997	15.2069	20.76881	1.33083	0.75141	159.78568	160.87967	59.86874	0.33447	 	2.087884659E8	 	2.63722E-8	 	2605.22165	36.64576	 
850.0	1.0	0.0	8.27327	7.2102	-8.98075	15.15732	20.69233	1.32982	0.75198	160.09137	160.98767	59.99251	0.33426	 	2.408090141E8	 	2.27642E-8	 	2422.54019	36.53629	 
845.0	1.0	0.0	8.27555	7.20822	-9.00573	15.13399	20.63351	1.32768	0.75319	160.40659	161.1734	60.11672	0.33413	 	2.738106743E8	 	1.99313E-8	 	2265.38009	31.43202	 
840.0	1.0	0.0	8.27781	7.20625	-9.03065	15.11064	20.57467	1.32552	0.75442	160.72135	161.35839	60.24078	0.33399	 	3.116944641E8	 	1.74306E-8	 	2105.21553	32.03291	 
835.0	1.0	0.0	8.28008	7.20428	-9.05552	15.08729	20.51583	1.32335	0.75566	161.03562	161.54264	60.36468	0.33386	 	3.552349317E8	 	1.52254E-8	 	1945.25523	31.99206	 
830.0	1.0	0.0	8.28233	7.20231	-9.08032	15.06393	20.45697	1.32117	0.7569	161.34942	161.72616	60.48842	0.33372	 	4.053377092E8	 	1.32832E-8	 	1785.49846	31.95135	 
825.0	1.0	0.0	8.28459	7.20035	-9.10506	15.04055	20.39811	1.31898	0.75816	161.66274	161.90894	60.61201	0.33359	 	4.630630749E8	 	1.15747E-8	 	1625.94447	31.9108	 
820.0	1.0	0.0	8.28684	7.1984	-9.12975	15.01717	20.33923	1.31677	0.75943	161.97559	162.091	60.73544	0.33345	 	5.296539954E8	 	1.00734E-8	 	1466.59248	31.8704	 
815.0	1.0	0.0	8.28909	7.19645	-9.15437	14.99377	20.28035	1.31456	0.76071	162.28795	162.27233	60.85872	0.33332	 	6.065695498E8	 	8.75578E-9	 	1307.44168	31.83016	 
810.0	1.0	0.0	8.29133	7.1945	-9.17894	14.97037	20.22145	1.31233	0.762	162.59985	162.45294	60.98184	0.33318	 	6.955248214E8	 	7.60086E-9	 	1148.49123	31.79009	 
805.0	1.0	0.0	8.29357	7.19256	-9.20345	14.94696	20.16255	1.31009	0.76331	162.91126	162.63282	61.1048	0.33305	 	7.985385797E8	 	6.58977E-9	 	989.74024	31.7502	 
800.0	1.0	0.0	8.2958	7.19062	-9.22789	14.92353	20.10363	1.30783	0.76462	163.2222	162.81198	61.22761	0.33291	 	9.179903552E8	 	5.7057E-9	 	831.18778	31.71049	 
795.0	1.0	0.0	8.29803	7.18869	-9.25228	14.90009	20.0447	1.30557	0.76595	163.53267	162.99042	61.35026	0.33278	 	1.05668886E9	 	4.93369E-9	 	672.83291	31.67097	 
790.0	1.0	0.0	8.30025	7.18677	-9.27661	14.87665	19.98576	1.30329	0.76729	163.84265	163.16814	61.47276	0.33264	 	1.217954127E9	 	4.2604E-9	 	514.67461	31.63166	 
785.0	1.0	0.0	8.30248	7.18484	-9.30088	14.85319	19.92681	1.30099	0.76864	164.15216	163.34515	61.5951	0.33251	 	1.405716277E9	 	3.67398E-9	 	356.71184	31.59255	 
780.0	1.0	0.0	8.30469	7.18293	-9.32509	14.82972	19.86785	1.29869	0.77001	164.4612	163.52144	61.71728	0.33238	 	1.624634454E9	 	3.16389E-9	 	198.94348	31.55367	 
775.0	1.0	0.0	8.3069	7.18101	-9.34924	14.80625	19.80887	1.29637	0.77138	164.76975	163.69702	61.83931	0.33224	 	1.880240264E9	 	2.7208E-9	 	41.3684	31.51502	 
770.0	1.0	0.0	8.30911	7.1791	-9.37333	14.78276	19.74988	1.29404	0.77277	165.07784	163.87189	61.96119	0.33211	 	2.179111063E9	 	2.33644E-9	 	-116.01462	31.4766	 
765.0	1.0	0.0	8.31132	7.1772	-9.39735	14.75926	19.69089	1.2917	0.77417	165.38544	164.04605	62.0829	0.33197	 	2.529079607E9	 	2.00348E-9	 	-273.20686	31.43845	 
760.0	1.0	0.0	8.31352	7.1753	-9.42132	14.73575	19.63187	1.28934	0.77559	165.69257	164.21951	62.20446	0.33184	 	2.93948813E9	 	1.71545E-9	 	-430.20963	31.40055	 
755.0	1.0	0.0	8.31571	7.17341	-9.44523	14.71223	19.57285	1.28697	0.77702	165.99922	164.39226	62.32586	0.3317	 	3.421496758E9	 	1.46665E-9	 	-587.02433	31.36294	 
750.0	1.0	0.0	8.3179	7.17152	-9.46908	14.68871	19.51381	1.28459	0.77846	166.3054	164.5643	62.44711	0.33157	 	3.988458507E9	 	1.25205E-9	 	-743.65243	31.32562	 
745.0	1.0	0.0	8.32009	7.16963	-9.49287	14.66517	19.45476	1.28219	0.77992	166.6111	164.73565	62.5682	0.33144	 	4.656376007E9	 	1.06721E-9	 	-900.09549	31.28861	 
740.0	1.0	0.0	8.32227	7.16775	-9.5166	14.64162	19.3957	1.27978	0.78139	166.91632	164.9063	62.68914	0.3313	 	5.444458719E9	 	9.08251E-10	 	-1056.35512	31.25193	 
735.0	1.0	0.0	8.32445	7.16588	-9.54027	14.61806	19.33663	1.27735	0.78287	167.22107	165.07624	62.80991	0.33117	 	6.375803925E9	 	7.7175E-10	 	-1212.43304	31.21558	 
730.0	1.0	0.0	8.32662	7.16401	-9.56388	14.59449	19.27754	1.27491	0.78437	167.52534	165.2455	62.93053	0.33103	 	7.478230465E9	 	6.54717E-10	 	-1368.33106	31.1796	 
725.0	1.0	0.0	8.32879	7.16214	-9.58743	14.5709	19.21843	1.27246	0.78588	167.82914	165.41406	63.051	0.3309	 	8.785301293E9	 	5.54531E-10	 	-1524.05106	31.144	 
720.0	1.0	0.0	8.33095	7.16028	-9.61092	14.54731	19.15931	1.26999	0.78741	168.13246	165.58193	63.1713	0.33077	 	1.03376E10	 	4.68903E-10	 	-1679.59508	31.1088	 
715.0	1.0	0.0	8.33311	7.15843	-9.63435	14.52371	19.10018	1.26751	0.78895	168.4353	165.7491	63.29145	0.33063	 	1.2184199999999998E10	 	3.95834E-10	 	-1834.96522	31.07403	 
710.0	1.0	0.0	8.33527	7.15658	-9.65772	14.5001	19.04104	1.26501	0.79051	168.73767	165.91559	63.41145	0.3305	 	1.4384699999999998E10	 	3.33585E-10	 	-1990.16373	31.0397	 
705.0	1.0	0.0	8.33742	7.15473	-9.68103	14.47648	18.98187	1.2625	0.79208	169.03956	166.08139	63.53128	0.33036	 	1.7011399999999998E10	 	2.80642E-10	 	-2145.19298	31.00585	 
700.0	1.0	0.0	8.33957	7.15289	-9.70428	14.45284	18.9227	1.25998	0.79366	169.34098	166.24651	63.65096	0.33023	 	2.01525E10	 	2.35688E-10	 	-2300.05546	30.9725	 
695.0	1.0	0.0	8.34171	7.15105	-9.72746	14.4292	18.86351	1.25744	0.79527	169.64191	166.41094	63.77049	0.3301	 	2.3915399999999996E10	 	1.97584E-10	 	-2454.75383	30.93967	 
690.0	1.0	0.0	8.34385	7.14922	-9.75059	14.40555	18.8043	1.25488	0.79689	169.94238	166.57469	63.88985	0.32996	 	2.8431399999999996E10	 	1.65341E-10	 	-2609.2909	30.90741	 
685.0	1.0	0.0	8.34598	7.14739	-9.77366	14.38188	18.74508	1.25231	0.79852	170.24236	166.73777	64.00906	0.32983	 	3.3861299999999996E10	 	1.38107E-10	 	-2763.66963	30.87575	 
680.0	1.0	0.0	8.34811	7.14557	-9.79666	14.35821	18.68584	1.24973	0.80018	170.54187	166.90016	64.12811	0.3297	 	4.04022E10	 	1.15144E-10	 	-2917.89319	30.84471	 
675.0	1.0	0.0	8.35023	7.14375	-9.81961	14.33453	18.62658	1.24712	0.80184	170.84091	167.06188	64.247	0.32956	 	4.829649999999999E10	 	9.58182E-11	 	-3071.96491	30.81434	 
670.0	1.0	0.0	8.35235	7.14194	-9.8425	14.31083	18.56731	1.24451	0.80353	171.13946	167.22292	64.36574	0.32943	 	5.784259999999999E10	 	7.95829E-11	 	-3225.88835	30.78469	 
665.0	1.0	0.0	8.35447	7.14013	-9.86532	14.28713	18.50802	1.24188	0.80523	171.43755	167.38329	64.48432	0.3293	 	6.94089E10	 	6.59696E-11	 	-3379.66725	30.75578	 
660.0	1.0	0.0	8.35658	7.13833	-9.88809	14.26341	18.44872	1.23923	0.80695	171.73515	167.54299	64.60274	0.32916	 	8.34508E10	 	5.45767E-11	 	-3533.29492	30.72553	 
655.0	1.0	0.0	8.35868	7.13653	-9.91079	14.23968	18.38939	1.23656	0.80869	172.03228	167.70202	64.721	0.32903	 	1.00533E11	 	4.50606E-11	 	-3686.71158	30.68333	 
650.0	1.0	0.0	8.36079	7.13473	-9.93343	14.21595	18.33005	1.23388	0.81045	172.32893	167.86038	64.83911	0.3289	 	1.21356E11	 	3.71276E-11	 	-3839.83799	30.62528	 
645.0	1.0	0.0	8.36288	7.13295	-9.95601	14.1922	18.27069	1.23119	0.81222	172.62511	168.01807	64.95706	0.32876	 	1.46793E11	 	3.05277E-11	 	-3992.67536	30.56747	 
640.0	1.0	0.0	8.36497	7.13116	-9.97853	14.16844	18.21132	1.22848	0.81402	172.92081	168.1751	65.07485	0.32863	 	1.77932E11	 	2.5048E-11	 	-4145.22489	30.50991	 
635.0	1.0	0.0	8.36706	7.12938	-10.00099	14.14468	18.15192	1.22575	0.81583	173.21604	168.33147	65.19248	0.3285	 	2.16135E11	 	2.05078E-11	 	-4297.48777	30.45258	 
630.0	1.0	0.0	8.36914	7.12761	-10.02339	14.1209	18.09251	1.223	0.81766	173.51078	168.48717	65.30995	0.32836	 	2.63105E11	 	1.6754E-11	 	-4449.46521	30.39549	 
625.0	1.0	0.0	8.37122	7.12584	-10.04573	14.09711	18.03307	1.22024	0.81951	173.80506	168.64222	65.42727	0.32823	 	3.20985E11	 	1.36569E-11	 	-4601.15849	30.33866	 
620.0	1.0	0.0	8.3733	7.12407	-10.06801	14.07331	17.97362	1.21746	0.82138	174.09885	168.79661	65.54443	0.3281	 	3.9247E11	 	1.11072E-11	 	-4752.56907	30.28212	 
615.0	1.0	0.0	8.37537	7.12231	-10.09023	14.0495	17.91414	1.21466	0.82327	174.39217	168.95034	65.66143	0.32797	 	4.80963E11	 	9.01283E-12	 	-4903.69799	30.22578	 
610.0	1.0	0.0	8.37743	7.12056	-10.11238	14.02568	17.85465	1.21185	0.82518	174.68502	169.10342	65.77827	0.32783	 	5.90768E11	 	7.29633E-12	 	-5054.54646	30.16969	 
605.0	1.0	0.0	8.37949	7.11881	-10.13448	14.00185	17.79513	1.20902	0.82712	174.97738	169.25584	65.89496	0.3277	 	7.27343E11	 	5.89273E-12	 	-5205.11565	30.11384	 
600.0	1.0	0.0	8.38154	7.11706	-10.15651	13.97801	17.7356	1.20617	0.82907	175.26927	169.40761	66.01149	0.32757	 	8.97627E11	 	4.74766E-12	 	-5355.40677	30.05822	 
595.0	1.0	0.0	8.38359	7.11532	-10.17848	13.95416	17.67604	1.20331	0.83104	175.56069	169.55874	66.12785	0.32743	 	1.11047E12	 	3.81572E-12	 	-5505.42097	30.00284	 
590.0	1.0	0.0	8.38564	7.11359	-10.20039	13.9303	17.61646	1.20042	0.83304	175.85163	169.70921	66.24406	0.3273	 	1.37716E12	 	3.05906E-12	 	-5655.15945	29.9477	 
585.0	1.0	0.0	8.38768	7.11186	-10.22224	13.90643	17.55686	1.19752	0.83506	176.14209	169.85904	66.36011	0.32717	 	1.7122E12	 	2.44623E-12	 	-5804.62339	29.89279	 
580.0	1.0	0.0	8.38972	7.11013	-10.24403	13.88255	17.49723	1.1946	0.8371	176.43208	170.00822	66.47601	0.32704	 	2.13418E12	 	1.95111E-12	 	-5953.81396	29.83811	 
575.0	1.0	0.0	8.39175	7.10841	-10.26576	13.85866	17.43758	1.19166	0.83917	176.72158	170.15676	66.59174	0.3269	 	2.66708E12	 	1.55211E-12	 	-6102.73234	29.78368	 
570.0	1.0	0.0	8.39378	7.10669	-10.28742	13.83476	17.37791	1.1887	0.84125	177.01062	170.30466	66.70732	0.32677	 	3.34187E12	 	1.23141E-12	 	-6251.37972	29.72948	 
565.0	1.0	0.0	8.3958	7.10498	-10.30903	13.81084	17.31822	1.18573	0.84336	177.29917	170.45192	66.82273	0.32664	 	4.19867E12	 	9.74308E-13	 	-6399.75724	29.6755	 
560.0	1.0	0.0	8.39781	7.10327	-10.33057	13.78692	17.2585	1.18273	0.8455	177.58726	170.59854	66.93799	0.32651	 	5.28962E12	 	7.68751E-13	 	-6547.8661	29.62177	 
555.0	1.0	0.0	8.39983	7.10157	-10.35205	13.76299	17.19875	1.17972	0.84766	177.87486	170.74452	67.05309	0.32637	 	6.68263E12	 	6.04851E-13	 	-6695.70746	29.56827	 
550.0	1.0	0.0	8.40183	7.09988	-10.37347	13.73904	17.13898	1.17668	0.84985	178.16199	170.88986	67.16803	0.32624	 	8.4665E12	 	4.74528E-13	 	-6843.28248	29.515	 
545.0	1.0	0.0	8.40384	7.09818	-10.39483	13.71509	17.07919	1.17363	0.85206	178.44864	171.03458	67.28281	0.32611	 	1.07576E13	 	3.71196E-13	 	-6990.59233	29.46197	 
540.0	1.0	0.0	8.40583	7.0965	-10.41612	13.69113	17.01936	1.17056	0.85429	178.73481	171.17865	67.39744	0.32598	 	1.37091E13	 	2.895E-13	 	-7137.63816	29.40917	 
535.0	1.0	0.0	8.40783	7.09482	-10.43736	13.66715	16.95951	1.16747	0.85656	179.02051	171.3221	67.5119	0.32584	 	1.75228E13	 	2.251E-13	 	-7284.42114	29.3566	 
530.0	1.0	0.0	8.40982	7.09314	-10.45853	13.64317	16.89964	1.16435	0.85884	179.30573	171.46492	67.6262	0.32571	 	2.2466E13	 	1.74485E-13	 	-7430.94243	29.30426	 
525.0	1.0	0.0	8.4118	7.09147	-10.47964	13.61917	16.83973	1.16122	0.86116	179.59048	171.60711	67.74035	0.32558	 	2.88934E13	 	1.34826E-13	 	-7577.20318	29.25215	 
520.0	1.0	0.0	8.41378	7.0898	-10.50069	13.59516	16.7798	1.15807	0.86351	179.87475	171.74868	67.85434	0.32545	 	3.72778E13	 	1.03846E-13	 	-7723.20454	29.20027	 
515.0	1.0	0.0	8.41575	7.08814	-10.52168	13.57115	16.71983	1.1549	0.86588	180.15854	171.88961	67.96816	0.32532	 	4.8251E13	 	7.9724E-14	 	-7868.94766	29.14862	 
510.0	1.0	0.0	8.41772	7.08648	-10.5426	13.54712	16.65984	1.1517	0.86828	180.44186	172.02993	68.08183	0.32518	 	6.26603E13	 	6.10013E-14	 	-8014.43369	29.09721	 
505.0	1.0	0.0	8.41968	7.08483	-10.56347	13.52309	16.59982	1.14849	0.87071	180.7247	172.16962	68.19534	0.32505	 	8.16465E13	 	4.65171E-14	 	-8159.66377	29.04602	 
500.0	1.0	0.0	8.42164	7.08318	-10.58427	13.49904	16.53977	1.14525	0.87317	181.00706	172.3087	68.30869	0.32492	 	1.0675E14	 	3.53493E-14	 	-8304.63906	28.99506	 
495.0	1.0	0.0	8.4236	7.08153	-10.60501	13.47498	16.47968	1.14199	0.87566	181.28894	172.44715	68.42187	0.32479	 	1.4006099999999998E14	 	2.6768E-14	 	-8449.36067	28.94432	 
490.0	1.0	0.0	8.42554	7.0799	-10.62568	13.45091	16.41957	1.13871	0.87818	181.57035	172.58499	68.5349	0.32466	 	1.84421E14	 	2.0197E-14	 	-8593.82976	28.89382	 
485.0	1.0	0.0	8.42749	7.07826	-10.6463	13.42683	16.35942	1.13541	0.88074	181.85129	172.72221	68.64777	0.32452	 	2.43713E14	 	1.51832E-14	 	-8738.04743	28.84354	 
480.0	1.0	0.0	8.42943	7.07664	-10.66685	13.40275	16.29923	1.13209	0.88332	182.13174	172.85881	68.76048	0.32439	 	3.23262E14	 	1.13714E-14	 	-8882.01485	28.79348	 
475.0	1.0	0.0	8.43136	7.07501	-10.68734	13.37865	16.23902	1.12874	0.88594	182.41172	172.99481	68.87303	0.32426	 	4.30399E14	 	8.48407E-15	 	-9025.73312	28.74365	 
470.0	1.0	0.0	8.43329	7.07339	-10.70777	13.35454	16.17877	1.12537	0.88859	182.69123	173.13019	68.98542	0.32413	 	5.75255E14	 	6.30526E-15	 	-9169.20336	28.69405	 
465.0	1.0	0.0	8.43521	7.07178	-10.72814	13.33042	16.11848	1.12198	0.89128	182.97025	173.26496	69.09765	0.324	 	7.71891E14	 	4.6674E-15	 	-9312.42671	28.64467	 
460.0	1.0	0.0	8.43713	7.07017	-10.74844	13.30629	16.05815	1.11857	0.894	183.2488	173.39912	69.20972	0.32387	 	1.0399E15	 	3.44101E-15	 	-9455.40426	28.59551	 
455.0	1.0	0.0	8.43905	7.06857	-10.76869	13.28215	15.99779	1.11513	0.89675	183.52687	173.53268	69.32163	0.32373	 	1.40672E15	 	2.52638E-15	 	-9598.13714	28.54658	 
450.0	1.0	0.0	8.44096	7.06697	-10.78887	13.258	15.9374	1.11167	0.89954	183.80447	173.66563	69.43338	0.3236	 	1.9109E15	 	1.84704E-15	 	-9740.62646	28.49786	 
445.0	1.0	0.0	8.44286	7.06538	-10.80898	13.23383	15.87696	1.10819	0.90237	184.08159	173.79797	69.54497	0.32347	 	2.60688E15	 	1.34456E-15	 	-9882.8733	28.44937	 
440.0	1.0	0.0	8.44476	7.06379	-10.82904	13.20966	15.81648	1.10468	0.90524	184.35823	173.92971	69.65639	0.32334	 	3.57186E15	 	9.74481E-16	 	-10024.87878	28.4011	 
435.0	1.0	0.0	8.44665	7.0622	-10.84903	13.18548	15.75597	1.10115	0.90814	184.63439	174.06085	69.76766	0.32321	 	4.91585E15	 	7.03093E-16	 	-10166.64399	28.35304	 
430.0	1.0	0.0	8.44854	7.06063	-10.86896	13.16129	15.69541	1.09759	0.91108	184.91008	174.19139	69.87877	0.32308	 	6.79636E15	 	5.04961E-16	 	-10308.17001	28.30521	 
425.0	1.0	0.0	8.45042	7.05905	-10.88883	13.13709	15.63481	1.09401	0.91407	185.18529	174.32133	69.98972	0.32295	 	9.43994E15	 	3.60966E-16	 	-10449.45779	28.25755	 
420.0	1.0	0.0	8.4523	7.05748	-10.90863	13.11287	15.57417	1.09041	0.91709	185.46002	174.45068	70.1005	0.32282	 	1.31741E16	 	2.56799E-16	 	-10590.50863	28.21017	 
415.0	1.0	0.0	8.45418	7.05592	-10.92837	13.08865	15.51348	1.08678	0.92015	185.73428	174.57942	70.21113	0.32268	 	1.84746E16	 	1.818E-16	 	-10731.32301	28.16287	 
410.0	1.0	0.0	8.45604	7.05436	-10.94805	13.06442	15.45275	1.08312	0.92326	186.00806	174.70758	70.32159	0.32255	 	2.60363E16	 	1.28063E-16	 	-10871.90107	28.11561	 
405.0	1.0	0.0	8.45791	7.05281	-10.96767	13.04017	15.39197	1.07944	0.92641	186.28136	174.83514	70.4319	0.32242	 	3.68791E16	 	8.97495E-17	 	-11012.24302	28.06839	 
400.0	1.0	0.0	8.45977	7.05126	-10.98722	13.01592	15.33114	1.07573	0.9296	186.55419	174.9621	70.54204	0.32229	 	5.25083E16	 	6.25706E-17	 	-11152.34903	28.0212	 
395.0	1.0	0.0	8.46162	7.04971	-11.00671	12.99165	15.27027	1.072	0.93284	186.82654	175.08848	70.65202	0.32216	 	7.51575E16	 	4.33899E-17	 	-11292.21928	27.97405	 
390.0	1.0	0.0	8.46347	7.04817	-11.02614	12.96738	15.20935	1.06824	0.93612	187.09841	175.21427	70.76184	0.32203	 	1.0816E17	 	2.99249E-17	 	-11431.85393	27.92693	 
385.0	1.0	0.0	8.46531	7.04664	-11.04551	12.94309	15.14838	1.06445	0.93945	187.3698	175.33947	70.8715	0.3219	 	1.56517E17	 	2.05235E-17	 	-11571.25313	27.87984	 
380.0	1.0	0.0	8.46715	7.04511	-11.06481	12.9188	15.08735	1.06064	0.94283	187.64072	175.46408	70.981	0.32177	 	2.27778E17	 	1.39955E-17	 	-11710.41704	27.83278	 
375.0	1.0	0.0	8.46898	7.04359	-11.08405	12.89449	15.02628	1.05679	0.94626	187.91115	175.58811	71.09034	0.32164	 	3.3341E17	 	9.48819E-18	 	-11849.34582	27.78576	 
370.0	1.0	0.0	8.4708	7.04207	-11.10322	12.87017	14.96515	1.05292	0.94974	188.18112	175.71155	71.19951	0.32151	 	4.90928E17	 	6.39413E-18	 	-11988.03959	27.73875	 
365.0	1.0	0.0	8.47263	7.04055	-11.12234	12.84585	14.90396	1.04903	0.95326	188.4506	175.83442	71.30853	0.32137	 	7.2726E17	 	4.28272E-18	 	-12126.49849	27.69178	 
360.0	1.0	0.0	8.47444	7.03904	-11.14139	12.82151	14.84272	1.0451	0.95684	188.71961	175.9567	71.41738	0.32124	 	1.08407E18	 	2.8506E-18	 	-12264.72264	27.64483	 
355.0	1.0	0.0	8.47625	7.03754	-11.16037	12.79716	14.78142	1.04115	0.96048	188.98814	176.0784	71.52607	0.32111	 	1.62624E18	 	1.88523E-18	 	-12402.71218	27.59791	 
350.0	1.0	0.0	8.47806	7.03604	-11.1793	12.7728	14.72005	1.03717	0.96416	189.25619	176.19952	71.6346	0.32098	 	2.4555E18	 	1.23862E-18	 	-12540.46719	27.551	 
345.0	1.0	0.0	8.47986	7.03455	-11.19816	12.74843	14.65863	1.03316	0.96791	189.52376	176.32007	71.74297	0.32085	 	3.73241E18	 	8.08335E-19	 	-12677.98778	27.50412	 
340.0	1.0	0.0	8.48166	7.03306	-11.21695	12.72405	14.59715	1.02912	0.97171	189.79086	176.44004	71.85117	0.32072	 	5.71221E18	 	5.23901E-19	 	-12815.27404	27.45725	 
335.0	1.0	0.0	8.48345	7.03157	-11.23569	12.69967	14.5356	1.02505	0.97557	190.05748	176.55943	71.95922	0.32059	 	8.80356E18	 	3.37163E-19	 	-12952.32607	27.41041	 
330.0	1.0	0.0	8.48523	7.0301	-11.25436	12.67527	14.47399	1.02095	0.97948	190.32362	176.67826	72.0671	0.32046	 	1.36655E19	 	2.1542E-19	 	-13089.14392	27.36357	 
325.0	1.0	0.0	8.48701	7.02862	-11.27296	12.65086	14.41231	1.01682	0.98346	190.58928	176.79651	72.17482	0.32033	 	2.13692E19	 	1.36618E-19	 	-13225.72766	27.31675	 
320.0	1.0	0.0	8.48878	7.02715	-11.29151	12.62644	14.35056	1.01266	0.9875	190.85447	176.91419	72.28238	0.3202	 	3.36684E19	 	8.59862E-20	 	-13362.07735	27.26994	 
315.0	1.0	0.0	8.49055	7.02569	-11.30999	12.602	14.28874	1.00846	0.99161	191.11917	177.0313	72.38977	0.32007	 	5.34582E19	 	5.36983E-20	 	-13498.19303	27.22314	 
310.0	1.0	0.0	8.49232	7.02423	-11.3284	12.57756	14.22684	1.00424	0.99578	191.3834	177.14784	72.49701	0.31994	 	8.55556E19	 	3.32674E-20	 	-13634.07473	27.17634	 
305.0	1.0	0.0	8.49407	7.02278	-11.34676	12.55311	14.16487	0.99999	1.00001	191.64716	177.26382	72.60408	0.31981	 	1.3804299999999998E20	 	2.04414E-20	 	-13769.72247	27.12955	 
300.0	1.0	0.0	8.49583	7.02133	-11.36505	12.52865	14.10283	0.9957	1.00432	191.91043	177.37923	72.71099	0.31968	 	2.2459899999999997E20	 	1.24551E-20	 	-13905.13627	27.08276	 
295.0	1.0	0.0	8.49757	7.01988	-11.38327	12.50418	14.0407	0.99138	1.00869	192.17323	177.49407	72.81773	0.31955	 	3.6857099999999997E20	 	7.52365E-21	 	-14040.3161	27.03597	 
290.0	1.0	0.0	8.49932	7.01844	-11.40143	12.4797	13.9785	0.98703	1.01314	192.43554	177.60836	72.92432	0.31942	 	6.101739999999999E20	 	4.50461E-21	 	-14175.26196	26.98917	 
285.0	1.0	0.0	8.50105	7.01701	-11.41953	12.4552	13.91621	0.98264	1.01766	192.69738	177.72208	73.03074	0.31929	 	1.01932E21	 	2.67257E-21	 	-14309.97382	26.94237	 
280.0	1.0	0.0	8.50278	7.01558	-11.43757	12.4307	13.85384	0.97823	1.02226	192.95875	177.83524	73.137	0.31916	 	1.71867E21	 	1.57086E-21	 	-14444.45162	26.89556	 
275.0	1.0	0.0	8.50451	7.01416	-11.45554	12.40619	13.79138	0.97377	1.02693	193.21963	177.94784	73.24309	0.31903	 	2.92561E21	 	9.1447E-22	 	-14578.69531	26.84874	 
270.0	1.0	0.0	8.50623	7.01274	-11.47345	12.38166	13.72882	0.96929	1.03169	193.48003	178.05988	73.34902	0.3189	 	5.02913E21	 	5.27125E-22	 	-14712.70481	26.8019	 
265.0	1.0	0.0	8.50794	7.01133	-11.49129	12.35713	13.66618	0.96477	1.03652	193.73996	178.17137	73.45479	0.31877	 	8.732560000000001E21	 	3.0078E-22	 	-14846.48002	26.75504	 
260.0	1.0	0.0	8.50965	7.00992	-11.50907	12.33258	13.60344	0.96021	1.04144	193.99941	178.2823	73.5604	0.31864	 	1.5320899999999998E22	 	1.69844E-22	 	-14980.02084	26.70816	 
255.0	1.0	0.0	8.51136	7.00852	-11.52678	12.30803	13.5406	0.95562	1.04644	194.25838	178.39268	73.66585	0.31851	 	2.71676E22	 	9.48839E-23	 	-15113.32714	26.66126	 
250.0	1.0	0.0	8.51306	7.00712	-11.54443	12.28346	13.47766	0.95099	1.05153	194.51687	178.50251	73.77113	0.31838	 	4.870489999999999E22	 	5.24252E-23	 	-15246.39876	26.61432	 
245.0	1.0	0.0	8.51475	7.00572	-11.56202	12.25889	13.41461	0.94633	1.05671	194.77489	178.61178	73.87624	0.31825	 	8.830529999999999E22	 	2.86388E-23	 	-15379.23554	26.56736	 
240.0	1.0	0.0	8.51644	7.00434	-11.57954	12.2343	13.35146	0.94163	1.06199	195.03242	178.7205	73.9812	0.31812	 	1.61971E23	 	1.5463E-23	 	-15511.8373	26.52035	 
235.0	1.0	0.0	8.51812	7.00295	-11.597	12.2097	13.2882	0.9369	1.06735	195.28948	178.82867	74.08599	0.31799	 	3.0065699999999998E23	 	8.24912E-24	 	-15644.20382	26.4733	 
230.0	1.0	0.0	8.5198	7.00157	-11.6144	12.1851	13.22482	0.93212	1.07282	195.54606	178.9363	74.19061	0.31786	 	5.6499499999999996E23	 	4.3465E-24	 	-15776.33487	26.42621	 
225.0	1.0	0.0	8.52147	7.0002	-11.63173	12.16048	13.16133	0.92731	1.07838	195.80216	179.04337	74.29508	0.31773	 	1.07527E24	 	2.26115E-24	 	-15908.23019	26.37906	 
220.0	1.0	0.0	8.52313	6.99883	-11.64899	12.13585	13.09771	0.92246	1.08405	196.05778	179.14991	74.39938	0.3176	 	2.07328E24	 	1.16093E-24	 	-16039.8895	26.33186	 
215.0	1.0	0.0	8.52479	6.99747	-11.6662	12.11122	13.03397	0.91758	1.08983	196.31292	179.25589	74.50351	0.31747	 	4.05172E24	 	5.88031E-25	 	-16171.31249	26.2846	 
210.0	1.0	0.0	8.52645	6.99611	-11.68333	12.08657	12.97009	0.91265	1.09571	196.56758	179.36134	74.60749	0.31734	 	8.02868E24	 	2.93714E-25	 	-16302.49883	26.23727	 
205.0	1.0	0.0	8.52809	6.99476	-11.70041	12.06191	12.90609	0.90769	1.1017	196.82177	179.46624	74.7113	0.31722	 	1.6138400000000002E25	 	1.44608E-25	 	-16433.44814	26.18986	 
200.0	1.0	0.0	8.52974	6.99341	-11.71741	12.03724	12.84195	0.90268	1.10781	197.07547	179.5706	74.81494	0.31709	 	3.2921800000000004E25	 	7.01458E-26	 	-16564.16004	26.14238	 
195.0	1.0	0.0	8.53137	6.99207	-11.73436	12.01256	12.77766	0.89764	1.11404	197.3287	179.67442	74.91842	0.31696	 	6.8190200000000005E25	 	3.35081E-26	 	-16694.63408	26.09481	 
190.0	1.0	0.0	8.53301	6.99073	-11.75124	11.98787	12.71323	0.89255	1.12039	197.58145	179.7777	75.02174	0.31683	 	1.4347900000000002E26	 	1.57551E-26	 	-16824.86981	26.04715	 
185.0	1.0	0.0	8.53463	6.9894	-11.76805	11.96317	12.64864	0.88742	1.12686	197.83372	179.88045	75.12489	0.3167	 	3.0683500000000004E26	 	7.28767E-27	 	-16954.86673	25.99938	 
180.0	1.0	0.0	8.53625	6.98808	-11.7848	11.93846	12.5839	0.88225	1.13346	198.08551	179.98265	75.22788	0.31657	 	6.672800000000001E26	 	3.31452E-27	 	-17084.6243	25.95152	 
175.0	1.0	0.0	8.53787	6.98675	-11.80149	11.91374	12.51899	0.87704	1.1402	198.33682	180.08433	75.3307	0.31644	 	1.47652E27	 	1.48139E-27	 	-17214.14194	25.90353	 
170.0	1.0	0.0	8.53948	6.98544	-11.81811	11.88901	12.45391	0.87179	1.14707	198.58765	180.18547	75.43336	0.31631	 	3.3262399999999996E27	 	6.50254E-28	 	-17343.41903	25.85542	 
165.0	1.0	0.0	8.54108	6.98413	-11.83467	11.86427	12.38866	0.86649	1.15408	198.838	180.28607	75.53586	0.31618	 	7.63342E27	 	2.8015E-28	 	-17472.4549	25.80717	 
160.0	1.0	0.0	8.54268	6.98282	-11.85116	11.83951	12.32323	0.86115	1.16124	199.08787	180.38615	75.63819	0.31605	 	1.78572E28	 	1.18389E-28	 	-17601.24885	25.75879	 
155.0	1.0	0.0	8.54427	6.98152	-11.86759	11.81475	12.25761	0.85577	1.16854	199.33727	180.48569	75.74035	0.31593	 	4.26116E28	 	4.90405E-29	 	-17729.80009	25.71025	 
150.0	1.0	0.0	8.54586	6.98022	-11.88395	11.78998	12.19179	0.85034	1.176	199.58618	180.5847	75.84235	0.3158	 	1.0379300000000001E29	 	1.98982E-29	 	-17858.10782	25.66155	 
145.0	1.0	0.0	8.54744	6.97893	-11.90025	11.7652	12.12578	0.84487	1.18362	199.83461	180.68319	75.94419	0.31567	 	2.58259E29	 	7.90248E-30	 	-17986.17118	25.61267	 
140.0	1.0	0.0	8.54901	6.97764	-11.91648	11.7404	12.05955	0.83935	1.1914	200.08257	180.78115	76.04586	0.31554	 	6.56939E29	 	3.06951E-30	 	-18113.98921	25.56361	 
135.0	1.0	0.0	8.55058	6.97636	-11.93265	11.7156	11.9931	0.83379	1.19935	200.33004	180.87858	76.14737	0.31541	 	1.70973E30	 	1.16514E-30	 	-18241.56093	25.51434	 
130.0	1.0	0.0	8.55215	6.97509	-11.94875	11.69078	11.92643	0.82818	1.20747	200.57704	180.97549	76.24871	0.31528	 	4.55655E30	 	4.31834E-31	 	-18368.88526	25.46487	 
125.0	1.0	0.0	8.5537	6.97382	-11.96479	11.66596	11.85952	0.82252	1.21578	200.82356	181.07187	76.34988	0.31515	 	1.24462E31	 	1.56134E-31	 	-18495.96109	25.41517	 
120.0	1.0	0.0	8.55526	6.97255	-11.98076	11.64113	11.79236	0.81681	1.22427	201.06959	181.16773	76.45089	0.31502	 	3.48767E31	 	5.50185E-32	 	-18622.78718	25.36522	 
115.0	1.0	0.0	8.5568	6.97129	-11.99667	11.61628	11.72495	0.81106	1.23295	201.31515	181.26307	76.55174	0.3149	 	1.00361E32	 	1.88765E-32	 	-18749.36225	25.31501	 
110.0	1.0	0.0	8.55834	6.97004	-12.01251	11.59142	11.65727	0.80526	1.24183	201.56022	181.35789	76.65242	0.31477	 	2.9687499999999997E32	 	6.29914E-33	 	-18875.68492	25.26453	 
105.0	1.0	0.0	8.55988	6.96879	-12.02829	11.56656	11.58932	0.79941	1.25091	201.80482	181.45219	76.75293	0.31464	 	9.03731E32	 	2.04226E-33	 	-19001.7537	25.21376	 
100.0	1.0	0.0	8.56141	6.96754	-12.044	11.54168	11.52107	0.79352	1.26021	202.04894	181.54597	76.85328	0.31451	 	2.83439E33	 	6.42554E-34	 	-19127.56704	25.16267	 
95.0	1.0	0.0	8.56293	6.9663	-12.05964	11.5168	11.45253	0.78757	1.26973	202.29257	181.63923	76.95347	0.31438	 	9.169930000000001E33	 	1.9595E-34	 	-19253.12326	25.11124	 
90.0	1.0	0.0	8.56445	6.96507	-12.07523	11.4919	11.38367	0.78157	1.27947	202.53573	181.73198	77.05349	0.31425	 	3.0641700000000003E34	 	5.78443E-35	 	-19378.42057	25.05946	 
85.0	1.0	0.0	8.56596	6.96384	-12.09074	11.46699	11.31448	0.77553	1.28945	202.77841	181.82421	77.15334	0.31413	 	1.05898E35	 	1.65068E-35	 	-19503.45706	25.0073	 
80.0	1.0	0.0	8.56747	6.96262	-12.10619	11.44207	11.24494	0.76943	1.29967	203.0206	181.91593	77.25302	0.314	 	3.7906599999999994E35	 	4.54706E-36	 	-19628.2307	24.95473	 
75.0	1.0	0.0	8.56897	6.9614	-12.12158	11.41715	11.17504	0.76328	1.31014	203.26232	182.00713	77.35254	0.31387	 	1.4075E36	 	1.20727E-36	 	-19752.7393	24.90172	 
70.0	1.0	0.0	8.57046	6.96018	-12.1369	11.39221	11.10477	0.75708	1.32087	203.50355	182.09782	77.4519	0.31374	 	5.429829999999999E36	 	3.0845E-37	 	-19876.98055	24.84825	 
65.0	1.0	0.0	8.57195	6.95898	-12.15215	11.36726	11.0341	0.75082	1.33187	203.74431	182.188	77.55109	0.31361	 	2.18003E37	 	7.57064E-38	 	-20000.95197	24.79428	 
60.0	1.0	0.0	8.57343	6.95777	-12.16734	11.3423	10.96301	0.74452	1.34315	203.98458	182.27768	77.65011	0.31349	 	9.12558E37	 	1.78183E-38	 	-20124.65091	24.73979	 
55.0	1.0	0.0	8.57491	6.95657	-12.18246	11.31733	10.89149	0.73816	1.35472	204.22437	182.36684	77.74896	0.31336	 	3.99031E38	 	4.01377E-39	 	-20248.07452	24.68472	 
50.0	1.0	0.0	8.57638	6.95538	-12.19752	11.29235	10.81951	0.73175	1.36659	204.46369	182.4555	77.84765	0.31323	 	1.8263300000000003E39	 	8.63597E-40	 	-20371.21978	24.62905	 
45.0	1.0	0.0	8.57784	6.95419	-12.21251	11.26736	10.74705	0.72529	1.37877	204.70252	182.54364	77.94618	0.3131	 	8.768330000000001E39	 	1.77093E-40	 	-20494.08344	24.57273	 
40.0	1.0	0.0	8.5793	6.95301	-12.22744	11.24236	10.67408	0.71877	1.39127	204.94087	182.63129	78.04453	0.31297	 	4.426E40	 	3.45325E-41	 	-20616.66202	24.51572	 
35.0	1.0	0.0	8.58075	6.95184	-12.2423	11.21735	10.60058	0.71219	1.40411	205.17874	182.71843	78.14272	0.31285	 	2.35463E41	 	6.38744E-42	 	-20738.9518	24.45796	 
30.0	1.0	0.0	8.5822	6.95066	-12.25709	11.19232	10.52651	0.70557	1.4173	205.41613	182.80506	78.24074	0.31272	 	1.3236699999999999E42	 	1.1178E-42	 	-20860.94878	24.3994	 
25.0	1.0	0.0	8.58364	6.9495	-12.27182	 	10.45185	0.69889	1.43084	205.65304	182.89119	78.3386	0.31259	 	7.8847E42	 	1.84559E-43	 	-20982.64869	 	 
