T (C)	Fraction solid (wt)-TOTAL	Fraction liquid (wt)-LIQUID	Density (g/(cm)^3)-TOTAL	Molar volume (cm^3)-TOTAL	Volume change (%)-  	Average expansion coeff. (10e-6 1/K)-  	Thermal conductivity (W/(m*K))-TOTAL	Electrical resistivity (10e-6 Ohm*m)-TOTAL	Electrical conductivity (10e6 1/(Ohm*m))-TOTAL	Young's modulus (GPa)-TOTAL	Bulk modulus (GPa)-TOTAL	Shear modulus(GPa)-TOTAL	Poisson's ratio-TOTAL	Liquid viscosity (mPa s)-  	Total viscosity (mPa s)-  	Liquid diffusivity (10e-9 (m^2)/s)-  	Total diffusivity (10e-9 (m^2)/s)-  	Surface Tension (mN/m)-  	Enthalpy (J/mole)-TOTAL	Specific heat (J/(mole K))-TOTAL	Latent heat (J/mole)-TOTAL
1400.0	0.0	1.0	7.56003	7.90624	0.0	33.79071	32.9847	1.24276	0.80466	0.0	124.59914	0.0	0.5	7.23215	7.23215	1.12916	1.12916	1863.45412	40542.458	 	0.0
1395.0	0.0	1.0	7.56442	7.90164	-0.0580959	33.75298	32.90033	1.24223	0.80501	0.0	124.73193	0.0	0.5	7.31184	7.31184	1.11351	1.11351	1866.86391	40342.108	40.07	0.0
1390.0	0.0	1.0	7.56881	7.89706	-0.11603	33.71543	32.81597	1.24169	0.80536	0.0	124.86473	0.0	0.5	7.3929	7.3929	1.098	1.098	1870.28502	40142.211	39.9794	0.0
1385.0	0.0	1.0	7.57319	7.8925	-0.17379	33.67806	32.7316	1.24115	0.80571	0.0	124.99753	0.0	0.5	7.47535	7.47535	1.08263	1.08263	1873.71749	39942.763	39.8896	0.0
1380.35	0.0	1.0	7.57726	7.88826	-0.22741	33.64345	32.65308	1.24064	0.80604	0.0	125.12112	0.0	0.5	7.55337	7.55337	1.06844	1.06844	1876.92238	39757.547	39.80118	0.0
1380.0	0.01352	0.98648	7.5822	7.88311	-0.29252	33.46955	32.68317	1.23924	0.80695	3.13816E-6	125.52059	1.04717E-6	0.49841	7.55804	7.6947	1.06755	1.04859	1876.96866	39533.835	645.68938	209.921
1375.0	0.19881	0.80119	7.65006	7.81314	-1.17752	31.10376	33.10266	1.21983	0.81979	0.15233	130.86686	0.0515909	0.47628	7.62911	29.57615	1.05441	0.27198	1877.68112	36477.528	611.2614	3067.669
1370.0	0.34293	0.65707	7.7043	7.75821	-1.87234	29.25737	33.42619	1.20436	0.83032	1.38977	135.00321	0.47637	0.45871	7.70491	194.28623	1.04087	0.0412783	1878.33575	34078.827	479.7402	5268.251
1365.0	0.45652	0.54348	7.74806	7.71434	-2.42713	27.79412	33.67604	1.19179	0.83908	4.47335	138.25024	1.54829	0.44461	7.7851	613.54869	1.02701	0.0130314	1878.9363	32167.951	382.1752	6981.443
1360.0	0.54714	0.45286	7.78384	7.67887	-2.8758	26.62177	33.86781	1.18142	0.84644	9.41664	140.83995	3.2852	0.43319	7.86976	1312.9413	1.01286	0.0060711	1879.4851	30623.202	308.9498	8328.943
1355.0	0.62021	0.37979	7.81334	7.64982	-3.24319	25.67274	34.01251	1.17279	0.85266	15.80896	142.93482	5.55148	0.42385	7.95856	2265.65163	0.9985	0.00350742	1879.98463	29356.309	253.3786	9399.017
1350.0	0.67967	0.32033	7.83796	7.62571	-3.54812	24.89556	34.11881	1.16555	0.85796	23.12475	144.65425	8.16468	0.41615	8.05162	3426.61519	0.98393	0.00231196	1880.43913	28302.512	210.7594	10256.425
1345.0	0.72849	0.27151	7.85867	7.6055	-3.80375	24.25435	34.19363	1.15942	0.8625	30.88879	146.08487	10.9555	0.40974	8.14876	4751.62903	0.9692	0.00166212	1880.8506	27413.787	177.745	10949.183
1340.0	0.76887	0.23113	7.87629	7.58833	-4.02096	23.71923	34.24246	1.15419	0.86641	38.73058	147.29102	13.78933	0.40437	8.25	6204.08231	0.95435	0.00126907	1881.22406	26654.149	151.9276	11513.276
1335.0	0.8025	0.1975	7.89138	7.57363	-4.20687	23.27077	34.26999	1.14968	0.8698	46.39189	148.32186	16.57049	0.39983	8.35522	7757.7505	0.93941	0.00101176	1881.56045	25996.37	131.5558	11975.928
1330.0	0.8307	0.1693	7.90442	7.56092	-4.36765	22.89202	34.27988	1.14578	0.87277	53.70263	149.21375	19.23472	0.39598	8.46439	9394.48209	0.92441	8.32891E-4	1881.86315	25419.653	115.3434	12357.936
1325.0	0.85449	0.14551	7.9158	7.54981	-4.50819	22.56949	34.27519	1.14236	0.87538	60.57084	149.99503	21.7461	0.39268	8.57752	11104.68268	0.90937	7.02422E-4	1882.13513	24907.968	102.337	12675.324
1320.0	0.87468	0.12532	7.9258	7.53999	-4.63235	22.29248	34.25831	1.13935	0.87769	66.94926	150.687	24.08526	0.38984	8.69459	12883.50749	0.89432	6.03544E-4	1882.38177	24448.86	91.8216	12940.546
1315.0	0.89191	0.10809	7.93467	7.53127	-4.74268	22.05405	34.2313	1.13667	0.87976	72.82616	151.30692	26.24605	0.38737	8.81562	14730.98412	0.87928	5.26195E-4	1882.601	24032.568	83.2584	13163.36
1310.0	0.90667	0.0933317	7.9426	7.52342	-4.84193	21.84654	34.19583	1.13427	0.88163	78.21845	151.86807	28.23324	0.38522	8.94051	16651.28271	0.86426	4.64046E-4	1882.79869	23651.385	76.2366	13351.469
1306.48	0.91569	0.0843062	7.94765	7.51839	-4.90553	21.71807	34.16602	1.13273	0.88282	81.6859	152.23136	29.51337	0.38388	9.03074	18041.01613	0.85373	4.27347E-4	1882.91249	23402.302	 	13464.789
1305.0	0.91962	0.0803762	7.95002	7.51602	-4.93553	21.65413	34.13188	1.1328	0.88277	83.27016	152.39434	30.09946	0.38325	9.07538	18676.69298	0.84873	4.12416E-4	1883.13936	23288.889	72.4992	13521.294
1300.0	0.9318	0.0681959	7.95753	7.5085	-5.03064	21.45574	34.02007	1.13292	0.88267	88.35441	152.91613	31.98285	0.38128	9.22948	20894.11931	0.83192	3.67479E-4	1883.94047	22922.97	73.1838	13694.942
1295.0	0.94197	0.0580277	7.96412	7.50185	-5.11485	21.2884	33.9146	1.13284	0.88274	92.82992	153.38771	33.64399	0.37959	9.38711	23176.68035	0.81535	3.30235E-4	1884.729	22588.541	66.8858	13837.495
1290.0	0.95054	0.0494563	7.96997	7.49587	-5.19044	21.14559	33.81405	1.13258	0.88294	96.78667	153.81958	35.11514	0.37813	9.54831	25541.39876	0.79903	2.98705E-4	1885.50704	22278.978	61.9126	13955.578
1285.0	0.95783	0.0421653	7.97525	7.49043	-5.25918	21.02231	33.71738	1.1322	0.88324	100.30183	154.21986	36.42418	0.37686	9.7133	28005.56275	0.78294	2.71551E-4	1886.27655	21989.295	57.9366	14054.172
1280.0	0.96409	0.0359148	7.98005	7.48544	-5.3223	20.91504	33.62375	1.13171	0.88362	103.44114	154.59411	37.59496	0.37573	9.88195	30585.9767	0.76711	2.47844E-4	1887.03851	21715.689	54.7212	14137.079
1275.0	0.96948	0.0305159	7.98447	7.48081	-5.38091	20.82061	33.53257	1.13113	0.88407	106.2593	154.94726	38.64741	0.37473	10.05449	33300.19575	0.75152	2.2691E-4	1887.79512	21455.22	52.0938	14207.235
1270.0	0.97418	0.0258203	7.98857	7.47646	-5.43588	20.73656	33.44333	1.13048	0.88458	108.80369	155.28261	39.59886	0.37382	10.23101	36165.84767	0.73617	2.08255E-4	1888.55005	21205.591	49.9258	14266.936
1265.0	0.97829	0.0217101	7.99241	7.47237	-5.48772	20.66139	33.35565	1.12978	0.88512	111.11288	155.60306	40.46342	0.373	10.41141	39201.28394	0.72107	1.91507E-4	1889.30126	20964.986	48.121	14317.994
1260.0	0.98191	0.0180919	7.99602	7.46847	-5.537	20.59349	33.26919	1.12904	0.88571	113.21978	155.91073	41.25318	0.37226	10.59595	42425.31259	0.70621	1.76379E-4	1890.0521	20731.956	46.606	14361.856
1255.0	0.98511	0.0148875	7.99945	7.46474	-5.58414	20.53162	33.18372	1.12825	0.88632	115.15179	156.20772	41.97821	0.37157	10.78458	45858.24987	0.69159	1.62643E-4	1890.8025	20505.334	45.3244	14399.687
1250.0	0.98796	0.0120374	8.00272	7.46116	-5.62942	20.47505	33.099	1.12744	0.88696	116.93268	156.49519	42.64728	0.37093	10.97748	49521.00158	0.67721	1.5012E-4	1891.55136	20284.173	44.2322	14432.431
1245.0	0.99051	0.00948798	8.00524	7.45682	-5.68432	20.38805	32.83851	1.13265	0.88288	118.83768	156.5915	43.37455	0.3699	11.17473	53435.94526	0.66308	1.38665E-4	1895.26649	19973.52027	62.13055	14460.862
1240.0	0.9928	0.00719848	8.01149	7.45116	-5.75598	20.24795	32.49198	1.14096	0.87645	120.9553	156.71527	44.18983	0.36859	11.3765	58441.34861	0.64917	1.26371E-4	1898.96552	19641.6529	66.37347	14485.616
1235.0	0.99487	0.00513137	8.01747	7.44553	-5.82712	20.10833	32.15885	1.14897	0.87034	122.95028	156.83564	44.95965	0.36734	11.58274	63890.28678	0.63551	1.15212E-4	1902.64816	19316.7314	64.9843	14507.222
1230.0	0.99674	0.00325872	8.02317	7.43995	-5.89768	19.96938	31.83836	1.15669	0.86453	124.83484	156.95315	45.68844	0.36615	11.79367	69826.61619	0.62207	1.05067E-4	1906.31379	18998.19637	63.70701	14526.12
1225.0	0.99844	0.0015558	8.02863	7.43443	-5.96758	19.83137	31.52972	1.16413	0.85901	126.61918	157.0678	46.37989	0.36502	12.00938	76297.67677	0.60887	9.58364E-5	1909.96368	18685.56202	62.52687	14542.681
1220.0	1.0	0.0	8.03384	7.42896	-6.03678	19.6944	31.23227	1.17129	0.85376	128.31318	157.17988	47.03761	0.36394	 	83356.41804	 	8.74281E-5	 	18378.40527	61.43135	14557.216
1215.0	1.0	0.0	8.03852	7.42463	-6.09149	19.60253	30.94408	1.17824	0.84872	129.11741	157.22569	47.36066	0.36313	 	90480.86034	 	8.02743E-5	 	18079.24456	59.83214	 
1210.0	1.0	0.0	8.04314	7.42036	-6.14545	19.51231	30.66491	1.18498	0.8439	129.89724	157.26841	47.6743	0.36234	 	98269.97727	 	7.36633E-5	 	17806.41588	54.56574	 
1205.0	1.0	0.0	8.04771	7.41616	-6.19867	19.42369	30.39436	1.19149	0.83928	130.65402	157.3087	47.97905	0.36157	 	106790.6218	 	6.75573E-5	 	17536.52708	53.97776	 
1200.0	1.0	0.0	8.05222	7.412	-6.25118	19.3366	30.13207	1.1978	0.83486	131.389	157.34713	48.27536	0.36083	 	116116.8475	 	6.19211E-5	 	17269.485	53.40842	 
1195.0	1.0	0.0	8.05667	7.40791	-6.30301	19.25101	29.87767	1.2039	0.83064	132.10334	157.38416	48.56365	0.36011	 	126330.7417	 	5.67215E-5	 	17005.19962	52.85708	 
1190.0	1.0	0.0	8.06107	7.40386	-6.35417	19.16686	29.63083	1.20979	0.82659	132.79809	157.42019	48.84432	0.3594	 	137523.3529	 	5.19277E-5	 	16743.58398	52.32313	 
1185.0	1.0	0.0	8.06542	7.39987	-6.40467	19.0841	29.3912	1.21549	0.82271	133.47427	157.45557	49.11774	0.35872	 	149795.7277	 	4.75105E-5	 	16484.5541	51.80598	 
1180.0	1.0	0.0	8.06972	7.39593	-6.45455	19.0027	29.15849	1.22099	0.81901	134.13279	157.49059	49.38426	0.35805	 	163260.0857	 	4.34427E-5	 	16228.02892	51.30504	 
1175.0	1.0	0.0	8.07397	7.39203	-6.50383	18.9226	28.93237	1.2263	0.81546	134.77453	157.52548	49.6442	0.3574	 	178041.1326	 	3.9699E-5	 	15973.93022	50.81974	 
1170.0	1.0	0.0	8.07818	7.38818	-6.55251	18.84376	28.71258	1.23142	0.81207	135.40031	157.56046	49.89788	0.35677	 	194277.5471	 	3.62556E-5	 	15722.18253	50.34954	 
1165.0	1.0	0.0	8.08234	7.38438	-6.60061	18.76613	28.49883	1.23636	0.80883	136.01088	157.59571	50.14557	0.35616	 	212123.6304	 	3.30904E-5	 	15472.71311	49.89389	 
1160.0	1.0	0.0	8.08646	7.38062	-6.64816	18.68969	28.29085	1.24111	0.80573	136.60699	157.63137	50.38755	0.35556	 	231751.1993	 	3.01826E-5	 	15225.45178	49.45226	 
1155.0	1.0	0.0	8.09053	7.3769	-6.69517	18.61438	28.0884	1.2457	0.80276	137.1893	157.66759	50.62409	0.35498	 	253351.6873	 	2.75129E-5	 	14980.33095	49.02417	 
1150.0	1.0	0.0	8.09457	7.37323	-6.74166	18.54017	27.89124	1.25011	0.79993	137.75846	157.70447	50.85541	0.35441	 	277138.5388	 	2.50634E-5	 	14737.28548	48.60909	 
1145.0	1.0	0.0	8.09856	7.36959	-6.78764	18.46703	27.69914	1.25436	0.79722	138.31507	157.74211	51.08177	0.35386	 	303349.8971	 	2.28173E-5	 	14496.25262	48.20657	 
1140.0	1.0	0.0	8.10251	7.36599	-6.83312	18.39491	27.51188	1.25844	0.79463	138.85972	157.78059	51.30337	0.35332	 	332251.6421	 	2.07591E-5	 	14257.17193	47.81614	 
1135.0	1.0	0.0	8.10643	7.36244	-6.87813	18.32378	27.32926	1.26237	0.79216	139.39295	157.81998	51.52042	0.35279	 	364140.8333	 	1.88741E-5	 	14019.98523	47.43734	 
1130.0	1.0	0.0	8.11031	7.35891	-6.92267	18.25361	27.15107	1.26614	0.7898	139.91528	157.86035	51.73312	0.35228	 	399349.5931	 	1.7149E-5	 	13784.63648	47.06975	 
1125.0	1.0	0.0	8.11415	7.35543	-6.96676	18.18436	26.97713	1.26977	0.78755	140.4272	157.90174	51.94167	0.35178	 	438249.5097	 	1.55711E-5	 	13551.07178	46.71294	 
1120.0	1.0	0.0	8.11796	7.35198	-7.0104	18.11601	26.80726	1.27324	0.7854	140.92917	157.94421	52.14624	0.35129	 	481256.6237	 	1.41289E-5	 	13319.23919	46.36652	 
1115.0	1.0	0.0	8.12173	7.34856	-7.05362	18.04852	26.64129	1.27658	0.78334	141.42165	157.98779	52.347	0.35081	 	528837.081	 	1.28115E-5	 	13089.08876	46.03009	 
1110.0	1.0	0.0	8.12548	7.34518	-7.09643	17.98186	26.47905	1.27977	0.78139	141.90505	158.03251	52.54412	0.35034	 	581513.5486	 	1.1609E-5	 	12860.57242	45.70327	 
1105.0	1.0	0.0	8.12919	7.34182	-7.13883	17.916	26.3204	1.28283	0.77952	142.37977	158.0784	52.73775	0.34988	 	639872.4937	 	1.05121E-5	 	12633.64391	45.3857	 
1100.0	1.0	0.0	8.13286	7.3385	-7.18083	17.85092	26.16519	1.28576	0.77775	142.8462	158.12549	52.92804	0.34944	 	704572.4636	 	9.51216E-6	 	12408.25867	45.07705	 
1095.0	1.0	0.0	8.13651	7.33521	-7.22246	17.78659	26.01327	1.28856	0.77606	143.30471	158.1738	53.11513	0.349	 	776353.4962	 	8.60124E-6	 	12184.37388	44.77696	 
1090.0	1.0	0.0	8.14013	7.33195	-7.26371	17.72299	25.86452	1.29124	0.77445	143.75564	158.22334	53.29917	0.34857	 	856047.8367	 	7.77199E-6	 	11961.94831	44.48512	 
1085.0	1.0	0.0	8.14372	7.32872	-7.3046	17.66008	25.71881	1.29379	0.77292	144.19932	158.27413	53.48027	0.34815	 	944592.1414	 	7.01762E-6	 	11740.942	44.20126	 
1080.0	1.0	0.0	8.14729	7.32551	-7.34513	17.59785	25.57601	1.29622	0.77147	144.63608	158.32617	53.65856	0.34774	 	1043041.356	 	6.33186E-6	 	11521.31729	43.92494	 
1075.0	1.0	0.0	8.15082	7.32234	-7.38533	17.53627	25.43601	1.29854	0.7701	145.0662	158.37949	53.83417	0.34734	 	1152584.643	 	5.7089E-6	 	11303.03716	43.65603	 
1070.0	1.0	0.0	8.15433	7.31918	-7.42518	17.47532	25.29871	1.30075	0.76879	145.48999	158.43408	54.0072	0.34695	 	1274563.464	 	5.14339E-6	 	11086.06623	43.39419	 
1065.0	1.0	0.0	8.15781	7.31606	-7.46471	17.41498	25.164	1.30284	0.76755	145.90772	158.48995	54.17776	0.34656	 	1410492.295	 	4.63042E-6	 	10870.37042	43.13916	 
1060.0	1.0	0.0	8.16127	7.31296	-7.50392	17.35522	25.03178	1.30483	0.76638	146.31965	158.54711	54.34596	0.34619	 	1562082.325	 	4.16545E-6	 	10655.91695	42.89069	 
1055.0	1.0	0.0	8.16471	7.30988	-7.54283	17.29603	24.90196	1.30671	0.76528	146.72603	158.60555	54.5119	0.34582	 	1731268.557	 	3.74429E-6	 	10442.67423	42.64854	 
1050.0	1.0	0.0	8.16812	7.30683	-7.58142	17.23739	24.77444	1.30849	0.76424	147.12711	158.66529	54.67566	0.34545	 	1920240.878	 	3.3631E-6	 	10230.61184	42.41248	 
1045.0	1.0	0.0	8.1715	7.3038	-7.61972	17.17927	24.64915	1.31017	0.76326	147.52311	158.7263	54.83735	0.3451	 	2131479.687	 	3.01836E-6	 	10019.7005	42.18227	 
1040.0	1.0	0.0	8.17487	7.3008	-7.65774	17.12166	24.52599	1.31176	0.76234	147.91425	158.78861	54.99705	0.34475	 	2367796.77	 	2.7068E-6	 	9809.91198	41.9577	 
1035.0	1.0	0.0	8.17821	7.29782	-7.69547	17.06455	24.4049	1.31325	0.76147	148.30074	158.85219	55.15483	0.3444	 	2632382.276	 	2.42547E-6	 	9601.21908	41.73858	 
1030.0	1.0	0.0	8.18153	7.29485	-7.73292	17.0079	24.2858	1.31464	0.76066	148.68279	158.91706	55.3108	0.34407	 	2928858.698	 	2.17161E-6	 	9393.59561	41.5247	 
1025.0	1.0	0.0	8.18483	7.29191	-7.7701	16.95172	24.16861	1.31595	0.75991	149.06059	158.9832	55.46501	0.34374	 	3261343.064	 	1.94274E-6	 	9187.01658	41.31581	 
1020.0	1.0	0.0	8.1881	7.289	-7.80702	16.89598	24.05327	1.31717	0.75921	149.43432	159.05062	55.61754	0.34341	 	3634518.339	 	1.73656E-6	 	8981.45813	41.11169	 
1015.0	1.0	0.0	8.19136	7.2861	-7.84369	16.84066	23.93972	1.3183	0.75855	149.80416	159.11929	55.76846	0.34309	 	4053716.183	 	1.55096E-6	 	8776.89613	40.9124	 
1010.0	1.0	0.0	8.1946	7.28322	-7.8801	16.78575	23.82789	1.31934	0.75795	150.17028	159.18923	55.91785	0.34278	 	4525011.982	 	1.38403E-6	 	8573.30791	40.71764	 
1005.0	1.0	0.0	8.19782	7.28036	-7.91626	16.73124	23.71773	1.32031	0.7574	150.53282	159.26041	56.06575	0.34247	 	5055334.909	 	1.23401E-6	 	8370.67161	40.52726	 
1000.0	1.0	0.0	8.20102	7.27752	-7.95219	16.67711	23.60917	1.32119	0.75689	150.89197	159.33285	56.21225	0.34216	 	5652595.037	 	1.09931E-6	 	8168.96614	40.34109	 
995.0	1.0	0.0	8.2042	7.2747	-7.98787	16.62335	23.50217	1.32199	0.75643	151.24787	159.40653	56.35739	0.34186	 	6325830.452	 	9.78453E-7	 	7968.17114	40.159	 
990.0	1.0	0.0	8.20736	7.27189	-8.02333	16.56994	23.39668	1.32272	0.75602	151.60065	159.48144	56.50124	0.34157	 	7085377.751	 	8.70119E-7	 	7768.26697	39.98084	 
985.0	1.0	0.0	8.2105	7.26911	-8.05855	16.51687	23.29263	1.32337	0.75565	151.95045	159.55757	56.64385	0.34128	 	7943069.651	 	7.73091E-7	 	7569.23462	39.80647	 
980.0	1.0	0.0	8.21363	7.26634	-8.09356	16.46413	23.18999	1.32394	0.75532	152.29741	159.63491	56.78527	0.34099	 	8912464.245	 	6.86265E-7	 	7371.05579	39.63577	 
975.0	1.0	0.0	8.21674	7.26359	-8.12835	16.41171	23.08871	1.32444	0.75503	152.64165	159.71346	56.92555	0.34071	 	1.000911164E7	 	6.08636E-7	 	7173.71274	39.46861	 
970.0	1.0	0.0	8.21984	7.26086	-8.16292	16.3596	22.98875	1.32487	0.75479	152.98328	159.79321	57.06474	0.34044	 	1.125086373E7	 	5.39292E-7	 	6977.18836	39.30488	 
965.0	1.0	0.0	8.22291	7.25814	-8.19728	16.30778	22.89007	1.32523	0.75458	153.32244	159.87415	57.20289	0.34016	 	1.265823504E7	 	4.77405E-7	 	6781.46609	39.14445	 
960.0	1.0	0.0	8.22597	7.25544	-8.23144	16.25623	22.79262	1.32552	0.75442	153.65921	159.95626	57.34004	0.33989	 	1.42548231E7	 	4.22222E-7	 	6586.52996	38.98723	 
955.0	1.0	0.0	8.22902	7.25276	-8.2654	16.20497	22.69637	1.32575	0.75429	153.99373	160.03955	57.47624	0.33963	 	1.606779919E7	 	3.73063E-7	 	6392.3642	38.83315	 
950.0	1.0	0.0	8.23205	7.25009	-8.29915	16.15396	22.60128	1.32591	0.7542	154.32608	160.12399	57.61152	0.33937	 	1.81284802E7	 	3.2931E-7	 	6198.95437	38.68197	 
945.0	1.0	0.0	8.23506	7.24743	-8.33272	16.1032	22.50731	1.326	0.75415	154.65636	160.20959	57.74593	0.33911	 	2.047299952E7	 	2.90406E-7	 	6006.2857	38.53373	 
940.0	1.0	0.0	8.23806	7.24479	-8.36609	16.05268	22.41444	1.32603	0.75413	154.98467	160.29633	57.87951	0.33886	 	2.314308983E7	 	2.55847E-7	 	5814.34417	38.38831	 
935.0	1.0	0.0	8.24104	7.24217	-8.39927	16.00239	22.32263	1.32599	0.75415	155.31111	160.3842	58.01229	0.33861	 	2.618700137E7	 	2.25176E-7	 	5623.11619	38.2456	 
930.0	1.0	0.0	8.24401	7.23956	-8.43227	15.95232	22.23184	1.3259	0.75421	155.63575	160.4732	58.14431	0.33836	 	2.966057892E7	 	1.97983E-7	 	5432.58861	38.10552	 
925.0	1.0	0.0	8.24697	7.23697	-8.46508	15.90246	22.14206	1.32574	0.75429	155.95869	160.56331	58.27561	0.33811	 	3.362852605E7	 	1.73896E-7	 	5242.74867	37.96799	 
920.0	1.0	0.0	8.24991	7.23439	-8.49772	15.85281	22.05324	1.32553	0.75442	156.28	160.65453	58.40621	0.33787	 	3.81658916E7	 	1.52583E-7	 	5053.58402	37.83293	 
915.0	1.0	0.0	8.25284	7.23182	-8.53018	15.80334	21.96537	1.32525	0.75457	156.59977	160.74685	58.53614	0.33763	 	4.335981879E7	 	1.33743E-7	 	4865.08268	37.70027	 
910.0	1.0	0.0	8.25575	7.22927	-8.56247	15.75407	21.87841	1.32492	0.75476	156.91807	160.84025	58.66545	0.3374	 	4.931160617E7	 	1.17106E-7	 	4677.23302	37.56993	 
905.0	1.0	0.0	8.25865	7.22673	-8.59459	15.70496	21.79234	1.32453	0.75498	157.23497	160.93474	58.79416	0.33716	 	5.613913914E7	 	1.02429E-7	 	4490.02379	37.44185	 
900.0	1.0	0.0	8.26154	7.2242	-8.62654	15.65603	21.70713	1.32409	0.75524	157.55054	161.0303	58.92229	0.33693	 	6.397976002E7	 	8.94948E-8	 	4303.44403	37.31595	 
895.0	1.0	0.0	8.26442	7.22169	-8.65832	15.60726	21.62277	1.32359	0.75552	157.86484	161.12692	59.04988	0.33671	 	7.299366433E7	 	7.81088E-8	 	4117.48313	37.19218	 
890.0	1.0	0.0	8.26728	7.21919	-8.68994	15.55863	21.53922	1.32304	0.75584	158.17796	161.2246	59.17695	0.33648	 	8.336791814E7	 	6.80963E-8	 	3932.13077	37.07047	 
885.0	1.0	0.0	8.27013	7.2167	-8.7214	15.51015	21.45647	1.32243	0.75618	158.48994	161.32332	59.30353	0.33626	 	9.532122272E7	 	5.9301E-8	 	3747.37696	36.95076	 
880.0	1.0	0.0	8.27296	7.21423	-8.7527	15.46181	21.37449	1.32177	0.75656	158.80085	161.42309	59.42964	0.33604	 	1.091095664E8	 	5.15834E-8	 	3563.21187	36.83302	 
875.0	1.0	0.0	8.27579	7.21177	-8.78385	15.41359	21.29327	1.32106	0.75697	159.11075	161.52389	59.55531	0.33582	 	1.250329431E8	 	4.48189E-8	 	3379.62601	36.71717	 
870.0	1.0	0.0	8.2786	7.20932	-8.81484	15.3655	21.21278	1.3203	0.75741	159.41969	161.62571	59.68056	0.33561	 	1.434433422E8	 	3.88964E-8	 	3196.61033	36.60314	 
865.0	1.0	0.0	8.2814	7.20688	-8.84568	15.31752	21.13301	1.31948	0.75787	159.72773	161.72855	59.80542	0.3354	 	1.647542683E8	 	3.3717E-8	 	3014.15588	36.49089	 
860.0	1.0	0.0	8.28419	7.20445	-8.87637	15.26965	21.05393	1.31862	0.75837	160.03493	161.8324	59.92989	0.33518	 	1.894520979E8	 	2.91927E-8	 	2832.25395	36.38039	 
855.0	1.0	0.0	8.28697	7.20204	-8.90692	15.22187	20.97553	1.31771	0.75889	160.34132	161.93725	60.05402	0.33498	 	2.1810964E8	 	2.52452E-8	 	2650.89608	36.27157	 
850.0	1.0	0.0	8.28974	7.19963	-8.93731	15.17419	20.8978	1.31675	0.75945	160.64697	162.0431	60.17781	0.33477	 	2.514023559E8	 	2.1805E-8	 	2470.074	36.16442	 
845.0	1.0	0.0	8.29201	7.19766	-8.96224	15.15127	20.83853	1.31462	0.76068	160.96127	162.226	60.30171	0.33463	 	2.859107707E8	 	1.90878E-8	 	2314.22573	31.16965	 
840.0	1.0	0.0	8.29427	7.1957	-8.98711	15.12834	20.77926	1.31247	0.76192	161.27507	162.40815	60.42546	0.3345	 	3.255318746E8	 	1.66896E-8	 	2155.3983	31.76549	 
835.0	1.0	0.0	8.29653	7.19373	-9.01192	15.10539	20.71998	1.31031	0.76318	161.5884	162.58956	60.54904	0.33436	 	3.710779464E8	 	1.45754E-8	 	1996.77363	31.72493	 
830.0	1.0	0.0	8.29879	7.19178	-9.03667	15.08244	20.6607	1.30814	0.76444	161.90124	162.77023	60.67248	0.33422	 	4.234989212E8	 	1.27136E-8	 	1838.35103	31.68452	 
825.0	1.0	0.0	8.30104	7.18982	-9.06136	15.05947	20.6014	1.30596	0.76572	162.2136	162.95016	60.79575	0.33409	 	4.83907165E8	 	1.10761E-8	 	1680.12979	31.64425	 
820.0	1.0	0.0	8.30329	7.18788	-9.086	15.03649	20.54209	1.30377	0.76701	162.52547	163.12935	60.91886	0.33395	 	5.536069682E8	 	9.63751E-9	 	1522.10915	31.60413	 
815.0	1.0	0.0	8.30554	7.18593	-9.11058	15.01349	20.48276	1.30157	0.76831	162.83687	163.3078	61.04182	0.33381	 	6.34129704E8	 	8.37524E-9	 	1364.28834	31.56416	 
810.0	1.0	0.0	8.30778	7.18399	-9.1351	14.99049	20.42343	1.29935	0.76962	163.14778	163.48552	61.16462	0.33368	 	7.272758005E8	 	7.26903E-9	 	1206.66654	31.52436	 
805.0	1.0	0.0	8.31002	7.18206	-9.15956	14.96747	20.36409	1.29712	0.77094	163.4582	163.6625	61.28726	0.33354	 	8.351649189E8	 	6.30077E-9	 	1049.24289	31.48473	 
800.0	1.0	0.0	8.31225	7.18013	-9.18396	14.94444	20.30474	1.29488	0.77227	163.76814	163.83876	61.40975	0.33341	 	9.602960289E8	 	5.45434E-9	 	892.01653	31.44527	 
795.0	1.0	0.0	8.31448	7.17821	-9.20831	14.92139	20.24537	1.29262	0.77362	164.0776	164.01428	61.53207	0.33327	 	1.10561944E9	 	4.71534E-9	 	734.98651	31.406	 
790.0	1.0	0.0	8.3167	7.17629	-9.2326	14.89834	20.186	1.29036	0.77498	164.38658	164.18908	61.65424	0.33313	 	1.274623298E9	 	4.07098E-9	 	578.15187	31.36693	 
785.0	1.0	0.0	8.31893	7.17437	-9.25683	14.87527	20.12661	1.28808	0.77635	164.69507	164.36316	61.77625	0.333	 	1.471437608E9	 	3.50988E-9	 	421.5116	31.32805	 
780.0	1.0	0.0	8.32114	7.17246	-9.281	14.85219	20.06722	1.28579	0.77773	165.00308	164.53651	61.8981	0.33286	 	1.700959526E9	 	3.02192E-9	 	265.06462	31.28939	 
775.0	1.0	0.0	8.32335	7.17055	-9.30511	14.82909	20.00781	1.28348	0.77913	165.31061	164.70914	62.01979	0.33272	 	1.969004505E9	 	2.59815E-9	 	108.80984	31.25096	 
770.0	1.0	0.0	8.32556	7.16865	-9.32917	14.80599	19.94838	1.28117	0.78054	165.61766	164.88105	62.14132	0.33259	 	2.282488922E9	 	2.23062E-9	 	-47.25391	31.21275	 
765.0	1.0	0.0	8.32777	7.16675	-9.35316	14.78287	19.88895	1.27883	0.78196	165.92422	165.05224	62.2627	0.33245	 	2.649651086E9	 	1.91231E-9	 	-203.12787	31.17479	 
760.0	1.0	0.0	8.32997	7.16486	-9.3771	14.75974	19.8295	1.27649	0.7834	166.23029	165.22272	62.38391	0.33232	 	3.080319131E9	 	1.63702E-9	 	-358.81332	31.13709	 
755.0	1.0	0.0	8.33216	7.16297	-9.40098	14.7366	19.77004	1.27413	0.78485	166.53589	165.39249	62.50497	0.33218	 	3.586236282E9	 	1.39928E-9	 	-514.31159	31.09966	 
750.0	1.0	0.0	8.33435	7.16109	-9.4248	14.71344	19.71057	1.27176	0.78631	166.841	165.56154	62.62587	0.33205	 	4.181456429E9	 	1.19426E-9	 	-669.62412	31.06251	 
745.0	1.0	0.0	8.33654	7.15921	-9.44856	14.69028	19.65109	1.26938	0.78779	167.14563	165.72989	62.74661	0.33191	 	4.882826018E9	 	1.01772E-9	 	-824.75241	31.02566	 
740.0	1.0	0.0	8.33872	7.15734	-9.47227	14.6671	19.59159	1.26698	0.78928	167.44978	165.89753	62.86719	0.33177	 	5.710572114E9	 	8.65926E-10	 	-979.69802	30.98912	 
735.0	1.0	0.0	8.3409	7.15547	-9.49591	14.64391	19.53208	1.26457	0.79078	167.75344	166.06446	62.98762	0.33164	 	6.689021261E9	 	7.35613E-10	 	-1134.4626	30.95292	 
730.0	1.0	0.0	8.34308	7.1536	-9.5195	14.6207	19.47255	1.26214	0.7923	168.05662	166.23069	63.10788	0.3315	 	7.847479778E9	 	6.23911E-10	 	-1289.04792	30.91706	 
725.0	1.0	0.0	8.34525	7.15174	-9.54303	14.59749	19.41302	1.25971	0.79384	168.35932	166.39621	63.22799	0.33137	 	9.221313692E9	 	5.28311E-10	 	-1443.4558	30.88158	 
720.0	1.0	0.0	8.34741	7.14989	-9.56649	14.57426	19.35346	1.25725	0.79539	168.66153	166.56103	63.34793	0.33123	 	1.08533E10	 	4.46623E-10	 	-1597.68821	30.84648	 
715.0	1.0	0.0	8.34957	7.14804	-9.5899	14.55102	19.2939	1.25478	0.79695	168.96326	166.72516	63.46772	0.3311	 	1.2795099999999998E10	 	3.76933E-10	 	-1751.74719	30.81179	 
710.0	1.0	0.0	8.35173	7.14619	-9.61325	14.52776	19.23432	1.2523	0.79853	169.26451	166.88859	63.58735	0.33096	 	1.5109699999999998E10	 	3.17578E-10	 	-1905.63489	30.77754	 
705.0	1.0	0.0	8.35388	7.14435	-9.63655	14.5045	19.17472	1.24981	0.80012	169.56527	167.05132	63.70682	0.33083	 	1.78733E10	 	2.67108E-10	 	-2059.35364	30.74375	 
700.0	1.0	0.0	8.35603	7.14251	-9.65978	14.48122	19.11511	1.24729	0.80174	169.86556	167.21336	63.82613	0.33069	 	2.1179E10	 	2.24265E-10	 	-2212.90586	30.71044	 
695.0	1.0	0.0	8.35817	7.14068	-9.68295	14.45793	19.05548	1.24477	0.80336	170.16535	167.37471	63.94528	0.33055	 	2.5139999999999996E10	 	1.87959E-10	 	-2366.2941	30.67765	 
690.0	1.0	0.0	8.36031	7.13885	-9.70606	14.43463	18.99584	1.24223	0.805	170.46467	167.53537	64.06427	0.33042	 	2.9894999999999996E10	 	1.57247E-10	 	-2519.5211	30.6454	 
685.0	1.0	0.0	8.36245	7.13703	-9.72912	14.41131	18.93618	1.23967	0.80666	170.7635	167.69535	64.1831	0.33028	 	3.56138E10	 	1.31311E-10	 	-2672.58973	30.61373	 
680.0	1.0	0.0	8.36458	7.13521	-9.75212	14.38798	18.87651	1.2371	0.80834	171.06185	167.85463	64.30177	0.33015	 	4.25044E10	 	1.0945E-10	 	-2825.50304	30.58266	 
675.0	1.0	0.0	8.36671	7.1334	-9.77505	14.36464	18.81682	1.23452	0.81003	171.35972	168.01323	64.42029	0.33001	 	5.082299999999999E10	 	9.10549E-11	 	-2978.26431	30.55225	 
670.0	1.0	0.0	8.36883	7.13159	-9.79793	14.34129	18.75711	1.23192	0.81174	171.6571	168.17115	64.53864	0.32988	 	6.088489999999999E10	 	7.56062E-11	 	-3130.87695	30.52253	 
665.0	1.0	0.0	8.37095	7.12979	-9.82075	14.31793	18.69739	1.2293	0.81347	171.95401	168.32839	64.65683	0.32974	 	7.30795E10	 	6.26561E-11	 	-3283.34462	30.49353	 
660.0	1.0	0.0	8.37306	7.12799	-9.8435	14.29455	18.63765	1.22667	0.81522	172.25042	168.48495	64.77487	0.32961	 	8.78883E10	 	5.18212E-11	 	-3435.66077	30.46323	 
655.0	1.0	0.0	8.37517	7.12619	-9.8662	14.27116	18.57789	1.22402	0.81698	172.54636	168.64083	64.89274	0.32947	 	1.05908E11	 	4.27735E-11	 	-3587.76729	30.4213	 
650.0	1.0	0.0	8.37727	7.1244	-9.88884	14.24776	18.51812	1.22135	0.81876	172.84181	168.79603	65.01045	0.32934	 	1.27881E11	 	3.52333E-11	 	-3739.58711	30.36396	 
645.0	1.0	0.0	8.37937	7.12262	-9.91142	14.22434	18.45832	1.21867	0.82056	173.13678	168.95057	65.12801	0.3292	 	1.5473E11	 	2.89619E-11	 	-3891.1214	30.30686	 
640.0	1.0	0.0	8.38147	7.12084	-9.93394	14.20092	18.39851	1.21598	0.82238	173.43126	169.10442	65.2454	0.32907	 	1.87607E11	 	2.37564E-11	 	-4042.37128	30.24998	 
635.0	1.0	0.0	8.38356	7.11906	-9.9564	14.17748	18.33868	1.21326	0.82422	173.72527	169.25761	65.36264	0.32893	 	2.27952E11	 	1.94447E-11	 	-4193.33796	30.19333	 
630.0	1.0	0.0	8.38564	7.11729	-9.9788	14.15403	18.27883	1.21054	0.82608	174.01879	169.41013	65.47971	0.3288	 	2.77572E11	 	1.58807E-11	 	-4344.02256	30.13692	 
625.0	1.0	0.0	8.38772	7.11552	-10.00114	14.13056	18.21896	1.20779	0.82796	174.31182	169.56199	65.59662	0.32866	 	3.38736E11	 	1.29412E-11	 	-4494.42635	30.08076	 
620.0	1.0	0.0	8.3898	7.11376	-10.02342	14.10709	18.15908	1.20503	0.82986	174.60438	169.71317	65.71338	0.32853	 	4.14299E11	 	1.0522E-11	 	-4644.55073	30.02487	 
615.0	1.0	0.0	8.39187	7.11201	-10.04564	14.0836	18.09917	1.20225	0.83178	174.89645	169.86369	65.82997	0.3284	 	5.07869E11	 	8.53536E-12	 	-4794.39671	29.9692	 
610.0	1.0	0.0	8.39394	7.11025	-10.0678	14.0601	18.03924	1.19945	0.83372	175.18804	170.01356	65.9464	0.32826	 	6.24008E11	 	6.90766E-12	 	-4943.96544	29.91375	 
605.0	1.0	0.0	8.39601	7.10851	-10.0899	14.03659	17.97929	1.19664	0.83568	175.47914	170.16276	66.06268	0.32813	 	7.68507E11	 	5.57709E-12	 	-5093.25808	29.85853	 
600.0	1.0	0.0	8.39806	7.10676	-10.11195	14.01306	17.91932	1.19381	0.83766	175.76976	170.3113	66.17879	0.32799	 	9.48727E11	 	4.49194E-12	 	-5242.27577	29.80354	 
595.0	1.0	0.0	8.40012	7.10503	-10.13393	13.98952	17.85933	1.19096	0.83966	176.0599	170.45918	66.29474	0.32786	 	1.17406E12	 	3.60905E-12	 	-5391.01965	29.74878	 
590.0	1.0	0.0	8.40217	7.10329	-10.15585	13.96597	17.79931	1.18809	0.84169	176.34956	170.60641	66.41053	0.32772	 	1.45649E12	 	2.89244E-12	 	-5539.49087	29.69424	 
585.0	1.0	0.0	8.40421	7.10156	-10.17771	13.94241	17.73928	1.1852	0.84374	176.63873	170.75298	66.52616	0.32759	 	1.81142E12	 	2.31223E-12	 	-5687.69056	29.63994	 
580.0	1.0	0.0	8.40625	7.09984	-10.19951	13.91884	17.67922	1.1823	0.84581	176.92742	170.89891	66.64163	0.32745	 	2.2586E12	 	1.84362E-12	 	-5835.61986	29.58586	 
575.0	1.0	0.0	8.40829	7.09812	-10.22125	13.89525	17.61914	1.17938	0.8479	177.21562	171.04418	66.75694	0.32732	 	2.82352E12	 	1.46612E-12	 	-5983.27991	29.53201	 
570.0	1.0	0.0	8.41032	7.09641	-10.24293	13.87165	17.55903	1.17644	0.85002	177.50334	171.1888	66.87209	0.32719	 	3.53908E12	 	1.16279E-12	 	-6130.67184	29.47839	 
565.0	1.0	0.0	8.41235	7.0947	-10.26455	13.84804	17.4989	1.17348	0.85216	177.79058	171.33277	66.98707	0.32705	 	4.44796E12	 	9.19702E-13	 	-6277.7968	29.42499	 
560.0	1.0	0.0	8.41437	7.09299	-10.2861	13.82441	17.43875	1.17051	0.85433	178.07734	171.4761	67.1019	0.32692	 	5.60562E12	 	7.25415E-13	 	-6424.6559	29.37182	 
555.0	1.0	0.0	8.41638	7.09129	-10.3076	13.80078	17.37857	1.16751	0.85652	178.36361	171.61879	67.21657	0.32678	 	7.08433E12	 	5.70554E-13	 	-6571.25028	29.31888	 
550.0	1.0	0.0	8.4184	7.0896	-10.32904	13.77713	17.31837	1.1645	0.85874	178.6494	171.76083	67.33107	0.32665	 	8.97861E12	 	4.47462E-13	 	-6717.58106	29.26616	 
545.0	1.0	0.0	8.4204	7.08791	-10.35042	13.75347	17.25814	1.16146	0.86098	178.93471	171.90223	67.44541	0.32652	 	1.14124E13	 	3.49898E-13	 	-6863.64938	29.21366	 
540.0	1.0	0.0	8.42241	7.08622	-10.37173	13.72979	17.19788	1.15841	0.86325	179.21953	172.04299	67.55959	0.32638	 	1.45488E13	 	2.72791E-13	 	-7009.45634	29.16139	 
535.0	1.0	0.0	8.4244	7.08454	-10.39299	13.70611	17.1376	1.15534	0.86555	179.50387	172.18311	67.67361	0.32625	 	1.86029E13	 	2.1203E-13	 	-7155.00309	29.10935	 
530.0	1.0	0.0	8.4264	7.08287	-10.41418	13.68241	17.07729	1.15224	0.86787	179.78772	172.32259	67.78747	0.32611	 	2.38597E13	 	1.64293E-13	 	-7300.29073	29.05753	 
525.0	1.0	0.0	8.42839	7.0812	-10.43532	13.6587	17.01696	1.14913	0.87022	180.0711	172.46145	67.90117	0.32598	 	3.06975E13	 	1.26902E-13	 	-7445.32038	29.00593	 
520.0	1.0	0.0	8.43037	7.07953	-10.45639	13.63498	16.95659	1.146	0.8726	180.35398	172.59966	68.0147	0.32585	 	3.96205E13	 	9.77062E-14	 	-7590.09316	28.95456	 
515.0	1.0	0.0	8.43235	7.07787	-10.47741	13.61124	16.89619	1.14284	0.87501	180.63639	172.73725	68.12808	0.32571	 	5.13031E13	 	7.49812E-14	 	-7734.61017	28.9034	 
510.0	1.0	0.0	8.43432	7.07621	-10.49836	13.58749	16.83577	1.13967	0.87745	180.91831	172.8742	68.24129	0.32558	 	6.665E13	 	5.73498E-14	 	-7878.87253	28.85247	 
505.0	1.0	0.0	8.43629	7.07456	-10.51925	13.56373	16.77532	1.13647	0.87992	181.19975	173.01053	68.35434	0.32544	 	8.68794E13	 	4.37153E-14	 	-8022.88135	28.80176	 
500.0	1.0	0.0	8.43826	7.07291	-10.54008	13.53996	16.71483	1.13326	0.88241	181.48071	173.14623	68.46723	0.32531	 	1.13638E14	 	3.32068E-14	 	-8166.63772	28.75127	 
495.0	1.0	0.0	8.44021	7.07127	-10.56085	13.51618	16.65432	1.13002	0.88494	181.76118	173.2813	68.57995	0.32518	 	1.49158E14	 	2.51354E-14	 	-8310.14275	28.70101	 
490.0	1.0	0.0	8.44217	7.06963	-10.58155	13.49238	16.59377	1.12676	0.8875	182.04117	173.41575	68.69252	0.32504	 	1.9648E14	 	1.89574E-14	 	-8453.39754	28.65096	 
485.0	1.0	0.0	8.44412	7.068	-10.6022	13.46857	16.53319	1.12348	0.89009	182.32067	173.54958	68.80492	0.32491	 	2.5975799999999997E14	 	1.42453E-14	 	-8596.40318	28.60113	 
480.0	1.0	0.0	8.44606	7.06637	-10.62279	13.44475	16.47257	1.12018	0.89272	182.59969	173.68278	68.91716	0.32478	 	3.4469E14	 	1.06645E-14	 	-8739.16077	28.55152	 
475.0	1.0	0.0	8.448	7.06475	-10.64331	13.42091	16.41192	1.11685	0.89537	182.87823	173.81536	69.02924	0.32464	 	4.59126E14	 	7.95323E-15	 	-8881.6714	28.50212	 
470.0	1.0	0.0	8.44994	7.06313	-10.66377	13.39707	16.35124	1.1135	0.89807	183.15628	173.94733	69.14116	0.32451	 	6.13917E14	 	5.90818E-15	 	-9023.93615	28.45295	 
465.0	1.0	0.0	8.45187	7.06152	-10.68417	13.37321	16.29052	1.11013	0.90079	183.43385	174.07868	69.25291	0.32438	 	8.24131E14	 	4.37154E-15	 	-9165.9561	28.40399	 
460.0	1.0	0.0	8.45379	7.05991	-10.70451	13.34934	16.22977	1.10674	0.90355	183.71094	174.20941	69.3645	0.32424	 	1.11078E15	 	3.22145E-15	 	-9307.73233	28.35525	 
455.0	1.0	0.0	8.45571	7.05831	-10.72479	13.32545	16.16898	1.10333	0.90635	183.98754	174.33953	69.47593	0.32411	 	1.50328E15	 	2.36411E-15	 	-9449.26593	28.30672	 
450.0	1.0	0.0	8.45763	7.05671	-10.74501	13.30156	16.10815	1.09989	0.90918	184.26366	174.46904	69.5872	0.32398	 	2.043E15	 	1.72761E-15	 	-9590.55796	28.25841	 
445.0	1.0	0.0	8.45954	7.05512	-10.76516	13.27765	16.04728	1.09643	0.91205	184.53929	174.59794	69.6983	0.32384	 	2.78839E15	 	1.25704E-15	 	-9731.60949	28.21031	 
440.0	1.0	0.0	8.46145	7.05353	-10.78526	13.25373	15.98638	1.09294	0.91496	184.81444	174.72623	69.80924	0.32371	 	3.82236E15	 	9.10619E-16	 	-9872.42159	28.16242	 
435.0	1.0	0.0	8.46335	7.05195	-10.80529	13.2298	15.92543	1.08943	0.91791	185.08911	174.85391	69.92002	0.32358	 	5.26313E15	 	6.56702E-16	 	-10012.99531	28.11475	 
430.0	1.0	0.0	8.46524	7.05037	-10.82526	13.20585	15.86444	1.0859	0.9209	185.36329	174.98098	70.03063	0.32344	 	7.28001E15	 	4.71414E-16	 	-10153.33172	28.06728	 
425.0	1.0	0.0	8.46713	7.04879	-10.84517	13.18189	15.80342	1.08234	0.92392	185.63699	175.10744	70.14109	0.32331	 	1.01167E16	 	3.3682E-16	 	-10293.43171	28.02	 
420.0	1.0	0.0	8.46902	7.04722	-10.86502	13.15792	15.74234	1.07876	0.92699	185.9102	175.23331	70.25137	0.32318	 	1.41256E16	 	2.39501E-16	 	-10433.29657	27.97297	 
415.0	1.0	0.0	8.4709	7.04566	-10.8848	13.13394	15.68123	1.07515	0.9301	186.18293	175.35857	70.3615	0.32305	 	1.98189E16	 	1.69469E-16	 	-10572.92672	27.92603	 
410.0	1.0	0.0	8.47277	7.0441	-10.90452	13.10995	15.62007	1.07152	0.93326	186.45518	175.48323	70.47146	0.32291	 	2.79453E16	 	1.19315E-16	 	-10712.32235	27.87913	 
405.0	1.0	0.0	8.47464	7.04255	-10.92419	13.08594	15.55886	1.06786	0.93645	186.72694	175.60729	70.58126	0.32278	 	3.96037E16	 	8.3575E-17	 	-10851.48362	27.83225	 
400.0	1.0	0.0	8.47651	7.041	-10.94378	13.06192	15.49761	1.06418	0.93969	186.99822	175.73075	70.6909	0.32265	 	5.64175E16	 	5.82351E-17	 	-10990.41071	27.78542	 
395.0	1.0	0.0	8.47837	7.03945	-10.96332	13.03789	15.43631	1.06047	0.94298	187.26902	175.85362	70.80037	0.32251	 	8.07962E16	 	4.03617E-17	 	-11129.10377	27.73861	 
390.0	1.0	0.0	8.48022	7.03791	-10.9828	13.01384	15.37496	1.05673	0.94632	187.53933	175.97589	70.90968	0.32238	 	1.16338E17	 	2.78213E-17	 	-11267.56298	27.69184	 
385.0	1.0	0.0	8.48207	7.03638	-11.00221	12.98979	15.31356	1.05297	0.9497	187.80915	176.09756	71.01883	0.32225	 	1.68444E17	 	1.90702E-17	 	-11405.78847	27.6451	 
380.0	1.0	0.0	8.48392	7.03485	-11.02156	12.96572	15.25211	1.04918	0.95313	188.07849	176.21864	71.12781	0.32212	 	2.45274E17	 	1.29971E-17	 	-11543.78042	27.59839	 
375.0	1.0	0.0	8.48576	7.03332	-11.04085	12.94164	15.1906	1.04536	0.95661	188.34735	176.33914	71.23663	0.32198	 	3.59225E17	 	8.80635E-18	 	-11681.53892	27.5517	 
370.0	1.0	0.0	8.48759	7.0318	-11.06008	12.91754	15.12905	1.04152	0.96014	188.61572	176.45904	71.34529	0.32185	 	5.29245E17	 	5.93119E-18	 	-11819.06415	27.50505	 
365.0	1.0	0.0	8.48942	7.03029	-11.07924	12.89344	15.06743	1.03765	0.96372	188.88361	176.57835	71.45378	0.32172	 	7.84485E17	 	3.97031E-18	 	-11956.35621	27.45841	 
360.0	1.0	0.0	8.49124	7.02878	-11.09834	12.86932	15.00576	1.03375	0.96735	189.15101	176.69708	71.56211	0.32159	 	1.17007E18	 	2.64108E-18	 	-12093.41524	27.41181	 
355.0	1.0	0.0	8.49306	7.02727	-11.11738	12.84519	14.94404	1.02982	0.97104	189.41793	176.81522	71.67027	0.32145	 	1.75632E18	 	1.74561E-18	 	-12230.24134	27.36522	 
350.0	1.0	0.0	8.49488	7.02577	-11.13636	12.82105	14.88225	1.02586	0.97479	189.68437	176.93277	71.77827	0.32132	 	2.65354E18	 	1.14618E-18	 	-12366.83461	27.31865	 
345.0	1.0	0.0	8.49668	7.02428	-11.15527	12.79689	14.8204	1.02188	0.97859	189.95032	177.04975	71.88611	0.32119	 	4.03597E18	 	7.47537E-19	 	-12503.19516	27.27211	 
340.0	1.0	0.0	8.49849	7.02278	-11.17412	12.77272	14.7585	1.01787	0.98245	190.21578	177.16614	71.99378	0.32106	 	6.18073E18	 	4.84188E-19	 	-12639.32307	27.22558	 
335.0	1.0	0.0	8.50029	7.0213	-11.19291	12.74854	14.69652	1.01382	0.98637	190.48076	177.28195	72.10129	0.32092	 	9.5318E18	 	3.11403E-19	 	-12775.21843	27.17907	 
330.0	1.0	0.0	8.50208	7.01982	-11.21164	12.72435	14.63449	1.00975	0.99034	190.74526	177.39718	72.20863	0.32079	 	1.48057E19	 	1.9883E-19	 	-12910.88131	27.13258	 
325.0	1.0	0.0	8.50387	7.01834	-11.2303	12.70015	14.57238	1.00565	0.99438	191.00927	177.51183	72.31581	0.32066	 	2.31676E19	 	1.26013E-19	 	-13046.31177	27.08609	 
320.0	1.0	0.0	8.50565	7.01687	-11.2489	12.67593	14.51021	1.00151	0.99849	191.2728	177.62591	72.42282	0.32053	 	3.65268E19	 	7.92573E-20	 	-13181.50986	27.03962	 
315.0	1.0	0.0	8.50743	7.01541	-11.26744	12.6517	14.44796	0.99735	1.00266	191.53584	177.73941	72.52967	0.3204	 	5.80369E19	 	4.94619E-20	 	-13316.47562	26.99315	 
310.0	1.0	0.0	8.5092	7.01395	-11.28591	12.62746	14.38565	0.99315	1.00689	191.79839	177.85234	72.63636	0.32026	 	9.2949E19	 	3.06212E-20	 	-13451.2091	26.9467	 
305.0	1.0	0.0	8.51096	7.01249	-11.30433	12.6032	14.32326	0.98893	1.0112	192.06047	177.96469	72.74288	0.32013	 	1.5008E20	 	1.8802E-20	 	-13585.7103	26.90024	 
300.0	1.0	0.0	8.51273	7.01104	-11.32268	12.57894	14.26079	0.98467	1.01557	192.32205	178.07648	72.84923	0.32	 	2.4436099999999997E20	 	1.14478E-20	 	-13719.97925	26.85379	 
295.0	1.0	0.0	8.51448	7.00959	-11.34096	12.55466	14.19824	0.98038	1.02001	192.58315	178.18769	72.95542	0.31987	 	4.01298E20	 	6.91007E-21	 	-13854.01593	26.80734	 
290.0	1.0	0.0	8.51623	7.00815	-11.35919	12.53037	14.13562	0.97606	1.02453	192.84377	178.29834	73.06145	0.31974	 	6.64856E20	 	4.13412E-21	 	-13987.82034	26.76088	 
285.0	1.0	0.0	8.51798	7.00672	-11.37735	12.50606	14.07291	0.9717	1.02912	193.1039	178.40842	73.16731	0.31961	 	1.11152E21	 	2.45087E-21	 	-14121.39245	26.71442	 
280.0	1.0	0.0	8.51972	7.00529	-11.39544	12.48175	14.01012	0.96731	1.03379	193.36355	178.51793	73.27301	0.31947	 	1.8756E21	 	1.43942E-21	 	-14254.73222	26.66795	 
275.0	1.0	0.0	8.52145	7.00386	-11.41348	12.45742	13.94723	0.96289	1.03854	193.62271	178.62687	73.37854	0.31934	 	3.19529E21	 	8.37291E-22	 	-14387.83959	26.62147	 
270.0	1.0	0.0	8.52318	7.00244	-11.43145	12.43308	13.88426	0.95844	1.04337	193.88138	178.73526	73.4839	0.31921	 	5.49717E21	 	4.82245E-22	 	-14520.71449	26.57498	 
265.0	1.0	0.0	8.5249	7.00102	-11.44935	12.40872	13.8212	0.95395	1.04828	194.13957	178.84308	73.5891	0.31908	 	9.55314E21	 	2.74944E-22	 	-14653.35685	26.52847	 
260.0	1.0	0.0	8.52662	6.99961	-11.4672	12.38436	13.75804	0.94942	1.05327	194.39728	178.95034	73.69414	0.31895	 	1.6774699999999998E22	 	1.55125E-22	 	-14785.76655	26.48194	 
255.0	1.0	0.0	8.52833	6.99821	-11.48498	12.35998	13.69478	0.94486	1.05836	194.6545	179.05704	73.79901	0.31882	 	2.97711E22	 	8.65864E-23	 	-14917.94349	26.43539	 
250.0	1.0	0.0	8.53004	6.99681	-11.50269	12.33559	13.63143	0.94027	1.06353	194.91123	179.16318	73.90371	0.31868	 	5.3418899999999996E22	 	4.77989E-23	 	-15049.88751	26.3888	 
245.0	1.0	0.0	8.53174	6.99541	-11.52035	12.31119	13.56797	0.93564	1.06879	195.16748	179.26876	74.00825	0.31855	 	9.69385E22	 	2.60883E-23	 	-15181.59848	26.34219	 
240.0	1.0	0.0	8.53344	6.99402	-11.53794	12.28677	13.5044	0.93097	1.07415	195.42324	179.37379	74.11262	0.31842	 	1.77968E23	 	1.40731E-23	 	-15313.07621	26.29555	 
235.0	1.0	0.0	8.53513	6.99264	-11.55546	12.26235	13.44072	0.92627	1.0796	195.67852	179.47826	74.21682	0.31829	 	3.30657E23	 	7.50069E-24	 	-15444.32053	26.24886	 
230.0	1.0	0.0	8.53682	6.99125	-11.57293	12.23791	13.37693	0.92153	1.08516	195.93331	179.58218	74.32086	0.31816	 	6.21958E23	 	3.94842E-24	 	-15575.33119	26.20213	 
225.0	1.0	0.0	8.5385	6.98988	-11.59032	12.21346	13.31302	0.91675	1.09081	196.18762	179.68555	74.42474	0.31803	 	1.18482E24	 	2.05208E-24	 	-15706.10797	26.15536	 
220.0	1.0	0.0	8.54017	6.98851	-11.60766	12.18899	13.24899	0.91193	1.09657	196.44144	179.78837	74.52845	0.3179	 	2.28676E24	 	1.05256E-24	 	-15836.65061	26.10853	 
215.0	1.0	0.0	8.54184	6.98714	-11.62493	12.16452	13.18483	0.90708	1.10244	196.69477	179.89063	74.63199	0.31776	 	4.4734E24	 	5.32601E-25	 	-15966.95881	26.06164	 
210.0	1.0	0.0	8.5435	6.98578	-11.64214	12.14003	13.12055	0.90219	1.10842	196.94762	179.99235	74.73536	0.31763	 	8.87334E24	 	2.65755E-25	 	-16097.03229	26.01469	 
205.0	1.0	0.0	8.54516	6.98443	-11.65928	12.11553	13.05613	0.89725	1.11451	197.19998	180.09352	74.83857	0.3175	 	1.78549E25	 	1.30705E-25	 	-16226.87066	25.96768	 
200.0	1.0	0.0	8.54681	6.98308	-11.67636	12.09101	12.99158	0.89228	1.12072	197.45185	180.19414	74.94162	0.31737	 	3.64624E25	 	6.33345E-26	 	-16356.47359	25.92059	 
195.0	1.0	0.0	8.54846	6.98173	-11.69338	12.06649	12.92688	0.88727	1.12705	197.70324	180.29422	75.04449	0.31724	 	7.560610000000001E25	 	3.02214E-26	 	-16485.84067	25.87341	 
190.0	1.0	0.0	8.5501	6.98039	-11.71033	12.04195	12.86204	0.88222	1.1335	197.95415	180.39375	75.1472	0.31711	 	1.5926E26	 	1.41939E-26	 	-16614.97145	25.82616	 
185.0	1.0	0.0	8.55174	6.97906	-11.72722	12.0174	12.79705	0.87713	1.14008	198.20457	180.49274	75.24975	0.31698	 	3.4097200000000006E26	 	6.55807E-27	 	-16743.86549	25.77881	 
180.0	1.0	0.0	8.55337	6.97773	-11.74404	11.99283	12.73189	0.872	1.14679	198.4545	180.59119	75.35213	0.31685	 	7.4238E26	 	2.97922E-27	 	-16872.52226	25.73135	 
175.0	1.0	0.0	8.55499	6.9764	-11.7608	11.96826	12.66658	0.86682	1.15364	198.70394	180.6891	75.45434	0.31672	 	1.6446499999999998E27	 	1.32995E-27	 	-17000.94125	25.6838	 
170.0	1.0	0.0	8.55661	6.97508	-11.77749	11.94367	12.6011	0.86161	1.16062	198.9529	180.78647	75.55638	0.31659	 	3.7095199999999997E27	 	5.83069E-28	 	-17129.12186	25.63612	 
165.0	1.0	0.0	8.55822	6.97377	-11.79412	11.91907	12.53544	0.85635	1.16775	199.20137	180.8833	75.65825	0.31645	 	8.52359E27	 	2.50892E-28	 	-17257.06347	25.58832	 
160.0	1.0	0.0	8.55983	6.97246	-11.81069	11.89446	12.46961	0.85104	1.17503	199.44936	180.97959	75.75996	0.31632	 	1.9965E28	 	1.0589E-28	 	-17384.76542	25.54039	 
155.0	1.0	0.0	8.56143	6.97115	-11.82719	11.86983	12.40358	0.8457	1.18246	199.69686	181.07535	75.86151	0.31619	 	4.77034E28	 	4.3806E-29	 	-17512.22699	25.49231	 
150.0	1.0	0.0	8.56303	6.96985	-11.84363	11.8452	12.33737	0.84031	1.19004	199.94387	181.17058	75.96288	0.31606	 	1.1635100000000001E29	 	1.77506E-29	 	-17639.44742	25.44409	 
145.0	1.0	0.0	8.56462	6.96856	-11.86	11.82055	12.27095	0.83487	1.19779	200.1904	181.26527	76.06409	0.31593	 	2.8990100000000003E29	 	7.03995E-30	 	-17766.4259	25.39569	 
140.0	1.0	0.0	8.56621	6.96727	-11.87631	11.79589	12.20432	0.82939	1.2057	200.43643	181.35942	76.16513	0.3158	 	7.38458E29	 	2.73067E-30	 	-17893.16154	25.34713	 
135.0	1.0	0.0	8.56779	6.96598	-11.89255	11.77121	12.13748	0.82387	1.21379	200.68199	181.45305	76.266	0.31567	 	1.92465E30	 	1.03503E-30	 	-18019.65342	25.29838	 
130.0	1.0	0.0	8.56936	6.9647	-11.90873	11.74652	12.07041	0.8183	1.22205	200.92705	181.54615	76.36671	0.31554	 	5.13685E30	 	3.83051E-31	 	-18145.90053	25.24942	 
125.0	1.0	0.0	8.57093	6.96343	-11.92485	11.72183	12.0031	0.81268	1.2305	201.17163	181.63871	76.46725	0.31541	 	1.40524E31	 	1.38288E-31	 	-18271.90182	25.20026	 
120.0	1.0	0.0	8.57249	6.96216	-11.9409	11.69711	11.93555	0.80702	1.23913	201.41572	181.73075	76.56762	0.31528	 	3.94385E31	 	4.86547E-32	 	-18397.65615	25.15087	 
115.0	1.0	0.0	8.57405	6.9609	-11.95688	11.67239	11.86775	0.8013	1.24797	201.65933	181.82227	76.66782	0.31515	 	1.1366799999999999E32	 	1.66667E-32	 	-18523.16231	25.10123	 
110.0	1.0	0.0	8.5756	6.95964	-11.9728	11.64766	11.79968	0.79555	1.257	201.90244	181.91325	76.76785	0.31502	 	3.36784E32	 	5.5527E-33	 	-18648.41901	25.05134	 
105.0	1.0	0.0	8.57714	6.95839	-11.98866	11.62291	11.73133	0.78974	1.26624	202.14507	182.00372	76.86772	0.31489	 	1.02693E33	 	1.79726E-33	 	-18773.42487	25.00117	 
100.0	1.0	0.0	8.57868	6.95714	-12.00445	11.59815	11.6627	0.78388	1.2757	202.38722	182.09366	76.96742	0.31476	 	3.2263100000000003E33	 	5.64501E-34	 	-18898.17841	24.95071	 
95.0	1.0	0.0	8.58021	6.95589	-12.02018	11.57337	11.59377	0.77798	1.28539	202.62887	182.18307	77.06695	0.31463	 	1.04562E34	 	1.71845E-34	 	-19022.67807	24.89993	 
90.0	1.0	0.0	8.58174	6.95466	-12.03584	11.54859	11.52452	0.77202	1.2953	202.87004	182.27197	77.16631	0.3145	 	3.50031E34	 	5.06369E-35	 	-19146.92217	24.84882	 
85.0	1.0	0.0	8.58326	6.95342	-12.05143	11.52379	11.45494	0.76602	1.30546	203.11072	182.36034	77.2655	0.31437	 	1.2119599999999999E35	 	1.44233E-35	 	-19270.90893	24.79735	 
80.0	1.0	0.0	8.58478	6.95219	-12.06696	11.49898	11.38503	0.75996	1.31586	203.35091	182.4482	77.36453	0.31424	 	4.3465499999999995E35	 	3.96553E-36	 	-19394.63642	24.7455	 
75.0	1.0	0.0	8.58629	6.95097	-12.08243	11.47416	11.31475	0.75385	1.32652	203.59062	182.53554	77.46339	0.31411	 	1.61708E36	 	1.0508E-36	 	-19518.10264	24.69324	 
70.0	1.0	0.0	8.58779	6.94975	-12.09783	11.44932	11.2441	0.7477	1.33744	203.82984	182.62236	77.56207	0.31398	 	6.250969999999999E36	 	2.67931E-37	 	-19641.30538	24.64055	 
65.0	1.0	0.0	8.58929	6.94854	-12.11316	11.42448	11.17305	0.74149	1.34864	204.06857	182.70867	77.66059	0.31385	 	2.51494E37	 	6.56247E-38	 	-19764.24232	24.58739	 
60.0	1.0	0.0	8.59078	6.94733	-12.12843	11.39962	11.10159	0.73523	1.36013	204.30681	182.79446	77.75895	0.31372	 	1.05501E38	 	1.54124E-38	 	-19886.91099	24.53373	 
55.0	1.0	0.0	8.59227	6.94613	-12.14363	11.37475	11.0297	0.72891	1.37191	204.54456	182.87974	77.85713	0.31359	 	4.62341E38	 	3.46415E-39	 	-20009.30871	24.47955	 
50.0	1.0	0.0	8.59375	6.94494	-12.15877	11.34986	10.95735	0.72254	1.384	204.78183	182.96451	77.95514	0.31346	 	2.12093E39	 	7.43645E-40	 	-20131.43266	24.42479	 
45.0	1.0	0.0	8.59523	6.94374	-12.17385	11.32497	10.88452	0.71612	1.3964	205.01861	183.04876	78.05299	0.31333	 	1.02066E40	 	1.52137E-40	 	-20253.27979	24.36943	 
40.0	1.0	0.0	8.5967	6.94256	-12.18885	11.30006	10.81119	0.70965	1.40914	205.2549	183.1325	78.15066	0.3132	 	5.16452E40	 	2.95944E-41	 	-20374.84682	24.31341	 
35.0	1.0	0.0	8.59816	6.94138	-12.2038	11.27514	10.73732	0.70312	1.42222	205.4907	183.21574	78.24817	0.31307	 	2.75441E41	 	5.46035E-42	 	-20496.13028	24.25669	 
30.0	1.0	0.0	8.59962	6.9402	-12.21867	11.2502	10.6629	0.69654	1.43566	205.72602	183.29847	78.34551	0.31294	 	1.55241E42	 	9.53096E-43	 	-20617.12642	24.19923	 
25.0	1.0	0.0	8.60107	6.93903	-12.23348	 	10.58788	0.68991	1.44947	205.96084	183.38069	78.44267	0.31281	 	9.272039999999999E42	 	1.56945E-43	 	-20737.83121	 	 
