T (C)	Fraction solid (wt)-TOTAL	Fraction liquid (wt)-LIQUID	Density (g/(cm)^3)-TOTAL	Molar volume (cm^3)-TOTAL	Volume change (%)-  	Average expansion coeff. (10e-6 1/K)-  	Thermal conductivity (W/(m*K))-TOTAL	Electrical resistivity (10e-6 Ohm*m)-TOTAL	Electrical conductivity (10e6 1/(Ohm*m))-TOTAL	Young's modulus (GPa)-TOTAL	Bulk modulus (GPa)-TOTAL	Shear modulus(GPa)-TOTAL	Poisson's ratio-TOTAL	Liquid viscosity (mPa s)-  	Total viscosity (mPa s)-  	Liquid diffusivity (10e-9 (m^2)/s)-  	Total diffusivity (10e-9 (m^2)/s)-  	Surface Tension (mN/m)-  	Enthalpy (J/mole)-TOTAL	Specific heat (J/(mole K))-TOTAL	Latent heat (J/mole)-TOTAL
1400.0	0.0448201	0.95518	7.82777	8.21615	0.0	35.79088	32.20692	1.27278	0.78568	6.51253E-5	125.40843	2.17582E-5	0.49657	7.41355	7.41355	1.10153	1.10153	1832.36019	33351.775	 	0.0
1395.0	0.0479701	0.95203	7.83324	8.21043	-0.0696843	35.72692	32.12609	1.27216	0.78606	8.57689E-5	125.66813	2.86599E-5	0.49632	7.46848	7.46848	1.09016	1.09016	1835.60097	33080.464	54.2622	76.003
1390.0	0.0510501	0.94895	7.83865	8.20479	-0.13831	35.66547	32.04546	1.27154	0.78645	1.10489E-4	125.92561	3.69261E-5	0.49608	7.52467	7.52467	1.07878	1.07878	1838.84789	32811.075	53.8778	150.494
1385.0	0.0540602	0.94594	7.84397	8.19919	-0.20647	35.60486	31.96503	1.27091	0.78684	1.39631E-4	126.17985	4.66729E-5	0.49584	7.58205	7.58205	1.06739	1.06739	1842.10135	32543.577	53.4996	223.498
1380.0	0.0570102	0.94299	7.84933	8.1936	-0.27444	35.54435	31.8846	1.27027	0.78723	1.73517E-4	126.43209	5.80089E-5	0.49561	7.64093	7.64093	1.05597	1.05597	1845.36139	32277.943	53.1268	295.04
1375.0	0.0599003	0.9401	7.85463	8.18808	-0.34171	35.48537	31.80437	1.26963	0.78763	2.12504E-4	126.68174	7.10536E-5	0.49538	7.70111	7.70111	1.04455	1.04455	1848.62733	32014.143	52.76	365.147
1370.0	0.0627303	0.93727	7.85989	8.18258	-0.40856	35.42714	31.72411	1.26898	0.78804	2.56843E-4	126.9281	8.5892E-5	0.49515	7.76268	7.76268	1.03312	1.03312	1851.89923	31752.149	52.3988	433.843
1365.0	0.0655004	0.9345	7.86515	8.1771	-0.47534	35.36869	31.64405	1.26832	0.78845	3.06836E-4	127.17265	1.02626E-4	0.49493	7.82567	7.82567	1.02169	1.02169	1855.17724	31491.935	52.0428	501.154
1360.0	0.0682205	0.93178	7.87044	8.17161	-0.54208	35.30992	31.56395	1.26765	0.78886	3.62749E-4	127.41514	1.21345E-4	0.49471	7.89023	7.89023	1.01024	1.01024	1858.4612	31233.472	51.6926	567.103
1355.0	0.0708705	0.92913	7.87562	8.16629	-0.60687	35.25631	31.48418	1.26698	0.78928	4.24762E-4	127.65551	1.42109E-4	0.49449	7.95613	7.95613	0.9988	0.9988	1861.74898	30976.735	51.3474	631.715
1350.0	0.0734706	0.92653	7.88081	8.16092	-0.67222	35.20068	31.40438	1.26629	0.78971	4.93113E-4	127.89323	1.65E-4	0.49428	8.02357	8.02357	0.98736	0.98736	1865.0429	30721.696	51.0078	695.016
1345.0	0.0760207	0.92398	7.88601	8.15553	-0.73779	35.14399	31.32458	1.26561	0.79013	5.68013E-4	128.1285	1.90089E-4	0.49407	8.0926	8.0926	0.97593	0.97593	1868.34244	30468.329	50.6734	757.026
1340.0	0.0785108	0.92149	7.89116	8.15013	-0.8036	35.08616	31.24479	1.26492	0.79056	6.49644E-4	128.36018	2.17438E-4	0.49386	8.1631	8.1631	0.96451	0.96451	1871.64742	30216.611	50.3436	817.768
1335.0	0.0809509	0.91905	7.89626	8.14486	-0.86766	35.03301	31.1652	1.26422	0.791	7.38025E-4	128.59124	2.47053E-4	0.49366	8.23521	8.23521	0.9531	0.9531	1874.95562	29966.514	50.0194	877.266
1330.0	0.083341	0.91666	7.90133	8.13972	-0.93031	34.9836	31.0859	1.2635	0.79145	8.333E-4	128.82123	2.78982E-4	0.49346	8.30895	8.30895	0.94171	0.94171	1878.26717	29718.015	49.6998	935.542
1325.0	0.0856712	0.91433	7.90643	8.13447	-0.99415	34.93029	31.00643	1.26279	0.7919	9.3566E-4	129.04773	3.13293E-4	0.49327	8.38438	8.38438	0.93032	0.93032	1881.58458	29471.089	49.3852	992.617
1320.0	0.0879613	0.91204	7.91145	8.12927	-1.05747	34.87812	30.92706	1.26207	0.79235	0.00104512	129.27174	3.4999E-4	0.49307	8.46141	8.46141	0.91897	0.91897	1884.90633	29225.713	49.0752	1048.513
1315.0	0.0902014	0.9098	7.9165	8.12405	-1.12102	34.82484	30.84762	1.26135	0.7928	0.00116173	129.49367	3.89091E-4	0.49288	8.54025	8.54025	0.90763	0.90763	1888.23213	28981.863	48.77	1103.25
1314.65	0.0903614	0.90964	7.91689	8.1237	-1.12524	34.82167	30.84216	1.2613	0.79283	0.00117001	129.50989	3.91865E-4	0.49287	8.54586	8.54586	0.90683	0.90683	1888.46223	28965.059	48.58754	1106.987
1314.65	0.0903614	0.90964	7.91689	8.1237	-1.12524	34.82167	30.84216	1.2613	0.79283	0.00117001	129.50989	3.91865E-4	0.49287	8.54586	8.54586	0.90683	0.90683	1888.46223	28965.059	 	1106.987
1310.0	0.15538	0.84462	7.94549	8.09446	-1.48117	33.88817	30.97387	1.25225	0.79856	0.00397513	130.856	0.00133842	0.48501	8.6324	11.9502	0.89511	0.6466	1890.17939	27860.674	237.29038	2035.692
1307.17	0.19175	0.80825	7.96168	8.07798	-1.68167	33.36465	31.06083	1.24652	0.80223	0.017841	132.05194	0.00602503	0.48057	8.68628	17.06002	0.88797	0.45212	1891.20958	27236.973	 	2552.899
1305.0	0.22836	0.77164	7.9822	8.05724	-1.93412	32.66686	30.84398	1.25356	0.79773	0.0344172	133.12194	0.0116651	0.47523	8.75328	28.12875	0.87996	0.27383	1892.1528	26487.219	274.691	3220.763
1304.01	0.24397	0.75603	7.99105	8.04835	-2.04231	32.36842	30.75239	1.2565	0.79586	0.0451804	133.57731	0.0153368	0.47294	8.78388	35.53078	0.87635	0.21665	1892.57872	26166.176	 	3504.715
1300.0	0.3032	0.6968	8.02784	8.01154	-2.49038	31.12598	30.18881	1.2767	0.78327	0.0860128	135.18381	0.0293811	0.46374	8.88083	85.28577	0.86458	0.0900286	1892.59137	24794.839	338.476	4725.121
1295.0	0.36764	0.63236	8.06829	7.97147	-2.97809	29.77945	29.60605	1.2977	0.7706	0.22544	137.03529	0.0775426	0.45365	9.00445	204.04376	0.85	0.0375103	1892.67921	23288.636	301.2406	6043.657
1290.0	0.42325	0.57675	8.10359	7.93685	-3.39936	28.62318	29.10501	1.31583	0.75998	0.53455	138.71649	0.18498	0.44487	9.13132	398.64934	0.83551	0.019138	1892.83231	21973.671	262.993	7171.315
1285.0	0.47165	0.52835	8.13466	7.90665	-3.76704	27.62049	28.67933	1.33109	0.75127	1.06481	140.24068	0.37045	0.43717	9.26165	677.7209	0.82112	0.0112213	1893.04456	20814.74	231.7862	8143.29
1280.0	0.51411	0.48589	8.16214	7.88016	-4.08935	26.74807	28.31426	1.34392	0.74409	1.84084	141.62648	0.64348	0.43038	9.39534	1046.06923	0.80684	0.00724669	1893.30717	19784.45	206.058	8986.977
1275.0	0.55161	0.44839	8.1866	7.85673	-4.37455	25.98225	27.99823	1.35472	0.73816	2.86912	142.89117	1.00717	0.42435	9.53248	1506.32016	0.79267	0.00501629	1893.61523	18861.209	184.6482	9723.963
1270.0	0.58494	0.41506	8.20853	7.83586	-4.62852	25.30621	27.72235	1.36378	0.73326	4.14654	144.05028	1.46111	0.41897	9.67324	2060.01073	0.77862	0.00365616	1893.9631	18027.807	166.6804	10371.457
1265.0	0.61472	0.38528	8.2283	7.81712	-4.85666	24.70443	27.4795	1.37137	0.7292	5.66758	145.11703	2.00391	0.41413	9.81771	2708.4023	0.76467	0.00277187	1894.34692	17270.386	151.4842	10943.318
1260.0	0.64146	0.35854	8.24611	7.80007	-5.06423	24.1615	27.25649	1.3781	0.72564	7.43906	146.09477	2.63845	0.40974	9.9661	3453.16141	0.75084	0.00216698	1898.49312	16537.39028	146.59914	11450.806
1255.0	0.66559	0.33441	8.26531	7.78507	-5.24673	23.69212	26.98168	1.3876	0.72067	9.52459	146.99499	3.38836	0.40549	10.11839	4350.10122	0.73713	0.00171456	1902.61976	15669.49056	173.57994	11903.16
1250.0	0.68745	0.31255	8.28309	7.77132	-5.41409	23.26619	26.72978	1.39609	0.71629	11.83704	147.83316	4.2227	0.4016	10.27469	5373.88217	0.72354	0.00138338	1906.72673	14857.0244	162.49323	12308.01
1245.0	0.7153	0.2847	8.30417	7.75483	-5.61487	22.73198	26.59513	1.39855	0.71503	15.21319	148.97995	5.44544	0.39687	10.49628	6844.33618	0.70594	0.00108261	1910.83837	13993.21708	172.76146	12771.905
1240.0	0.74318	0.25682	8.3254	7.73844	-5.81431	22.19756	26.49209	1.39937	0.71461	19.71109	150.1693	7.07936	0.39215	10.74975	8678.85173	0.68702	8.50955E-4	1914.94	13153.61711	167.91999	13219.07
1235.0	0.76768	0.23232	8.3447	7.72373	-5.9933	21.72343	26.38239	1.40054	0.71401	24.95628	151.24377	8.99046	0.38793	11.01072	10755.28546	0.66852	6.84399E-4	1919.02215	12380.69511	154.5844	13606.817
1230.0	0.78925	0.21075	8.36224	7.71038	-6.15581	21.29766	26.26891	1.40193	0.7133	30.81262	152.21806	11.13054	0.38415	11.27955	13081.35418	0.65043	5.60837E-4	1923.08773	11664.81709	143.1756	13944.567
1225.0	0.80834	0.19166	8.37815	7.6982	-6.30411	20.91364	26.15347	1.40343	0.71254	37.10288	153.10451	13.43582	0.38075	11.55622	15666.87274	0.63274	4.66724E-4	1927.13585	10998.06165	133.35109	14240.03
1220.0	0.82528	0.17472	8.39256	7.68701	-6.44023	20.56539	26.03711	1.405	0.71174	43.65345	153.91553	15.84315	0.37768	11.84078	18527.86326	0.61547	3.93337E-4	1931.16493	10373.87186	124.83796	14499.56
1215.0	0.84037	0.15963	8.40561	7.67663	-6.56654	20.24574	25.91998	1.40662	0.71092	50.28991	154.6588	18.28861	0.3749	12.13357	21678.84477	0.59861	3.3504E-4	1935.17961	9786.78235	117.4179	14728.421
1210.0	0.85384	0.14616	8.4174	7.66703	-6.68343	19.95381	25.80392	1.4082	0.71012	56.86641	155.34358	20.71818	0.37238	12.43447	25139.94687	0.58216	2.87944E-4	1939.17349	9232.2124	110.91399	14930.998
1205.0	0.86591	0.13409	8.42807	7.65802	-6.79304	19.68302	25.68861	1.40976	0.70934	50.02712	155.97684	18.25694	0.37008	12.74395	28936.6638	0.56611	2.4932E-4	1943.15223	8706.30315	105.18185	15110.958
1200.0	0.87676	0.12324	8.43769	7.64957	-6.89589	19.43193	25.57444	1.41126	0.70859	54.73273	156.56393	20.00476	0.36799	13.06191	33092.22335	0.55046	2.17274E-4	1947.11401	8205.78494	100.10364	15271.388
1195.0	0.88653	0.11347	8.44639	7.64162	-6.99267	19.19852	25.46166	1.4127	0.70786	59.45601	157.111	21.76155	0.36608	13.38866	37638.43007	0.5352	1.90382E-4	1951.05758	7727.83248	95.59049	15414.929
1190.0	0.89536	0.10464	8.45425	7.6341	-7.08425	18.98021	25.35039	1.41407	0.70718	64.20303	157.62233	23.52925	0.36432	13.72439	42608.79309	0.52033	1.67601E-4	1954.98417	7270.15326	91.53584	15543.704
1185.0	0.90336	0.0966361	8.46134	7.62696	-7.17109	18.77566	25.24088	1.41535	0.70654	68.97419	158.10208	25.30772	0.36271	14.06929	48040.84855	0.50584	1.48142E-4	1958.89322	6830.65489	87.89967	15659.632
1180.0	0.91062	0.089376	8.46776	7.62017	-7.25379	18.58303	25.13314	1.41654	0.70594	73.7639	158.55352	27.09471	0.36122	14.42379	53975.46752	0.49172	1.31402E-4	1962.78602	6407.57842	84.61529	15764.314
1175.0	0.91724	0.0827554	8.47355	7.61369	-7.33269	18.40137	25.02725	1.41764	0.7054	78.561	158.98005	28.88592	0.35985	14.78817	60460.54096	0.47795	1.16904E-4	1966.66134	5999.39863	81.63596	15859.119
1170.0	0.92328	0.0767159	8.47881	7.60748	-7.40818	18.22949	24.92328	1.41864	0.7049	83.34329	159.38437	30.67303	0.35858	15.16242	67547.33056	0.46455	1.04277E-4	1970.51998	5604.78939	78.92185	15945.224
1165.0	0.92881	0.0711902	8.48356	7.60154	-7.48054	18.06663	24.82119	1.41954	0.70445	88.07992	159.76893	32.44447	0.35739	15.54713	75292.10898	0.45148	9.32269E-5	1974.36118	5222.59583	76.43871	16023.646
1160.0	0.93387	0.0661254	8.48788	7.59581	-7.55022	17.91138	24.72596	1.42005	0.7042	92.73679	160.13557	34.18755	0.35629	15.94289	83757.33261	0.43874	8.35133E-5	1978.1879	4851.80543	74.15808	16095.261
1155.0	0.93853	0.0614704	8.4918	7.59032	-7.61706	17.76436	24.62769	1.42075	0.70386	97.27465	160.48653	35.88753	0.35527	16.34912	93011.90706	0.42635	7.49414E-5	1981.99429	4491.53213	72.05466	16160.83
1150.0	0.94281	0.0571858	8.49537	7.58501	-7.68166	17.62364	24.53146	1.42132	0.70357	101.66401	160.82328	37.53343	0.35431	16.7672	103131.925	0.41426	6.7351E-5	1985.78636	4140.99601	70.10722	16221.015
1145.0	0.94677	0.0532327	8.49863	7.57989	-7.74407	17.48915	24.43725	1.42179	0.70334	105.87385	161.14721	39.11358	0.35342	17.19703	114201.1696	0.40249	6.06092E-5	1989.56197	3799.50919	68.29736	16276.393
1140.0	0.95042	0.0495787	8.50161	7.57493	-7.80438	17.36065	24.34498	1.42215	0.70316	109.88117	161.45988	40.61927	0.35257	17.63914	126311.871	0.39102	5.46048E-5	1993.31973	3466.46115	66.60961	16327.468
1135.0	0.95381	0.0461946	8.50434	7.57013	-7.8628	17.23751	24.25461	1.4224	0.70304	113.66835	161.76226	42.04384	0.35178	18.09426	139564.2378	0.37983	4.92449E-5	1997.06108	3141.30783	65.03066	16374.684
1130.0	0.95695	0.043055	8.50685	7.56548	-7.91947	17.11934	24.166	1.42254	0.70297	117.23147	162.05549	43.38569	0.35104	18.56158	154072.1879	0.36896	4.44495E-5	2000.78541	2823.56927	63.54771	16418.428
1125.0	0.95966	0.0403355	8.50939	7.56108	-7.97303	17.01088	24.07648	1.42274	0.70287	120.39815	162.34566	44.58	0.35036	19.05804	169817.7914	0.35807	4.01844E-5	2004.48781	2508.1031	63.09323	16463.749
1120.0	0.96212	0.0378843	8.5119	7.55687	-8.02427	16.90956	23.98754	1.42291	0.70278	123.29818	162.63277	45.67513	0.34973	19.58064	187004.2333	0.34726	3.63608E-5	2008.16658	2196.25628	62.36936	16509.213
1115.0	0.96456	0.0354394	8.51429	7.55268	-8.07515	16.80853	23.90084	1.42295	0.70277	126.17923	162.9206	46.76406	0.3491	20.13095	205978.5786	0.33656	3.28928E-5	2011.82485	1887.70789	61.70968	16555.053
1110.0	0.96697	0.0330297	8.51656	7.54856	-8.12541	16.70881	23.81618	1.42286	0.70281	128.99505	163.20794	47.82943	0.34849	20.70998	226904.6596	0.32597	2.97518E-5	2015.45883	1582.99678	60.94222	16600.642
1105.0	0.96939	0.0306102	8.51877	7.54447	-8.17512	16.61007	23.73364	1.42265	0.70291	131.75857	163.49594	48.87613	0.34788	21.29723	250006.0477	0.31583	2.6905E-5	2019.07908	1281.63466	60.27242	16646.38
1100.0	0.97184	0.0281572	8.5209	7.54041	-8.22452	16.51154	23.65287	1.42233	0.70307	134.49385	163.78671	49.91328	0.34728	21.90742	275557.9469	0.30592	2.43216E-5	2022.67776	982.80254	59.76642	16692.993
1095.0	0.97419	0.0258073	8.52291	7.53644	-8.27293	16.41562	23.57379	1.4219	0.70328	137.06956	164.07402	50.89131	0.34669	22.54596	303678.327	0.29618	2.19891E-5	2026.25492	689.08158	58.74419	16737.807
1090.0	0.97693	0.0230746	8.52499	7.53235	-8.32267	16.31404	23.49878	1.42123	0.70362	139.88888	164.37558	51.96213	0.34607	23.20349	335195.9141	0.28673	1.98487E-5	2029.79866	392.45889	59.32454	16788.735
1085.0	0.98099	0.0190107	8.52747	7.52778	-8.37829	16.19023	23.43243	1.42003	0.70421	143.62246	164.72695	53.37988	0.34529	23.88341	371814.6651	0.27755	1.78282E-5	2033.26583	76.80603	63.13057	16861.803
1080.0	0.98731	0.0126914	8.53113	7.52252	-8.44228	16.03494	23.36858	1.41866	0.70489	148.53659	165.15134	55.24994	0.34422	24.38161	415576.4956	0.27088	1.58921E-5	2036.69145	-267.43728	68.84866	16966.469
1075.0	0.99263	0.00736855	8.53448	7.51766	-8.5014	15.89591	23.3046	1.4173	0.70557	152.38349	165.54042	56.71972	0.3433	24.85747	462904.0892	0.26471	1.42146E-5	2040.09344	-590.96457	64.70546	17053.314
1070.0	0.99676	0.00323851	8.53739	7.51326	-8.555	15.77576	23.24026	1.41596	0.70624	155.3066	165.88344	57.84032	0.34255	25.34199	513602.0686	0.25868	1.27639E-5	2043.47645	-891.74294	60.15567	17120.193
1065.0	1.0	0.0	8.53997	7.5092	-8.60442	15.66981	23.17579	1.41461	0.70691	157.63731	166.19322	58.73601	0.34191	 	568259.3331	 	1.14933E-5	 	-1175.09456	56.67032	17172.323
1060.0	1.0	0.0	8.54282	7.5067	-8.63482	15.63315	23.10633	1.41356	0.70743	158.01497	166.37708	58.88566	0.34171	 	629689.518	 	1.03333E-5	 	2137.84843	-662.5886	 
1055.0	1.0	0.0	8.54564	7.50422	-8.66499	15.597	23.03793	1.41244	0.708	158.38947	166.56082	59.03403	0.34151	 	698464.9797	 	9.28088E-6	 	2063.83228	14.80323	 
1050.0	1.0	0.0	8.54844	7.50176	-8.69493	15.56135	22.97053	1.41125	0.70859	158.76106	166.74445	59.18121	0.34131	 	775529.2863	 	8.32717E-6	 	1990.56531	14.65339	 
1045.0	1.0	0.0	8.55122	7.49932	-8.72465	15.52616	22.90407	1.41	0.70922	159.12993	166.92803	59.32729	0.34112	 	861955.0032	 	7.46392E-6	 	1918.01109	14.51084	 
1044.59	1.0	0.0	8.55145	7.49912	-8.72708	15.52328	22.89864	1.40989	0.70927	159.16018	166.94313	59.33926	0.3411	 	869521.0846	 	7.39666E-6	 	1912.07118	 	 
1040.0	1.0	0.0	8.55421	7.49671	-8.75648	15.48266	22.83403	1.40896	0.70974	159.49035	167.08232	59.4711	0.34091	 	961375.0812	 	6.66666E-6	 	1833.91329	16.81956	 
1035.0	1.0	0.0	8.55717	7.49411	-8.78813	15.43945	22.76491	1.40785	0.7103	159.84345	167.23148	59.6121	0.3407	 	1073413.871	 	5.94808E-6	 	1750.05495	16.77167	 
1030.0	1.0	0.0	8.56011	7.49154	-8.8194	15.39723	22.69702	1.40667	0.7109	160.19335	167.38154	59.75175	0.34049	 	1199525.552	 	5.30239E-6	 	1667.44664	16.52166	 
1025.0	1.0	0.0	8.56301	7.489	-8.85032	15.35593	22.63593	1.40505	0.71172	160.54037	167.53246	59.8902	0.34029	 	1341599.267	 	4.72268E-6	 	1585.98346	16.29264	 
1020.0	1.0	0.0	8.56589	7.48648	-8.88092	15.31546	22.5702	1.40372	0.71239	160.88481	167.68418	60.02755	0.34009	 	1501795.154	 	4.20267E-6	 	1505.57187	16.08232	 
1015.0	1.0	0.0	8.56874	7.48399	-8.91121	15.27576	22.50545	1.40231	0.71311	161.19136	167.79966	60.15065	0.3399	 	1682585.74	 	3.73659E-6	 	1426.1276	15.88885	 
1010.0	1.0	0.0	8.57156	7.48153	-8.94122	15.23676	22.44161	1.40084	0.71386	161.53226	167.95385	60.28647	0.33971	 	1886803.861	 	3.31923E-6	 	1347.57542	15.71044	 
1005.0	1.0	0.0	8.57436	7.47908	-8.97095	15.19842	22.37859	1.39931	0.71464	161.87115	168.10863	60.42145	0.33952	 	2117698.399	 	2.94581E-6	 	1269.84777	15.54553	 
1000.0	1.0	0.0	8.57714	7.47666	-9.00044	15.16067	22.31636	1.39773	0.71545	162.20822	168.26396	60.55566	0.33933	 	2378999.232	 	2.61199E-6	 	1192.88383	15.39279	 
995.0	1.0	0.0	8.5799	7.47426	-9.02968	15.12349	22.23984	1.39703	0.71581	162.54361	168.4198	60.68917	0.33915	 	2674992.831	 	2.31385E-6	 	1116.6287	15.25103	 
990.0	1.0	0.0	8.58263	7.47187	-9.0587	15.08682	22.17933	1.39532	0.71668	162.87746	168.57613	60.82204	0.33897	 	3010610.523	 	2.0478E-6	 	1041.03275	15.11919	 
985.0	1.0	0.0	8.58535	7.46951	-9.0875	15.05063	22.11947	1.39355	0.71759	163.20991	168.73291	60.95432	0.33879	 	3391531.457	 	1.8106E-6	 	966.05106	14.99634	 
980.0	1.0	0.0	8.58805	7.46716	-9.11609	15.01489	22.06023	1.39174	0.71852	163.54105	168.89012	61.08605	0.33861	 	3824303.146	 	1.59933E-6	 	891.64285	14.88164	 
975.0	1.0	0.0	8.59074	7.46483	-9.14449	14.97957	22.00158	1.38989	0.71948	163.87099	169.04773	61.21729	0.33844	 	4316482.353	 	1.41131E-6	 	817.77109	14.77435	 
970.0	1.0	0.0	8.59341	7.46251	-9.1727	14.94464	21.94349	1.38798	0.72047	164.19982	169.20571	61.34806	0.33826	 	4876800.39	 	1.24416E-6	 	744.40207	14.6738	 
965.0	1.0	0.0	8.59606	7.46021	-9.20073	14.91007	21.88594	1.38604	0.72148	164.52761	169.36404	61.4784	0.33809	 	5515356.883	 	1.09569E-6	 	671.50514	14.57938	 
960.0	1.0	0.0	8.5987	7.45792	-9.22858	14.87585	21.82889	1.38405	0.72252	164.84882	169.51692	61.60625	0.33792	 	6243847.396	 	9.63941E-7	 	599.05241	14.49055	 
955.0	1.0	0.0	8.60132	7.45564	-9.25626	14.84196	21.77232	1.38202	0.72358	165.17474	169.67588	61.73581	0.33775	 	7075831.056	 	8.47151E-7	 	527.01846	14.40679	 
950.0	1.0	0.0	8.60393	7.45338	-9.28378	14.80836	21.71622	1.37994	0.72467	165.49981	169.83512	61.86503	0.33759	 	8027045.773	 	7.43722E-7	 	455.38021	14.32765	 
945.0	1.0	0.0	8.60652	7.45113	-9.31115	14.77506	21.66056	1.37783	0.72578	165.82408	169.99462	61.99391	0.33742	 	9115779.572	 	6.52219E-7	 	384.11669	14.2527	 
940.0	1.0	0.0	8.60911	7.4489	-9.33836	14.74203	21.60533	1.37569	0.72691	166.1476	170.15436	62.12249	0.33726	 	1.036330879E7	 	5.71351E-7	 	313.20893	14.18155	 
935.0	1.0	0.0	8.61168	7.44667	-9.36542	14.70926	21.55051	1.3735	0.72807	166.47041	170.31432	62.25078	0.33709	 	1.179441625E7	 	4.99955E-7	 	242.63979	14.11383	 
930.0	1.0	0.0	8.61424	7.44446	-9.39234	14.67673	21.4961	1.37128	0.72925	166.79254	170.47448	62.3788	0.33693	 	1.343800342E7	 	4.3699E-7	 	172.39392	14.04917	 
925.0	1.0	0.0	8.61678	7.44226	-9.41912	14.64444	21.44206	1.36902	0.73045	167.11404	170.63484	62.50655	0.33677	 	1.532781636E7	 	3.8152E-7	 	102.45761	13.98726	 
920.0	1.0	0.0	8.61932	7.44007	-9.44577	14.61237	21.3884	1.36673	0.73167	167.43492	170.79536	62.63405	0.33661	 	1.75033059E7	 	3.32707E-7	 	32.81876	13.92777	 
915.0	1.0	0.0	8.62184	7.43789	-9.47228	14.58051	21.3351	1.3644	0.73292	167.75521	170.95605	62.76132	0.33645	 	2.001064912E7	 	2.89799E-7	 	-36.53318	13.87039	 
910.0	1.0	0.0	8.62436	7.43573	-9.49866	14.54886	21.28213	1.36204	0.73419	168.07494	171.11688	62.88836	0.3363	 	2.290396406E7	 	2.52125E-7	 	-105.60728	13.81482	 
905.0	1.0	0.0	8.62686	7.43357	-9.52491	14.51741	21.22949	1.35965	0.73548	168.39412	171.27785	63.01517	0.33614	 	2.624675514E7	 	2.19085E-7	 	-174.41112	13.76077	 
900.0	1.0	0.0	8.62935	7.43142	-9.55103	14.48614	21.17719	1.35722	0.7368	168.71277	171.43894	63.14178	0.33598	 	3.011363585E7	 	1.90142E-7	 	-242.95086	13.70795	 
895.0	1.0	0.0	8.63183	7.42929	-9.57704	14.45507	21.12521	1.35476	0.73814	169.03092	171.60014	63.26819	0.33583	 	3.459238474E7	 	1.64818E-7	 	-311.23121	13.65607	 
890.0	1.0	0.0	8.6343	7.42716	-9.60292	14.42417	21.07354	1.35227	0.7395	169.34857	171.76145	63.39439	0.33567	 	3.978640175E7	 	1.42688E-7	 	-379.25548	13.60485	 
885.0	1.0	0.0	8.63676	7.42504	-9.62868	14.39344	21.02219	1.34975	0.74088	169.66573	171.92285	63.52041	0.33552	 	4.581764635E7	 	1.23373E-7	 	-447.02556	13.55402	 
880.0	1.0	0.0	8.63922	7.42294	-9.65432	14.36289	20.97114	1.34719	0.74228	169.98243	172.08435	63.64623	0.33537	 	5.283015886E7	 	1.06535E-7	 	-514.54197	13.50328	 
875.0	1.0	0.0	8.64166	7.42084	-9.67984	14.3325	20.92039	1.34461	0.74371	170.29866	172.24594	63.77188	0.33522	 	6.099428368E7	 	9.18748E-8	 	-581.80374	13.45236	 
870.0	1.0	0.0	8.64409	7.41875	-9.70525	14.30228	20.8699	1.34199	0.74516	170.61445	172.40762	63.89735	0.33507	 	7.051173825E7	 	7.91277E-8	 	-648.80847	13.40094	 
865.0	1.0	0.0	8.64651	7.41668	-9.73055	14.27222	20.8197	1.33934	0.74664	170.9298	172.56939	64.02264	0.33492	 	8.16217154E7	 	6.80582E-8	 	-715.55234	13.34878	 
860.0	1.0	0.0	8.64892	7.41461	-9.75573	14.24231	20.76976	1.33666	0.74813	171.24471	172.73124	64.14776	0.33477	 	9.460822859E7	 	5.84582E-8	 	-782.03015	13.29556	 
855.0	1.0	0.0	8.65133	7.41255	-9.7808	14.21257	20.72011	1.33395	0.74965	171.55908	172.89306	64.27267	0.33462	 	1.098089706E8	 	5.01436E-8	 	-848.23527	13.24102	 
850.0	1.0	0.0	8.65372	7.4105	-9.80575	14.18297	20.67073	1.33121	0.75119	171.87328	173.05522	64.3975	0.33447	 	1.276260101E8	 	4.29522E-8	 	-914.15964	13.18487	 
845.0	1.0	0.0	8.65593	7.4086	-9.82878	14.16203	20.61998	1.32855	0.7527	172.19182	173.23649	64.5233	0.33434	 	1.447054289E8	 	3.77139E-8	 	-966.68395	10.50486	 
840.0	1.0	0.0	8.65814	7.40672	-9.85175	14.14108	20.56923	1.32587	0.75422	172.50998	173.41714	64.64897	0.33421	 	1.642557073E8	 	3.30765E-8	 	-1020.21843	10.7069	 
835.0	1.0	0.0	8.66034	7.40483	-9.87467	14.12013	20.51846	1.32318	0.75575	172.82775	173.59717	64.77452	0.33407	 	1.866606428E8	 	2.89756E-8	 	-1073.6908	10.69447	 
830.0	1.0	0.0	8.66254	7.40295	-9.89754	14.09917	20.46769	1.32048	0.7573	173.14513	173.7766	64.89994	0.33394	 	2.123676899E8	 	2.53532E-8	 	-1127.10133	10.68211	 
825.0	1.0	0.0	8.66473	7.40108	-9.92035	14.0782	20.4169	1.31776	0.75886	173.46212	173.95541	65.02525	0.33381	 	2.418991834E8	 	2.21572E-8	 	-1180.45032	10.6698	 
820.0	1.0	0.0	8.66692	7.39921	-9.94311	14.05722	20.3661	1.31504	0.76043	173.77872	174.13361	65.15042	0.33367	 	2.758656565E8	 	1.93406E-8	 	-1233.73805	10.65755	 
815.0	1.0	0.0	8.66911	7.39734	-9.96582	14.03623	20.31529	1.3123	0.76202	174.09494	174.31121	65.27548	0.33354	 	3.149816673E8	 	1.68613E-8	 	-1286.96485	10.64536	 
810.0	1.0	0.0	8.67129	7.39548	-9.98847	14.01524	20.26447	1.30954	0.76363	174.41077	174.4882	65.40041	0.33341	 	3.600846319E8	 	1.46815E-8	 	-1340.13104	10.63324	 
805.0	1.0	0.0	8.67347	7.39363	-10.01107	13.99424	20.21364	1.30677	0.76524	174.7262	174.66459	65.52522	0.33327	 	4.121572659E8	 	1.27674E-8	 	-1393.23696	10.62118	 
800.0	1.0	0.0	8.67564	7.39177	-10.03362	13.97324	20.1628	1.30399	0.76687	175.04126	174.84038	65.6499	0.33314	 	4.723543665E8	 	1.10887E-8	 	-1446.28298	10.6092	 
795.0	1.0	0.0	8.67781	7.38993	-10.05611	13.95222	20.11194	1.3012	0.76852	175.35592	175.01556	65.77446	0.33301	 	5.420348174E8	 	9.61815E-9	 	-1499.26946	10.5973	 
790.0	1.0	0.0	8.67997	7.38808	-10.07855	13.9312	20.06107	1.29839	0.77018	175.67019	175.19015	65.89889	0.33288	 	6.227998942E8	 	8.33168E-9	 	-1552.19681	10.58547	 
785.0	1.0	0.0	8.68214	7.38624	-10.10094	13.91017	20.0102	1.29557	0.77186	175.98408	175.36414	66.02321	0.33274	 	7.165391765E8	 	7.20766E-9	 	-1605.06544	10.57373	 
780.0	1.0	0.0	8.68429	7.38441	-10.12327	13.88914	19.9593	1.29274	0.77355	176.29758	175.53753	66.14739	0.33261	 	8.254856615E8	 	6.22684E-9	 	-1657.87577	10.56207	 
775.0	1.0	0.0	8.68645	7.38258	-10.14555	13.8681	19.9084	1.28989	0.77526	176.61069	175.71033	66.27146	0.33248	 	9.522820229E8	 	5.37211E-9	 	-1710.62827	10.5505	 
770.0	1.0	0.0	8.6886	7.38075	-10.16778	13.84705	19.85749	1.28703	0.77698	176.92341	175.88254	66.3954	0.33235	 	1.100060393E9	 	4.62825E-9	 	-1763.32342	10.53903	 
765.0	1.0	0.0	8.69074	7.37893	-10.18995	13.82599	19.80656	1.28415	0.77872	177.23575	176.05416	66.51921	0.33221	 	1.27253858E9	 	3.98177E-9	 	-1815.9617	10.52766	 
760.0	1.0	0.0	8.69288	7.37711	-10.21207	13.80493	19.75562	1.28126	0.78048	177.5477	176.22518	66.6429	0.33208	 	1.474136281E9	 	3.42068E-9	 	-1868.54367	10.51639	 
755.0	1.0	0.0	8.69502	7.3753	-10.23413	13.78385	19.70467	1.27836	0.78225	177.85925	176.39563	66.76647	0.33195	 	1.710115696E9	 	2.93439E-9	 	-1921.06987	10.50524	 
750.0	1.0	0.0	8.69715	7.37349	-10.25614	13.76278	19.65371	1.27544	0.78404	178.17043	176.56548	66.88991	0.33182	 	1.986751907E9	 	2.51352E-9	 	-1973.54089	10.4942	 
745.0	1.0	0.0	8.69928	7.37169	-10.2781	13.74169	19.60273	1.27251	0.78585	178.48121	176.73475	67.01323	0.33169	 	2.311539702E9	 	2.1498E-9	 	-2025.95735	10.48329	 
740.0	1.0	0.0	8.7014	7.36989	-10.3	13.7206	19.55174	1.26956	0.78767	178.79161	176.90344	67.13642	0.33155	 	2.693445039E9	 	1.83591E-9	 	-2078.3199	10.47251	 
735.0	1.0	0.0	8.70352	7.36809	-10.32185	13.6995	19.50074	1.2666	0.78951	179.10161	177.07155	67.25949	0.33142	 	3.143211307E9	 	1.56545E-9	 	-2130.62923	10.46187	 
730.0	1.0	0.0	8.70564	7.3663	-10.34365	13.67839	19.44972	1.26363	0.79137	179.41123	177.23908	67.38244	0.33129	 	3.673732979E9	 	1.33274E-9	 	-2182.88607	10.45137	 
725.0	1.0	0.0	8.70775	7.36452	-10.36539	13.65727	19.39869	1.26064	0.79325	179.72047	177.40603	67.50526	0.33116	 	4.30051227E9	 	1.13282E-9	 	-2235.09118	10.44102	 
720.0	1.0	0.0	8.70986	7.36273	-10.38708	13.63615	19.34765	1.25763	0.79515	180.02931	177.5724	67.62796	0.33103	 	5.042218251E9	 	9.61346E-10	 	-2287.24539	10.43084	 
715.0	1.0	0.0	8.71196	7.36096	-10.40871	13.61502	19.2966	1.25461	0.79706	180.33777	177.7382	67.75053	0.3309	 	5.921372605E9	 	8.14493E-10	 	-2339.34953	10.42083	 
710.0	1.0	0.0	8.71406	7.35918	-10.43029	13.59389	19.24553	1.25157	0.79899	180.64584	177.90343	67.87297	0.33076	 	6.965192292E9	 	6.88927E-10	 	-2391.40453	10.411	 
705.0	1.0	0.0	8.71615	7.35741	-10.45182	13.57274	19.19445	1.24852	0.80095	180.95352	178.06808	67.9953	0.33063	 	8.206626897E9	 	5.81738E-10	 	-2443.41135	10.40136	 
700.0	1.0	0.0	8.71825	7.35565	-10.47329	13.55159	19.14335	1.24545	0.80292	181.26081	178.23217	68.11749	0.3305	 	9.685638082E9	 	4.90386E-10	 	-2495.371	10.39193	 
695.0	1.0	0.0	8.72033	7.35389	-10.49471	13.53043	19.09224	1.24237	0.80491	181.56772	178.39568	68.23957	0.33037	 	1.14508E10	 	4.12662E-10	 	-2547.28456	10.38271	 
690.0	1.0	0.0	8.72241	7.35214	-10.51607	13.50927	19.04112	1.23927	0.80692	181.87424	178.55863	68.36151	0.33024	 	1.3561199999999998E10	 	3.46644E-10	 	-2599.15318	10.37372	 
685.0	1.0	0.0	8.72449	7.35038	-10.53738	13.4881	18.98998	1.23616	0.80896	182.18037	178.72102	68.48334	0.33011	 	1.6088899999999998E10	 	2.90666E-10	 	-2650.97806	10.36498	 
680.0	1.0	0.0	8.72656	7.34864	-10.55864	13.46692	18.93883	1.23303	0.81101	182.48612	178.88284	68.60503	0.32998	 	1.9122E10	 	2.43285E-10	 	-2702.76051	10.35649	 
675.0	1.0	0.0	8.72863	7.3469	-10.57984	13.44573	18.88767	1.22989	0.81308	182.79147	179.04409	68.72661	0.32985	 	2.27683E10	 	2.03251E-10	 	-2754.50188	10.34827	 
670.0	1.0	0.0	8.7307	7.34516	-10.60099	13.42453	18.83648	1.22672	0.81518	183.09644	179.20479	68.84806	0.32971	 	2.7160199999999996E10	 	1.69486E-10	 	-2806.20362	10.34035	 
665.0	1.0	0.0	8.73276	7.34343	-10.62208	13.40333	18.78529	1.22355	0.8173	183.40102	179.36493	68.96938	0.32958	 	3.2460199999999996E10	 	1.41061E-10	 	-2857.86729	10.33273	 
660.0	1.0	0.0	8.73482	7.3417	-10.64312	13.38212	18.73408	1.22035	0.81944	183.70522	179.52451	69.09058	0.32945	 	3.88686E10	 	1.17176E-10	 	-2909.49005	10.32455	 
655.0	1.0	0.0	8.73687	7.33997	-10.6641	13.36091	18.68285	1.21714	0.8216	184.00902	179.68353	69.21165	0.32932	 	4.663269999999999E10	 	9.71436E-11	 	-2961.04701	10.31139	 
650.0	1.0	0.0	8.73891	7.33825	-10.68504	13.33968	18.63161	1.21391	0.82378	184.31244	179.842	69.3326	0.32919	 	5.605809999999999E10	 	8.03749E-11	 	-3012.50513	10.29162	 
645.0	1.0	0.0	8.74096	7.33654	-10.70591	13.31845	18.58036	1.21067	0.82599	184.61547	179.99991	69.45342	0.32906	 	6.752389999999999E10	 	6.63656E-11	 	-3063.86489	10.27195	 
640.0	1.0	0.0	8.743	7.33483	-10.72673	13.29721	18.52909	1.20741	0.82822	184.91812	180.15727	69.57412	0.32893	 	8.15006E10	 	5.46849E-11	 	-3115.12677	10.25238	 
635.0	1.0	0.0	8.74503	7.33312	-10.7475	13.27597	18.4778	1.20413	0.83048	185.22037	180.31408	69.69469	0.3288	 	9.857449999999998E10	 	4.49655E-11	 	-3166.29123	10.23289	 
630.0	1.0	0.0	8.74706	7.33142	-10.76821	13.25472	18.4265	1.20083	0.83275	185.52224	180.47034	69.81513	0.32867	 	1.19477E11	 	3.68947E-11	 	-3217.35877	10.21351	 
625.0	1.0	0.0	8.74909	7.32972	-10.78887	13.23346	18.37518	1.19752	0.83506	185.82373	180.62606	69.93545	0.32854	 	1.45121E11	 	3.02068E-11	 	-3268.32989	10.19423	 
620.0	1.0	0.0	8.75111	7.32803	-10.80948	13.21219	18.32384	1.19419	0.83739	186.12482	180.78123	70.05565	0.32841	 	1.76654E11	 	2.46767E-11	 	-3319.20521	10.17506	 
615.0	1.0	0.0	8.75312	7.32634	-10.83003	13.19092	18.27249	1.19084	0.83974	186.42553	180.93585	70.17572	0.32828	 	2.15516E11	 	2.01138E-11	 	-3369.98512	10.15598	 
610.0	1.0	0.0	8.75514	7.32466	-10.85052	13.16963	18.22112	1.18748	0.84212	186.72585	181.08993	70.29566	0.32815	 	2.63519E11	 	1.63572E-11	 	-3420.67011	10.137	 
605.0	1.0	0.0	8.75714	7.32298	-10.87096	13.14835	18.16974	1.18409	0.84453	187.02578	181.24347	70.41548	0.32802	 	3.22953E11	 	1.32714E-11	 	-3471.26063	10.1181	 
600.0	1.0	0.0	8.75915	7.3213	-10.89135	13.12705	18.11833	1.18069	0.84696	187.32533	181.39646	70.53517	0.32789	 	3.96714E11	 	1.07423E-11	 	-3521.75716	10.0993	 
595.0	1.0	0.0	8.76115	7.31963	-10.91168	13.10575	18.06691	1.17727	0.84942	187.62449	181.54892	70.65474	0.32776	 	4.88479E11	 	8.67433E-12	 	-3572.16016	10.0806	 
590.0	1.0	0.0	8.76314	7.31797	-10.93196	13.08444	18.01548	1.17383	0.85191	187.92326	181.70084	70.77418	0.32763	 	6.02921E11	 	6.98735E-12	 	-3622.4701	10.06199	 
585.0	1.0	0.0	8.76513	7.3163	-10.95218	13.06312	17.96402	1.17038	0.85443	188.22164	181.85223	70.8935	0.3275	 	7.46003E11	 	5.61448E-12	 	-3672.68745	10.04347	 
580.0	1.0	0.0	8.76712	7.31465	-10.97235	13.04179	17.91255	1.1669	0.85697	188.51964	182.00308	71.01269	0.32737	 	9.25347E11	 	4.49995E-12	 	-3722.81266	10.02504	 
575.0	1.0	0.0	8.7691	7.31299	-10.99246	13.02046	17.86106	1.16341	0.85954	188.81725	182.15339	71.13175	0.32724	 	1.15073E12	 	3.59739E-12	 	-3772.84622	10.00671	 
570.0	1.0	0.0	8.77107	7.31135	-11.01252	12.99912	17.80955	1.15989	0.86215	189.11447	182.30318	71.25069	0.32711	 	1.4347E12	 	2.86833E-12	 	-3822.78858	9.98847	 
565.0	1.0	0.0	8.77305	7.3097	-11.03252	12.97778	17.75802	1.15636	0.86478	189.41131	182.45243	71.3695	0.32698	 	1.79347E12	 	2.28094E-12	 	-3872.64021	9.97032	 
560.0	1.0	0.0	8.77501	7.30806	-11.05247	12.95642	17.70647	1.15281	0.86745	189.70776	182.60115	71.48819	0.32685	 	2.24797E12	 	1.80892E-12	 	-3922.40156	9.95227	 
555.0	1.0	0.0	8.77698	7.30643	-11.07237	12.93506	17.6549	1.14924	0.87014	190.00382	182.74935	71.60675	0.32672	 	2.82535E12	 	1.43062E-12	 	-3972.0731	9.93431	 
550.0	1.0	0.0	8.77894	7.3048	-11.09221	12.91369	17.60332	1.14565	0.87287	190.29949	182.89701	71.72518	0.32659	 	3.56089E12	 	1.12825E-12	 	-4021.65529	9.91644	 
545.0	1.0	0.0	8.78089	7.30317	-11.11199	12.89232	17.55171	1.14204	0.87563	190.59478	183.04416	71.84349	0.32646	 	4.50064E12	 	8.87249E-13	 	-4071.14859	9.89866	 
540.0	1.0	0.0	8.78284	7.30155	-11.13172	12.87093	17.50009	1.1384	0.87842	190.88968	183.19078	71.96167	0.32633	 	5.7048E12	 	6.95692E-13	 	-4120.55347	9.88097	 
535.0	1.0	0.0	8.78478	7.29994	-11.15139	12.84954	17.44844	1.13475	0.88125	191.18419	183.33687	72.07972	0.3262	 	7.25238E12	 	5.43874E-13	 	-4169.87037	9.86338	 
530.0	1.0	0.0	8.78672	7.29832	-11.17101	12.82815	17.39677	1.13108	0.88411	191.47832	183.48245	72.19765	0.32607	 	9.24738E12	 	4.23901E-13	 	-4219.09975	9.84588	 
525.0	1.0	0.0	8.78866	7.29672	-11.19058	12.80674	17.34509	1.12739	0.887	191.77206	183.6275	72.31545	0.32594	 	1.18271E13	 	3.29376E-13	 	-4268.24208	9.82846	 
520.0	1.0	0.0	8.79059	7.29511	-11.21009	12.78533	17.29338	1.12368	0.88994	192.06541	183.77204	72.43313	0.32581	 	1.51735E13	 	2.55126E-13	 	-4317.2978	9.81114	 
515.0	1.0	0.0	8.79252	7.29352	-11.22954	12.76391	17.24165	1.11994	0.8929	192.35837	183.91606	72.55068	0.32568	 	1.95284E13	 	1.96983E-13	 	-4366.26737	9.79391	 
510.0	1.0	0.0	8.79444	7.29192	-11.24894	12.74249	17.1899	1.11619	0.89591	192.65095	184.05956	72.6681	0.32555	 	2.52143E13	 	1.51595E-13	 	-4415.15124	9.77677	 
505.0	1.0	0.0	8.79636	7.29033	-11.26829	12.72105	17.13812	1.11241	0.89895	192.94314	184.20255	72.7854	0.32542	 	3.26628E13	 	1.16278E-13	 	-4463.94988	9.75973	 
500.0	1.0	0.0	8.79827	7.28875	-11.28757	12.69961	17.08633	1.10862	0.90203	193.23495	184.34503	72.90257	0.3253	 	4.24534E13	 	8.88869E-14	 	-4512.66371	9.74277	 
495.0	1.0	0.0	8.80018	7.28717	-11.30681	12.67816	17.03451	1.1048	0.90514	193.52636	184.48699	73.01961	0.32517	 	5.53675E13	 	6.77139E-14	 	-4561.29321	9.7259	 
490.0	1.0	0.0	8.80208	7.28559	-11.32599	12.65671	16.98266	1.10096	0.9083	193.81739	184.62844	73.13652	0.32504	 	7.24617E13	 	5.1403E-14	 	-4609.83881	9.70912	 
485.0	1.0	0.0	8.80398	7.28402	-11.34511	12.63525	16.9308	1.09709	0.9115	194.10804	184.76938	73.25331	0.32491	 	9.51707E13	 	3.88811E-14	 	-4658.30096	9.69243	 
480.0	1.0	0.0	8.80587	7.28245	-11.36418	12.61378	16.87891	1.09321	0.91474	194.39829	184.90982	73.36997	0.32478	 	1.2544999999999998E14	 	2.9302E-14	 	-4706.68011	9.67583	 
475.0	1.0	0.0	8.80776	7.28089	-11.38319	12.5923	16.82699	1.0893	0.91802	194.68816	185.04975	73.48651	0.32465	 	1.65974E14	 	2.20006E-14	 	-4754.9767	9.65932	 
470.0	1.0	0.0	8.80965	7.27933	-11.40215	12.57081	16.77505	1.08537	0.92134	194.97764	185.18917	73.60292	0.32452	 	2.20418E14	 	1.64557E-14	 	-4803.19117	9.6429	 
465.0	1.0	0.0	8.81153	7.27778	-11.42105	12.54932	16.72309	1.08142	0.92471	195.26674	185.32809	73.7192	0.3244	 	2.93848E14	 	1.22605E-14	 	-4851.32398	9.62656	 
460.0	1.0	0.0	8.8134	7.27623	-11.4399	12.52782	16.6711	1.07744	0.92812	195.55545	185.4665	73.83535	0.32427	 	3.93279E14	 	9.09869E-15	 	-4899.37555	9.61031	 
455.0	1.0	0.0	8.81527	7.27469	-11.45869	12.50632	16.61908	1.07345	0.93158	195.84377	185.60442	73.95138	0.32414	 	5.2846699999999994E14	 	6.72496E-15	 	-4947.34633	9.59416	 
450.0	1.0	0.0	8.81714	7.27315	-11.47743	12.48481	16.56704	1.06942	0.93508	196.13171	185.74183	74.06728	0.32401	 	7.13032E14	 	4.95001E-15	 	-4995.23675	9.57808	 
445.0	1.0	0.0	8.819	7.27161	-11.49611	12.46329	16.51497	1.06538	0.93863	196.41925	185.87874	74.18305	0.32388	 	9.66078E14	 	3.62819E-15	 	-5043.04726	9.5621	 
440.0	1.0	0.0	8.82086	7.27008	-11.51473	12.44176	16.46288	1.06131	0.94223	196.70641	186.01516	74.2987	0.32375	 	1.31451E15	 	2.64791E-15	 	-5090.77827	9.5462	 
435.0	1.0	0.0	8.82271	7.26856	-11.5333	12.42022	16.41075	1.05721	0.94588	196.99319	186.15107	74.41421	0.32363	 	1.79641E15	 	1.92401E-15	 	-5138.43024	9.53039	 
430.0	1.0	0.0	8.82455	7.26704	-11.55182	12.39868	16.3586	1.0531	0.94958	197.27958	186.2865	74.52961	0.3235	 	2.4659E15	 	1.39174E-15	 	-5186.00357	9.51467	 
425.0	1.0	0.0	8.8264	7.26552	-11.57028	12.37713	16.30642	1.04895	0.95333	197.56558	186.42143	74.64487	0.32337	 	3.4003E15	 	1.00212E-15	 	-5233.49866	9.49902	 
420.0	1.0	0.0	8.82823	7.26401	-11.58868	12.35557	16.25421	1.04479	0.95713	197.85119	186.55586	74.76	0.32324	 	4.71054E15	 	7.18197E-16	 	-5280.916	9.48347	 
415.0	1.0	0.0	8.83007	7.2625	-11.60703	12.33401	16.20197	1.04059	0.96099	198.13644	186.68982	74.87502	0.32311	 	6.55664E15	 	5.12258E-16	 	-5328.25578	9.46796	 
410.0	1.0	0.0	8.83189	7.261	-11.62532	12.31244	16.1497	1.03638	0.9649	198.42128	186.82328	74.9899	0.32299	 	9.17053E15	 	3.63587E-16	 	-5375.51804	9.45245	 
405.0	1.0	0.0	8.83372	7.2595	-11.64355	12.29086	16.09739	1.03213	0.96887	198.70573	186.95624	75.10465	0.32286	 	1.28901E16	 	2.56777E-16	 	-5422.70284	9.43696	 
400.0	1.0	0.0	8.83553	7.25801	-11.66174	12.26928	16.04506	1.02787	0.97289	198.9898	187.08872	75.21928	0.32273	 	1.82102E16	 	1.8042E-16	 	-5469.81022	9.42148	 
395.0	1.0	0.0	8.83735	7.25652	-11.67986	12.24768	15.9927	1.02357	0.97697	199.27348	187.2207	75.33378	0.3226	 	2.58594E16	 	1.26108E-16	 	-5516.84024	9.406	 
390.0	1.0	0.0	8.83916	7.25503	-11.69793	12.22608	15.9403	1.01925	0.98111	199.55677	187.35221	75.44815	0.32248	 	3.69164E16	 	8.76756E-17	 	-5563.79295	9.39054	 
385.0	1.0	0.0	8.84096	7.25355	-11.71594	12.20448	15.88787	1.01491	0.98531	199.83967	187.48322	75.56239	0.32235	 	5.29871E16	 	6.06236E-17	 	-5610.66838	9.37509	 
380.0	1.0	0.0	8.84276	7.25208	-11.7339	12.18286	15.8354	1.01053	0.98958	200.12219	187.61376	75.6765	0.32222	 	7.64756E16	 	4.16847E-17	 	-5657.46657	9.35964	 
375.0	1.0	0.0	8.84455	7.25061	-11.7518	12.16124	15.7829	1.00613	0.99391	200.40433	187.74381	75.79049	0.32209	 	1.11003E17	 	2.84989E-17	 	-5704.18757	9.3442	 
370.0	1.0	0.0	8.84634	7.24914	-11.76965	12.13961	15.73036	1.0017	0.9983	200.68607	187.87338	75.90435	0.32197	 	1.62055E17	 	1.93703E-17	 	-5750.83141	9.32877	 
365.0	1.0	0.0	8.84813	7.24768	-11.78744	12.11797	15.67779	0.99725	1.00276	200.96743	188.00247	76.01808	0.32184	 	2.37993E17	 	1.30872E-17	 	-5797.39813	9.31334	 
360.0	1.0	0.0	8.8499	7.24622	-11.80517	12.09633	15.62518	0.99277	1.00729	201.2484	188.13108	76.13168	0.32171	 	3.51644E17	 	8.78801E-18	 	-5843.88775	9.29792	 
355.0	1.0	0.0	8.85168	7.24477	-11.82285	12.07468	15.57254	0.98826	1.01188	201.52899	188.25922	76.24515	0.32159	 	5.22806E17	 	5.86421E-18	 	-5890.30031	9.28251	 
350.0	1.0	0.0	8.85345	7.24332	-11.84047	12.05302	15.51985	0.98372	1.01655	201.80919	188.38688	76.3585	0.32146	 	7.82243E17	 	3.8881E-18	 	-5936.63581	9.2671	 
345.0	1.0	0.0	8.85521	7.24188	-11.85804	12.03136	15.46713	0.97915	1.02129	202.089	188.51406	76.47172	0.32133	 	1.17808E18	 	2.56098E-18	 	-5982.8943	9.2517	 
340.0	1.0	0.0	8.85697	7.24044	-11.87555	12.00968	15.41436	0.97456	1.02611	202.36842	188.64077	76.58481	0.3212	 	1.78611E18	 	1.67551E-18	 	-6029.07578	9.2363	 
335.0	1.0	0.0	8.85873	7.239	-11.893	11.988	15.36156	0.96993	1.031	202.64746	188.76701	76.69777	0.32108	 	2.72654E18	 	1.08864E-18	 	-6075.18026	9.2209	 
330.0	1.0	0.0	8.86048	7.23758	-11.9104	11.96632	15.30871	0.96528	1.03597	202.92612	188.89277	76.8106	0.32095	 	4.19143E18	 	7.02344E-19	 	-6121.20776	9.2055	 
325.0	1.0	0.0	8.86222	7.23615	-11.92774	11.94462	15.25582	0.9606	1.04102	203.20438	189.01806	76.92331	0.32082	 	6.48986E18	 	4.49844E-19	 	-6167.15828	9.1901	 
320.0	1.0	0.0	8.86396	7.23473	-11.94503	11.92292	15.20289	0.95588	1.04615	203.48226	189.14289	77.03588	0.3207	 	1.0123E19	 	2.85984E-19	 	-6213.03183	9.17471	 
315.0	1.0	0.0	8.8657	7.23331	-11.96226	11.90121	15.14991	0.95114	1.05137	203.75975	189.26724	77.14833	0.32057	 	1.59098E19	 	1.8043E-19	 	-6258.8284	9.15931	 
310.0	1.0	0.0	8.86743	7.2319	-11.97943	11.8795	15.09688	0.94637	1.05667	204.03686	189.39113	77.26065	0.32044	 	2.51993E19	 	1.12948E-19	 	-6304.54798	9.14392	 
305.0	1.0	0.0	8.86915	7.2305	-11.99655	11.85777	15.04381	0.94156	1.06207	204.31357	189.51456	77.37284	0.32032	 	4.02316E19	 	7.01391E-20	 	-6350.19057	9.12852	 
300.0	1.0	0.0	8.87087	7.2291	-12.01361	11.83604	14.99069	0.93673	1.06755	204.58991	189.63751	77.4849	0.32019	 	6.47575E19	 	4.31981E-20	 	-6395.75615	9.11312	 
295.0	1.0	0.0	8.87258	7.2277	-12.03061	11.81431	14.93753	0.93186	1.07312	204.86585	189.76001	77.59683	0.32007	 	1.05112E20	 	2.63814E-20	 	-6441.2447	9.09771	 
290.0	1.0	0.0	8.87429	7.22631	-12.04756	11.79256	14.88431	0.92696	1.07879	205.14141	189.88204	77.70863	0.31994	 	1.72087E20	 	1.59721E-20	 	-6486.65618	9.0823	 
285.0	1.0	0.0	8.876	7.22492	-12.06445	11.77081	14.83104	0.92203	1.08456	205.41658	190.00361	77.82031	0.31981	 	2.8423799999999997E20	 	9.5842E-21	 	-6531.99058	9.06688	 
280.0	1.0	0.0	8.8777	7.22353	-12.08129	11.74905	14.77771	0.91707	1.09043	205.69137	190.12472	77.93186	0.31969	 	4.7375599999999993E20	 	5.69869E-21	 	-6577.24785	9.05145	 
275.0	1.0	0.0	8.87939	7.22216	-12.09806	11.72728	14.72434	0.91207	1.0964	205.96576	190.24537	78.04327	0.31956	 	7.970299999999999E20	 	3.35669E-21	 	-6622.42796	9.03602	 
270.0	1.0	0.0	8.88108	7.22078	-12.11479	11.70551	14.6709	0.90705	1.10248	206.23978	190.36556	78.15456	0.31944	 	1.3538E21	 	1.95818E-21	 	-6667.53084	9.02058	 
265.0	1.0	0.0	8.88277	7.21941	-12.13145	11.68373	14.61742	0.90198	1.10867	206.5134	190.48529	78.26572	0.31931	 	2.3222600000000001E21	 	1.13105E-21	 	-6712.55645	9.00512	 
260.0	1.0	0.0	8.88445	7.21805	-12.14806	11.66194	14.56387	0.89689	1.11496	206.78664	190.60457	78.37675	0.31918	 	4.0240300000000003E21	 	6.46659E-22	 	-6757.50473	8.98966	 
255.0	1.0	0.0	8.88612	7.21669	-12.16461	11.64014	14.51026	0.89176	1.12138	207.05949	190.72339	78.48765	0.31906	 	7.045830000000001E21	 	3.65857E-22	 	-6802.37561	8.97418	 
250.0	1.0	0.0	8.88779	7.21533	-12.18111	11.61834	14.45659	0.8866	1.12791	207.33196	190.84176	78.59842	0.31893	 	1.2469599999999999E22	 	2.04767E-22	 	-6847.169	8.95868	 
245.0	1.0	0.0	8.88945	7.21398	-12.19755	11.59653	14.40286	0.8814	1.13456	207.60404	190.95968	78.70906	0.31881	 	2.23131E22	 	1.1334E-22	 	-6891.88483	8.94317	 
240.0	1.0	0.0	8.89111	7.21264	-12.21393	11.57471	14.34906	0.87617	1.14134	207.87573	191.07714	78.81958	0.31868	 	4.0382299999999994E22	 	6.20212E-23	 	-6936.52301	8.92764	 
235.0	1.0	0.0	8.89277	7.21129	-12.23026	11.55289	14.2952	0.8709	1.14824	208.14703	191.19415	78.92996	0.31856	 	7.39421E22	 	3.35418E-23	 	-6981.08343	8.91208	 
230.0	1.0	0.0	8.89442	7.20996	-12.24653	11.53106	14.24127	0.8656	1.15527	208.41795	191.31072	79.04022	0.31843	 	1.3702899999999998E23	 	1.79213E-23	 	-7025.56598	8.89651	 
225.0	1.0	0.0	8.89606	7.20863	-12.26274	11.50922	14.18727	0.86026	1.16245	208.68848	191.42683	79.15034	0.3183	 	2.5710699999999998E23	 	9.45654E-24	 	-7069.97055	8.88091	 
220.0	1.0	0.0	8.8977	7.2073	-12.2789	11.48737	14.13319	0.85488	1.16976	208.95863	191.5425	79.26034	0.31818	 	4.88604E23	 	4.92617E-24	 	-7114.29702	8.86529	 
215.0	1.0	0.0	8.89933	7.20598	-12.295	11.46552	14.07905	0.84947	1.17721	209.22839	191.65772	79.3702	0.31805	 	9.4083E23	 	2.53238E-24	 	-7158.54524	8.84964	 
210.0	1.0	0.0	8.90096	7.20466	-12.31104	11.44366	14.02482	0.84402	1.18481	209.49776	191.77249	79.47994	0.31793	 	1.83635E24	 	1.28414E-24	 	-7202.71505	8.83396	 
205.0	1.0	0.0	8.90258	7.20334	-12.32703	11.42179	13.97052	0.83853	1.19257	209.76674	191.88682	79.58954	0.3178	 	3.63474E24	 	6.42062E-25	 	-7246.80632	8.81825	 
200.0	1.0	0.0	8.9042	7.20204	-12.34296	11.39991	13.91613	0.833	1.20048	210.03534	192.00071	79.69902	0.31768	 	7.29893E24	 	3.16393E-25	 	-7290.81885	8.80251	 
195.0	1.0	0.0	8.90581	7.20073	-12.35883	11.37803	13.86167	0.82744	1.20855	210.30355	192.11415	79.80837	0.31755	 	1.4876900000000002E25	 	1.53589E-25	 	-7334.75248	8.78673	 
190.0	1.0	0.0	8.90742	7.19943	-12.37465	11.35614	13.80711	0.82184	1.21679	210.57138	192.22716	79.91758	0.31743	 	3.07923E25	 	7.34119E-26	 	-7378.607	8.7709	 
185.0	1.0	0.0	8.90902	7.19814	-12.39041	11.33425	13.75247	0.81619	1.2252	210.83882	192.33972	80.02667	0.3173	 	6.4754200000000005E25	 	3.45324E-26	 	-7422.3822	8.75504	 
180.0	1.0	0.0	8.91062	7.19685	-12.40611	11.31234	13.69774	0.81051	1.23379	211.10587	192.45184	80.13563	0.31718	 	1.3842600000000001E26	 	1.59776E-26	 	-7466.07786	8.73913	 
175.0	1.0	0.0	8.91221	7.19556	-12.42175	11.29043	13.64291	0.80479	1.24256	211.37253	192.56353	80.24445	0.31705	 	3.0097500000000002E26	 	7.26741E-27	 	-7509.69374	8.72318	 
170.0	1.0	0.0	8.9138	7.19428	-12.43734	11.26851	13.58799	0.79903	1.25152	211.63881	192.67478	80.35315	0.31693	 	6.659700000000001E26	 	3.24775E-27	 	-7553.22958	8.70717	 
165.0	1.0	0.0	8.91538	7.193	-12.45287	11.24659	13.53296	0.79322	1.26068	211.90471	192.78559	80.46172	0.3168	 	1.50055E27	 	1.42514E-27	 	-7596.68512	8.69111	 
160.0	1.0	0.0	8.91695	7.19173	-12.46834	11.22465	13.47783	0.78738	1.27003	212.17021	192.89596	80.57015	0.31668	 	3.44503E27	 	6.13666E-28	 	-7640.06005	8.67499	 
155.0	1.0	0.0	8.91853	7.19047	-12.48376	11.20271	13.42259	0.78149	1.2796	212.43533	193.0059	80.67846	0.31656	 	8.06426E27	 	2.5913E-28	 	-7683.35408	8.65881	 
150.0	1.0	0.0	8.92009	7.1892	-12.49912	11.18076	13.36725	0.77557	1.28938	212.70006	193.11541	80.78664	0.31643	 	1.92604E28	 	1.0723E-28	 	-7726.56688	8.64256	 
145.0	1.0	0.0	8.92165	7.18795	-12.51442	11.15881	13.31178	0.76959	1.29939	212.96441	193.22449	80.89468	0.31631	 	4.69686E28	 	4.34521E-29	 	-7769.69809	8.62624	 
140.0	1.0	0.0	8.92321	7.1867	-12.52967	11.13685	13.2562	0.76358	1.30962	213.22837	193.33313	81.0026	0.31618	 	1.17037E29	 	1.72295E-29	 	-7812.74735	8.60985	 
135.0	1.0	0.0	8.92476	7.18545	-12.54486	11.11488	13.2005	0.75752	1.32009	213.49194	193.44135	81.11038	0.31606	 	2.98229E29	 	6.67969E-30	 	-7855.71426	8.59338	 
130.0	1.0	0.0	8.9263	7.1842	-12.55999	11.0929	13.14467	0.75142	1.33081	213.75512	193.54913	81.21804	0.31593	 	7.77776E29	 	2.52987E-30	 	-7898.5984	8.57683	 
125.0	1.0	0.0	8.92784	7.18297	-12.57506	11.07092	13.08871	0.74527	1.34179	214.01792	193.65649	81.32556	0.31581	 	2.07786E30	 	9.35229E-31	 	-7941.39934	8.56019	 
120.0	1.0	0.0	8.92937	7.18173	-12.59008	11.04893	13.03261	0.73908	1.35303	214.28033	193.76342	81.43296	0.31569	 	5.69155E30	 	3.37143E-31	 	-7984.11659	8.54345	 
115.0	1.0	0.0	8.9309	7.1805	-12.60504	11.02693	12.97637	0.73285	1.36454	214.54236	193.86992	81.54022	0.31556	 	1.6E31	 	1.18404E-31	 	-8026.74966	8.52661	 
110.0	1.0	0.0	8.93242	7.17928	-12.61994	11.00492	12.91998	0.72656	1.37634	214.804	193.976	81.64735	0.31544	 	4.6209E31	 	4.04696E-32	 	-8069.29802	8.50967	 
105.0	1.0	0.0	8.93394	7.17806	-12.63478	10.98291	12.86344	0.72023	1.38844	215.06525	194.08166	81.75435	0.31531	 	1.3724999999999999E32	 	1.34474E-32	 	-8111.7611	8.49262	 
100.0	1.0	0.0	8.93545	7.17684	-12.64957	10.96089	12.80674	0.71386	1.40084	215.32612	194.18689	81.86122	0.31519	 	4.19729E32	 	4.33911E-33	 	-8154.1383	8.47544	 
95.0	1.0	0.0	8.93696	7.17563	-12.6643	10.93886	12.74987	0.70743	1.41356	215.5866	194.29169	81.96796	0.31507	 	1.32316E33	 	1.358E-33	 	-8196.42898	8.45814	 
90.0	1.0	0.0	8.93846	7.17443	-12.67897	10.91683	12.69284	0.70096	1.42661	215.84669	194.39608	82.07457	0.31494	 	4.30513E33	 	4.11705E-34	 	-8238.63248	8.4407	 
85.0	1.0	0.0	8.93996	7.17323	-12.69358	10.89478	12.63562	0.69444	1.44001	216.10639	194.50004	82.18105	0.31482	 	1.4476600000000001E34	 	1.2075E-34	 	-8280.74808	8.42312	 
80.0	1.0	0.0	8.94145	7.17203	-12.70814	10.87274	12.57822	0.68787	1.45376	216.36571	194.60359	82.2874	0.3147	 	5.03802E34	 	3.42126E-35	 	-8322.77501	8.40539	 
75.0	1.0	0.0	8.94294	7.17084	-12.72264	10.85068	12.52063	0.68125	1.46789	216.62464	194.70672	82.39361	0.31457	 	1.81723E35	 	9.35068E-36	 	-8364.71247	8.38749	 
70.0	1.0	0.0	8.94442	7.16965	-12.73708	10.82862	12.46283	0.67458	1.4824	216.88319	194.80943	82.4997	0.31445	 	6.8045E35	 	2.46136E-36	 	-8406.5596	8.36943	 
65.0	1.0	0.0	8.94589	7.16847	-12.75147	10.80655	12.40483	0.66786	1.49732	217.14135	194.91172	82.60565	0.31433	 	2.64935E36	 	6.22955E-37	 	-8448.31549	8.35118	 
60.0	1.0	0.0	8.94736	7.16729	-12.76579	10.78447	12.3466	0.66109	1.51266	217.39912	195.01359	82.71147	0.3142	 	1.07449E37	 	1.5133E-37	 	-8489.97917	8.33274	 
55.0	1.0	0.0	8.94882	7.16612	-12.78006	10.76238	12.28814	0.65426	1.52844	217.6565	195.11506	82.81716	0.31408	 	4.54774E37	 	3.52179E-38	 	-8531.54962	8.31409	 
50.0	1.0	0.0	8.95028	7.16495	-12.79427	10.74029	12.22945	0.64739	1.54467	217.9135	195.2161	82.92272	0.31396	 	2.0127E38	 	7.83632E-39	 	-8573.02575	8.29522	 
45.0	1.0	0.0	8.95173	7.16379	-12.80843	10.71819	12.1705	0.64046	1.56139	218.17012	195.31674	83.02815	0.31383	 	9.33397E38	 	1.66361E-39	 	-8614.40639	8.27613	 
40.0	1.0	0.0	8.95318	7.16263	-12.82252	10.69608	12.11129	0.63347	1.5786	218.42634	195.41696	83.13345	0.31371	 	4.54601E39	 	3.36208E-40	 	-8655.69032	8.25679	 
35.0	1.0	0.0	8.95462	7.16148	-12.83656	10.67397	12.0518	0.62644	1.59633	218.68218	195.51677	83.23861	0.31359	 	2.33082E40	 	6.45269E-41	 	-8696.87623	8.23718	 
30.0	1.0	0.0	8.95606	7.16033	-12.85054	10.65184	11.99202	0.61934	1.61461	218.93763	195.61617	83.34365	0.31346	 	1.2612500000000001E41	 	1.17312E-41	 	-8737.96272	8.2173	 
25.0	1.0	0.0	8.95749	7.15919	-12.86446	 	11.93194	0.6122	1.63347	219.1927	195.71516	83.44855	0.31334	 	7.22255E41	 	2.0148E-42	 	-8778.94831	 	 
