T (C)	Fraction solid (wt)-TOTAL	Fraction liquid (wt)-LIQUID	Density (g/(cm)^3)-TOTAL	Molar volume (cm^3)-TOTAL	Volume change (%)-  	Average expansion coeff. (10e-6 1/K)-  	Thermal conductivity (W/(m*K))-TOTAL	Electrical resistivity (10e-6 Ohm*m)-TOTAL	Electrical conductivity (10e6 1/(Ohm*m))-TOTAL	Young's modulus (GPa)-TOTAL	Bulk modulus (GPa)-TOTAL	Shear modulus(GPa)-TOTAL	Poisson's ratio-TOTAL	Liquid viscosity (mPa s)-  	Total viscosity (mPa s)-  	Liquid diffusivity (10e-9 (m^2)/s)-  	Total diffusivity (10e-9 (m^2)/s)-  	Surface Tension (mN/m)-  	Enthalpy (J/mole)-TOTAL	Specific heat (J/(mole K))-TOTAL	Latent heat (J/mole)-TOTAL
1400.0	0.0	1.0	7.47575	7.98345	0.0	32.66836	29.99197	1.36677	0.73165	0.0	122.16914	0.0	0.5	7.21397	7.21397	1.132	1.132	1775.40208	40684.299	 	0.0
1395.0	0.0	1.0	7.47988	7.97904	-0.0552292	32.6351	29.90871	1.36648	0.73181	0.0	122.30593	0.0	0.5	7.29252	7.29252	1.11646	1.11646	1778.61697	40482.708	40.3182	0.0
1390.0	0.0	1.0	7.48401	7.97464	-0.1103	32.60203	29.82545	1.36619	0.73196	0.0	122.44273	0.0	0.5	7.37241	7.37241	1.10105	1.10105	1781.88042	40281.573	40.227	0.0
1385.0	0.0	1.0	7.48812	7.97026	-0.16522	32.56915	29.74219	1.36589	0.73212	0.0	122.57953	0.0	0.5	7.45366	7.45366	1.08578	1.08578	1785.19302	40080.892	40.1362	0.0
1380.0	0.0	1.0	7.49223	7.96589	-0.21998	32.53647	29.65893	1.3656	0.73228	0.0	122.71633	0.0	0.5	7.53631	7.53631	1.07063	1.07063	1788.55532	39880.662	40.046	0.0
1375.0	0.0	1.0	7.49633	7.96153	-0.27458	32.50398	29.57567	1.3653	0.73244	0.0	122.85312	0.0	0.5	7.62038	7.62038	1.05562	1.05562	1791.96785	39680.881	39.9562	0.0
1370.0	0.0	1.0	7.50043	7.95718	-0.32903	32.47169	29.49241	1.365	0.7326	0.0	122.98992	0.0	0.5	7.70591	7.70591	1.04073	1.04073	1795.43109	39481.545	39.8672	0.0
1365.0	0.0	1.0	7.50452	7.95285	-0.38332	32.4396	29.40915	1.3647	0.73276	0.0	123.12672	0.0	0.5	7.79294	7.79294	1.02598	1.02598	1798.94553	39282.653	39.7784	0.0
1360.0	0.0	1.0	7.5086	7.94852	-0.43746	32.40772	29.32589	1.3644	0.73292	0.0	123.26352	0.0	0.5	7.88148	7.88148	1.01136	1.01136	1802.51158	39084.202	39.6902	0.0
1355.0	0.0	1.0	7.51267	7.94421	-0.49144	32.37604	29.24263	1.36409	0.73309	0.0	123.40032	0.0	0.5	7.97159	7.97159	0.99686	0.99686	1806.12964	38886.189	39.6026	0.0
1350.0	0.0	1.0	7.51674	7.93992	-0.54526	32.34456	29.15937	1.36379	0.73325	0.0	123.53711	0.0	0.5	8.06329	8.06329	0.9825	0.9825	1809.80007	38688.612	39.5154	0.0
1345.0	0.0	1.0	7.52079	7.93563	-0.59892	32.3133	29.07611	1.36348	0.73342	0.0	123.67391	0.0	0.5	8.15663	8.15663	0.96827	0.96827	1813.52318	38491.468	39.4288	0.0
1340.0	0.0	1.0	7.52484	7.93136	-0.65243	32.28224	28.99286	1.36317	0.73358	0.0	123.81071	0.0	0.5	8.25163	8.25163	0.95416	0.95416	1817.29926	38294.756	39.3424	0.0
1335.0	0.0	1.0	7.52889	7.9271	-0.70579	32.2514	28.9096	1.36286	0.73375	0.0	123.94751	0.0	0.5	8.34834	8.34834	0.94018	0.94018	1821.12855	38098.471	39.257	0.0
1330.0	0.0	1.0	7.53292	7.92285	-0.75898	32.22078	28.82634	1.36254	0.73392	0.0	124.0843	0.0	0.5	8.44679	8.44679	0.92634	0.92634	1825.01123	37902.612	39.1718	0.0
1325.24	0.0	1.0	7.53675	7.91883	-0.80943	32.19186	28.74716	1.36225	0.73408	0.0	124.2144	0.0	0.5	8.54209	8.54209	0.91329	0.91329	1828.75341	37716.746	39.08788	0.0
1325.0	0.00602	0.99398	7.53866	7.91682	-0.8346	32.1247	28.76317	1.36128	0.7346	1.28083E-7	124.35401	4.27159E-8	0.49924	8.54692	8.61568	0.91263	0.90535	1828.6785	37621.779	387.74702	85.396
1320.0	0.1243	0.8757	7.57627	7.87752	-1.32678	30.81112	29.08121	1.34218	0.74506	0.023822	127.04886	0.00802469	0.48429	8.6489	16.94328	0.89905	0.45893	1827.20324	35758.957	372.5644	1753.203
1315.0	0.22484	0.77516	7.60877	7.84389	-1.74803	29.69538	29.34942	1.32574	0.7543	0.26006	129.34281	0.0883703	0.47141	8.7546	88.3567	0.88541	0.0877281	1825.79315	34158.455	320.1004	3159.111
1310.0	0.31087	0.68913	7.63705	7.81484	-2.11193	28.73976	29.57684	1.3114	0.76254	0.96681	131.3125	0.33104	0.46025	8.86406	309.88895	0.87172	0.0249346	1824.44894	32772.418	277.2074	4350.968
1305.0	0.38492	0.61508	7.66175	7.78964	-2.42756	27.91928	29.76972	1.29879	0.76995	2.30719	133.01846	0.79529	0.45053	8.97731	753.85699	0.858	0.0102175	1823.16916	31562.852	241.9132	5366.77
1300.0	0.44905	0.55095	7.6835	7.76755	-2.7043	27.20777	29.93335	1.2876	0.77664	4.33092	134.5084	1.50169	0.44202	9.0944	1468.09001	0.84427	0.00523003	1821.95434	30499.38	212.6944	6236.888
1295.0	0.50489	0.49511	7.70275	7.74813	-2.9476	26.59025	30.07171	1.2776	0.78272	7.00364	135.82159	2.44108	0.43454	9.21533	2479.59893	0.83055	0.00308669	1820.80219	29557.561	188.3638	6985.766
1290.0	0.55372	0.44628	7.71989	7.73087	-3.16375	26.04904	30.18767	1.26864	0.78825	10.24186	136.98694	3.58626	0.42793	9.34022	3800.87613	0.81683	0.00200726	1819.71284	28717.596	167.993	7633.193
1285.0	0.59664	0.40336	7.73523	7.71549	-3.35646	25.57388	30.2839	1.26056	0.7933	13.94102	138.03012	4.90168	0.42207	9.46914	5436.36061	0.80313	0.0013989	1818.68421	27963.362	150.8468	8195.296
1280.0	0.63451	0.36549	7.74903	7.70166	-3.52965	25.1538	30.36252	1.25326	0.79792	17.99042	138.96958	6.34877	0.41684	9.60205	7385.38667	0.78947	0.00102642	1817.71556	27281.647	136.343	8685.282
1275.2	0.66677	0.33323	7.76101	7.68969	-3.67958	24.7968	30.42312	1.2469	0.80199	22.10906	139.79023	7.82702	0.41236	9.73356	9549.79568	0.7764	7.91336E-4	1816.83866	26685.49	 	9097.638
1275.0	0.66808	0.33192	7.76151	7.68919	-3.68582	24.78182	30.42557	1.24664	0.80216	22.29283	139.82511	7.89311	0.41217	9.73938	9649.47699	0.77583	7.83062E-4	1816.80772	26660.94	124.1414	9114.66
1270.0	0.70054	0.29946	7.77368	7.67703	-3.83816	24.41854	30.48395	1.24023	0.8063	27.16854	140.67336	9.65062	0.40761	9.89123	12408.25543	0.76146	6.06994E-4	1816.06704	26054.236	121.3408	9530.433
1265.0	0.72907	0.27093	7.78462	7.66609	-3.97515	24.09911	30.52746	1.23445	0.81008	32.11058	141.44097	11.43903	0.40355	10.04747	15495.79693	0.74719	4.84475E-4	1815.36915	25502.973	110.2526	9891.161
1260.0	0.75428	0.24572	7.79452	7.65621	-4.09899	23.8174	30.55805	1.22921	0.81353	37.0418	142.14207	13.22978	0.39994	10.20827	18911.47729	0.73303	3.95682E-4	1814.71341	24998.368	100.921	10205.627
1255.0	0.77664	0.22336	7.80354	7.64719	-4.21196	23.5668	30.57718	1.22443	0.81671	41.90071	142.78646	14.99989	0.3967	10.37381	22657.36221	0.71898	3.29188E-4	1814.10077	24533.273	93.019	10480.972
1250.0	0.79656	0.20344	7.81179	7.63892	-4.31552	23.3432	30.58622	1.22007	0.81963	46.64537	143.38309	16.73334	0.39379	10.54408	26742.88183	0.70505	2.77985E-4	1813.53043	24101.831	86.2884	10723.054
1245.0	0.81436	0.18564	7.81938	7.6313	-4.41102	23.1428	30.58642	1.21605	0.82233	51.24711	143.93932	18.41898	0.39115	10.71929	31181.03924	0.69125	2.37635E-4	1813.00216	23699.209	80.5244	10936.703
1240.0	0.83033	0.16967	7.82639	7.62425	-4.49928	22.96326	30.57869	1.21235	0.82484	55.68161	144.46097	20.04722	0.38876	10.89955	35987.25662	0.67758	2.0522E-4	1812.51503	23321.395	75.5628	11125.929
1235.0	0.8447	0.1553	7.8329	7.61768	-4.5816	22.80083	30.5641	1.20892	0.82718	59.9433	144.95306	21.61544	0.38658	11.08496	41187.10382	0.66404	1.78719E-4	1812.06976	22965.037	71.2716	11294.081
1230.0	0.85766	0.14234	7.83897	7.61154	-4.65842	22.65427	30.54324	1.20574	0.82937	64.01961	145.41943	23.11848	0.3846	11.27571	46802.72465	0.65065	1.56754E-4	1811.66516	22627.323	67.5428	11443.97
1225.0	0.86941	0.13059	7.84465	7.60578	-4.7306	22.52114	30.51681	1.20277	0.83141	67.90987	145.86319	24.5556	0.38278	11.47185	52863.78047	0.6374	1.3832E-4	1811.3021	22305.878	64.289	11577.969
1220.0	0.88006	0.11994	7.85	7.60035	-4.79864	22.40003	30.48547	1.19999	0.83334	71.61949	146.28761	25.92837	0.3811	11.67363	59408.28345	0.62429	1.22671E-4	1810.97964	21998.686	61.4384	11698.09
1215.0	0.88975	0.11025	7.85505	7.5952	-4.8631	22.28925	30.44971	1.19737	0.83516	75.15165	146.69486	27.23759	0.37956	11.88114	66474.61125	0.61133	1.09264E-4	1810.69847	21704.033	58.9306	11806.047
1211.01	0.89683	0.10317	7.85887	7.5913	-4.91203	22.20827	30.41805	1.1954	0.83654	77.83429	147.00906	28.2333	0.37841	12.05112	72511.86469	0.60109	9.9898E-5	1810.49965	21477.054	 	11884.129
1210.0	0.89879	0.10121	7.85984	7.59029	-4.92462	22.18692	30.41081	1.19488	0.83691	78.58754	147.09387	28.51306	0.3781	12.09649	74176.45541	0.59843	9.75901E-5	1810.59573	21417.282	57.3502	11906.474
1205.0	0.90822	0.0917802	7.86379	7.58502	-4.99064	22.06931	30.34343	1.19349	0.83788	82.33017	147.52554	29.90506	0.37653	12.32646	82914.81681	0.58528	8.70108E-5	1813.39643	21098.71584	63.71323	12012.943
1200.0	0.91671	0.0832857	7.87535	7.57709	-5.09005	21.84321	29.96267	1.20457	0.83017	86.6241	148.23761	31.51713	0.37424	12.56272	94216.99642	0.57233	7.6314E-5	1816.21205	20580.00266	103.74264	12107.753
1195.0	0.9244	0.0755984	7.88612	7.56928	-5.18779	21.62057	29.59873	1.21524	0.82288	90.69559	148.91189	33.04944	0.37212	12.80552	106672.9008	0.55958	6.71743E-5	1819.04247	20081.82705	99.63512	12192.419
1190.0	0.93137	0.0686255	7.89616	7.56162	-5.2838	21.40162	29.25121	1.22549	0.816	94.55528	149.55226	34.50535	0.37015	13.05495	120398.6965	0.54702	5.93135E-5	1821.88914	19602.33025	95.89936	12268.227
1185.0	0.93772	0.0622841	7.90553	7.5541	-5.37791	21.18701	28.91934	1.23532	0.80951	98.21393	150.16237	35.88832	0.36833	13.31116	135523.036	0.53465	5.25141E-5	1824.75129	19139.67563	92.53092	12336.271
1180.0	0.94349	0.0565056	7.91426	7.54675	-5.47004	20.977	28.60205	1.24474	0.80338	101.68209	150.74503	37.20185	0.36663	13.57432	152188.352	0.52249	4.66032E-5	1827.62953	18692.5165	89.43183	12397.487
1175.0	0.94877	0.0512275	7.92241	7.53956	-5.56012	20.77193	28.29842	1.25377	0.7976	104.96991	151.30233	38.44934	0.36504	13.84468	170550.5964	0.51053	4.14426E-5	1830.52452	18259.73567	86.55617	12452.679
1170.0	0.9536	0.0463954	7.93004	7.53254	-5.64809	20.57203	28.00765	1.26241	0.79213	108.08692	151.83667	39.634	0.36356	14.12227	190784.0836	0.49876	3.69195E-5	1833.43601	17840.20066	83.907	12502.54
1165.0	0.95774	0.042258	7.9371	7.52577	-5.7328	20.38119	27.72466	1.27088	0.78686	110.92094	152.3491	40.71334	0.36222	14.42232	212862.7221	0.48669	3.29755E-5	1836.36431	17432.95848	81.44844	12547.614
1160.0	0.96149	0.0385081	7.94368	7.5192	-5.81513	20.1966	27.45221	1.27903	0.78184	113.58852	152.84215	41.73085	0.36097	14.73748	237152.7179	0.47463	2.94951E-5	1839.30982	17036.19073	79.35355	12589.34
1155.0	0.96496	0.0350364	7.94987	7.5128	-5.89529	20.01764	27.19162	1.28678	0.77713	116.12706	153.31621	42.70037	0.35979	15.06032	263937.5161	0.46284	2.64095E-5	1842.27239	16649.91117	77.25591	12627.345
1150.0	0.96818	0.0318174	7.95569	7.50657	-5.97337	19.84409	26.94209	1.29415	0.77271	118.54524	153.77315	43.62503	0.35868	15.39103	293479.8292	0.4513	2.36679E-5	1845.25232	16273.4	75.30223	12662.021
1145.0	0.97117	0.0288257	7.96119	7.5005	-6.04942	19.67584	26.70289	1.30116	0.76855	120.85048	154.21464	44.50749	0.35764	15.72998	326070.13	0.44003	2.12275E-5	1848.24897	15906.00026	73.47995	12693.718
1140.0	0.97396	0.0260412	7.96639	7.49458	-6.12354	19.51262	26.47337	1.30781	0.76464	123.04979	154.64212	45.35026	0.35666	16.07724	362029.7806	0.42901	1.90516E-5	1851.26293	15547.12289	71.77547	12722.737
1135.0	0.97655	0.0234458	7.97132	7.48881	-6.19581	19.35422	26.25291	1.31413	0.76096	125.14979	155.05683	46.15576	0.35573	16.43316	401715.6503	0.41823	1.71087E-5	1854.29447	15196.24018	70.17654	12749.345
1130.0	0.97898	0.021016	7.97602	7.48317	-6.26638	19.20025	26.04087	1.32012	0.7575	127.16447	155.46124	46.9292	0.35485	16.79919	445545.5976	0.40766	1.53709E-5	1857.34278	14852.14844	68.81835	12774.5
1125.0	0.98158	0.0184165	7.98048	7.47755	-6.33686	19.04517	25.83092	1.32611	0.75408	129.37283	155.9062	47.77622	0.35395	17.22638	494832.4035	0.39614	1.37906E-5	1860.35348	14487.47717	72.93425	12825.35
1120.0	0.98383	0.0161697	7.98469	7.47218	-6.40414	18.8997	25.62932	1.33176	0.75088	131.3746	156.32793	48.54517	0.35312	17.66201	548870.0324	0.38499	1.23884E-5	1863.38682	14135.26282	70.44287	12868.65
1115.0	0.98582	0.0141815	7.98868	7.46701	-6.46886	18.76181	25.43572	1.33708	0.7479	133.21842	156.73067	49.25435	0.35235	18.10472	608275.5608	0.37422	1.11384E-5	1866.44356	13793.78986	68.29459	12905.926
1110.0	0.9881	0.0118976	7.99253	7.46171	-6.53527	18.61677	25.25208	1.34196	0.74518	135.18946	157.13004	50.01203	0.35157	18.52563	674856.7209	0.3644	1.00033E-5	1869.51707	13459.77973	66.80203	12940.284
1105.0	0.99033	0.00967016	7.99622	7.45646	-6.60094	18.47295	25.07565	1.34651	0.74266	137.11481	157.52007	50.75257	0.35082	18.94277	748657.9168	0.35509	8.98462E-6	1872.61004	13133.67365	65.22122	12971.123
1100.0	0.99248	0.00752209	7.99975	7.45129	-6.66574	18.33087	24.90573	1.35078	0.74031	138.98453	157.90152	51.47215	0.35009	19.35778	830411.9627	0.34622	8.0707E-6	1875.72259	12814.84943	63.76484	12998.92
1095.0	0.99453	0.00547207	8.00315	7.4462	-6.72951	18.19108	24.74175	1.35478	0.73813	140.78974	158.27492	52.16735	0.3494	19.772	920926.4131	0.33773	7.25096E-6	1878.85383	12502.82324	62.40524	13024.027
1090.0	0.99647	0.00353113	8.00644	7.4412	-6.7922	18.05384	24.58328	1.35853	0.73609	142.52655	158.64075	52.83667	0.34875	20.18699	1021117.108	0.32958	6.51561E-6	1882.00288	12197.12485	61.13968	13046.721
1085.0	0.99829	0.00170596	8.00963	7.43628	-6.85374	17.91939	24.42994	1.36205	0.73419	144.19216	158.99942	53.47899	0.34812	20.60347	1132000.535	0.32173	5.85582E-6	1885.17069	11897.38194	59.94858	13067.231
1080.0	1.0	0.0	8.01273	7.43147	-6.91402	17.78821	24.28153	1.36533	0.73243	145.78343	159.35115	54.09308	0.34752	 	1254694.673	 	5.26374E-6	 	11603.4111	58.79417	13085.758
1075.0	1.0	0.0	8.01686	7.42765	-6.96189	17.70046	24.1333	1.36863	0.73066	146.40893	159.62394	54.341	0.34713	 	1392167.936	 	4.72643E-6	 	11361.84162	48.3139	 
1070.0	1.0	0.0	8.02092	7.42389	-7.00901	17.61459	23.99055	1.37167	0.72904	147.0206	159.89235	54.58346	0.34675	 	1545927.078	 	4.24055E-6	 	11100.77529	52.21327	 
1065.0	1.0	0.0	8.02492	7.42018	-7.0554	17.53056	23.85264	1.37447	0.72755	147.61907	160.15666	54.82071	0.34638	 	1718018.582	 	3.80158E-6	 	10843.08342	51.53837	 
1060.0	1.0	0.0	8.02887	7.41654	-7.10108	17.44832	23.71936	1.37703	0.7262	148.20497	160.41716	55.05298	0.34602	 	1910757.26	 	3.40534E-6	 	10588.68093	50.8805	 
1055.0	1.0	0.0	8.03276	7.41295	-7.14606	17.36784	23.59047	1.37936	0.72498	148.77889	160.67412	55.28051	0.34567	 	2126762.82	 	3.048E-6	 	10337.4838	50.23943	 
1050.0	1.0	0.0	8.03659	7.40941	-7.19036	17.28907	23.46577	1.38147	0.72387	149.34142	160.92779	55.50352	0.34533	 	2369002.196	 	2.72603E-6	 	10089.40851	49.61506	 
1045.0	1.0	0.0	8.04037	7.40592	-7.234	17.21198	23.34504	1.38336	0.72288	149.89314	161.17841	55.72224	0.345	 	2640837.489	 	2.43618E-6	 	9844.37107	49.00749	 
1040.0	1.0	0.0	8.0441	7.40249	-7.277	17.13652	23.22808	1.38506	0.72199	150.43459	161.42622	55.93687	0.34468	 	2946081.291	 	2.17549E-6	 	9602.28621	48.41697	 
1035.0	1.0	0.0	8.04778	7.39911	-7.31938	17.06265	23.11469	1.38655	0.72121	150.96633	161.67144	56.14765	0.34437	 	3289060.536	 	1.94121E-6	 	9363.06748	47.84374	 
1030.0	1.0	0.0	8.05141	7.39577	-7.36115	16.99031	23.00468	1.38786	0.72054	151.4889	161.91428	56.35476	0.34406	 	3674689.609	 	1.73085E-6	 	9126.62703	47.28809	 
1025.0	1.0	0.0	8.05499	7.39249	-7.40234	16.91947	22.89785	1.38898	0.71995	152.00281	162.15494	56.55843	0.34377	 	4108554.419	 	1.54214E-6	 	8892.8755	46.75031	 
1020.0	1.0	0.0	8.05852	7.38924	-7.44296	16.85007	22.79403	1.38993	0.71946	152.50857	162.3936	56.75885	0.34348	 	4597009.838	 	1.37297E-6	 	8661.72286	46.23053	 
1015.0	1.0	0.0	8.06202	7.38604	-7.48303	16.78207	22.69304	1.39072	0.71905	153.00667	162.63043	56.9562	0.3432	 	5147291.23	 	1.22145E-6	 	8433.07716	45.72914	 
1010.0	1.0	0.0	8.06546	7.38289	-7.52258	16.7154	22.59471	1.39135	0.71873	153.49758	162.86561	57.15068	0.34292	 	5767643.874	 	1.08584E-6	 	8206.84671	45.24609	 
1005.0	1.0	0.0	8.06887	7.37977	-7.56161	16.65002	22.49889	1.39183	0.71848	153.98174	163.09928	57.34246	0.34265	 	6467472.185	 	9.6457E-7	 	7982.93973	44.7814	 
1000.0	1.0	0.0	8.07224	7.37669	-7.60016	16.58587	22.40542	1.39217	0.7183	154.45959	163.33159	57.53172	0.34239	 	7257511.796	 	8.56207E-7	 	7761.26525	44.3349	 
998.96	1.0	0.0	8.07293	7.37606	-7.60811	16.57268	22.38626	1.39222	0.71828	154.55824	163.37974	57.57078	0.34233	 	7434294.559	 	8.35164E-7	 	7715.42015	 	 
997.97	1.0	0.0	8.07375	7.3753	-7.61758	16.55278	22.36722	1.39232	0.71822	154.67968	163.42525	57.61945	0.34225	 	7610284.436	 	8.15214E-7	 	7665.15901	 	 
995.0	1.0	0.0	8.07573	7.3735	-7.64014	16.51544	22.3134	1.39242	0.71817	154.96006	163.56266	57.73048	0.3421	 	8153809.991	 	7.59096E-7	 	7534.95086	45.26288	 
990.0	1.0	0.0	8.07902	7.37049	-7.6778	16.45342	22.22435	1.39249	0.71814	155.42809	163.79332	57.9158	0.34185	 	9164187.724	 	6.72741E-7	 	7317.20737	43.5487	 
985.0	1.0	0.0	8.08228	7.36752	-7.71501	16.39248	22.13724	1.39244	0.71817	155.89092	164.02298	58.09903	0.3416	 	1.030735491E7	 	5.95761E-7	 	7101.45917	43.14964	 
980.0	1.0	0.0	8.0855	7.36459	-7.7518	16.33258	22.05194	1.39227	0.71825	156.34889	164.25172	58.28032	0.34135	 	1.16017434E7	 	5.27189E-7	 	6887.619	42.76803	 
975.0	1.0	0.0	8.08869	7.36168	-7.78819	16.27365	21.96834	1.39199	0.7184	156.80234	164.47964	58.45979	0.34111	 	1.30684904E7	 	4.66153E-7	 	6675.60317	42.40317	 
970.0	1.0	0.0	8.09185	7.35881	-7.8242	16.21565	21.88634	1.39161	0.71859	157.25157	164.7068	58.63757	0.34088	 	1.47318581E7	 	4.11863E-7	 	6465.33064	42.05451	 
965.0	1.0	0.0	8.09498	7.35596	-7.85983	16.15853	21.80582	1.39113	0.71884	157.69685	164.93327	58.81376	0.34065	 	1.661972E7	 	3.6361E-7	 	6256.72408	41.72131	 
960.0	1.0	0.0	8.09808	7.35315	-7.8951	16.10222	21.72671	1.39055	0.71914	158.13846	165.15911	58.98848	0.34042	 	1.876413114E7	 	3.20756E-7	 	6049.70947	41.40292	 
955.0	1.0	0.0	8.10115	7.35036	-7.93004	16.0467	21.6489	1.38989	0.71948	158.57663	165.38436	59.16183	0.34019	 	2.120198778E7	 	2.82723E-7	 	5844.21636	41.09862	 
950.0	1.0	0.0	8.1042	7.34759	-7.96465	15.99191	21.57233	1.38915	0.71987	159.01159	165.60908	59.33388	0.33997	 	2.397580181E7	 	2.48997E-7	 	5640.17725	40.80782	 
945.0	1.0	0.0	8.10722	7.34486	-7.99895	15.93782	21.49691	1.38832	0.72029	159.44355	165.83329	59.50473	0.33976	 	2.713460289E7	 	2.19111E-7	 	5437.52849	40.52975	 
940.0	1.0	0.0	8.11022	7.34214	-8.03294	15.88437	21.42257	1.38742	0.72076	159.87269	166.05703	59.67446	0.33954	 	3.07349907E7	 	1.9265E-7	 	5236.20959	40.26378	 
935.0	1.0	0.0	8.11319	7.33945	-8.06665	15.83153	21.34926	1.38645	0.72127	160.2992	166.28032	59.84313	0.33933	 	3.484237304E7	 	1.69239E-7	 	5036.16328	40.00926	 
930.0	1.0	0.0	8.11614	7.33678	-8.10008	15.77927	21.27702	1.3854	0.72181	160.72323	166.50319	60.01081	0.33912	 	3.953241124E7	 	1.48543E-7	 	4837.33555	39.76555	 
925.0	1.0	0.0	8.11907	7.33413	-8.13325	15.72754	21.20557	1.38429	0.72239	161.14493	166.72565	60.17756	0.33891	 	4.48927146E7	 	1.30263E-7	 	4639.67493	39.53212	 
920.0	1.0	0.0	8.12198	7.33151	-8.16616	15.67632	21.13498	1.38312	0.723	161.56444	166.94772	60.34344	0.33871	 	5.102483383E7	 	1.1413E-7	 	4443.13326	39.30834	 
915.0	1.0	0.0	8.12487	7.3289	-8.19882	15.62557	21.0652	1.38188	0.72365	161.98188	167.1694	60.5085	0.33851	 	5.804660735E7	 	9.99036E-8	 	4247.66495	39.09366	 
910.0	1.0	0.0	8.12774	7.32631	-8.23125	15.57526	20.99618	1.38059	0.72433	162.39737	167.3907	60.67278	0.33831	 	6.609490665E7	 	8.73692E-8	 	4053.22701	38.88759	 
905.0	1.0	0.0	8.1306	7.32374	-8.26344	15.52537	20.92788	1.37925	0.72503	162.81101	167.61164	60.83632	0.33811	 	7.532889916E7	 	7.63353E-8	 	3859.77891	38.68962	 
900.0	1.0	0.0	8.13343	7.32119	-8.29542	15.47586	20.86026	1.37784	0.72577	163.2229	167.8322	60.99918	0.33791	 	8.593386093E7	 	6.66309E-8	 	3667.28244	38.49929	 
895.0	1.0	0.0	8.13625	7.31865	-8.32718	15.42671	20.79329	1.37639	0.72654	163.63312	168.0524	61.16137	0.33772	 	9.812571357E7	 	5.81035E-8	 	3475.70154	38.31618	 
890.0	1.0	0.0	8.13905	7.31613	-8.35874	15.3779	20.72693	1.37489	0.72733	164.04175	168.27222	61.32294	0.33752	 	1.121563607E8	 	5.06172E-8	 	3285.00242	38.13982	 
885.0	1.0	0.0	8.14184	7.31363	-8.39009	15.32939	20.66115	1.37333	0.72815	164.44886	168.49167	61.48392	0.33733	 	1.283200247E8	 	4.40511E-8	 	3095.1527	37.96994	 
880.0	1.0	0.0	8.14461	7.31114	-8.42125	15.28118	20.59593	1.37174	0.729	164.85453	168.71074	61.64432	0.33714	 	1.469607401E8	 	3.82976E-8	 	2906.12194	37.80615	 
875.0	1.0	0.0	8.14736	7.30867	-8.45223	15.23324	20.53124	1.37009	0.72988	165.25881	168.92943	61.80419	0.33695	 	1.684812657E8	 	3.32609E-8	 	2717.88149	37.64809	 
870.0	1.0	0.0	8.1501	7.30621	-8.48302	15.18555	20.46705	1.3684	0.73078	165.66175	169.14773	61.96353	0.33677	 	1.933536406E8	 	2.88561E-8	 	2530.40521	37.49526	 
865.0	1.0	0.0	8.15283	7.30377	-8.51363	15.13808	20.40333	1.36667	0.7317	166.06341	169.36564	62.12237	0.33658	 	2.221317747E8	 	2.50078E-8	 	2343.66775	37.34749	 
860.0	1.0	0.0	8.15555	7.30134	-8.54407	15.09083	20.34008	1.3649	0.73265	166.46383	169.58314	62.28074	0.3364	 	2.554664136E8	 	2.16491E-8	 	2157.64513	37.20452	 
855.0	1.0	0.0	8.15825	7.29892	-8.57434	15.04378	20.27726	1.36309	0.73363	166.86306	169.80022	62.43864	0.33622	 	2.941229947E8	 	1.87208E-8	 	1972.31471	37.06608	 
850.0	1.0	0.0	8.16093	7.29652	-8.60445	14.9969	20.21486	1.36123	0.73463	167.26113	170.01688	62.5961	0.33603	 	3.390029917E8	 	1.61704E-8	 	1787.65506	36.93193	 
845.0	1.0	0.0	8.16314	7.29455	-8.62911	14.9746	20.15701	1.35906	0.7358	167.59733	170.21153	62.72857	0.33589	 	3.860614256E8	 	1.41361E-8	 	1629.98594	31.53382	 
840.0	1.0	0.0	8.16533	7.29258	-8.65372	14.95228	20.09915	1.35688	0.73698	167.93298	170.40532	62.86086	0.33575	 	4.401659406E8	 	1.23431E-8	 	1469.31366	32.13446	 
835.0	1.0	0.0	8.16753	7.29062	-8.67826	14.92996	20.04128	1.35469	0.73818	168.26808	170.59825	62.99298	0.33561	 	5.024472446E8	 	1.07645E-8	 	1308.8575	32.09123	 
830.0	1.0	0.0	8.16972	7.28867	-8.70275	14.90762	19.9834	1.35248	0.73938	168.60263	170.79032	63.12491	0.33547	 	5.742295037E8	 	9.37639E-9	 	1148.61686	32.04813	 
825.0	1.0	0.0	8.17191	7.28672	-8.72718	14.88528	19.92552	1.35026	0.7406	168.93664	170.98154	63.25667	0.33533	 	6.570654811E8	 	8.15717E-9	 	988.59107	32.00516	 
820.0	1.0	0.0	8.17409	7.28477	-8.75156	14.86293	19.86763	1.34803	0.74182	169.27009	171.17191	63.38825	0.33519	 	7.52778426E8	 	7.0876E-9	 	828.77947	31.96232	 
815.0	1.0	0.0	8.17627	7.28283	-8.77587	14.84057	19.80974	1.34579	0.74306	169.603	171.36142	63.51965	0.33504	 	8.63512082E8	 	6.15045E-9	 	669.18135	31.91962	 
810.0	1.0	0.0	8.17844	7.28089	-8.80013	14.8182	19.75183	1.34353	0.74431	169.93536	171.55009	63.65087	0.3349	 	9.917904711E8	 	5.33035E-9	 	509.79601	31.87707	 
805.0	1.0	0.0	8.18061	7.27896	-8.82434	14.79581	19.69392	1.34126	0.74557	170.26717	171.73792	63.78191	0.33476	 	1.140589472E9	 	4.61356E-9	 	350.62271	31.83466	 
800.0	1.0	0.0	8.18278	7.27703	-8.84848	14.77342	19.636	1.33898	0.74684	170.59843	171.9249	63.91277	0.33462	 	1.313422639E9	 	3.98789E-9	 	191.66066	31.79241	 
795.0	1.0	0.0	8.18494	7.27511	-8.87257	14.75103	19.57808	1.33668	0.74812	170.92915	172.11104	64.04346	0.33448	 	1.514444262E9	 	3.44243E-9	 	32.90907	31.75032	 
790.0	1.0	0.0	8.1871	7.27319	-8.8966	14.72862	19.52014	1.33437	0.74941	171.25931	172.29634	64.17396	0.33434	 	1.748573292E9	 	2.96755E-9	 	-125.6329	31.70839	 
785.0	1.0	0.0	8.18926	7.27128	-8.92058	14.7062	19.4622	1.33205	0.75072	171.58893	172.48081	64.30429	0.3342	 	2.021642618E9	 	2.55464E-9	 	-283.96612	31.66664	 
780.0	1.0	0.0	8.19141	7.26937	-8.94449	14.68377	19.40425	1.32972	0.75204	171.918	172.66444	64.43443	0.33405	 	2.340579131E9	 	2.19611E-9	 	-442.09149	31.62507	 
775.0	1.0	0.0	8.19356	7.26746	-8.96835	14.66133	19.34629	1.32737	0.75337	172.24652	172.84725	64.5644	0.33391	 	2.713621283E9	 	1.88522E-9	 	-600.00993	31.58369	 
770.0	1.0	0.0	8.1957	7.26556	-8.99215	14.63889	19.28832	1.32501	0.75471	172.5745	173.02922	64.69418	0.33377	 	3.150582359E9	 	1.616E-9	 	-757.72244	31.5425	 
765.0	1.0	0.0	8.19784	7.26367	-9.0159	14.61643	19.23035	1.32263	0.75607	172.90192	173.21037	64.82379	0.33363	 	3.66316959E9	 	1.38322E-9	 	-915.23004	31.50152	 
760.0	1.0	0.0	8.19997	7.26178	-9.03958	14.59397	19.17236	1.32024	0.75744	173.2288	173.39069	64.95322	0.33349	 	4.265371567E9	 	1.18221E-9	 	-1072.53379	31.46075	 
755.0	1.0	0.0	8.2021	7.25989	-9.06321	14.57149	19.11437	1.31784	0.75882	173.55513	173.57019	65.08247	0.33335	 	4.973929379E9	 	1.00889E-9	 	-1229.63482	31.42021	 
750.0	1.0	0.0	8.20423	7.25801	-9.08678	14.54901	19.05637	1.31542	0.76021	173.88091	173.74887	65.21154	0.33321	 	5.808910512E9	 	8.59669E-10	 	-1386.53429	31.37989	 
745.0	1.0	0.0	8.20635	7.25613	-9.11029	14.52652	18.99835	1.31299	0.76162	174.20615	173.92673	65.34043	0.33307	 	6.794409118E9	 	7.31386E-10	 	-1543.23342	31.33983	 
740.0	1.0	0.0	8.20847	7.25426	-9.13375	14.50401	18.94033	1.31055	0.76304	174.53083	174.10378	65.46913	0.33292	 	7.959401975E9	 	6.21269E-10	 	-1699.73349	31.30001	 
735.0	1.0	0.0	8.21059	7.25239	-9.15715	14.4815	18.8823	1.30809	0.76448	174.85497	174.28001	65.59766	0.33278	 	9.338796555E9	 	5.26891E-10	 	-1856.03585	31.26047	 
730.0	1.0	0.0	8.2127	7.25053	-9.18049	14.45898	18.82427	1.30561	0.76592	175.17856	174.45543	65.72601	0.33264	 	1.09747E10	 	4.46128E-10	 	-2012.14192	31.22121	 
725.0	1.0	0.0	8.2148	7.24867	-9.20377	14.43645	18.76622	1.30312	0.76739	175.5016	174.63005	65.85418	0.3325	 	1.2918099999999998E10	 	3.77124E-10	 	-2168.05318	31.18225	 
720.0	1.0	0.0	8.2169	7.24681	-9.227	14.41391	18.70816	1.30062	0.76886	175.82409	174.80385	65.98217	0.33236	 	1.5230599999999998E10	 	3.18263E-10	 	-2323.77117	31.1436	 
715.0	1.0	0.0	8.219	7.24497	-9.25016	14.39136	18.65009	1.2981	0.77036	176.14604	174.97685	66.10998	0.33222	 	1.79869E10	 	2.68134E-10	 	-2479.29754	31.10527	 
710.0	1.0	0.0	8.22109	7.24312	-9.27327	14.3688	18.59201	1.29557	0.77186	176.46744	175.14905	66.23761	0.33208	 	2.12781E10	 	2.25514E-10	 	-2634.63402	31.0673	 
705.0	1.0	0.0	8.22318	7.24128	-9.29632	14.34623	18.53392	1.29302	0.77339	176.78829	175.32045	66.36506	0.33194	 	2.5214799999999996E10	 	1.89337E-10	 	-2789.78243	31.02968	 
700.0	1.0	0.0	8.22527	7.23944	-9.31931	14.32366	18.47582	1.29045	0.77492	177.10859	175.49105	66.49233	0.3318	 	2.9931999999999996E10	 	1.58683E-10	 	-2944.74468	30.99245	 
695.0	1.0	0.0	8.22735	7.23761	-9.34225	14.30107	18.41771	1.28787	0.77647	177.42835	175.66085	66.61942	0.33166	 	3.55946E10	 	1.32753E-10	 	-3099.52281	30.95562	 
690.0	1.0	0.0	8.22943	7.23579	-9.36513	14.27848	18.35959	1.28528	0.77804	177.74756	175.82986	66.74633	0.33152	 	4.24048E10	 	1.10858E-10	 	-3254.11894	30.91923	 
685.0	1.0	0.0	8.2315	7.23397	-9.38794	14.25587	18.30146	1.28267	0.77963	178.06622	175.99808	66.87306	0.33137	 	5.061029999999999E10	 	9.2402E-11	 	-3408.53534	30.88328	 
680.0	1.0	0.0	8.23357	7.23215	-9.41071	14.23326	18.24332	1.28004	0.78123	178.38433	176.16551	66.99961	0.33123	 	6.051579999999999E10	 	7.68739E-11	 	-3562.77438	30.84781	 
675.0	1.0	0.0	8.23563	7.23034	-9.43341	14.21063	18.18516	1.2774	0.78284	178.70189	176.33215	67.12597	0.33109	 	7.24966E10	 	6.38332E-11	 	-3716.83861	30.81285	 
670.0	1.0	0.0	8.23769	7.22853	-9.45605	14.188	18.127	1.27474	0.78447	179.01891	176.498	67.25216	0.33095	 	8.70158E10	 	5.29017E-11	 	-3870.73069	30.77842	 
665.0	1.0	0.0	8.23975	7.22673	-9.47864	14.16535	18.06882	1.27206	0.78612	179.33538	176.66307	67.37817	0.33081	 	1.04646E11	 	4.37558E-11	 	-4024.45346	30.74455	 
660.0	1.0	0.0	8.2418	7.22493	-9.50117	14.1427	18.01063	1.26937	0.78779	179.6513	176.82736	67.50399	0.33067	 	1.26098E11	 	3.61186E-11	 	-4178.0021	30.70973	 
655.0	1.0	0.0	8.24384	7.22313	-9.52363	14.12004	17.95243	1.26666	0.78948	179.96668	176.99087	67.62964	0.33053	 	1.52252E11	 	2.97537E-11	 	-4331.33319	30.66622	 
650.0	1.0	0.0	8.24589	7.22134	-9.54605	14.09737	17.89421	1.26394	0.79118	180.28151	177.1536	67.7551	0.33039	 	1.84208E11	 	2.44597E-11	 	-4484.38907	30.61118	 
645.0	1.0	0.0	8.24792	7.21956	-9.5684	14.07469	17.83599	1.2612	0.7929	180.59579	177.31556	67.88039	0.33025	 	2.23333E11	 	2.00654E-11	 	-4637.1707	30.55633	 
640.0	1.0	0.0	8.24996	7.21778	-9.59069	14.052	17.77775	1.25844	0.79464	180.90952	177.47674	68.00549	0.33011	 	2.71339E11	 	1.64254E-11	 	-4789.67906	30.50167	 
635.0	1.0	0.0	8.25199	7.216	-9.61293	14.0293	17.7195	1.25566	0.79639	181.2227	177.63715	68.13041	0.32997	 	3.30373E11	 	1.34165E-11	 	-4941.9151	30.44721	 
630.0	1.0	0.0	8.25401	7.21423	-9.6351	14.00659	17.66123	1.25287	0.79817	181.53534	177.79679	68.25515	0.32983	 	4.03128E11	 	1.09346E-11	 	-5093.87978	30.39294	 
625.0	1.0	0.0	8.25603	7.21247	-9.65722	13.98388	17.60296	1.25006	0.79996	181.84743	177.95567	68.37971	0.32969	 	4.92997E11	 	8.89184E-12	 	-5245.57455	30.33895	 
620.0	1.0	0.0	8.25805	7.21071	-9.67928	13.96115	17.54467	1.24723	0.80178	182.15897	178.11377	68.50409	0.32955	 	6.04259E11	 	7.2142E-12	 	-5397.00168	30.28543	 
615.0	1.0	0.0	8.26006	7.20895	-9.70128	13.93841	17.48636	1.24438	0.80361	182.46997	178.27112	68.62829	0.32941	 	7.42331E11	 	5.8395E-12	 	-5548.16144	30.23195	 
610.0	1.0	0.0	8.26207	7.2072	-9.72323	13.91567	17.42804	1.24151	0.80547	182.78042	178.4277	68.75231	0.32927	 	9.1408E11	 	4.7156E-12	 	-5699.05475	30.17866	 
605.0	1.0	0.0	8.26407	7.20545	-9.74511	13.89291	17.36971	1.23863	0.80734	183.09032	178.58353	68.87614	0.32913	 	1.12824E12	 	3.79888E-12	 	-5849.68254	30.12556	 
600.0	1.0	0.0	8.26607	7.20371	-9.76694	13.87015	17.31136	1.23573	0.80924	183.39967	178.7386	68.9998	0.32899	 	1.39593E12	 	3.0529E-12	 	-6000.04574	30.07264	 
595.0	1.0	0.0	8.26807	7.20197	-9.7887	13.84737	17.253	1.23281	0.81115	183.70848	178.89291	69.12327	0.32885	 	1.73137E12	 	2.44732E-12	 	-6150.14528	30.01991	 
590.0	1.0	0.0	8.27006	7.20024	-9.81041	13.82459	17.19463	1.22987	0.81309	184.01674	179.04647	69.24656	0.32871	 	2.15279E12	 	1.95691E-12	 	-6299.98209	29.96736	 
585.0	1.0	0.0	8.27204	7.19851	-9.83206	13.8018	17.13623	1.22691	0.81505	184.32445	179.19927	69.36967	0.32857	 	2.68358E12	 	1.56076E-12	 	-6449.55706	29.915	 
580.0	1.0	0.0	8.27402	7.19679	-9.85365	13.779	17.07783	1.22394	0.81704	184.63162	179.35133	69.4926	0.32843	 	3.3539E12	 	1.24154E-12	 	-6598.87114	29.86281	 
575.0	1.0	0.0	8.276	7.19507	-9.87518	13.75619	17.0194	1.22094	0.81904	184.93823	179.50264	69.61534	0.32829	 	4.2027E12	 	9.84989E-13	 	-6747.92523	29.81082	 
570.0	1.0	0.0	8.27797	7.19335	-9.89665	13.73337	16.96097	1.21792	0.82107	185.2443	179.6532	69.73791	0.32815	 	5.28041E12	 	7.79335E-13	 	-6896.72024	29.759	 
565.0	1.0	0.0	8.27994	7.19164	-9.91806	13.71054	16.90251	1.21489	0.82312	185.54983	179.80302	69.86029	0.32801	 	6.65258E12	 	6.1492E-13	 	-7045.2571	29.70737	 
560.0	1.0	0.0	8.2819	7.18994	-9.93942	13.6877	16.84404	1.21183	0.8252	185.8548	179.9521	69.98249	0.32787	 	8.40458E12	 	4.83831E-13	 	-7193.53669	29.65592	 
555.0	1.0	0.0	8.28386	7.18824	-9.96071	13.66485	16.78555	1.20876	0.8273	186.15923	180.10044	70.10451	0.32773	 	1.0648E13	 	3.79601E-13	 	-7341.55995	29.60465	 
550.0	1.0	0.0	8.28582	7.18654	-9.98195	13.64199	16.72705	1.20566	0.82942	186.46311	180.24804	70.22635	0.32759	 	1.35291E13	 	2.96959E-13	 	-7489.32775	29.55356	 
545.0	1.0	0.0	8.28777	7.18485	-10.00312	13.61912	16.66852	1.20255	0.83157	186.76645	180.3949	70.348	0.32745	 	1.72401E13	 	2.31621E-13	 	-7636.84101	29.50265	 
540.0	1.0	0.0	8.28971	7.18317	-10.02424	13.59625	16.60998	1.19941	0.83374	187.06924	180.54103	70.46948	0.32731	 	2.20347E13	 	1.80115E-13	 	-7784.10062	29.45192	 
535.0	1.0	0.0	8.29165	7.18149	-10.0453	13.57336	16.55143	1.19625	0.83594	187.37148	180.68643	70.59077	0.32717	 	2.82483E13	 	1.39632E-13	 	-7931.10747	29.40137	 
530.0	1.0	0.0	8.29359	7.17981	-10.0663	13.55046	16.49285	1.19307	0.83817	187.67317	180.83109	70.71188	0.32703	 	3.63263E13	 	1.0791E-13	 	-8077.86247	29.351	 
525.0	1.0	0.0	8.29552	7.17814	-10.08724	13.52756	16.43426	1.18987	0.84043	187.97432	180.97503	70.83281	0.32689	 	4.68617E13	 	8.31292E-14	 	-8224.3665	29.30081	 
520.0	1.0	0.0	8.29745	7.17647	-10.10812	13.50465	16.37564	1.18665	0.84271	188.27492	181.11824	70.95355	0.32675	 	6.06469E13	 	6.38312E-14	 	-8370.62043	29.25079	 
515.0	1.0	0.0	8.29937	7.17481	-10.12894	13.48172	16.31701	1.18341	0.84502	188.57497	181.26073	71.07411	0.32661	 	7.87447E13	 	4.88511E-14	 	-8516.62517	29.20095	 
510.0	1.0	0.0	8.30129	7.17315	-10.1497	13.45879	16.25836	1.18014	0.84736	188.87448	181.40249	71.19449	0.32647	 	1.02584E14	 	3.72606E-14	 	-8662.38158	29.15128	 
505.0	1.0	0.0	8.3032	7.1715	-10.1704	13.43585	16.19969	1.17685	0.84972	189.17343	181.54353	71.31469	0.32633	 	1.3409699999999998E14	 	2.83225E-14	 	-8807.89054	29.10179	 
500.0	1.0	0.0	8.30511	7.16985	-10.19105	13.4129	16.14099	1.17354	0.85212	189.47185	181.68385	71.4347	0.32619	 	1.75897E14	 	2.14532E-14	 	-8953.15292	29.05248	 
495.0	1.0	0.0	8.30701	7.16821	-10.21163	13.38993	16.08228	1.17021	0.85455	189.76971	181.82345	71.55454	0.32605	 	2.31544E14	 	1.61919E-14	 	-9098.16959	29.00333	 
490.0	1.0	0.0	8.30891	7.16657	-10.23215	13.36696	16.02355	1.16686	0.857	190.06703	181.96234	71.67419	0.32591	 	3.05896E14	 	1.21765E-14	 	-9242.94142	28.95437	 
485.0	1.0	0.0	8.3108	7.16494	-10.25262	13.34398	15.96479	1.16348	0.85949	190.3638	182.10051	71.79365	0.32577	 	4.0561E14	 	9.12292E-15	 	-9387.46926	28.90557	 
480.0	1.0	0.0	8.31269	7.16331	-10.27302	13.321	15.90601	1.16008	0.86201	190.66002	182.23797	71.91294	0.32563	 	5.3984599999999994E14	 	6.80924E-15	 	-9531.75398	28.85694	 
475.0	1.0	0.0	8.31458	7.16168	-10.29337	13.298	15.84721	1.15665	0.86457	190.9557	182.37472	72.03204	0.32549	 	7.21259E14	 	5.06273E-15	 	-9675.79642	28.80849	 
470.0	1.0	0.0	8.31646	7.16006	-10.31365	13.27499	15.78839	1.1532	0.86715	191.25083	182.51076	72.15096	0.32535	 	9.67398E14	 	3.74937E-15	 	-9819.59743	28.7602	 
465.0	1.0	0.0	8.31834	7.15845	-10.33388	13.25197	15.72954	1.14973	0.86977	191.54541	182.6461	72.26969	0.32521	 	1.30271E15	 	2.76557E-15	 	-9963.15786	28.71209	 
460.0	1.0	0.0	8.32021	7.15684	-10.35404	13.22895	15.67067	1.14623	0.87243	191.83945	182.78073	72.38824	0.32507	 	1.76137E15	 	2.03155E-15	 	-10106.47855	28.66414	 
455.0	1.0	0.0	8.32207	7.15523	-10.37415	13.20591	15.61178	1.14271	0.87512	192.13294	182.91465	72.50661	0.32493	 	2.39142E15	 	1.48611E-15	 	-10249.56031	28.61635	 
450.0	1.0	0.0	8.32394	7.15363	-10.39419	13.18287	15.55286	1.13916	0.87784	192.42588	183.04787	72.6248	0.32479	 	3.26058E15	 	1.08248E-15	 	-10392.40401	28.56874	 
445.0	1.0	0.0	8.32579	7.15204	-10.41418	13.15981	15.49392	1.13559	0.8806	192.71827	183.1804	72.7428	0.32466	 	4.46489E15	 	7.85039E-16	 	-10535.01045	28.52129	 
440.0	1.0	0.0	8.32764	7.15045	-10.4341	13.13675	15.43495	1.13199	0.8834	193.01012	183.31222	72.86062	0.32452	 	6.14101E15	 	5.66797E-16	 	-10677.38044	28.474	 
435.0	1.0	0.0	8.32949	7.14886	-10.45397	13.11367	15.37596	1.12836	0.88624	193.30142	183.44335	72.97826	0.32438	 	8.48445E15	 	4.07369E-16	 	-10819.51482	28.42687	 
430.0	1.0	0.0	8.33134	7.14728	-10.47378	13.09059	15.31694	1.12471	0.88912	193.59218	183.57379	73.09571	0.32424	 	1.17762E16	 	2.91427E-16	 	-10961.41437	28.37991	 
425.0	1.0	0.0	8.33317	7.1457	-10.49352	13.0675	15.25789	1.12104	0.89203	193.88238	183.70353	73.21298	0.3241	 	1.64219E16	 	2.07497E-16	 	-11103.07981	28.33309	 
420.0	1.0	0.0	8.33501	7.14413	-10.51321	13.0444	15.19882	1.11734	0.89499	194.17204	183.83258	73.33006	0.32396	 	2.30106E16	 	1.47023E-16	 	-11244.51208	28.28645	 
415.0	1.0	0.0	8.33683	7.14256	-10.53283	13.02129	15.13972	1.11361	0.89798	194.46116	183.96094	73.44697	0.32382	 	3.24011E16	 	1.0366E-16	 	-11385.71154	28.23989	 
410.0	1.0	0.0	8.33866	7.141	-10.5524	12.99817	15.08058	1.10985	0.90102	194.74973	184.08861	73.56368	0.32368	 	4.58531E16	 	7.27167E-17	 	-11526.67831	28.19335	 
405.0	1.0	0.0	8.34048	7.13944	-10.57191	12.97504	15.02142	1.10607	0.90411	195.03775	184.2156	73.68022	0.32354	 	6.52229E16	 	5.07472E-17	 	-11667.41252	28.14684	 
400.0	1.0	0.0	8.34229	7.13789	-10.59135	12.9519	14.96223	1.10225	0.90723	195.32522	184.3419	73.79657	0.3234	 	9.32622E16	 	3.52284E-17	 	-11807.91432	28.10036	 
395.0	1.0	0.0	8.3441	7.13634	-10.61074	12.92875	14.90301	1.09841	0.9104	195.61215	184.46752	73.91274	0.32326	 	1.34071E17	 	2.43235E-17	 	-11948.1838	28.0539	 
390.0	1.0	0.0	8.3459	7.1348	-10.63006	12.9056	14.84376	1.09455	0.91362	195.89852	184.59245	74.02872	0.32313	 	1.93795E17	 	1.67015E-17	 	-12088.22109	28.00746	 
385.0	1.0	0.0	8.3477	7.13326	-10.64933	12.88243	14.78448	1.09065	0.91689	196.18436	184.71671	74.14452	0.32299	 	2.81695E17	 	1.14033E-17	 	-12228.0263	27.96104	 
380.0	1.0	0.0	8.3495	7.13173	-10.66853	12.85925	14.72516	1.08672	0.9202	196.46964	184.84029	74.26013	0.32285	 	4.11817E17	 	7.74096E-18	 	-12367.59951	27.91464	 
375.0	1.0	0.0	8.35129	7.1302	-10.68767	12.83607	14.66581	1.08277	0.92356	196.75438	184.9632	74.37556	0.32271	 	6.05584E17	 	5.22382E-18	 	-12506.94082	27.86826	 
370.0	1.0	0.0	8.35307	7.12868	-10.70676	12.81287	14.60643	1.07878	0.92697	197.03857	185.08543	74.49081	0.32257	 	8.95875E17	 	3.5039E-18	 	-12646.0503	27.8219	 
365.0	1.0	0.0	8.35485	7.12716	-10.72578	12.78967	14.54701	1.07477	0.93043	197.32222	185.20698	74.60587	0.32243	 	1.33348E18	 	2.33574E-18	 	-12784.92804	27.77555	 
360.0	1.0	0.0	8.35663	7.12565	-10.74474	12.76645	14.48756	1.07072	0.93395	197.60532	185.32787	74.72075	0.32229	 	1.99734E18	 	1.54718E-18	 	-12923.57408	27.72921	 
355.0	1.0	0.0	8.3584	7.12414	-10.76364	12.74323	14.42807	1.06665	0.93752	197.88787	185.44808	74.83544	0.32215	 	3.01101E18	 	1.01821E-18	 	-13061.98847	27.68288	 
350.0	1.0	0.0	8.36016	7.12263	-10.78248	12.72	14.36855	1.06254	0.94114	198.16988	185.56763	74.94995	0.32201	 	4.56913E18	 	6.6565E-19	 	-13200.17127	27.63656	 
345.0	1.0	0.0	8.36192	7.12113	-10.80126	12.69676	14.30899	1.0584	0.94482	198.45133	185.68651	75.06428	0.32188	 	6.98046E18	 	4.32212E-19	 	-13338.1225	27.59025	 
340.0	1.0	0.0	8.36368	7.11964	-10.81998	12.67351	14.24939	1.05423	0.94856	198.73225	185.80473	75.17842	0.32174	 	1.07383E19	 	2.78687E-19	 	-13475.8422	27.54394	 
335.0	1.0	0.0	8.36543	7.11815	-10.83864	12.65025	14.18975	1.05003	0.95235	199.01261	185.92228	75.29237	0.3216	 	1.66366E19	 	1.78416E-19	 	-13613.33034	27.49763	 
330.0	1.0	0.0	8.36717	7.11667	-10.85724	12.62698	14.13006	1.0458	0.95621	199.29243	186.03918	75.40614	0.32146	 	2.59624E19	 	1.13388E-19	 	-13750.58694	27.45132	 
325.0	1.0	0.0	8.36891	7.11519	-10.87578	12.6037	14.07034	1.04153	0.96013	199.5717	186.15541	75.51973	0.32132	 	4.08185E19	 	7.15221E-20	 	-13887.61199	27.40501	 
320.0	1.0	0.0	8.37065	7.11371	-10.89426	12.58041	14.01058	1.03723	0.96411	199.85042	186.27098	75.63313	0.32118	 	6.46668E19	 	4.47682E-20	 	-14024.40545	27.35869	 
315.0	1.0	0.0	8.37238	7.11224	-10.91267	12.55711	13.95077	1.03289	0.96815	200.1286	186.3859	75.74635	0.32104	 	1.03253E20	 	2.78017E-20	 	-14160.96729	27.31237	 
310.0	1.0	0.0	8.37411	7.11077	-10.93103	12.53381	13.89092	1.02853	0.97227	200.40623	186.50016	75.85938	0.32091	 	1.66192E20	 	1.7126E-20	 	-14297.29744	27.26603	 
305.0	1.0	0.0	8.37583	7.10931	-10.94932	12.51049	13.83103	1.02412	0.97645	200.68331	186.61377	75.97222	0.32077	 	2.6970799999999997E20	 	1.04625E-20	 	-14433.39584	27.21968	 
300.0	1.0	0.0	8.37754	7.10786	-10.96755	12.48716	13.77108	1.01969	0.98069	200.95985	186.72673	76.08488	0.32063	 	4.4141299999999997E20	 	6.33739E-21	 	-14569.26241	27.17331	 
295.0	1.0	0.0	8.37925	7.10641	-10.98573	12.46383	13.71109	1.01521	0.98502	201.23584	186.83904	76.19736	0.32049	 	7.287219999999999E20	 	3.80529E-21	 	-14704.89704	27.12693	 
290.0	1.0	0.0	8.38096	7.10496	-11.00384	12.44048	13.65106	1.0107	0.98941	201.51129	186.95069	76.30965	0.32035	 	1.21379E21	 	2.26447E-21	 	-14840.29962	27.08052	 
285.0	1.0	0.0	8.38266	7.10352	-11.02189	12.41713	13.59097	1.00616	0.99388	201.78618	187.0617	76.42176	0.32021	 	2.04032E21	 	1.33518E-21	 	-14975.47	27.03408	 
280.0	1.0	0.0	8.38435	7.10208	-11.03987	12.39377	13.53083	1.00158	0.99843	202.06053	187.17207	76.53368	0.32008	 	3.46201E21	 	7.79831E-22	 	-15110.40804	26.98761	 
275.0	1.0	0.0	8.38604	7.10065	-11.0578	12.37039	13.47064	0.99696	1.00305	202.33433	187.28179	76.64541	0.31994	 	5.93129E21	 	4.51063E-22	 	-15245.11357	26.94111	 
270.0	1.0	0.0	8.38773	7.09923	-11.07567	12.34701	13.4104	0.9923	1.00776	202.60759	187.39087	76.75696	0.3198	 	1.0263E22	 	2.58305E-22	 	-15379.5864	26.89457	 
265.0	1.0	0.0	8.38941	7.09781	-11.09347	12.32362	13.3501	0.98761	1.01255	202.8803	187.49931	76.86832	0.31966	 	1.7939999999999999E22	 	1.46409E-22	 	-15513.82632	26.84798	 
260.0	1.0	0.0	8.39108	7.09639	-11.11122	12.30022	13.28974	0.98288	1.01742	203.15246	187.6071	76.9795	0.31952	 	3.1689999999999997E22	 	8.21133E-23	 	-15647.83307	26.80135	 
255.0	1.0	0.0	8.39275	7.09498	-11.1289	12.27681	13.22933	0.97811	1.02238	203.42408	187.71426	77.09049	0.31938	 	5.658489999999999E22	 	4.55558E-23	 	-15781.60644	26.75467	 
250.0	1.0	0.0	8.39442	7.09357	-11.14652	12.25339	13.16886	0.97329	1.02744	203.69515	187.82078	77.2013	0.31925	 	1.02162E23	 	2.49932E-23	 	-15915.14611	26.70793	 
245.0	1.0	0.0	8.39607	7.09217	-11.16408	12.22996	13.10832	0.96844	1.03258	203.96567	187.92667	77.31192	0.31911	 	1.8656599999999998E23	 	1.35553E-23	 	-16048.4518	26.66114	 
240.0	1.0	0.0	8.39773	7.09077	-11.18158	12.20652	13.04773	0.96355	1.03783	204.23564	188.03193	77.42235	0.31897	 	3.44725E23	 	7.26539E-24	 	-16181.52317	26.61427	 
235.0	1.0	0.0	8.39938	7.08938	-11.19902	12.18308	12.98707	0.95862	1.04317	204.50507	188.13655	77.5326	0.31883	 	6.447019999999999E23	 	3.84698E-24	 	-16314.35987	26.56734	 
230.0	1.0	0.0	8.40102	7.08799	-11.21639	12.15962	12.92634	0.95365	1.04861	204.77395	188.24054	77.64267	0.31869	 	1.22081E24	 	2.01157E-24	 	-16446.96151	26.52033	 
225.0	1.0	0.0	8.40266	7.08661	-11.23371	12.13615	12.86555	0.94863	1.05415	205.04229	188.3439	77.75254	0.31856	 	2.3415600000000001E24	 	1.03834E-24	 	-16579.32767	26.47323	 
220.0	1.0	0.0	8.40429	7.08523	-11.25096	12.11268	12.80468	0.94357	1.0598	205.31008	188.44664	77.86223	0.31842	 	4.55091E24	 	5.28893E-25	 	-16711.45791	26.42605	 
215.0	1.0	0.0	8.40592	7.08386	-11.26815	12.08919	12.74375	0.93847	1.06556	205.57732	188.54875	77.97174	0.31828	 	8.966070000000001E24	 	2.65728E-25	 	-16843.35174	26.37877	 
210.0	1.0	0.0	8.40754	7.08249	-11.28528	12.0657	12.68274	0.93333	1.07143	205.84401	188.65023	78.08105	0.31814	 	1.7914400000000002E25	 	1.31634E-25	 	-16975.00867	26.33138	 
205.0	1.0	0.0	8.40916	7.08113	-11.30235	12.0422	12.62165	0.92814	1.07742	206.11016	188.75109	78.19018	0.31801	 	3.6315200000000003E25	 	6.42632E-26	 	-17106.42812	26.28389	 
200.0	1.0	0.0	8.41078	7.07977	-11.31936	12.01868	12.56049	0.92291	1.08353	206.37576	188.85133	78.29913	0.31787	 	7.4724200000000005E25	 	3.09047E-26	 	-17237.6095	26.23628	 
195.0	1.0	0.0	8.41238	7.07842	-11.3363	11.99516	12.49924	0.91763	1.08976	206.64082	188.95095	78.40789	0.31773	 	1.5614500000000003E26	 	1.46334E-26	 	-17368.5522	26.18854	 
190.0	1.0	0.0	8.41398	7.07707	-11.35318	11.97163	12.43792	0.91231	1.09612	206.90532	189.04995	78.51646	0.31759	 	3.3151600000000005E26	 	6.81874E-27	 	-17499.25553	26.14067	 
185.0	1.0	0.0	8.41558	7.07573	-11.37	11.94809	12.37651	0.90693	1.10262	207.16928	189.14833	78.62485	0.31745	 	7.15514E26	 	3.12519E-27	 	-17629.71878	26.09265	 
180.0	1.0	0.0	8.41717	7.07439	-11.38676	11.92454	12.31501	0.90152	1.10924	207.4327	189.2461	78.73304	0.31732	 	1.57074E27	 	1.40807E-27	 	-17759.94118	26.04448	 
175.0	1.0	0.0	8.41876	7.07306	-11.40346	11.90098	12.25342	0.89605	1.11601	207.69556	189.34326	78.84106	0.31718	 	3.50923E27	 	6.23301E-28	 	-17889.92192	25.99615	 
170.0	1.0	0.0	8.42034	7.07173	-11.42009	11.87741	12.19173	0.89054	1.12292	207.95788	189.4398	78.94888	0.31704	 	7.983569999999999E27	 	2.70919E-28	 	-18019.66011	25.94764	 
165.0	1.0	0.0	8.42192	7.07041	-11.43667	11.85383	12.12995	0.88497	1.12998	208.21965	189.53572	79.05652	0.3169	 	1.85067E28	 	1.15553E-28	 	-18149.15485	25.89895	 
160.0	1.0	0.0	8.42349	7.06909	-11.45318	11.83024	12.06807	0.87936	1.13719	208.48088	189.63104	79.16397	0.31677	 	4.37413E28	 	4.83318E-29	 	-18278.40514	25.85006	 
155.0	1.0	0.0	8.42505	7.06778	-11.46963	11.80665	12.00608	0.8737	1.14456	208.74156	189.72575	79.27123	0.31663	 	1.05482E29	 	1.98109E-29	 	-18407.40994	25.80096	 
150.0	1.0	0.0	8.42661	7.06647	-11.48601	11.78304	11.94399	0.86798	1.1521	209.00169	189.81985	79.37831	0.31649	 	2.59717E29	 	7.95208E-30	 	-18536.16812	25.75164	 
145.0	1.0	0.0	8.42817	7.06516	-11.50234	11.75942	11.88179	0.86222	1.1598	209.26128	189.91335	79.4852	0.31635	 	6.534010000000001E29	 	3.12348E-30	 	-18664.67852	25.70208	 
140.0	1.0	0.0	8.42971	7.06387	-11.5186	11.7358	11.81948	0.8564	1.16768	209.52032	190.00624	79.5919	0.31622	 	1.68096E30	 	1.1996E-30	 	-18792.93986	25.65227	 
135.0	1.0	0.0	8.43126	7.06257	-11.5348	11.71216	11.75705	0.85053	1.17574	209.77881	190.09853	79.69842	0.31608	 	4.4257899999999997E30	 	4.50107E-31	 	-18920.95081	25.60219	 
130.0	1.0	0.0	8.4328	7.06128	-11.55094	11.68852	11.69449	0.8446	1.18399	210.03675	190.19022	79.80474	0.31594	 	1.19358E31	 	1.64855E-31	 	-19048.70994	25.55183	 
125.0	1.0	0.0	8.43433	7.06	-11.56702	11.66487	11.63181	0.83862	1.19243	210.29415	190.2813	79.91088	0.3158	 	3.30016E31	 	5.88842E-32	 	-19176.21575	25.50116	 
120.0	1.0	0.0	8.43586	7.05872	-11.58303	11.6412	11.569	0.83258	1.20108	210.551	190.37179	80.01684	0.31567	 	9.3638E31	 	2.04924E-32	 	-19303.46662	25.45017	 
115.0	1.0	0.0	8.43738	7.05745	-11.59898	11.61753	11.50606	0.82649	1.20993	210.8073	190.46168	80.1226	0.31553	 	2.72922E32	 	6.94142E-33	 	-19430.46085	25.39885	 
110.0	1.0	0.0	8.4389	7.05618	-11.61487	11.59385	11.44297	0.82034	1.219	211.06306	190.55098	80.22818	0.31539	 	8.17993E32	 	2.28616E-33	 	-19557.19663	25.34716	 
105.0	1.0	0.0	8.44041	7.05492	-11.6307	11.57016	11.37974	0.81414	1.22829	211.31827	190.63968	80.33357	0.31526	 	2.52387E33	 	7.3128E-34	 	-19683.67201	25.29508	 
100.0	1.0	0.0	8.44191	7.05366	-11.64646	11.54646	11.31635	0.80787	1.23782	211.57293	190.72778	80.43877	0.31512	 	8.02598E33	 	2.2692E-34	 	-19809.88495	25.24259	 
95.0	1.0	0.0	8.44341	7.0524	-11.66216	11.52275	11.25281	0.80155	1.24759	211.82705	190.81529	80.54379	0.31498	 	2.6337600000000003E34	 	6.82237E-35	 	-19935.83327	25.18966	 
90.0	1.0	0.0	8.44491	7.05116	-11.6778	11.49903	11.18911	0.79516	1.2576	212.08062	190.90222	80.64861	0.31484	 	8.9303E34	 	1.98475E-35	 	-20061.51463	25.13627	 
85.0	1.0	0.0	8.4464	7.04991	-11.69338	11.4753	11.12523	0.78872	1.26788	212.33364	190.98855	80.75325	0.31471	 	3.1330099999999998E35	 	5.57943E-36	 	-20186.92656	25.08239	 
80.0	1.0	0.0	8.44788	7.04867	-11.70889	11.45157	11.06118	0.78221	1.27843	212.58612	191.0743	80.8577	0.31457	 	1.1389199999999999E36	 	1.5134E-36	 	-20312.06643	25.02797	 
75.0	1.0	0.0	8.44936	7.04744	-11.72434	11.42782	10.99695	0.77564	1.28926	212.83805	191.15946	80.96196	0.31443	 	4.2965999999999996E36	 	3.95484E-37	 	-20436.93143	24.973	 
70.0	1.0	0.0	8.45084	7.04621	-11.73973	11.40406	10.93252	0.76901	1.30038	213.08943	191.24403	81.06604	0.3143	 	1.6848499999999999E37	 	9.94056E-38	 	-20561.51858	24.91743	 
65.0	1.0	0.0	8.4523	7.04499	-11.75506	11.3803	10.86789	0.76231	1.31181	213.34026	191.32802	81.16992	0.31416	 	6.87931E37	 	2.39912E-38	 	-20685.82468	24.86122	 
60.0	1.0	0.0	8.45377	7.04377	-11.77032	11.35652	10.80306	0.75554	1.32355	213.59055	191.41143	81.27362	0.31402	 	2.93001E38	 	5.54954E-39	 	-20809.84633	24.80433	 
55.0	1.0	0.0	8.45522	7.04256	-11.78552	11.33274	10.738	0.74871	1.33563	213.84029	191.49425	81.37713	0.31388	 	1.3042800000000001E39	 	1.22797E-39	 	-20933.57991	24.74672	 
50.0	1.0	0.0	8.45667	7.04135	-11.80066	11.30895	10.67272	0.74181	1.34805	214.08949	191.5765	81.48045	0.31375	 	6.080550000000001E39	 	2.59387E-40	 	-21057.02153	24.68832	 
45.0	1.0	0.0	8.45812	7.04014	-11.81573	11.28514	10.6072	0.73485	1.36083	214.33814	191.65816	81.58358	0.31361	 	2.97528E40	 	5.21904E-41	 	-21180.16705	24.6291	 
40.0	1.0	0.0	8.45956	7.03895	-11.83075	11.26133	10.54143	0.72781	1.37398	214.58624	191.73925	81.68652	0.31347	 	1.5315600000000002E41	 	9.97942E-42	 	-21303.01205	24.569	 
35.0	1.0	0.0	8.46099	7.03775	-11.8457	11.23751	10.4754	0.72071	1.38753	214.83379	191.81977	81.78928	0.31334	 	8.31444E41	 	1.80891E-42	 	-21425.55178	24.50795	 
30.0	1.0	0.0	8.46242	7.03656	-11.86058	11.21368	10.40909	0.71353	1.40149	215.0808	191.89971	81.89184	0.3132	 	4.77273E42	 	3.10011E-43	 	-21547.78117	24.44588	 
25.0	1.0	0.0	8.46385	7.03538	-11.8754	 	10.3425	0.70628	1.41587	215.32726	191.97907	81.99422	0.31306	 	2.90507E43	 	5.00917E-44	 	-21669.69478	 	 
