T (C)	Fraction solid (wt)-TOTAL	Fraction liquid (wt)-LIQUID	Density (g/(cm)^3)-TOTAL	Molar volume (cm^3)-TOTAL	Volume change (%)-  	Average expansion coeff. (10e-6 1/K)-  	Thermal conductivity (W/(m*K))-TOTAL	Electrical resistivity (10e-6 Ohm*m)-TOTAL	Electrical conductivity (10e6 1/(Ohm*m))-TOTAL	Young's modulus (GPa)-TOTAL	Bulk modulus (GPa)-TOTAL	Shear modulus(GPa)-TOTAL	Poisson's ratio-TOTAL	Liquid viscosity (mPa s)-  	Total viscosity (mPa s)-  	Liquid diffusivity (10e-9 (m^2)/s)-  	Total diffusivity (10e-9 (m^2)/s)-  	Surface Tension (mN/m)-  	Enthalpy (J/mole)-TOTAL	Specific heat (J/(mole K))-TOTAL	Latent heat (J/mole)-TOTAL
1400.0	0.0	1.0	7.68886	8.07149	0.0	35.51294	33.01571	1.2416	0.80541	0.0	123.70826	0.0	0.5	7.48685	7.48685	1.09074	1.09074	1890.14131	37989.697	 	0.0
1395.0	0.0	1.0	7.69332	8.06681	-0.0579899	35.48079	32.92676	1.24123	0.80565	0.0	123.8397	0.0	0.5	7.56952	7.56952	1.07561	1.07561	1893.6134	37793.351	39.2692	0.0
1390.0	0.0	1.0	7.69777	8.06214	-0.11582	35.44885	32.83781	1.24086	0.80589	0.0	123.97114	0.0	0.5	7.6536	7.6536	1.0606	1.0606	1897.09624	37597.426	39.185	0.0
1385.0	0.0	1.0	7.70222	8.05749	-0.17348	35.41714	32.74886	1.24049	0.80613	0.0	124.10258	0.0	0.5	7.73914	7.73914	1.04573	1.04573	1900.58993	37401.918	39.1016	0.0
1380.0	0.0	1.0	7.70666	8.05285	-0.23099	35.38565	32.65991	1.24012	0.80637	0.0	124.23402	0.0	0.5	7.82616	7.82616	1.03098	1.03098	1904.09456	37206.826	39.0184	0.0
1375.0	0.0	1.0	7.71109	8.04822	-0.28833	35.35438	32.57096	1.23974	0.80662	0.0	124.36545	0.0	0.5	7.91469	7.91469	1.01636	1.01636	1907.61025	37012.145	38.9362	0.0
1370.0	0.0	1.0	7.71551	8.0436	-0.34551	35.32335	32.48201	1.23937	0.80686	0.0	124.49689	0.0	0.5	8.00477	8.00477	1.00188	1.00188	1911.13708	36817.873	38.8544	0.0
1365.0	0.0	1.0	7.71993	8.039	-0.40252	35.29254	32.39306	1.23899	0.80711	0.0	124.62833	0.0	0.5	8.09644	8.09644	0.98752	0.98752	1914.67518	36624.007	38.7732	0.0
1360.0	0.0	1.0	7.72434	8.03441	-0.45938	35.26197	32.30411	1.23861	0.80736	0.0	124.75977	0.0	0.5	8.18973	8.18973	0.97329	0.97329	1918.22464	36430.544	38.6926	0.0
1355.0	0.0	1.0	7.72874	8.02983	-0.51607	35.23163	32.21516	1.23823	0.80761	0.0	124.89121	0.0	0.5	8.28467	8.28467	0.95919	0.95919	1921.78558	36237.481	38.6126	0.0
1350.0	0.0	1.0	7.73314	8.02527	-0.5726	35.20153	32.12621	1.23784	0.80786	0.0	125.02264	0.0	0.5	8.38131	8.38131	0.94522	0.94522	1925.35811	36044.815	38.5332	0.0
1345.0	0.0	1.0	7.73752	8.02072	-0.62897	35.17168	32.03726	1.23746	0.80811	0.0	125.15408	0.0	0.5	8.47969	8.47969	0.93138	0.93138	1928.94233	35852.543	38.4544	0.0
1342.87	0.0	1.0	7.73939	8.01879	-0.65296	35.15902	31.99932	1.23729	0.80822	0.0	125.21015	0.0	0.5	8.52219	8.52219	0.92551	0.92551	1930.47488	35770.646	38.39684	0.0
1340.0	0.0593703	0.94063	7.76321	7.99416	-0.95803	34.34908	32.14064	1.22966	0.81323	0.00127786	127.51203	4.27962E-4	0.49296	8.58645	9.46303	0.91695	0.83201	1931.19724	34779.088	345.84125	881.569
1335.0	0.15349	0.84651	7.80149	7.95493	-1.44407	33.06229	32.36218	1.21746	0.82138	0.0582655	131.16364	0.0196619	0.48168	8.70107	18.61129	0.90207	0.42173	1932.25504	33199.163	315.985	2270.005
1330.0	0.23529	0.76471	7.83524	7.92069	-1.86828	31.94669	32.54962	1.20669	0.82872	0.32764	134.35423	0.11131	0.47176	8.81833	58.06338	0.88731	0.13476	1933.08842	31810.991	277.6344	3467.072
1325.0	0.30679	0.69321	7.86529	7.89039	-2.24373	30.96583	32.7077	1.19711	0.83535	0.96219	137.15426	0.32885	0.46298	8.93859	153.02547	0.87264	0.050973	1933.70226	30582.872	245.6238	4504.467
1320.0	0.36962	0.63038	7.89207	7.86363	-2.57529	30.10694	32.84096	1.18852	0.84138	2.05657	139.62818	0.70664	0.45518	9.06158	323.85235	0.8581	0.0240102	1934.08722	29489.19	218.7364	5407.809
1315.0	0.42511	0.57489	7.9161	7.8397	-2.87166	29.34562	32.95232	1.18079	0.84689	3.64462	141.82316	1.25831	0.44821	9.18751	584.7632	0.84369	0.0132556	1934.24755	28509.097	196.0186	6197.938
1310.0	0.47433	0.52567	7.93778	7.81823	-3.13773	28.6685	33.04455	1.17378	0.85195	5.71565	143.78205	1.98189	0.44197	9.31644	945.15977	0.82939	0.0081753	1934.18237	27625.513	176.7168	6891.933
1305.0	0.5182	0.4818	7.9574	7.79892	-3.37699	28.06616	33.11991	1.16742	0.85659	8.22673	145.53815	2.86375	0.43636	9.44841	1410.47824	0.81522	0.00546095	1933.88836	26824.352	160.2322	7503.878
1301.09	0.54905	0.45095	7.97144	7.78509	-3.54829	27.63919	33.16738	1.16285	0.85995	10.44604	146.78216	3.64642	0.43237	9.55383	1847.58422	0.80423	0.00415865	1933.52014	26250.112	 	7930.309
1300.0	0.55913	0.44087	7.97699	7.77965	-3.61567	27.46079	33.10454	1.16426	0.85892	11.22071	147.09655	3.9209	0.43088	9.59471	2012.4751	0.80025	0.00381528	1933.888	26038.7	157.1304	8100.684
1295.0	0.60222	0.39778	8.00081	7.75632	-3.90469	26.6992	32.83234	1.17018	0.85457	15.12758	148.44649	5.30981	0.42449	9.78542	2871.23404	0.78216	0.00266567	1935.48974	25126.182	182.5036	8824.727
1290.0	0.63922	0.36078	8.02154	7.73606	-4.15568	26.04647	32.5913	1.17507	0.85101	19.37487	149.63146	6.82715	0.41896	9.98054	3865.3329	0.76442	0.00197379	1937.07173	24322.636	160.7092	9440.16
1285.0	0.67121	0.32879	8.03969	7.71839	-4.3747	25.48555	32.37582	1.17911	0.8481	23.83975	150.68479	8.42913	0.41413	10.17996	4987.14319	0.74705	0.00152491	1938.63063	23607.285	143.0702	9967.761
1280.0	0.69913	0.30087	8.05576	7.70273	-4.56864	24.9965	32.18125	1.18243	0.84571	28.41821	151.62954	10.07826	0.40988	10.38403	6231.87704	0.73002	0.00121641	1940.18123	22964.104	128.6362	10423.553
1275.0	0.72363	0.27637	8.06897	7.68779	-4.75379	24.53044	31.87542	1.18994	0.84038	32.90505	152.21091	11.70328	0.4058	10.59283	7597.21751	0.71333	9.94593E-4	1944.06567	22273.68444	138.08391	10820.055
1270.0	0.74527	0.25473	8.0874	7.67395	-4.92521	24.10277	31.47191	1.2013	0.83243	37.4639	152.72289	13.36346	0.40173	10.80645	9265.15594	0.69697	8.12909E-4	1947.938	21586.82652	137.37158	11167.164
1265.0	0.76449	0.23551	8.1043	7.66115	-5.08386	23.711	31.09207	1.21204	0.82506	41.97136	153.16874	15.01098	0.39802	11.02528	11123.25946	0.68092	6.74922E-4	1951.80917	20947.3178	127.90174	11472.789
1260.0	0.7825	0.2175	8.1201	7.649	-5.23439	23.34117	30.73627	1.22208	0.81828	46.61743	153.59622	16.71446	0.39452	11.24708	13239.35626	0.66532	5.65203E-4	1955.61999	20334.19319	122.62492	11757.627
1255.0	0.80202	0.19798	8.13577	7.63647	-5.38953	22.95405	30.40519	1.23136	0.81211	52.11485	154.10822	18.73483	0.39085	11.46487	15831.31007	0.65055	4.71125E-4	1959.24155	19703.01706	126.23523	12065.858
1250.0	0.81906	0.18094	8.14998	7.62495	-5.53236	22.60214	30.09278	1.24007	0.80641	57.36306	154.54736	20.67043	0.38756	11.68667	18668.58736	0.63612	3.98215E-4	1962.86006	19119.35969	116.73147	12331.672
1245.0	0.83404	0.16596	8.16292	7.61426	-5.66477	22.27999	29.79551	1.24833	0.80107	62.35289	154.92754	22.5167	0.38459	11.9121	21771.96385	0.62203	3.40333E-4	1966.47141	18575.52183	108.76757	12562.543
1240.0	0.8473	0.1527	8.17476	7.60429	-5.78829	21.98316	29.51257	1.25615	0.79608	67.07428	155.25815	24.26892	0.3819	12.14172	25161.53373	0.60826	2.93516E-4	1970.07686	18065.39904	102.02456	12764.36
1235.0	0.8591	0.1409	8.18562	7.59492	-5.90438	21.70736	29.24271	1.26355	0.79142	71.54176	155.54845	25.93154	0.37944	12.37511	28867.23866	0.59482	2.54992E-4	1973.67556	17584.09588	96.26063	12941.818
1230.0	0.86966	0.13034	8.19562	7.5861	-6.01364	21.4509	28.98476	1.27057	0.78705	75.75538	155.80488	27.50378	0.37718	12.61261	32915.47055	0.58168	2.22889E-4	1977.26191	17127.64348	91.29048	13098.694
1225.0	0.87916	0.12084	8.20488	7.57771	-6.11752	21.20948	28.73773	1.27723	0.78294	79.73313	156.03298	28.99166	0.3751	12.85446	37341.29371	0.56884	1.95818E-4	1980.8465	16692.79382	86.96993	13238.057
1220.0	0.88774	0.11226	8.21346	7.56974	-6.21632	20.98224	28.50072	1.28355	0.77909	83.48564	156.23735	30.39853	0.37319	13.1006	42180.91188	0.55629	1.72772E-4	1984.42175	16276.85724	83.18732	13362.425
1215.0	0.89552	0.10448	8.22146	7.56211	-6.31084	20.76686	28.27309	1.28955	0.77546	87.03008	156.42225	31.73028	0.3714	13.35127	47477.53104	0.54401	1.52984E-4	1987.99087	15877.59447	79.85255	13473.876
1210.0	0.90261	0.0973865	8.22891	7.55481	-6.40123	20.56296	28.05401	1.29526	0.77205	90.37701	156.59035	32.9904	0.36975	13.60604	53274.64449	0.53203	1.35879E-4	1991.54662	15493.12392	76.89411	13574.139
1205.0	0.90909	0.0909106	8.2359	7.54779	-6.48831	20.36809	27.84297	1.30068	0.76883	93.54041	156.74444	34.18377	0.3682	13.86574	59622.94364	0.52031	1.21002E-4	1995.10021	15121.85166	74.25445	13664.662
1200.0	0.91503	0.0849712	8.24245	7.54101	-6.57224	20.18177	27.6393	1.30583	0.7658	96.53367	156.8867	35.31506	0.36675	14.12997	66578.73405	0.50885	1.07994E-4	1998.64493	14762.20604	71.92912	13746.667
1195.0	0.9205	0.0794997	8.24863	7.53446	-6.65338	20.003	27.44245	1.31073	0.76293	99.37023	157.01916	36.38902	0.36539	14.39921	74204.32925	0.49764	9.65668E-5	2002.18053	14412.93118	69.85497	13821.187
1190.0	0.92549	0.0745072	8.25458	7.52816	-6.73142	19.83283	27.24942	1.31552	0.76016	102.0275	157.14026	37.39707	0.36411	14.66313	82543.76889	0.48702	8.6515E-5	2005.7321	14071.11298	68.36364	13891.367
1185.0	0.92995	0.0700488	8.26081	7.52223	-6.80488	19.6763	27.04892	1.32074	0.75715	104.05876	157.24349	38.17505	0.36292	14.88179	91607.58835	0.47823	7.76886E-5	2009.38796	13725.4332	69.13596	13968.406
1180.0	0.93407	0.0659297	8.26673	7.51652	-6.87567	19.52725	26.85642	1.32565	0.75435	106.47087	157.34357	39.09227	0.36179	15.1078	101547.4615	0.46946	6.98438E-5	2013.02915	13389.1407	67.2585	14038.936
1175.0	0.9388	0.0611956	8.2725	7.51042	-6.95122	19.3611	26.68341	1.32965	0.75208	108.99028	157.48359	40.0526	0.36059	15.38645	112888.025	0.45937	6.26113E-5	2016.68647	13052.6615	67.29584	14112.426
1170.0	0.94366	0.0563373	8.27802	7.50424	-7.0278	19.19006	26.52364	1.33304	0.75016	111.48383	157.64015	41.00522	0.35939	15.70067	125593.3164	0.44862	5.60831E-5	2020.34811	12720.20025	66.49225	14184.566
1165.0	0.94804	0.0519648	8.28321	7.49834	-7.10087	19.02927	26.36832	1.33625	0.74836	113.78176	157.78473	41.88485	0.35827	16.02287	139485.0345	0.43808	5.03226E-5	2024.00261	12397.72755	64.49454	14249.287
1160.0	0.95199	0.0480125	8.28809	7.49272	-7.1706	18.8783	26.2128	1.3395	0.74654	115.90715	157.91978	42.69992	0.35723	16.35323	154687.7731	0.42773	4.52191E-5	2027.63708	12084.13524	62.71846	14307.605
1155.0	0.95558	0.0444245	8.29272	7.48731	-7.23761	18.73522	26.06284	1.34251	0.74487	117.88342	158.04699	43.45913	0.35626	16.69259	171341.3839	0.41758	4.06816E-5	2031.26503	11778.49076	61.1289	14360.362
1150.0	0.95885	0.0411541	8.29711	7.48211	-7.30196	18.59988	25.91637	1.34537	0.74329	119.72748	158.16802	44.16866	0.35534	17.04072	189599.3279	0.40761	3.66354E-5	2034.87185	11480.00565	59.69702	14408.267
1145.0	0.96184	0.0381632	8.3013	7.47709	-7.36415	18.47072	25.77321	1.34809	0.74179	121.45547	158.28383	44.83454	0.35449	17.39854	209629.1505	0.39783	3.30185E-5	2038.47429	11188.00083	58.40096	14451.914
1140.0	0.96458	0.0354176	8.3053	7.47224	-7.42424	18.34758	25.63324	1.35067	0.74037	123.08159	158.39564	45.46201	0.35368	17.76568	231620.3666	0.38823	2.97782E-5	2042.05898	10901.89712	57.22074	14491.81
1135.0	0.96711	0.0328898	8.30913	7.46754	-7.48252	18.22957	25.49637	1.35312	0.73903	124.6179	158.50435	46.05556	0.35291	18.14345	255779.7097	0.37881	2.68701E-5	2045.63422	10621.18963	56.1415	14528.386
1130.0	0.96944	0.0305552	8.31281	7.46297	-7.53908	18.11646	25.36239	1.35544	0.73777	126.07504	158.61057	46.61915	0.35218	18.5313	282337.0234	0.36956	2.42562E-5	2049.1933	10345.43823	55.15028	14562.012
1125.0	0.97161	0.0283937	8.31635	7.45853	-7.59416	18.00745	25.23124	1.35763	0.73658	127.46317	158.71488	47.15657	0.35149	18.93018	311547.2883	0.36048	2.19037E-5	2052.745	10074.25806	54.23603	14593.009
1120.0	0.97363	0.0263707	8.31977	7.45419	-7.64792	17.90202	25.103	1.35969	0.73546	128.79714	158.81832	47.67342	0.35083	19.33992	343712.4775	0.35158	1.97829E-5	2056.28111	9807.34312	53.38299	14621.62
1115.0	0.97561	0.024389	8.3231	7.4499	-7.70103	17.79794	24.97784	1.36159	0.73443	130.12099	158.92404	48.18641	0.35018	19.75722	379259.3047	0.34292	1.78643E-5	2059.80221	9543.72599	52.72343	14648.752
1110.0	0.97746	0.0225397	8.32633	7.44571	-7.75291	17.69724	24.85504	1.36339	0.73346	131.402	159.02899	48.68302	0.34957	20.18538	418425.6581	0.33444	1.61338E-5	2063.31217	9283.79483	51.98623	14673.961
1105.0	0.97919	0.0208099	8.32947	7.44162	-7.80365	17.59962	24.73456	1.36508	0.73256	132.64772	159.13347	49.16605	0.34898	20.62535	461601.8995	0.32612	1.45719E-5	2066.81169	9027.30036	51.29889	14697.44
1095.0	0.9831	0.0169002	8.33559	7.43328	-7.90699	17.39502	24.49528	1.36841	0.73077	135.61754	159.38431	50.31333	0.34773	21.61917	563555.196	0.30887	1.18491E-5	2073.54101	8502.07497	52.52254	14761.553
1090.0	0.98507	0.0149261	8.33852	7.42913	-7.95837	17.2923	24.37757	1.37	0.72993	137.24951	159.52093	50.94227	0.34711	22.16719	623156.642	0.30014	1.06766E-5	2076.80795	8238.47383	52.72023	14796.96
1085.0	0.98685	0.013152	8.34134	7.42511	-8.00819	17.19424	24.26243	1.37145	0.72916	138.84113	159.65311	51.55531	0.34653	22.7293	688812.9621	0.29164	9.6235E-6	2080.07416	7980.29137	51.63649	14828.461
1080.0	0.98845	0.0115477	8.34405	7.4212	-8.05666	17.10015	24.14968	1.37278	0.72845	140.40989	159.78181	52.15908	0.34598	23.30421	761215.553	0.2834	8.67611E-6	2083.33994	7726.89127	50.68002	14856.65
1075.0	0.98991	0.0100906	8.34669	7.41738	-8.1039	17.00965	24.03889	1.37401	0.7278	141.96298	159.90795	52.75635	0.34546	23.89449	841134.3829	0.27538	7.82275E-6	2086.59749	7477.74865	49.82852	14882.009
1070.0	0.99239	0.00760774	8.34991	7.4131	-8.15698	16.89694	23.93453	1.37488	0.72733	144.3995	160.07526	53.68697	0.34483	24.42569	932997.2365	0.26839	7.02637E-6	2089.59535	7213.43475	52.86278	14923.928
1065.0	0.99501	0.00498849	8.35343	7.4088	-8.21023	16.7825	23.83197	1.37566	0.72692	147.15748	160.24703	54.7383	0.34419	24.8625	1035628.845	0.26269	6.30648E-6	2092.54531	6949.86986	52.71298	14966.448
1060.0	0.99773	0.00227397	8.35725	7.40449	-8.26365	16.66631	23.73035	1.37639	0.72654	149.57694	160.42242	55.66478	0.34355	25.18541	1150260.193	0.25835	5.65678E-6	2095.43676	6687.55987	52.462	15009.025
1055.0	1.0	0.0	8.36092	7.40037	-8.31471	16.55777	23.63011	1.37704	0.72619	151.29586	160.58513	56.32865	0.34297	 	1276278.038	 	5.07912E-6	 	6433.89959	50.73206	15044.231
1050.0	1.0	0.0	8.36418	7.39748	-8.35046	16.50524	23.52913	1.37775	0.72582	151.64633	160.66411	56.47117	0.34269	 	1416215.389	 	4.56002E-6	 	7134.48296	-140.11667	 
1045.0	1.0	0.0	8.36742	7.39462	-8.38595	16.4532	23.42964	1.37837	0.7255	151.99456	160.74539	56.61272	0.34241	 	1572762.668	 	4.09061E-6	 	6969.61266	32.97406	 
1040.0	1.0	0.0	8.37064	7.39178	-8.42117	16.40161	23.33161	1.37891	0.72521	152.34069	160.8289	56.75334	0.34213	 	1748036.967	 	3.66649E-6	 	6805.6047	32.80159	 
1035.0	1.0	0.0	8.37384	7.38895	-8.45615	16.35046	23.23498	1.37937	0.72497	152.68483	160.91459	56.8931	0.34186	 	1944443.33	 	3.28359E-6	 	6642.43638	32.63366	 
1030.0	1.0	0.0	8.37701	7.38615	-8.49088	16.29975	23.13969	1.37976	0.72476	153.02709	161.00241	57.03202	0.34159	 	2164716.304	 	2.93819E-6	 	6480.08643	32.46999	 
1025.0	1.0	0.0	8.38017	7.38337	-8.52537	16.24944	23.04571	1.38007	0.7246	153.36756	161.0923	57.17016	0.34133	 	2411967.959	 	2.62688E-6	 	6318.53413	32.31046	 
1020.0	1.0	0.0	8.38331	7.3806	-8.55962	16.19954	22.95299	1.38031	0.72448	153.70636	161.18422	57.30755	0.34107	 	2689743.016	 	2.34652E-6	 	6157.76028	32.15477	 
1015.0	1.0	0.0	8.38643	7.37785	-8.59365	16.15001	22.86148	1.38047	0.72439	154.04357	161.27812	57.44424	0.34081	 	3002082.923	 	2.09426E-6	 	5997.74467	32.00312	 
1010.0	1.0	0.0	8.38953	7.37513	-8.62745	16.10085	22.77114	1.38057	0.72434	154.37929	161.37394	57.58026	0.34056	 	3353599.611	 	1.86747E-6	 	5838.46904	31.85513	 
1005.0	1.0	0.0	8.39262	7.37242	-8.66103	16.05205	22.68194	1.3806	0.72432	154.7136	161.47165	57.71565	0.34031	 	3749560.605	 	1.66375E-6	 	5679.91524	31.71076	 
1000.0	1.0	0.0	8.39569	7.36972	-8.69439	16.00359	22.59383	1.38056	0.72434	155.04658	161.5712	57.85045	0.34006	 	4195988.628	 	1.48092E-6	 	5522.06623	31.5698	 
995.0	1.0	0.0	8.39873	7.36705	-8.72754	15.95546	22.50678	1.38046	0.7244	155.3783	161.67254	57.98468	0.33982	 	4699775.737	 	1.31698E-6	 	5364.90513	31.43222	 
990.0	1.0	0.0	8.40177	7.36439	-8.76049	15.90765	22.42076	1.38029	0.72448	155.70885	161.77563	58.11838	0.33958	 	5268816.856	 	1.17011E-6	 	5208.41605	31.29782	 
985.0	1.0	0.0	8.40478	7.36174	-8.79324	15.86014	22.33572	1.38006	0.72461	156.03829	161.88043	58.25158	0.33935	 	5912163.84	 	1.03866E-6	 	5052.58332	31.16655	 
980.0	1.0	0.0	8.40779	7.35912	-8.82579	15.81292	22.25164	1.37977	0.72476	156.36669	161.9869	58.3843	0.33912	 	6640206.221	 	9.21103E-7	 	4897.39182	31.0383	 
975.0	1.0	0.0	8.41077	7.3565	-8.85815	15.76598	22.1685	1.37942	0.72494	156.69411	162.09501	58.51657	0.33889	 	7464880.115	 	8.16076E-7	 	4742.82708	30.91295	 
970.0	1.0	0.0	8.41374	7.35391	-8.89031	15.71932	22.08625	1.37901	0.72516	157.02061	162.2047	58.64843	0.33866	 	8399911.998	 	7.2233E-7	 	4588.87504	30.79041	 
965.0	1.0	0.0	8.41669	7.35133	-8.92229	15.67291	22.00487	1.37854	0.7254	157.34626	162.31596	58.77989	0.33844	 	9461104.068	 	6.38731E-7	 	4435.52205	30.6706	 
960.0	1.0	0.0	8.41963	7.34876	-8.95409	15.62676	21.92433	1.37802	0.72568	157.67111	162.42873	58.91097	0.33822	 	1.066666612E7	 	5.64253E-7	 	4282.7549	30.55343	 
955.0	1.0	0.0	8.42256	7.34621	-8.98571	15.58084	21.84461	1.37744	0.72598	157.9952	162.54299	59.04171	0.338	 	1.203760438E7	 	4.97964E-7	 	4130.5608	30.43882	 
950.0	1.0	0.0	8.42547	7.34367	-9.01715	15.53515	21.76568	1.37681	0.72632	158.3186	162.6587	59.17212	0.33778	 	1.359817723E7	 	4.39021E-7	 	3978.92737	30.32669	 
945.0	1.0	0.0	8.42837	7.34115	-9.04842	15.48969	21.68752	1.37612	0.72668	158.64134	162.77583	59.30222	0.33757	 	1.537642646E7	 	3.86663E-7	 	3827.84255	30.21696	 
940.0	1.0	0.0	8.43125	7.33864	-9.07953	15.44443	21.61011	1.37538	0.72707	158.96348	162.89434	59.43203	0.33736	 	1.740480432E7	 	3.40198E-7	 	3677.29469	30.10957	 
935.0	1.0	0.0	8.43412	7.33614	-9.11046	15.39937	21.53341	1.37459	0.72749	159.28506	163.01421	59.56158	0.33715	 	1.972090651E7	 	2.99007E-7	 	3527.27244	30.00445	 
930.0	1.0	0.0	8.43698	7.33366	-9.14123	15.3545	21.45742	1.37375	0.72793	159.60611	163.13541	59.69087	0.33694	 	2.236833707E7	 	2.62526E-7	 	3377.76483	29.90152	 
925.0	1.0	0.0	8.43982	7.33118	-9.17185	15.30982	21.38211	1.37286	0.72841	159.92669	163.2579	59.81993	0.33673	 	2.539772085E7	 	2.30252E-7	 	3228.76116	29.80073	 
920.0	1.0	0.0	8.44265	7.32873	-9.2023	15.26531	21.30746	1.37192	0.7289	160.24682	163.38166	59.94878	0.33653	 	2.886790547E7	 	2.01728E-7	 	3080.25127	29.70198	 
915.0	1.0	0.0	8.44547	7.32628	-9.2326	15.22097	21.23346	1.37093	0.72943	160.56655	163.50665	60.07742	0.33633	 	3.284737012E7	 	1.76546E-7	 	2932.22468	29.60532	 
910.0	1.0	0.0	8.44827	7.32385	-9.26275	15.17678	21.16007	1.3699	0.72998	160.88591	163.63286	60.20588	0.33613	 	3.741589499E7	 	1.54337E-7	 	2784.67175	29.51059	 
905.0	1.0	0.0	8.45107	7.32143	-9.29274	15.13274	21.08729	1.36882	0.73056	161.20493	163.76025	60.33417	0.33593	 	4.266653673E7	 	1.34772E-7	 	2637.58296	29.41776	 
900.0	1.0	0.0	8.45385	7.31902	-9.32259	15.08885	21.01511	1.36769	0.73116	161.52365	163.88879	60.4623	0.33574	 	4.870795801E7	 	1.17555E-7	 	2490.94903	29.32679	 
895.0	1.0	0.0	8.45662	7.31662	-9.3523	15.04508	20.94349	1.36652	0.73179	161.84208	164.01848	60.59028	0.33554	 	5.566720399E7	 	1.0242E-7	 	2344.76117	29.23757	 
890.0	1.0	0.0	8.45938	7.31423	-9.38186	15.00145	20.87243	1.3653	0.73244	162.16027	164.14927	60.71814	0.33535	 	6.369298775E7	 	8.91314E-8	 	2199.01015	29.15021	 
885.0	1.0	0.0	8.46213	7.31186	-9.41128	14.95793	20.80191	1.36404	0.73312	162.47824	164.28114	60.84587	0.33516	 	7.29595921E7	 	7.74763E-8	 	2053.68759	29.06451	 
880.0	1.0	0.0	8.46486	7.3095	-9.44056	14.91452	20.73192	1.36274	0.73382	162.79601	164.41408	60.9735	0.33497	 	8.367152912E7	 	6.72659E-8	 	1908.78518	28.98048	 
875.0	1.0	0.0	8.46759	7.30714	-9.4697	14.87122	20.66245	1.36139	0.73454	163.11361	164.54805	61.10102	0.33479	 	9.606906873E7	 	5.83313E-8	 	1764.29502	28.89803	 
870.0	1.0	0.0	8.4703	7.3048	-9.49871	14.82801	20.59347	1.36	0.73529	163.43107	164.68305	61.22846	0.3346	 	1.104348448E8	 	5.05224E-8	 	1620.20876	28.81725	 
865.0	1.0	0.0	8.473	7.30247	-9.52759	14.78489	20.52498	1.35857	0.73607	163.74839	164.81903	61.35583	0.33442	 	1.271017715E8	 	4.37054E-8	 	1476.51888	28.73798	 
860.0	1.0	0.0	8.4757	7.30015	-9.55634	14.74186	20.45696	1.3571	0.73686	164.06562	164.95599	61.48312	0.33423	 	1.464624597E8	 	3.77614E-8	 	1333.21786	28.6602	 
855.0	1.0	0.0	8.47838	7.29784	-9.58495	14.6989	20.38941	1.35559	0.73769	164.38276	165.0939	61.61036	0.33405	 	1.689805423E8	 	3.25849E-8	 	1190.29861	28.58385	 
850.0	1.0	0.0	8.48105	7.29554	-9.61344	14.65602	20.3223	1.35404	0.73853	164.69983	165.23274	61.73755	0.33387	 	1.952042474E8	 	2.80825E-8	 	1047.75349	28.50902	 
845.0	1.0	0.0	8.4833	7.29361	-9.63742	14.63363	20.26658	1.35172	0.7398	165.00816	165.40906	61.85932	0.33374	 	2.217517392E8	 	2.46105E-8	 	925.05868	24.53896	 
840.0	1.0	0.0	8.48555	7.29167	-9.66135	14.61123	20.21084	1.34938	0.74108	165.31601	165.58468	61.98093	0.3336	 	2.521983804E8	 	2.15426E-8	 	800.00721	25.0103	 
835.0	1.0	0.0	8.48779	7.28975	-9.68521	14.58882	20.15508	1.34704	0.74237	165.62339	165.7596	62.10239	0.33347	 	2.871585639E8	 	1.88349E-8	 	675.10397	24.98065	 
830.0	1.0	0.0	8.49003	7.28783	-9.70902	14.56641	20.09932	1.34468	0.74367	165.9303	165.93382	62.2237	0.33334	 	3.273499881E8	 	1.64478E-8	 	550.34841	24.95111	 
825.0	1.0	0.0	8.49226	7.28591	-9.73277	14.54399	20.04354	1.34231	0.74498	166.23674	166.10735	62.34485	0.3332	 	3.736121097E8	 	1.43459E-8	 	425.73993	24.9217	 
820.0	1.0	0.0	8.49449	7.284	-9.75646	14.52157	19.98775	1.33993	0.74631	166.5427	166.28018	62.46584	0.33307	 	4.269280858E8	 	1.24972E-8	 	301.2779	24.89241	 
815.0	1.0	0.0	8.49672	7.28209	-9.7801	14.49913	19.93194	1.33754	0.74764	166.84819	166.45233	62.58668	0.33294	 	4.884508999E8	 	1.08731E-8	 	176.96166	24.86325	 
810.0	1.0	0.0	8.49894	7.28019	-9.80368	14.4767	19.87612	1.33513	0.74899	167.15321	166.62378	62.70736	0.3328	 	5.595345151E8	 	9.44819E-9	 	52.79055	24.83422	 
805.0	1.0	0.0	8.50116	7.27829	-9.8272	14.45425	19.82029	1.33271	0.75035	167.45776	166.79455	62.82789	0.33267	 	6.417710724E8	 	8.19947E-9	 	-71.23616	24.80534	 
800.0	1.0	0.0	8.50337	7.27639	-9.85066	14.4318	19.76444	1.33028	0.75172	167.76184	166.96463	62.94826	0.33254	 	7.370353744E8	 	7.10655E-9	 	-195.11921	24.77661	 
795.0	1.0	0.0	8.50558	7.2745	-9.87407	14.40934	19.70858	1.32783	0.75311	168.06544	167.13403	63.06847	0.3324	 	8.475381564E8	 	6.1512E-9	 	-318.85938	24.74803	 
790.0	1.0	0.0	8.50778	7.27262	-9.89742	14.38687	19.6527	1.32537	0.7545	168.36857	167.30275	63.18853	0.33227	 	9.75889977E8	 	5.31717E-9	 	-442.45748	24.71962	 
785.0	1.0	0.0	8.50998	7.27074	-9.92071	14.3644	19.59681	1.3229	0.75591	168.67123	167.47079	63.30844	0.33214	 	1.12517796E9	 	4.59E-9	 	-565.91437	24.69138	 
780.0	1.0	0.0	8.51218	7.26886	-9.94395	14.34192	19.54091	1.32042	0.75734	168.97341	167.63815	63.42818	0.33201	 	1.299058115E9	 	3.95684E-9	 	-689.23097	24.66332	 
775.0	1.0	0.0	8.51437	7.26699	-9.96712	14.31944	19.48499	1.31792	0.75877	169.27513	167.80483	63.54777	0.33187	 	1.501866564E9	 	3.40627E-9	 	-812.4082	24.63545	 
770.0	1.0	0.0	8.51656	7.26513	-9.99024	14.29694	19.42905	1.31541	0.76022	169.57637	167.97083	63.66721	0.33174	 	1.738753766E9	 	2.92816E-9	 	-935.44707	24.60777	 
765.0	1.0	0.0	8.51874	7.26327	-10.0133	14.27445	19.3731	1.31289	0.76168	169.87714	168.13617	63.78649	0.33161	 	2.015846745E9	 	2.51356E-9	 	-1058.3486	24.58031	 
760.0	1.0	0.0	8.52092	7.26141	-10.03631	14.25194	19.31714	1.31035	0.76316	170.17743	168.30083	63.90561	0.33147	 	2.340445477E9	 	2.15453E-9	 	-1181.11392	24.55306	 
755.0	1.0	0.0	8.52309	7.25956	-10.05926	14.22943	19.26115	1.3078	0.76464	170.47726	168.46482	64.02457	0.33134	 	2.721261029E9	 	1.84405E-9	 	-1303.74417	24.52605	 
750.0	1.0	0.0	8.52526	7.25771	-10.08214	14.20691	19.20516	1.30523	0.76615	170.77661	168.62815	64.14338	0.33121	 	3.16870478E9	 	1.57596E-9	 	-1426.24056	24.49928	 
745.0	1.0	0.0	8.52743	7.25587	-10.10498	14.18438	19.14914	1.30265	0.76766	171.07548	168.79081	64.26203	0.33108	 	3.695240305E9	 	1.34479E-9	 	-1548.60439	24.47276	 
740.0	1.0	0.0	8.52959	7.25403	-10.12775	14.16185	19.09311	1.30006	0.7692	171.37389	168.9528	64.38053	0.33095	 	4.315812191E9	 	1.14577E-9	 	-1670.83699	24.44652	 
735.0	1.0	0.0	8.53174	7.2522	-10.15047	14.13931	19.03707	1.29745	0.77074	171.67182	169.11413	64.49887	0.33081	 	5.04836953E9	 	9.74677E-10	 	-1792.93981	24.42056	 
730.0	1.0	0.0	8.5339	7.25037	-10.17312	14.11676	18.981	1.29483	0.7723	171.96928	169.2748	64.61705	0.33068	 	5.914506102E9	 	8.27817E-10	 	-1914.91434	24.39491	 
725.0	1.0	0.0	8.53604	7.24854	-10.19572	14.09421	18.92492	1.29219	0.77388	172.26627	169.43481	64.73508	0.33055	 	6.940244643E9	 	7.01953E-10	 	-2036.76219	24.36957	 
720.0	1.0	0.0	8.53819	7.24672	-10.21827	14.07165	18.86882	1.28954	0.77547	172.56278	169.59417	64.85294	0.33042	 	8.156999364E9	 	5.94253E-10	 	-2158.48502	24.34457	 
715.0	1.0	0.0	8.54033	7.24491	-10.24075	14.04909	18.81271	1.28688	0.77707	172.85882	169.75286	64.97066	0.33028	 	9.602759385E9	 	5.02243E-10	 	-2280.08463	24.31992	 
710.0	1.0	0.0	8.54246	7.2431	-10.26318	14.02651	18.75657	1.2842	0.7787	173.15439	169.9109	65.08821	0.33015	 	1.13235E10	 	4.23764E-10	 	-2401.56289	24.29565	 
705.0	1.0	0.0	8.54459	7.24129	-10.28555	14.00393	18.70042	1.2815	0.78033	173.44949	170.06829	65.20561	0.33002	 	1.3375199999999998E10	 	3.56937E-10	 	-2522.92179	24.27178	 
700.0	1.0	0.0	8.54672	7.23949	-10.30786	13.98135	18.64425	1.27879	0.78199	173.74411	170.22503	65.32285	0.32989	 	1.5825699999999998E10	 	3.00126E-10	 	-2644.16345	24.24833	 
695.0	1.0	0.0	8.54884	7.2377	-10.33011	13.95875	18.58806	1.27607	0.78366	174.03826	170.38111	65.43993	0.32976	 	1.87576E10	 	2.51913E-10	 	-2765.29009	24.22533	 
690.0	1.0	0.0	8.55095	7.2359	-10.35231	13.93616	18.53186	1.27333	0.78534	174.33194	170.53655	65.55685	0.32962	 	2.22721E10	 	2.11067E-10	 	-2886.30409	24.2028	 
685.0	1.0	0.0	8.55306	7.23412	-10.37445	13.91355	18.47563	1.27058	0.78705	174.62514	170.69135	65.67362	0.32949	 	2.6492399999999996E10	 	1.76522E-10	 	-3007.20796	24.18078	 
680.0	1.0	0.0	8.55517	7.23233	-10.39652	13.89094	18.41939	1.2678	0.78877	174.91787	170.84549	65.79023	0.32936	 	3.1569899999999996E10	 	1.47358E-10	 	-3128.00437	24.15928	 
675.0	1.0	0.0	8.55728	7.23056	-10.41855	13.86832	18.36312	1.26502	0.7905	175.21013	170.999	65.90668	0.32923	 	3.76901E10	 	1.22782E-10	 	-3248.69615	24.13836	 
670.0	1.0	0.0	8.55937	7.22878	-10.44051	13.84569	18.30683	1.26222	0.79226	175.50191	171.15186	66.02297	0.3291	 	4.50815E10	 	1.0211E-10	 	-3369.28631	24.11803	 
665.0	1.0	0.0	8.56147	7.22702	-10.46241	13.82306	18.25053	1.2594	0.79403	175.79322	171.30408	66.13911	0.32897	 	5.402539999999999E10	 	8.47542E-11	 	-3489.77804	24.09835	 
660.0	1.0	0.0	8.56356	7.22525	-10.48426	13.80042	18.1942	1.25656	0.79582	176.08406	171.45567	66.25509	0.32883	 	6.486939999999999E10	 	7.02099E-11	 	-3610.1655	24.07749	 
655.0	1.0	0.0	8.56564	7.22349	-10.50605	13.77777	18.13785	1.25371	0.79763	176.37442	171.60662	66.37091	0.3287	 	7.80437E10	 	5.80453E-11	 	-3730.39713	24.04633	 
650.0	1.0	0.0	8.56772	7.22174	-10.52778	13.75512	18.08149	1.25085	0.79946	176.66431	171.75693	66.48657	0.32857	 	9.408169999999998E10	 	4.7891E-11	 	-3850.40456	24.00149	 
645.0	1.0	0.0	8.5698	7.21999	-10.54945	13.73246	18.0251	1.24796	0.80131	176.95373	171.90661	66.60208	0.32844	 	1.13647E11	 	3.94315E-11	 	-3970.18879	23.95684	 
640.0	1.0	0.0	8.57187	7.21825	-10.57107	13.70979	17.96868	1.24506	0.80317	177.24267	172.05565	66.71742	0.32831	 	1.37565E11	 	3.23983E-11	 	-4089.75079	23.9124	 
635.0	1.0	0.0	8.57394	7.21651	-10.59262	13.68712	17.91225	1.24215	0.80506	177.53114	172.20407	66.83261	0.32818	 	1.66867E11	 	2.65628E-11	 	-4209.09155	23.86815	 
630.0	1.0	0.0	8.576	7.21477	-10.61412	13.66444	17.85579	1.23922	0.80696	177.81914	172.35185	66.94764	0.32805	 	2.02844E11	 	2.17312E-11	 	-4328.21205	23.8241	 
625.0	1.0	0.0	8.57806	7.21304	-10.63556	13.64175	17.79931	1.23627	0.80889	178.10666	172.49901	67.06251	0.32792	 	2.47115E11	 	1.77393E-11	 	-4447.11327	23.78025	 
620.0	1.0	0.0	8.58011	7.21132	-10.65694	13.61906	17.74281	1.2333	0.81083	178.39371	172.64554	67.17722	0.32778	 	3.01714E11	 	1.44483E-11	 	-4565.79624	23.73659	 
615.0	1.0	0.0	8.58216	7.20959	-10.67827	13.59636	17.68628	1.23031	0.8128	178.68029	172.79145	67.29178	0.32765	 	3.69205E11	 	1.1741E-11	 	-4684.2619	23.69313	 
610.0	1.0	0.0	8.5842	7.20788	-10.69953	13.57365	17.62973	1.22731	0.81479	178.96639	172.93674	67.40617	0.32752	 	4.52827E11	 	9.51894E-12	 	-4802.51124	23.64987	 
605.0	1.0	0.0	8.58624	7.20617	-10.72074	13.55094	17.57316	1.22429	0.8168	179.25202	173.0814	67.52041	0.32739	 	5.56682E11	 	7.69924E-12	 	-4920.54523	23.6068	 
600.0	1.0	0.0	8.58827	7.20446	-10.74188	13.52822	17.51656	1.22125	0.81883	179.53717	173.22545	67.63448	0.32726	 	6.85977E11	 	6.2125E-12	 	-5038.36484	23.56392	 
595.0	1.0	0.0	8.5903	7.20276	-10.76297	13.50549	17.45993	1.2182	0.82088	179.82185	173.36887	67.7484	0.32713	 	8.47336E11	 	5.00064E-12	 	-5155.97106	23.52124	 
590.0	1.0	0.0	8.59233	7.20106	-10.784	13.48276	17.40328	1.21513	0.82296	180.10606	173.51168	67.86216	0.327	 	1.04922E12	 	4.0152E-12	 	-5273.36485	23.47876	 
585.0	1.0	0.0	8.59435	7.19937	-10.80498	13.46001	17.34661	1.21203	0.82506	180.38979	173.65387	67.97576	0.32687	 	1.30244E12	 	3.21583E-12	 	-5390.54718	23.43647	 
580.0	1.0	0.0	8.59636	7.19768	-10.82589	13.43727	17.2899	1.20892	0.82718	180.67305	173.79545	68.0892	0.32674	 	1.62087E12	 	2.569E-12	 	-5507.51901	23.39437	 
575.0	1.0	0.0	8.59838	7.196	-10.84675	13.41451	17.23317	1.2058	0.82933	180.95583	173.93642	68.20249	0.32661	 	2.02236E12	 	2.04692E-12	 	-5624.28133	23.35246	 
570.0	1.0	0.0	8.60038	7.19432	-10.86754	13.39175	17.17642	1.20265	0.8315	181.23814	174.07677	68.31561	0.32648	 	2.52994E12	 	1.6266E-12	 	-5740.83509	23.31075	 
565.0	1.0	0.0	8.60238	7.19264	-10.88828	13.36899	17.11963	1.19948	0.83369	181.51998	174.21652	68.42857	0.32635	 	3.17338E12	 	1.2891E-12	 	-5857.18125	23.26923	 
560.0	1.0	0.0	8.60438	7.19097	-10.90896	13.34621	17.06282	1.1963	0.83591	181.80134	174.35565	68.54138	0.32622	 	3.99131E12	 	1.01881E-12	 	-5973.32078	23.22791	 
555.0	1.0	0.0	8.60637	7.18931	-10.92958	13.32343	17.00598	1.19309	0.83816	182.08223	174.49419	68.65402	0.32609	 	5.03397E12	 	8.02944E-13	 	-6089.25463	23.18677	 
550.0	1.0	0.0	8.60836	7.18765	-10.95014	13.30064	16.9491	1.18987	0.84043	182.36264	174.63211	68.7665	0.32596	 	6.36694E12	 	6.31008E-13	 	-6204.98377	23.14583	 
545.0	1.0	0.0	8.61034	7.18599	-10.97065	13.27785	16.8922	1.18662	0.84273	182.64258	174.76943	68.87883	0.32583	 	8.07602E12	 	4.9445E-13	 	-6320.50916	23.10508	 
540.0	1.0	0.0	8.61232	7.18434	-10.99109	13.25505	16.83527	1.18336	0.84505	182.92204	174.90615	68.99099	0.3257	 	1.02739E13	 	3.86298E-13	 	-6435.83173	23.06452	 
535.0	1.0	0.0	8.61429	7.1827	-11.01148	13.23224	16.77831	1.18008	0.8474	183.20103	175.04227	69.103	0.32556	 	1.31089E13	 	3.00894E-13	 	-6550.95246	23.02415	 
530.0	1.0	0.0	8.61626	7.18106	-11.0318	13.20943	16.72132	1.17677	0.84978	183.47955	175.17779	69.21485	0.32543	 	1.6777E13	 	2.33652E-13	 	-6665.8723	22.98397	 
525.0	1.0	0.0	8.61822	7.17942	-11.05207	13.18661	16.66429	1.17345	0.85219	183.75759	175.31271	69.32653	0.3253	 	2.15379E13	 	1.8087E-13	 	-6780.59217	22.94398	 
520.0	1.0	0.0	8.62018	7.17779	-11.07228	13.16378	16.60724	1.1701	0.85463	184.03515	175.44704	69.43806	0.32518	 	2.77372E13	 	1.39566E-13	 	-6895.11306	22.90418	 
515.0	1.0	0.0	8.62214	7.17616	-11.09243	13.14095	16.55014	1.16674	0.85709	184.31224	175.58076	69.54942	0.32505	 	3.58356E13	 	1.07345E-13	 	-7009.43587	22.86456	 
510.0	1.0	0.0	8.62409	7.17454	-11.11252	13.1181	16.49302	1.16335	0.85959	184.58886	175.7139	69.66063	0.32492	 	4.64502E13	 	8.22895E-14	 	-7123.56158	22.82514	 
505.0	1.0	0.0	8.62603	7.17293	-11.13255	13.09526	16.43586	1.15994	0.86211	184.865	175.84644	69.77167	0.32479	 	6.04099E13	 	6.28697E-14	 	-7237.4911	22.7859	 
500.0	1.0	0.0	8.62797	7.17131	-11.15253	13.0724	16.37867	1.15651	0.86467	185.14067	175.9784	69.88255	0.32466	 	7.88325E13	 	4.7868E-14	 	-7351.22539	22.74686	 
495.0	1.0	0.0	8.6299	7.16971	-11.17244	13.04954	16.32144	1.15306	0.86725	185.41586	176.10976	69.99328	0.32453	 	1.0323E14	 	3.63183E-14	 	-7464.76537	22.708	 
490.0	1.0	0.0	8.63183	7.1681	-11.1923	13.02667	16.26418	1.14959	0.86987	185.69058	176.24053	70.10384	0.3244	 	1.3565699999999998E14	 	2.7457E-14	 	-7578.11198	22.66932	 
485.0	1.0	0.0	8.63376	7.16651	-11.2121	13.0038	16.20688	1.1461	0.87253	185.96482	176.37072	70.21424	0.32427	 	1.78914E14	 	2.06822E-14	 	-7691.26615	22.63083	 
480.0	1.0	0.0	8.63568	7.16491	-11.23183	12.98092	16.14954	1.14258	0.87521	186.23859	176.50032	70.32448	0.32414	 	2.36833E14	 	1.55213E-14	 	-7804.22881	22.59253	 
475.0	1.0	0.0	8.63759	7.16332	-11.25151	12.95803	16.09216	1.13904	0.87793	186.51188	176.62934	70.43456	0.32401	 	3.14678E14	 	1.1604E-14	 	-7917.00088	22.55441	 
470.0	1.0	0.0	8.6395	7.16174	-11.27113	12.93514	16.03474	1.13548	0.88068	186.7847	176.75777	70.54448	0.32388	 	4.19713E14	 	8.64194E-15	 	-8029.58328	22.51648	 
465.0	1.0	0.0	8.64141	7.16016	-11.29069	12.91223	15.97729	1.1319	0.88347	187.05704	176.88563	70.65424	0.32375	 	5.6199499999999994E14	 	6.4106E-15	 	-8141.97694	22.47873	 
460.0	1.0	0.0	8.64331	7.15859	-11.31019	12.88933	15.91979	1.12829	0.8863	187.32891	177.0129	70.76384	0.32362	 	7.55514E14	 	4.73628E-15	 	-8254.18276	22.44116	 
455.0	1.0	0.0	8.6452	7.15702	-11.32963	12.86641	15.86225	1.12466	0.88916	187.6003	177.13959	70.87328	0.32349	 	1.0198E15	 	3.4849E-15	 	-8366.20167	22.40378	 
450.0	1.0	0.0	8.64709	7.15545	-11.34902	12.84349	15.80468	1.12101	0.89205	187.87121	177.26571	70.98255	0.32336	 	1.38227E15	 	2.55342E-15	 	-8478.03457	22.36658	 
445.0	1.0	0.0	8.64898	7.15389	-11.36834	12.82056	15.74705	1.11733	0.89499	188.14165	177.39125	71.09166	0.32323	 	1.88152E15	 	1.86292E-15	 	-8589.68238	22.32956	 
440.0	1.0	0.0	8.65086	7.15234	-11.3876	12.79763	15.68939	1.11363	0.89796	188.41162	177.51622	71.20062	0.3231	 	2.57218E15	 	1.35321E-15	 	-8701.14597	22.29272	 
435.0	1.0	0.0	8.65273	7.15079	-11.40681	12.77469	15.63168	1.1099	0.90098	188.68111	177.64061	71.30941	0.32297	 	3.53193E15	 	9.78589E-16	 	-8812.42628	22.25606	 
430.0	1.0	0.0	8.6546	7.14924	-11.42596	12.75174	15.57392	1.10616	0.90403	188.95012	177.76443	71.41804	0.32285	 	4.8717E15	 	7.04456E-16	 	-8923.52418	22.21958	 
425.0	1.0	0.0	8.65647	7.1477	-11.44504	12.72878	15.51612	1.10238	0.90713	189.21866	177.88768	71.5265	0.32272	 	6.75072E15	 	5.0476E-16	 	-9034.44044	22.18325	 
420.0	1.0	0.0	8.65833	7.14617	-11.46407	12.70582	15.45827	1.09858	0.91026	189.48672	178.01036	71.63481	0.32259	 	9.39861E15	 	3.59957E-16	 	-9145.17615	22.14714	 
415.0	1.0	0.0	8.66018	7.14464	-11.48304	12.68285	15.40037	1.09476	0.91344	189.75431	178.13248	71.74295	0.32246	 	1.31482E16	 	2.55449E-16	 	-9255.73166	22.1111	 
410.0	1.0	0.0	8.66203	7.14311	-11.50194	12.65988	15.34242	1.09091	0.91667	190.02142	178.25402	71.85094	0.32233	 	1.84842E16	 	1.80385E-16	 	-9366.10709	22.07508	 
405.0	1.0	0.0	8.66388	7.14159	-11.52079	12.6369	15.28443	1.08703	0.91994	190.28806	178.375	71.95876	0.3222	 	2.61167E16	 	1.26734E-16	 	-9476.30253	22.03909	 
400.0	1.0	0.0	8.66572	7.14007	-11.53958	12.61391	15.22638	1.08313	0.92325	190.55422	178.49542	72.06641	0.32207	 	3.70908E16	 	8.85792E-17	 	-9586.31811	22.00312	 
395.0	1.0	0.0	8.66755	7.13856	-11.55831	12.59091	15.16828	1.0792	0.92661	190.8199	178.61527	72.17391	0.32195	 	5.29535E16	 	6.15838E-17	 	-9696.15395	21.96717	 
390.0	1.0	0.0	8.66938	7.13705	-11.57698	12.56791	15.11012	1.07525	0.93002	191.08511	178.73456	72.28124	0.32182	 	7.6007E16	 	4.25838E-17	 	-9805.81013	21.93124	 
385.0	1.0	0.0	8.67121	7.13555	-11.59559	12.5449	15.05191	1.07127	0.93347	191.34984	178.85329	72.38842	0.32169	 	1.09698E17	 	2.92829E-17	 	-9915.28675	21.89532	 
380.0	1.0	0.0	8.67303	7.13405	-11.61414	12.52189	14.99364	1.06726	0.93698	191.61409	178.97147	72.49542	0.32156	 	1.59214E17	 	2.00225E-17	 	-10024.58391	21.85943	 
375.0	1.0	0.0	8.67484	7.13256	-11.63263	12.49886	14.93532	1.06323	0.94053	191.87787	179.08908	72.60227	0.32143	 	2.32414E17	 	1.36113E-17	 	-10133.7017	21.82356	 
370.0	1.0	0.0	8.67665	7.13107	-11.65107	12.47584	14.87694	1.05917	0.94414	192.14118	179.20614	72.70895	0.3213	 	3.41269E17	 	9.19819E-18	 	-10242.64018	21.7877	 
365.0	1.0	0.0	8.67846	7.12959	-11.66944	12.4528	14.8185	1.05508	0.9478	192.404	179.32264	72.81548	0.32118	 	5.04133E17	 	6.17823E-18	 	-10351.39946	21.75185	 
360.0	1.0	0.0	8.68026	7.12811	-11.68775	12.42976	14.75999	1.05096	0.95151	192.66635	179.43858	72.92183	0.32105	 	7.49325E17	 	4.12404E-18	 	-10459.97958	21.71602	 
355.0	1.0	0.0	8.68205	7.12664	-11.706	12.40671	14.70143	1.04682	0.95528	192.92823	179.55398	73.02803	0.32092	 	1.12082E18	 	2.73536E-18	 	-10568.38062	21.68021	 
350.0	1.0	0.0	8.68384	7.12517	-11.7242	12.38365	14.6428	1.04264	0.9591	193.18962	179.66882	73.13406	0.32079	 	1.68736E18	 	1.80249E-18	 	-10676.60264	21.6444	 
345.0	1.0	0.0	8.68563	7.12371	-11.74233	12.36059	14.5841	1.03844	0.96299	193.45054	179.78311	73.23993	0.32066	 	2.55713E18	 	1.17985E-18	 	-10784.64567	21.60861	 
340.0	1.0	0.0	8.68741	7.12225	-11.7604	12.33752	14.52534	1.0342	0.96693	193.71099	179.89686	73.34564	0.32054	 	3.9016E18	 	7.67028E-19	 	-10892.50978	21.57282	 
335.0	1.0	0.0	8.68918	7.1208	-11.77842	12.31445	14.46651	1.02994	0.97093	193.97095	180.01005	73.45118	0.32041	 	5.99446E18	 	4.95162E-19	 	-11000.19501	21.53705	 
330.0	1.0	0.0	8.69095	7.11935	-11.79637	12.29137	14.40761	1.02565	0.97499	194.23045	180.1227	73.55656	0.32028	 	9.27576E18	 	3.17368E-19	 	-11107.70137	21.50127	 
325.0	1.0	0.0	8.69271	7.1179	-11.81426	12.26828	14.34863	1.02133	0.97912	194.48946	180.2348	73.66178	0.32015	 	1.44583E19	 	2.01919E-19	 	-11215.0289	21.46551	 
320.0	1.0	0.0	8.69447	7.11646	-11.8321	12.24518	14.28958	1.01698	0.98331	194.748	180.34636	73.76683	0.32002	 	2.27059E19	 	1.27501E-19	 	-11322.17761	21.42974	 
315.0	1.0	0.0	8.69622	7.11503	-11.84987	12.22208	14.23046	1.01259	0.98756	195.00606	180.45738	73.87172	0.3199	 	3.59327E19	 	7.98886E-20	 	-11429.14751	21.39398	 
310.0	1.0	0.0	8.69797	7.1136	-11.86758	12.19897	14.17126	1.00818	0.99189	195.26364	180.56785	73.97645	0.31977	 	5.7314E19	 	4.966E-20	 	-11535.9386	21.35822	 
305.0	1.0	0.0	8.69971	7.11217	-11.88524	12.17585	14.11198	1.00373	0.99628	195.52075	180.67778	74.08101	0.31964	 	9.21591E19	 	3.06189E-20	 	-11642.55087	21.32245	 
300.0	1.0	0.0	8.70145	7.11075	-11.90283	12.15273	14.05262	0.99926	1.00074	195.77737	180.78718	74.18541	0.31951	 	1.49422E20	 	1.87215E-20	 	-11748.98431	21.28669	 
295.0	1.0	0.0	8.70318	7.10934	-11.92037	12.1296	13.99317	0.99475	1.00528	196.03353	180.89603	74.28965	0.31939	 	2.4433499999999997E20	 	1.13492E-20	 	-11855.23888	21.25091	 
290.0	1.0	0.0	8.70491	7.10793	-11.93784	12.10647	13.93364	0.99021	1.00989	196.2892	181.00435	74.39372	0.31926	 	4.0304099999999997E20	 	6.81964E-21	 	-11961.31456	21.21514	 
285.0	1.0	0.0	8.70663	7.10652	-11.95525	12.08332	13.87402	0.98563	1.01458	196.54444	181.11217	74.49764	0.31913	 	6.70821E20	 	4.06098E-21	 	-12067.21129	21.17935	 
280.0	1.0	0.0	8.70835	7.10512	-11.97261	12.06017	13.81432	0.98102	1.01934	196.79916	181.21942	74.60139	0.319	 	1.1268500000000001E21	 	2.39588E-21	 	-12172.92902	21.14354	 
275.0	1.0	0.0	8.71006	7.10373	-11.9899	12.03702	13.75451	0.97638	1.02419	197.0534	181.32613	74.70497	0.31888	 	1.91087E21	 	1.40009E-21	 	-12278.46768	21.10773	 
270.0	1.0	0.0	8.71177	7.10233	-12.00714	12.01386	13.69462	0.97171	1.02912	197.30717	181.43231	74.80838	0.31875	 	3.27206E21	 	8.10187E-22	 	-12383.82719	21.0719	 
265.0	1.0	0.0	8.71347	7.10095	-12.02431	11.99069	13.63462	0.967	1.03413	197.56046	181.53796	74.91163	0.31862	 	5.65916E21	 	4.64128E-22	 	-12489.00746	21.03605	 
260.0	1.0	0.0	8.71516	7.09957	-12.04142	11.96751	13.57453	0.96226	1.03922	197.81326	181.64308	75.01472	0.3185	 	9.88884E21	 	2.63142E-22	 	-12594.0084	21.00019	 
255.0	1.0	0.0	8.71685	7.09819	-12.05847	11.94433	13.51433	0.95748	1.04441	198.0656	181.74767	75.11764	0.31837	 	1.74634E22	 	1.4761E-22	 	-12698.82988	20.9643	 
250.0	1.0	0.0	8.71854	7.09682	-12.07547	11.92114	13.45402	0.95266	1.04969	198.31745	181.85173	75.2204	0.31824	 	3.1176799999999997E22	 	8.18995E-23	 	-12803.47178	20.92838	 
245.0	1.0	0.0	8.72021	7.09545	-12.0924	11.89794	13.39361	0.94782	1.05506	198.56883	181.95526	75.32299	0.31812	 	5.628509999999999E22	 	4.49313E-23	 	-12907.93396	20.89244	 
240.0	1.0	0.0	8.72189	7.09409	-12.10927	11.87474	13.33308	0.94293	1.06052	198.81972	182.05827	75.42541	0.31799	 	1.0279099999999999E23	 	2.43656E-23	 	-13012.21625	20.85646	 
235.0	1.0	0.0	8.72356	7.09273	-12.12608	11.85153	13.27244	0.93801	1.06609	199.07014	182.16076	75.52768	0.31786	 	1.8995999999999998E23	 	1.30562E-23	 	-13116.31849	20.82045	 
230.0	1.0	0.0	8.72522	7.09138	-12.14283	11.82831	13.21168	0.93305	1.07175	199.32009	182.26272	75.62977	0.31774	 	3.5536299999999996E23	 	6.91053E-24	 	-13220.2405	20.7844	 
225.0	1.0	0.0	8.72688	7.09003	-12.15952	11.80509	13.1508	0.92806	1.07752	199.56955	182.36416	75.73171	0.31761	 	6.73197E23	 	3.61164E-24	 	-13323.98207	20.74831	 
220.0	1.0	0.0	8.72853	7.08869	-12.17615	11.78186	13.08979	0.92302	1.0834	199.81854	182.46507	75.83347	0.31748	 	1.29193E24	 	1.86306E-24	 	-13427.54298	20.71218	 
215.0	1.0	0.0	8.73018	7.08735	-12.19272	11.75862	13.02865	0.91795	1.08938	200.06704	182.56547	75.93508	0.31736	 	2.5126600000000003E24	 	9.48213E-25	 	-13530.923	20.676	 
210.0	1.0	0.0	8.73182	7.08602	-12.20923	11.73538	12.96738	0.91284	1.09548	200.31507	182.66535	76.03651	0.31723	 	4.95461E24	 	4.75948E-25	 	-13634.12188	20.63978	 
205.0	1.0	0.0	8.73346	7.08469	-12.22568	11.71213	12.90597	0.90769	1.10169	200.56262	182.76471	76.13779	0.3171	 	9.90949E24	 	2.35505E-25	 	-13737.13934	20.60349	 
200.0	1.0	0.0	8.73509	7.08337	-12.24207	11.68887	12.84441	0.90251	1.10802	200.8097	182.86356	76.23889	0.31698	 	2.0112E25	 	1.14823E-25	 	-13839.97508	20.56715	 
195.0	1.0	0.0	8.73671	7.08205	-12.2584	11.66561	12.78271	0.89728	1.11448	201.05629	182.96189	76.33983	0.31685	 	4.14407E25	 	5.51372E-26	 	-13942.62881	20.53075	 
190.0	1.0	0.0	8.73833	7.08074	-12.27467	11.64234	12.72086	0.89201	1.12106	201.30241	183.0597	76.44061	0.31672	 	8.673150000000001E25	 	2.60634E-26	 	-14045.10017	20.49427	 
185.0	1.0	0.0	8.73995	7.07943	-12.29087	11.61906	12.65885	0.88671	1.12777	201.54805	183.157	76.54122	0.3166	 	1.8447100000000003E26	 	1.21218E-26	 	-14147.38882	20.45773	 
180.0	1.0	0.0	8.74156	7.07813	-12.30702	11.59578	12.59668	0.88136	1.13461	201.79321	183.25379	76.64166	0.31647	 	3.98943E26	 	5.54392E-27	 	-14249.49439	20.42111	 
175.0	1.0	0.0	8.74316	7.07683	-12.3231	11.57249	12.53434	0.87597	1.14159	202.03789	183.35007	76.74194	0.31635	 	8.77748E26	 	2.49196E-27	 	-14351.41645	20.38441	 
170.0	1.0	0.0	8.74476	7.07554	-12.33913	11.54919	12.47183	0.87054	1.14872	202.28209	183.44584	76.84205	0.31622	 	1.9658799999999998E27	 	1.10022E-27	 	-14453.1546	20.34763	 
165.0	1.0	0.0	8.74635	7.07425	-12.35509	11.52589	12.40913	0.86506	1.15599	202.52581	183.5411	76.942	0.31609	 	4.48471E27	 	4.76842E-28	 	-14554.70836	20.31075	 
160.0	1.0	0.0	8.74794	7.07297	-12.371	11.50258	12.34626	0.85955	1.1634	202.76905	183.63585	77.04178	0.31597	 	1.04276E28	 	2.02741E-28	 	-14656.07728	20.27378	 
155.0	1.0	0.0	8.74952	7.07169	-12.38684	11.47926	12.28319	0.85399	1.17098	203.01182	183.73009	77.14139	0.31584	 	2.4728000000000003E28	 	8.45071E-29	 	-14757.26083	20.23671	 
150.0	1.0	0.0	8.7511	7.07041	-12.40262	11.45594	12.21992	0.84838	1.17871	203.25411	183.82383	77.24084	0.31572	 	5.98492E28	 	3.45082E-29	 	-14858.25848	20.19953	 
145.0	1.0	0.0	8.75267	7.06914	-12.41834	11.43261	12.15644	0.84274	1.18661	203.49591	183.91707	77.34012	0.31559	 	1.4794700000000001E29	 	1.37947E-29	 	-14959.06966	20.16224	 
140.0	1.0	0.0	8.75423	7.06788	-12.434	11.40927	12.09276	0.83704	1.19468	203.73724	184.0098	77.43924	0.31547	 	3.7382700000000004E29	 	5.39417E-30	 	-15059.69377	20.12482	 
135.0	1.0	0.0	8.75579	7.06662	-12.4496	11.38593	12.02885	0.83131	1.20292	203.97809	184.10202	77.53818	0.31534	 	9.662640000000001E29	 	2.06163E-30	 	-15160.13019	20.08728	 
130.0	1.0	0.0	8.75735	7.06537	-12.46514	11.36258	11.96471	0.82553	1.21135	204.21846	184.19375	77.63696	0.31521	 	2.55712E30	 	7.69488E-31	 	-15260.37824	20.04961	 
125.0	1.0	0.0	8.7589	7.06412	-12.48062	11.33922	11.90033	0.8197	1.21996	204.45835	184.28498	77.73558	0.31509	 	6.93462E30	 	2.80227E-31	 	-15360.43724	20.0118	 
120.0	1.0	0.0	8.76044	7.06287	-12.49603	11.31586	11.8357	0.81382	1.22877	204.69776	184.3757	77.83403	0.31496	 	1.9289199999999998E31	 	9.94787E-32	 	-15460.30643	19.97384	 
115.0	1.0	0.0	8.76198	7.06163	-12.51139	11.29249	11.77081	0.8079	1.23777	204.93669	184.46593	77.93231	0.31484	 	5.50875E31	 	3.43901E-32	 	-15559.98506	19.93573	 
110.0	1.0	0.0	8.76351	7.0604	-12.52668	11.26911	11.70566	0.80193	1.24698	205.17515	184.55566	78.03042	0.31471	 	1.61691E32	 	1.15656E-32	 	-15659.47232	19.89745	 
105.0	1.0	0.0	8.76504	7.05917	-12.54192	11.24572	11.64022	0.79592	1.25641	205.41312	184.64489	78.12837	0.31459	 	4.8829799999999996E32	 	3.77978E-33	 	-15758.76734	19.85901	 
100.0	1.0	0.0	8.76656	7.05795	-12.55709	11.22233	11.57449	0.78986	1.26605	205.65061	184.73363	78.22615	0.31446	 	1.51896E33	 	1.19901E-33	 	-15857.86926	19.82038	 
95.0	1.0	0.0	8.76807	7.05673	-12.5722	11.19894	11.50846	0.78374	1.27593	205.88762	184.82188	78.32376	0.31434	 	4.87301E33	 	3.68735E-34	 	-15956.77715	19.78158	 
90.0	1.0	0.0	8.76958	7.05551	-12.58725	11.17553	11.44212	0.77758	1.28604	206.12416	184.90963	78.42121	0.31421	 	1.61431E34	 	1.09796E-34	 	-16055.49003	19.74258	 
85.0	1.0	0.0	8.77108	7.0543	-12.60224	11.15212	11.37544	0.77137	1.29639	206.36021	184.99689	78.51849	0.31409	 	5.52971E34	 	3.16118E-35	 	-16154.00688	19.70337	 
80.0	1.0	0.0	8.77258	7.0531	-12.61717	11.1287	11.30841	0.76511	1.307	206.59579	185.08366	78.6156	0.31396	 	1.9613699999999998E35	 	8.78794E-36	 	-16252.32668	19.66396	 
75.0	1.0	0.0	8.77408	7.0519	-12.63203	11.10528	11.24103	0.7588	1.31787	206.83088	185.16993	78.71254	0.31384	 	7.21454E35	 	2.35529E-36	 	-16350.44832	19.62433	 
70.0	1.0	0.0	8.77556	7.0507	-12.64684	11.08185	11.17326	0.75244	1.32902	207.0655	185.25572	78.80932	0.31371	 	2.7564E36	 	6.07614E-37	 	-16448.37067	19.58447	 
65.0	1.0	0.0	8.77704	7.04951	-12.66158	11.05841	11.1051	0.74602	1.34044	207.29963	185.34102	78.90593	0.31359	 	1.0957E37	 	1.50627E-37	 	-16546.09256	19.54438	 
60.0	1.0	0.0	8.77852	7.04833	-12.67627	11.03497	11.03653	0.73956	1.35216	207.53329	185.42584	79.00237	0.31346	 	4.53974E37	 	3.58175E-38	 	-16643.61279	19.50405	 
55.0	1.0	0.0	8.77999	7.04715	-12.69089	11.01152	10.96752	0.73304	1.36417	207.76646	185.51016	79.09864	0.31334	 	1.9641899999999998E38	 	8.15409E-39	 	-16740.93012	19.46346	 
50.0	1.0	0.0	8.78145	7.04597	-12.70545	10.98806	10.89805	0.72648	1.37651	207.99915	185.594	79.19474	0.31321	 	8.89246E38	 	1.77365E-39	 	-16838.04327	19.42263	 
45.0	1.0	0.0	8.78291	7.0448	-12.71995	10.96459	10.82811	0.71986	1.38917	208.23137	185.67736	79.29068	0.31309	 	4.2215700000000006E39	 	3.67828E-40	 	-16934.95096	19.38154	 
40.0	1.0	0.0	8.78437	7.04363	-12.73438	10.94112	10.75766	0.71318	1.40217	208.4631	185.76024	79.38645	0.31296	 	2.1063399999999999E40	 	7.25623E-41	 	-17031.65187	19.34018	 
35.0	1.0	0.0	8.78581	7.04247	-12.74876	10.91765	10.68668	0.70646	1.41551	208.69436	185.84263	79.48205	0.31284	 	1.10722E41	 	1.35836E-41	 	-17128.14469	19.29856	 
30.0	1.0	0.0	8.78726	7.04132	-12.76307	10.89416	10.61514	0.69968	1.42923	208.92513	185.92454	79.57748	0.31272	 	6.14775E41	 	2.40673E-42	 	-17224.4281	19.25668	 
25.0	1.0	0.0	8.78869	7.04017	-12.77733	 	10.54301	0.69285	1.44332	209.15542	186.00597	79.67275	0.31259	 	3.6154899999999996E42	 	4.0249E-43	 	-17320.50081	 	 
