T (C)	Fraction solid (wt)-TOTAL	Fraction liquid (wt)-LIQUID	Density (g/(cm)^3)-TOTAL	Molar volume (cm^3)-TOTAL	Volume change (%)-  	Average expansion coeff. (10e-6 1/K)-  	Thermal conductivity (W/(m*K))-TOTAL	Electrical resistivity (10e-6 Ohm*m)-TOTAL	Electrical conductivity (10e6 1/(Ohm*m))-TOTAL	Young's modulus (GPa)-TOTAL	Bulk modulus (GPa)-TOTAL	Shear modulus(GPa)-TOTAL	Poisson's ratio-TOTAL	Liquid viscosity (mPa s)-  	Total viscosity (mPa s)-  	Liquid diffusivity (10e-9 (m^2)/s)-  	Total diffusivity (10e-9 (m^2)/s)-  	Surface Tension (mN/m)-  	Enthalpy (J/mole)-TOTAL	Specific heat (J/(mole K))-TOTAL	Latent heat (J/mole)-TOTAL
1400.0	0.0	1.0	7.52141	7.96998	0.0	34.24298	32.17265	1.27413	0.78485	0.0	123.38421	0.0	0.5	7.26407	7.26407	1.12419	1.12419	1844.63376	39707.879	 	0.0
1395.0	0.0	1.0	7.52576	7.96537	-0.0579039	34.20717	32.08949	1.27362	0.78517	0.0	123.51792	0.0	0.5	7.34387	7.34387	1.10866	1.10866	1848.24037	39508.296	39.9166	0.0
1390.0	0.0	1.0	7.53011	7.96077	-0.11565	34.17155	32.00633	1.2731	0.78549	0.0	123.65163	0.0	0.5	7.42503	7.42503	1.09325	1.09325	1851.86229	39309.156	39.828	0.0
1385.0	0.0	1.0	7.53446	7.95618	-0.17322	34.13612	31.92316	1.27258	0.78581	0.0	123.78534	0.0	0.5	7.50759	7.50759	1.07798	1.07798	1855.49929	39110.457	39.7398	0.0
1380.0	0.0	1.0	7.53879	7.9516	-0.23064	34.10089	31.84	1.27205	0.78613	0.0	123.91905	0.0	0.5	7.59157	7.59157	1.06284	1.06284	1859.15112	38912.194	39.6526	0.0
1375.0	0.0	1.0	7.54312	7.94704	-0.28789	34.06586	31.75683	1.27153	0.78646	0.0	124.05276	0.0	0.5	7.67701	7.67701	1.04783	1.04783	1862.81751	38714.366	39.5656	0.0
1370.0	0.0	1.0	7.54744	7.94249	-0.34498	34.03102	31.67367	1.271	0.78678	0.0	124.18647	0.0	0.5	7.76394	7.76394	1.03296	1.03296	1866.49824	38516.969	39.4794	0.0
1365.0	0.0	1.0	7.55176	7.93795	-0.40191	33.99639	31.5905	1.27047	0.78711	0.0	124.32018	0.0	0.5	7.8524	7.8524	1.01821	1.01821	1870.19306	38320.0	39.3938	0.0
1360.71	0.0	1.0	7.55545	7.93407	-0.45062	33.96683	31.51916	1.27001	0.7874	0.0	124.43487	0.0	0.5	7.92951	7.92951	1.00567	1.00567	1873.37345	38151.403	39.31045	0.0
1360.0	0.02263	0.97737	7.56352	7.92561	-0.5568	33.68235	31.57308	1.26729	0.78909	2.5096E-5	125.11098	8.38044E-6	0.4973	7.9406	8.18558	1.00383	0.97379	1873.28045	37779.515	522.94626	343.937
1355.0	0.17248	0.82752	7.61757	7.86936	-1.26256	31.7903	31.93507	1.24909	0.80058	0.0873613	129.53037	0.0295302	0.47919	8.02158	22.50935	0.99065	0.35304	1872.53999	35319.52	491.999	2607.811
1350.0	0.29429	0.70571	7.66251	7.8232	-1.8417	30.2475	32.22658	1.23399	0.81038	0.75954	133.12603	0.25937	0.46421	8.10598	122.43991	0.97733	0.0647027	1871.65891	33299.499	404.0042	4432.132
1345.0	0.39432	0.60568	7.70019	7.78494	-2.32177	28.97853	32.46222	1.22126	0.81883	2.5015	136.08617	0.86156	0.45172	8.19368	387.27584	0.96389	0.0203932	1870.63849	31621.464	335.607	5914.882
1340.0	0.47724	0.52276	7.73212	7.75279	-2.72518	27.92171	32.65193	1.21041	0.82617	5.4655	138.54901	1.89613	0.44122	8.2848	856.62179	0.95034	0.0091912	1869.48386	30211.809	281.931	7129.667
1335.0	0.54653	0.45347	7.75939	7.72548	-3.0678	27.03332	32.80339	1.20109	0.83258	9.54943	140.61939	3.33352	0.43233	8.37915	1537.38493	0.93673	0.00510541	1868.19774	29014.67	239.4278	8132.347
1330.0	0.60489	0.39511	7.78284	7.70216	-3.36039	26.28397	32.9227	1.19301	0.83821	14.52493	142.37903	5.09733	0.42476	8.47674	2417.95323	0.92306	0.00323603	1866.77955	27987.247	205.4846	8965.72
1325.0	0.65436	0.34564	7.80317	7.68204	-3.61288	25.64621	33.01462	1.18598	0.84318	20.13128	143.88842	7.09716	0.41826	8.5775	3479.5969	0.90938	0.00224169	1865.23221	27096.448	178.1598	9662.875
1320.0	0.69657	0.30343	7.82095	7.66447	-3.8333	25.09773	33.08307	1.17982	0.84758	26.12461	145.19464	9.24664	0.41265	8.68163	4702.5945	0.89566	0.00165351	1863.56179	26316.467	155.9962	10249.615
1315.0	0.73278	0.26722	7.83657	7.64908	-4.02637	24.62564	33.13158	1.1744	0.8515	32.29869	146.33591	11.47143	0.40779	8.7889	6069.56054	0.88195	0.00127709	1861.76619	25627.018	137.8898	10746.224
1310.0	0.764	0.236	7.8504	7.63547	-4.19717	24.21583	33.16294	1.16959	0.855	38.49217	147.34137	13.71251	0.40354	8.89941	7566.71123	0.86826	0.00102118	1859.85028	25012.029	122.9978	11168.771
1305.0	0.79105	0.20895	7.86271	7.62335	-4.34927	23.85838	33.17962	1.16531	0.85814	44.58548	148.23416	15.92546	0.39982	9.01316	9184.50079	0.85459	8.38647E-4	1857.81563	24458.675	110.6708	11530.078
1300.0	0.8146	0.1854	7.87376	7.61247	-4.48575	23.54472	33.18363	1.16148	0.86097	50.49301	149.03346	18.07796	0.39654	9.13028	10916.74068	0.84095	7.03338E-4	1855.66659	23956.651	100.4048	11840.449
1299.58	0.81635	0.18365	7.8746	7.61164	-4.4961	23.52152	33.18319	1.16119	0.86119	50.95491	149.09469	18.24654	0.39629	9.14004	11062.24871	0.83984	6.93903E-4	1855.48491	23917.936	 	11863.268
1295.0	0.8373	0.1627	7.88453	7.60187	-4.61869	23.2392	33.18284	1.15782	0.86369	56.74938	149.81753	20.36448	0.39334	9.25754	12883.33315	0.82676	5.94082E-4	1854.87756	23465.938	98.1426	12139.898
1290.0	0.85706	0.14294	7.89422	7.59232	-4.73852	22.9707	33.17148	1.15452	0.86616	62.6953	150.52138	22.54376	0.39052	9.38896	14966.1514	0.81259	5.09773E-4	1854.02403	23017.819	89.6238	12397.142
1285.0	0.87409	0.12591	7.90288	7.58376	-4.84595	22.7375	33.15025	1.15157	0.86838	68.22592	151.15261	24.57602	0.38806	9.52376	17149.83312	0.79852	4.43441E-4	1852.98049	22608.949	81.774	12615.523
1280.0	0.88884	0.11116	7.91069	7.57602	-4.94308	22.53369	33.1207	1.14889	0.8704	73.35064	151.72439	26.46343	0.38589	9.66223	19440.09173	0.78455	3.89944E-4	1851.75729	22232.22	75.3458	12802.145
1275.0	0.90171	0.0982862	7.9178	7.56895	-5.03178	22.35386	33.08413	1.14646	0.87225	78.09197	152.24714	28.21326	0.38396	9.8043	21846.5887	0.7707	3.45873E-4	1850.36544	21882.069	70.0302	12962.569
1271.43	0.90981	0.0901852	7.92247	7.56429	-5.09023	22.23947	33.05398	1.14486	0.87347	81.2212	152.59322	29.37002	0.38272	9.90778	23633.30094	0.76089	3.18987E-4	1849.27655	21647.072	 	13062.359
1270.0	0.91279	0.0872079	7.92438	7.56239	-5.11414	22.19198	33.02829	1.14469	0.8736	82.42445	152.72926	29.81562	0.38224	9.95418	24370.57895	0.75664	3.0905E-4	1849.11312	21551.938	66.0262	13103.352
1265.0	0.92256	0.0774395	7.93074	7.55601	-5.19416	22.03598	32.94001	1.14404	0.8741	86.48332	153.18572	31.32038	0.38062	10.11884	27056.50199	0.74192	2.77469E-4	1848.47277	21229.609	64.4658	13236.709
1260.0	0.93112	0.0688784	7.93657	7.55014	-5.26783	21.89826	32.85403	1.1433	0.87466	90.20061	153.60986	32.70076	0.37918	10.28698	29887.82259	0.72742	2.50367E-4	1847.73845	20926.017	60.7184	13351.702
1255.0	0.93867	0.0613301	7.94194	7.5447	-5.33606	21.77626	32.76989	1.1425	0.87527	93.61258	154.00702	33.96966	0.37789	10.45873	32881.43981	0.71314	2.26831E-4	1846.90967	20638.088	57.5858	13451.404
1250.0	0.94537	0.0546348	7.94688	7.53946	-5.40174	21.66118	32.66632	1.14237	0.87537	96.78069	154.36067	35.15057	0.37666	10.63422	36055.69148	0.69908	2.06184E-4	1850.664	20351.11904	57.39379	13538.28
1245.0	0.95133	0.048666	7.95538	7.53238	-5.4906	21.47287	32.26008	1.15296	0.86733	100.24486	154.45852	36.46135	0.37467	10.81339	39973.19433	0.68523	1.85367E-4	1854.42242	19929.61694	84.30042	13614.328
1240.0	0.95668	0.0433176	7.96343	7.52548	-5.57719	21.29013	31.87305	1.16312	0.85976	103.47888	154.54349	37.68852	0.37282	10.99651	44219.02186	0.67161	1.67017E-4	1858.18579	19522.8323	81.35693	13681.176
1235.0	0.9615	0.0385033	7.97108	7.51875	-5.66166	21.11252	31.50364	1.17287	0.85261	106.50481	154.61929	38.83981	0.37108	11.18356	48826.56315	0.65819	1.50756E-4	1861.95271	19129.24651	78.71716	13740.166
1230.0	0.96636	0.0336406	7.97845	7.51198	-5.74657	20.93208	31.15459	1.18208	0.84597	109.58144	154.70426	40.01145	0.36938	11.37698	53934.88752	0.64485	1.36025E-4	1865.64762	18741.68957	77.51139	13798.297
1225.0	0.97107	0.0289305	7.98555	7.50521	-5.83148	20.7501	30.82154	1.19088	0.83972	112.61877	154.79321	41.16983	0.36773	11.57576	59557.05288	0.63167	1.22775E-4	1869.31044	18362.258	75.88631	13853.31
1220.0	0.97531	0.0246936	7.99229	7.49859	-5.91462	20.57225	30.50092	1.19938	0.83376	115.4561	154.87671	42.25462	0.3662	11.77822	65666.11583	0.61874	1.10981E-4	1872.97296	17994.49011	73.55358	13901.499
1215.0	0.97968	0.0203194	7.9988	7.49179	-5.99986	20.38621	30.19727	1.20738	0.82824	118.41443	154.97997	43.38596	0.36466	12.0202	72476.64794	0.60426	1.00216E-4	1876.67555	17629.12415	73.07319	13951.971
1210.0	0.98448	0.0155212	8.00501	7.4847	-6.08883	20.18661	29.91139	1.21483	0.82316	121.65028	155.11286	44.62289	0.36309	12.32451	80167.70442	0.58736	9.02968E-5	1880.45014	17261.72202	73.48043	14009.007
1205.0	0.98857	0.0114329	8.01068	7.47796	-6.1734	19.99948	29.63289	1.22211	0.81826	124.54062	155.22722	45.73125	0.36166	12.63534	88454.72335	0.57098	8.15613E-5	1884.22619	16908.22053	70.7003	14056.519
1200.0	0.99207	0.00792729	8.01588	7.47153	-6.25408	19.82339	29.36212	1.22921	0.81353	127.13536	155.32634	46.7293	0.36034	12.95242	97403.25885	0.55511	7.38176E-5	1887.99972	16566.69232	68.30564	14096.288
1195.0	0.99509	0.00490575	8.02067	7.46538	-6.33131	19.65701	29.09948	1.23609	0.809	129.47607	155.41306	47.63231	0.35912	13.27639	107084.1234	0.53973	6.69163E-5	1891.77553	16235.58999	66.22047	14129.717
1190.0	0.99772	0.00228447	8.02513	7.45947	-6.40543	19.49933	28.84515	1.24275	0.80467	131.59753	155.48964	48.45309	0.35799	13.6073	117573.9025	0.52481	6.07386E-5	1895.55619	15913.66087	64.38582	14157.919
1185.0	1.0	0.0	8.02928	7.45379	-6.47675	19.3495	28.59923	1.24915	0.80055	133.52985	155.55807	49.20276	0.35693	 	128956.6331	 	5.51881E-5	 	15599.87854	62.75647	14181.787
1180.0	1.0	0.0	8.03399	7.44942	-6.53151	19.25289	28.34887	1.25586	0.79627	134.19372	155.5484	49.47364	0.35621	 	140618.87	 	5.04375E-5	 	15310.49503	57.8767	 
1175.0	1.0	0.0	8.03862	7.44513	-6.58542	19.15826	28.10701	1.26231	0.7922	134.83771	155.54093	49.73662	0.35552	 	153430.7965	 	4.60668E-5	 	15037.68787	54.56143	 
1170.0	1.0	0.0	8.04319	7.44089	-6.63851	19.06554	27.87324	1.2685	0.78833	135.46291	155.5358	49.99212	0.35484	 	167514.4877	 	4.2048E-5	 	14768.15046	53.90748	 
1165.0	1.0	0.0	8.0477	7.43673	-6.69081	18.97465	27.64715	1.27444	0.78466	136.07037	155.53312	50.24053	0.35419	 	183006.0125	 	3.83553E-5	 	14501.76807	53.27648	 
1160.0	1.0	0.0	8.05215	7.43262	-6.74234	18.88552	27.42837	1.28014	0.78116	136.66107	155.53298	50.48223	0.35356	 	200057.0012	 	3.49643E-5	 	14238.43088	52.66744	 
1155.0	1.0	0.0	8.05654	7.42857	-6.79313	18.79809	27.21653	1.2856	0.77784	137.2359	155.53544	50.71756	0.35294	 	218836.567	 	3.18523E-5	 	13978.03252	52.07967	 
1150.0	1.0	0.0	8.06087	7.42458	-6.84321	18.71229	27.01129	1.29084	0.77469	137.79574	155.54056	50.94687	0.35235	 	239533.4603	 	2.89982E-5	 	13720.47098	51.51231	 
1145.0	1.0	0.0	8.06514	7.42064	-6.8926	18.62806	26.81233	1.29585	0.7717	138.34138	155.54837	51.17045	0.35177	 	262358.4671	 	2.63824E-5	 	13465.64798	50.9646	 
1140.0	1.0	0.0	8.06937	7.41676	-6.94133	18.54535	26.61933	1.30064	0.76885	138.87361	155.55889	51.38861	0.35121	 	287547.167	 	2.39864E-5	 	13213.46923	50.43575	 
1135.0	1.0	0.0	8.07354	7.41293	-6.98942	18.46408	26.43202	1.30522	0.76615	139.39313	155.57214	51.60162	0.35067	 	315363.0375	 	2.17934E-5	 	12963.84368	49.92511	 
1130.0	1.0	0.0	8.07766	7.40914	-7.03688	18.38422	26.25011	1.3096	0.76359	139.90063	155.58811	51.80976	0.35014	 	346100.931	 	1.97874E-5	 	12716.68417	49.4319	 
1125.0	1.0	0.0	8.08174	7.40541	-7.08375	18.3057	26.07333	1.31378	0.76116	140.39675	155.60682	52.01327	0.34962	 	380091.1048	 	1.79537E-5	 	12471.90695	48.95545	 
1120.0	1.0	0.0	8.08576	7.40172	-7.13004	18.22847	25.90146	1.31777	0.75886	140.88211	155.62825	52.21239	0.34913	 	417703.6795	 	1.62786E-5	 	12229.43157	48.49508	 
1115.0	1.0	0.0	8.08975	7.39807	-7.17577	18.15248	25.73424	1.32157	0.75667	141.35728	155.65239	52.40734	0.34864	 	459353.8094	 	1.47494E-5	 	11989.18084	48.05015	 
1110.0	1.0	0.0	8.09369	7.39447	-7.22097	18.07768	25.57147	1.32519	0.75461	141.82281	155.67923	52.59836	0.34817	 	505507.4501	 	1.33545E-5	 	11751.08067	47.62004	 
1105.0	1.0	0.0	8.09759	7.39091	-7.26563	18.00404	25.41293	1.32864	0.75265	142.27921	155.70876	52.78562	0.34771	 	556687.9898	 	1.20829E-5	 	11515.05994	47.20414	 
1100.0	1.0	0.0	8.10144	7.38739	-7.3098	17.93149	25.25843	1.33192	0.7508	142.72699	155.74096	52.96935	0.34726	 	613483.7562	 	1.09245E-5	 	11281.05046	46.8019	 
1095.0	1.0	0.0	8.10526	7.38391	-7.35347	17.86001	25.10778	1.33503	0.74905	143.1666	155.77581	53.1497	0.34682	 	676556.5815	 	9.86998E-6	 	11048.98678	46.41274	 
1090.0	1.0	0.0	8.10904	7.38047	-7.39667	17.78955	24.96081	1.33798	0.74739	143.59849	155.81329	53.32687	0.3464	 	746651.5872	 	8.91071E-6	 	10818.80608	46.03614	 
1085.0	1.0	0.0	8.11279	7.37706	-7.43941	17.72006	24.81541	1.34089	0.74577	144.02308	155.85337	53.50102	0.34598	 	824608.2135	 	8.03872E-6	 	10590.44812	45.67159	 
1081.06	1.0	0.0	8.11571	7.3744	-7.47276	17.66601	24.7048	1.34299	0.74461	144.3525	155.88676	53.63611	0.34567	 	892132.1411	 	7.40874E-6	 	10411.90151	 	 
1080.0	1.0	0.0	8.1165	7.37369	-7.48175	17.65137	24.67529	1.34354	0.7443	144.44131	155.89595	53.67253	0.34558	 	911415.1051	 	7.2463E-6	 	10363.64699	45.36023	 
1075.0	1.0	0.0	8.12019	7.37034	-7.5238	17.58309	24.53847	1.34604	0.74292	144.85496	155.94085	53.84215	0.34518	 	1008272.528	 	6.526E-6	 	10137.8293	45.16354	 
1070.0	1.0	0.0	8.12385	7.36702	-7.56541	17.51574	24.40473	1.34839	0.74162	145.26234	155.98847	54.00915	0.34479	 	1116247.151	 	5.87288E-6	 	9913.75128	44.8156	 
1065.0	1.0	0.0	8.12747	7.36374	-7.60661	17.44927	24.27394	1.35061	0.74041	145.6638	156.03875	54.17368	0.34441	 	1236706.995	 	5.2811E-6	 	9691.35249	44.47976	 
1060.0	1.0	0.0	8.13106	7.36049	-7.64739	17.38366	24.14598	1.3527	0.73926	146.05968	156.09164	54.33586	0.34404	 	1371199.741	 	4.74531E-6	 	9470.57739	44.15502	 
1055.0	1.0	0.0	8.13462	7.35727	-7.68778	17.31887	24.02071	1.35465	0.7382	146.45027	156.1471	54.49582	0.34368	 	1521477.564	 	4.26058E-6	 	9251.37288	43.8409	 
1050.0	1.0	0.0	8.13814	7.35408	-7.72779	17.25486	23.89802	1.35648	0.7372	146.83589	156.20509	54.65369	0.34333	 	1689525.687	 	3.82235E-6	 	9033.68826	43.53692	 
1045.0	1.0	0.0	8.14164	7.35092	-7.76743	17.1916	23.77781	1.35819	0.73628	147.2168	156.26556	54.80957	0.34298	 	1877595.276	 	3.42649E-6	 	8817.47504	43.24264	 
1040.0	1.0	0.0	8.14511	7.34779	-7.80671	17.12906	23.65996	1.35977	0.73542	147.59329	156.32848	54.96358	0.34265	 	2088241.406	 	3.06917E-6	 	8602.68687	42.95763	 
1035.0	1.0	0.0	8.14855	7.34469	-7.84565	17.0672	23.54438	1.36125	0.73462	147.96561	156.39381	55.11582	0.34232	 	2324366.05	 	2.74688E-6	 	8389.27939	42.6815	 
1034.05	1.0	0.0	8.1492	7.3441	-7.85299	17.05555	23.52273	1.36151	0.73448	148.0357	156.4065	55.14447	0.34225	 	2372226.946	 	2.68951E-6	 	8349.01838	 	 
1030.0	1.0	0.0	8.15196	7.34161	-7.88421	17.00617	23.43098	1.36261	0.73389	148.33408	156.46174	55.26642	0.34199	 	2589325.994	 	2.45637E-6	 	8177.12978	42.42992	 
1025.0	1.0	0.0	8.15535	7.33857	-7.92243	16.94578	23.31967	1.36386	0.73322	148.69887	156.53203	55.41544	0.34167	 	2886838.862	 	2.19477E-6	 	7966.26802	42.17235	 
1020.0	1.0	0.0	8.15871	7.33554	-7.96035	16.88598	23.21036	1.365	0.7326	149.06017	156.60461	55.56297	0.34136	 	3221173.177	 	1.95939E-6	 	7756.67239	41.91913	 
1015.0	1.0	0.0	8.16204	7.33255	-7.99795	16.82675	23.10297	1.36604	0.73204	149.41819	156.67945	55.70909	0.34106	 	3597204.386	 	1.74779E-6	 	7548.30427	41.67362	 
1010.0	1.0	0.0	8.16535	7.32957	-8.03527	16.76807	22.99742	1.36699	0.73154	149.76692	156.75001	55.85158	0.34076	 	4020494.895	 	1.5577E-6	 	7341.12725	41.43541	 
1005.0	1.0	0.0	8.16864	7.32662	-8.07229	16.70991	22.89365	1.36783	0.73108	150.11913	156.82945	55.99519	0.34046	 	4497396.759	 	1.3871E-6	 	7135.10659	41.20413	 
1000.0	1.0	0.0	8.17191	7.32369	-8.10903	16.65225	22.79158	1.36858	0.73068	150.46863	156.91105	56.13762	0.34018	 	5035169.988	 	1.23411E-6	 	6930.20873	40.97957	 
995.0	1.0	0.0	8.17515	7.32079	-8.14549	16.59507	22.69116	1.36924	0.73033	150.81559	156.99479	56.27896	0.33989	 	5642120.206	 	1.09702E-6	 	6726.40169	40.76141	 
990.0	1.0	0.0	8.17837	7.3179	-8.1817	16.53834	22.59231	1.36981	0.73003	151.16019	157.08064	56.41926	0.33962	 	6327758.328	 	9.74298E-7	 	6523.65446	40.54944	 
985.0	1.0	0.0	8.18158	7.31504	-8.21764	16.48205	22.49499	1.37029	0.72977	151.50258	157.16858	56.5586	0.33934	 	7102985.426	 	8.64526E-7	 	6321.93754	40.34338	 
980.0	1.0	0.0	8.18476	7.31219	-8.25333	16.42618	22.39912	1.37069	0.72956	151.8429	157.25858	56.69702	0.33907	 	7980308.296	 	7.66426E-7	 	6121.22225	40.14306	 
975.0	1.0	0.0	8.18792	7.30937	-8.28877	16.37071	22.30467	1.371	0.7294	152.1813	157.35062	56.83459	0.33881	 	8974089.546	 	6.78833E-7	 	5921.4813	39.94819	 
970.0	1.0	0.0	8.19107	7.30656	-8.32397	16.31561	22.21158	1.37123	0.72927	152.51792	157.44466	56.97138	0.33855	 	1.010083965E7	 	6.00693E-7	 	5722.68815	39.75863	 
965.0	1.0	0.0	8.19419	7.30378	-8.35894	16.26087	22.1198	1.37138	0.72919	152.85288	157.54069	57.10742	0.33829	 	1.137955545E7	 	5.31049E-7	 	5524.81752	39.57413	 
960.0	1.0	0.0	8.1973	7.30101	-8.39369	16.20648	22.02928	1.37146	0.72915	153.18631	157.63869	57.24277	0.33804	 	1.283211929E7	 	4.69034E-7	 	5327.84478	39.39455	 
955.0	1.0	0.0	8.20039	7.29826	-8.4282	16.15241	21.93998	1.37145	0.72915	153.51833	157.73862	57.37748	0.33779	 	1.448375906E7	 	4.13863E-7	 	5131.74639	39.21968	 
950.0	1.0	0.0	8.20346	7.29552	-8.46251	16.09865	21.85186	1.37138	0.72919	153.84905	157.84047	57.5116	0.33755	 	1.63635937E7	 	3.64828E-7	 	4936.49971	39.04933	 
945.0	1.0	0.0	8.20652	7.2928	-8.49659	16.04519	21.76488	1.37123	0.72927	154.17857	157.94422	57.64517	0.33731	 	1.850526444E7	 	3.21286E-7	 	4742.08266	38.88341	 
940.0	1.0	0.0	8.20956	7.2901	-8.53048	15.992	21.679	1.37101	0.72939	154.50701	158.04984	57.77824	0.33707	 	2.094768001E7	 	2.82661E-7	 	4548.47423	38.72169	 
935.0	1.0	0.0	8.21258	7.28742	-8.56416	15.93907	21.59419	1.37072	0.72954	154.83446	158.15731	57.91083	0.33683	 	2.373588874E7	 	2.48429E-7	 	4355.65387	38.56407	 
930.0	1.0	0.0	8.21559	7.28475	-8.59764	15.8864	21.5104	1.37037	0.72973	155.161	158.26662	58.04301	0.3366	 	2.692210415E7	 	2.18121E-7	 	4163.60192	38.41039	 
925.0	1.0	0.0	8.21858	7.2821	-8.63092	15.83395	21.42761	1.36995	0.72996	155.48674	158.37775	58.17479	0.33638	 	3.056690634E7	 	1.91314E-7	 	3972.29948	38.26049	 
920.0	1.0	0.0	8.22156	7.27946	-8.66402	15.78173	21.34579	1.36946	0.73022	155.81176	158.49066	58.30622	0.33615	 	3.474066651E7	 	1.67627E-7	 	3781.72802	38.11429	 
915.0	1.0	0.0	8.22453	7.27684	-8.69693	15.72972	21.26489	1.36891	0.73051	156.13613	158.60536	58.43733	0.33593	 	3.952521471E7	 	1.46718E-7	 	3591.86982	37.97164	 
910.0	1.0	0.0	8.22748	7.27423	-8.72966	15.67789	21.18491	1.36829	0.73084	156.45994	158.72181	58.56815	0.33571	 	4.501581355E7	 	1.28281E-7	 	3402.70775	37.83241	 
905.0	1.0	0.0	8.23041	7.27163	-8.76222	15.62625	21.1058	1.36762	0.7312	156.78326	158.84	58.69871	0.33549	 	5.132349315E7	 	1.12039E-7	 	3214.22531	37.69649	 
900.0	1.0	0.0	8.23333	7.26905	-8.7946	15.57477	21.02754	1.36688	0.73159	157.10616	158.95992	58.82905	0.33528	 	5.85778026E7	 	9.77478E-8	 	3026.40629	37.5638	 
895.0	1.0	0.0	8.23624	7.26649	-8.8268	15.52345	20.95011	1.36609	0.73202	157.42871	159.08153	58.95919	0.33506	 	6.693008226E7	 	8.51852E-8	 	2839.23522	37.43421	 
890.0	1.0	0.0	8.23914	7.26393	-8.85884	15.47227	20.87347	1.36523	0.73248	157.75097	159.20484	59.08916	0.33486	 	7.655733503E7	 	7.41542E-8	 	2652.69718	37.30761	 
885.0	1.0	0.0	8.24202	7.26139	-8.89072	15.42122	20.79762	1.36432	0.73296	158.07301	159.32982	59.21899	0.33465	 	8.766681963E7	 	6.44787E-8	 	2466.77744	37.18395	 
880.0	1.0	0.0	8.24489	7.25887	-8.92244	15.37029	20.72252	1.36336	0.73348	158.39489	159.45645	59.3487	0.33444	 	1.005015237E8	 	5.60015E-8	 	2281.46189	37.06311	 
879.66	1.0	0.0	8.24509	7.25869	-8.92461	15.36676	20.71741	1.36329	0.73352	158.41692	159.4652	59.35757	0.33443	 	1.014488977E8	 	5.54621E-8	 	2268.82546	 	 
875.0	1.0	0.0	8.24778	7.25632	-8.95432	15.318	20.64704	1.36241	0.73399	158.70057	159.58211	59.47165	0.33425	 	1.154091262E8	 	4.85563E-8	 	2095.28891	37.2346	 
871.74	1.0	0.0	8.24966	7.25467	-8.97508	15.2838	20.59804	1.36176	0.73434	158.89896	159.6646	59.55142	0.33413	 	1.263995295E8	 	4.42082E-8	 	1973.94695	 	 
870.0	1.0	0.0	8.25064	7.2538	-8.98596	15.26621	20.57255	1.36139	0.73455	159.01037	159.70969	59.59627	0.33406	 	1.326602806E8	 	4.2058E-8	 	1910.08361	37.04106	 
865.0	1.0	0.0	8.25348	7.25131	-9.01722	15.21552	20.49955	1.36026	0.73515	159.33147	159.84075	59.72551	0.33386	 	1.526113203E8	 	3.63998E-8	 	1726.43827	36.72907	 
860.0	1.0	0.0	8.2563	7.24883	-9.04832	15.16491	20.42723	1.35908	0.73579	159.65262	159.9734	59.85473	0.33367	 	1.757704302E8	 	3.1465E-8	 	1543.34749	36.61816	 
855.0	1.0	0.0	8.25911	7.24636	-9.07928	15.11436	20.35557	1.35784	0.73646	159.97386	160.10762	59.98393	0.33347	 	2.026864024E8	 	2.71662E-8	 	1360.79911	36.50968	 
850.0	1.0	0.0	8.26191	7.24391	-9.1101	15.06387	20.28455	1.35656	0.73716	160.29524	160.24341	60.11315	0.33328	 	2.340074839E8	 	2.34258E-8	 	1178.78119	36.40358	 
845.0	1.0	0.0	8.26418	7.24193	-9.13499	15.04026	20.22733	1.35434	0.73837	160.6099	160.43144	60.23709	0.33315	 	2.660453705E8	 	2.05131E-8	 	1021.8187	31.3925	 
840.0	1.0	0.0	8.26644	7.23995	-9.15981	15.01665	20.1701	1.35211	0.73959	160.92411	160.61876	60.36089	0.33302	 	3.028184138E8	 	1.79415E-8	 	861.85389	31.99296	 
835.0	1.0	0.0	8.26869	7.23797	-9.18458	14.99304	20.11286	1.34987	0.74081	161.23787	160.80538	60.48454	0.33289	 	3.450771843E8	 	1.56736E-8	 	702.09137	31.9525	 
830.0	1.0	0.0	8.27094	7.236	-9.20928	14.96941	20.05561	1.34761	0.74205	161.55118	160.9913	60.60804	0.33275	 	3.936991723E8	 	1.36759E-8	 	542.53041	31.91219	 
825.0	1.0	0.0	8.27319	7.23404	-9.23393	14.94578	19.99836	1.34534	0.7433	161.86404	161.17652	60.7314	0.33262	 	4.497115826E8	 	1.19183E-8	 	383.17025	31.87203	 
820.0	1.0	0.0	8.27543	7.23208	-9.25851	14.92214	19.94109	1.34306	0.74457	162.17645	161.36105	60.85461	0.33249	 	5.143184614E8	 	1.03737E-8	 	224.01006	31.83204	 
815.0	1.0	0.0	8.27766	7.23013	-9.28304	14.89849	19.88381	1.34077	0.74584	162.48841	161.54488	60.97767	0.33236	 	5.889330238E8	 	9.01799E-9	 	65.04903	31.79221	 
810.0	1.0	0.0	8.2799	7.22818	-9.3075	14.87483	19.82653	1.33847	0.74712	162.79993	161.72801	61.10059	0.33223	 	6.752162331E8	 	7.82947E-9	 	-93.71375	31.75256	 
805.0	1.0	0.0	8.28213	7.22623	-9.3319	14.85117	19.76923	1.33615	0.74842	163.11099	161.91046	61.22336	0.3321	 	7.751229076E8	 	6.78884E-9	 	-252.27915	31.71308	 
800.0	1.0	0.0	8.28435	7.22429	-9.35625	14.82749	19.71192	1.33382	0.74973	163.4216	162.09222	61.34599	0.33197	 	8.909569035E8	 	5.87882E-9	 	-410.64815	31.6738	 
795.0	1.0	0.0	8.28657	7.22236	-9.38053	14.80381	19.6546	1.33148	0.75104	163.73176	162.27329	61.46847	0.33184	 	1.025437257E9	 	5.08405E-9	 	-568.82173	31.63472	 
790.0	1.0	0.0	8.28878	7.22043	-9.40475	14.78013	19.59727	1.32912	0.75238	164.04147	162.45367	61.5908	0.3317	 	1.181777582E9	 	4.39082E-9	 	-726.80092	31.59584	 
785.0	1.0	0.0	8.291	7.2185	-9.42891	14.75643	19.53993	1.32675	0.75372	164.35073	162.63337	61.71298	0.33157	 	1.363781522E9	 	3.78695E-9	 	-884.58682	31.55718	 
780.0	1.0	0.0	8.2932	7.21658	-9.45301	14.73273	19.48258	1.32437	0.75508	164.65955	162.81239	61.83502	0.33144	 	1.575957682E9	 	3.26161E-9	 	-1042.18054	31.51875	 
775.0	1.0	0.0	8.2954	7.21466	-9.47705	14.70902	19.42522	1.32198	0.75644	164.96791	162.99072	61.95691	0.33131	 	1.823658225E9	 	2.80522E-9	 	-1199.5833	31.48055	 
770.0	1.0	0.0	8.2976	7.21275	-9.50102	14.6853	19.36785	1.31957	0.75782	165.27582	163.16838	62.07866	0.33118	 	2.113246274E9	 	2.40926E-9	 	-1356.79632	31.4426	 
765.0	1.0	0.0	8.2998	7.21085	-9.52494	14.66157	19.31046	1.31714	0.75922	165.58328	163.34536	62.20025	0.33105	 	2.452298427E9	 	2.06621E-9	 	-1513.82094	31.40492	 
760.0	1.0	0.0	8.30198	7.20894	-9.5488	14.63784	19.25307	1.31471	0.76062	165.8903	163.52167	62.3217	0.33092	 	2.849850146E9	 	1.76941E-9	 	-1670.65849	31.36751	 
755.0	1.0	0.0	8.30417	7.20705	-9.57259	14.6141	19.19566	1.31226	0.76204	166.19686	163.6973	62.44301	0.33079	 	3.316693586E9	 	1.513E-9	 	-1827.31043	31.33039	 
750.0	1.0	0.0	8.30635	7.20516	-9.59633	14.59035	19.13824	1.3098	0.76348	166.50298	163.87226	62.56416	0.33066	 	3.865739671E9	 	1.29179E-9	 	-1983.77829	31.29357	 
745.0	1.0	0.0	8.30853	7.20327	-9.62	14.56659	19.08081	1.30732	0.76493	166.80864	164.04655	62.68517	0.33053	 	4.512459017E9	 	1.10125E-9	 	-2140.06365	31.25707	 
740.0	1.0	0.0	8.3107	7.20139	-9.64361	14.54283	19.02336	1.30483	0.76639	167.11386	164.22017	62.80603	0.3304	 	5.275419787E9	 	9.37354E-10	 	-2296.16818	31.22091	 
735.0	1.0	0.0	8.31286	7.19951	-9.66716	14.51905	18.96591	1.30232	0.76786	167.41862	164.39312	62.92675	0.33027	 	6.176944943E9	 	7.96596E-10	 	-2452.09366	31.18509	 
730.0	1.0	0.0	8.31503	7.19764	-9.69065	14.49527	18.90844	1.2998	0.76935	167.72294	164.56541	63.04731	0.33014	 	7.243916779E9	 	6.75895E-10	 	-2607.84195	31.14966	 
725.0	1.0	0.0	8.31718	7.19577	-9.71408	14.47148	18.85095	1.29726	0.77085	168.02681	164.73704	63.16773	0.33001	 	8.508763528E9	 	5.72553E-10	 	-2763.415	31.11461	 
720.0	1.0	0.0	8.31934	7.19391	-9.73745	14.44769	18.79346	1.29472	0.77237	168.33022	164.908	63.28801	0.32987	 	1.00107E10	 	4.84215E-10	 	-2918.81489	31.07998	 
715.0	1.0	0.0	8.32148	7.19205	-9.76076	14.42388	18.73595	1.29215	0.7739	168.63319	165.0783	63.40813	0.32974	 	1.1797099999999998E10	 	4.08823E-10	 	-3074.04381	31.04578	 
710.0	1.0	0.0	8.32363	7.1902	-9.784	14.40007	18.67842	1.28957	0.77545	168.93571	165.24795	63.52811	0.32961	 	1.3925499999999998E10	 	3.44584E-10	 	-3229.10407	31.01205	 
705.0	1.0	0.0	8.32577	7.18835	-9.80719	14.37625	18.62089	1.28698	0.77701	169.23778	165.41693	63.64794	0.32948	 	1.6465799999999998E10	 	2.8994E-10	 	-3383.99811	30.97881	 
700.0	1.0	0.0	8.3279	7.18651	-9.83031	14.35243	18.56333	1.28437	0.77859	169.5394	165.58527	63.76762	0.32935	 	1.95031E10	 	2.43535E-10	 	-3538.72851	30.94608	 
695.0	1.0	0.0	8.33003	7.18467	-9.85337	14.32859	18.50577	1.28174	0.78019	169.84057	165.75294	63.88715	0.32922	 	2.31411E10	 	2.04195E-10	 	-3693.29802	30.9139	 
690.0	1.0	0.0	8.33216	7.18284	-9.87637	14.30475	18.44819	1.27911	0.7818	170.14129	165.91997	64.00654	0.32909	 	2.7506599999999996E10	 	1.70901E-10	 	-3847.70951	30.8823	 
685.0	1.0	0.0	8.33428	7.18101	-9.89931	14.2809	18.39059	1.27645	0.78342	170.44156	166.08635	64.12578	0.32896	 	3.2754499999999996E10	 	1.42774E-10	 	-4001.96605	30.85131	 
680.0	1.0	0.0	8.3364	7.17919	-9.92219	14.25704	18.33298	1.27378	0.78507	170.74138	166.25207	64.24487	0.32883	 	3.90752E10	 	1.19055E-10	 	-4156.0709	30.82097	 
675.0	1.0	0.0	8.33851	7.17737	-9.94501	14.23318	18.27536	1.27109	0.78672	171.04075	166.41715	64.36381	0.3287	 	4.670249999999999E10	 	9.90887E-11	 	-4310.02751	30.79132	 
670.0	1.0	0.0	8.34062	7.17555	-9.96776	14.2093	18.21772	1.26839	0.7884	171.33968	166.58159	64.48261	0.32857	 	5.592409999999999E10	 	8.23129E-11	 	-4463.83954	30.7624	 
665.0	1.0	0.0	8.34272	7.17374	-9.99045	14.18542	18.16006	1.26567	0.79009	171.63815	166.74538	64.60125	0.32844	 	6.709549999999999E10	 	6.82442E-11	 	-4617.51085	30.73426	 
660.0	1.0	0.0	8.34482	7.17194	-10.01309	14.16153	18.10239	1.26294	0.79181	171.93617	166.90853	64.71975	0.32831	 	8.06556E10	 	5.64682E-11	 	-4771.03453	30.70474	 
655.0	1.0	0.0	8.34691	7.17014	-10.03566	14.13764	18.0447	1.26019	0.79353	172.23375	167.07103	64.8381	0.32818	 	9.714879999999998E10	 	4.66302E-11	 	-4924.34892	30.66288	 
650.0	1.0	0.0	8.349	7.16835	-10.05817	14.11373	17.987	1.25742	0.79528	172.53087	167.2329	64.95631	0.32805	 	1.17251E11	 	3.84276E-11	 	-5077.37229	30.60467	 
645.0	1.0	0.0	8.35109	7.16656	-10.08061	14.08982	17.92928	1.25463	0.79705	172.82755	167.39413	65.07436	0.32792	 	1.41802E11	 	3.16022E-11	 	-5230.10588	30.54672	 
640.0	1.0	0.0	8.35317	7.16477	-10.103	14.0659	17.87154	1.25183	0.79883	173.12377	167.55473	65.19227	0.32779	 	1.71852E11	 	2.59343E-11	 	-5382.55092	30.48901	 
635.0	1.0	0.0	8.35524	7.163	-10.12532	14.04198	17.81378	1.24901	0.80063	173.41955	167.71469	65.31002	0.32766	 	2.08711E11	 	2.12373E-11	 	-5534.70863	30.43154	 
630.0	1.0	0.0	8.35731	7.16122	-10.14759	14.01804	17.75601	1.24618	0.80245	173.71488	167.87401	65.42763	0.32753	 	2.54022E11	 	1.73531E-11	 	-5686.58026	30.37433	 
625.0	1.0	0.0	8.35938	7.15945	-10.16979	13.9941	17.69821	1.24333	0.80429	174.00976	168.03271	65.54509	0.3274	 	3.09846E11	 	1.41478E-11	 	-5838.16718	30.31738	 
620.0	1.0	0.0	8.36144	7.15769	-10.19193	13.97015	17.6404	1.24046	0.80615	174.30418	168.19077	65.66241	0.32728	 	3.7878E11	 	1.15086E-11	 	-5989.47093	30.26075	 
615.0	1.0	0.0	8.36349	7.15593	-10.214	13.94619	17.58258	1.23757	0.80803	174.59816	168.34821	65.77957	0.32715	 	4.64099E11	 	9.34033E-12	 	-6140.4926	30.20433	 
610.0	1.0	0.0	8.36554	7.15417	-10.23602	13.92222	17.52473	1.23467	0.80994	174.89169	168.50502	65.89659	0.32702	 	5.69946E11	 	7.56289E-12	 	-6291.23338	30.14816	 
605.0	1.0	0.0	8.36759	7.15242	-10.25797	13.89825	17.46686	1.23174	0.81186	175.18477	168.6612	66.01345	0.32689	 	7.01572E11	 	6.10919E-12	 	-6441.69451	30.09223	 
600.0	1.0	0.0	8.36963	7.15068	-10.27986	13.87427	17.40897	1.2288	0.8138	175.4774	168.81676	66.13017	0.32676	 	8.65654E11	 	4.92302E-12	 	-6591.8772	30.03654	 
595.0	1.0	0.0	8.37167	7.14894	-10.30169	13.85028	17.35107	1.22584	0.81577	175.76958	168.9717	66.24674	0.32663	 	1.0707E12	 	3.95744E-12	 	-6741.78268	29.9811	 
590.0	1.0	0.0	8.3737	7.1472	-10.32346	13.82628	17.29314	1.22286	0.81775	176.06132	169.12602	66.36316	0.3265	 	1.32758E12	 	3.17331E-12	 	-6891.41216	29.92589	 
585.0	1.0	0.0	8.37573	7.14547	-10.34517	13.80228	17.23519	1.21987	0.81976	176.3526	169.27972	66.47943	0.32637	 	1.65022E12	 	2.5381E-12	 	-7040.76685	29.87094	 
580.0	1.0	0.0	8.37775	7.14375	-10.36681	13.77826	17.17723	1.21685	0.82179	176.64343	169.4328	66.59555	0.32624	 	2.05651E12	 	2.0248E-12	 	-7189.84797	29.81622	 
575.0	1.0	0.0	8.37977	7.14203	-10.38839	13.75424	17.11924	1.21382	0.82385	176.93382	169.58526	66.71153	0.32611	 	2.56949E12	 	1.61106E-12	 	-7338.65671	29.76175	 
570.0	1.0	0.0	8.38178	7.14031	-10.40991	13.73022	17.06122	1.21077	0.82592	177.22375	169.73711	66.82735	0.32598	 	3.21891E12	 	1.27845E-12	 	-7487.1943	29.70752	 
565.0	1.0	0.0	8.38379	7.1386	-10.43137	13.70618	17.00319	1.2077	0.82802	177.51323	169.88834	66.94303	0.32585	 	4.04333E12	 	1.01174E-12	 	-7635.46195	29.65353	 
560.0	1.0	0.0	8.38579	7.1369	-10.45277	13.68214	16.94513	1.2046	0.83015	177.80227	170.03897	67.05855	0.32572	 	5.09282E12	 	7.98456E-13	 	-7783.46086	29.59978	 
555.0	1.0	0.0	8.38779	7.1352	-10.4741	13.65809	16.88706	1.20149	0.8323	178.09085	170.18898	67.17393	0.32559	 	6.43262E12	 	6.28359E-13	 	-7931.19221	29.54627	 
550.0	1.0	0.0	8.38978	7.1335	-10.49537	13.63403	16.82895	1.19836	0.83447	178.37899	170.33838	67.28916	0.32547	 	8.14797E12	 	4.93079E-13	 	-8078.65723	29.493	 
545.0	1.0	0.0	8.39177	7.13181	-10.51658	13.60996	16.77083	1.19521	0.83667	178.66668	170.48718	67.40424	0.32534	 	1.03506E13	 	3.85793E-13	 	-8225.85709	29.43997	 
540.0	1.0	0.0	8.39376	7.13013	-10.53773	13.58589	16.71268	1.19204	0.8389	178.95391	170.63537	67.51917	0.32521	 	1.31874E13	 	3.00952E-13	 	-8372.79301	29.38718	 
535.0	1.0	0.0	8.39574	7.12845	-10.55882	13.5618	16.6545	1.18885	0.84115	179.2407	170.78295	67.63395	0.32508	 	1.68522E13	 	2.34058E-13	 	-8519.46617	29.33463	 
530.0	1.0	0.0	8.39771	7.12677	-10.57984	13.53771	16.5963	1.18564	0.84343	179.52704	170.92994	67.74858	0.32495	 	2.16012E13	 	1.8147E-13	 	-8665.87776	29.28232	 
525.0	1.0	0.0	8.39968	7.1251	-10.6008	13.51362	16.53807	1.1824	0.84574	179.81293	171.07632	67.86306	0.32482	 	2.77748E13	 	1.40256E-13	 	-8812.02897	29.23024	 
520.0	1.0	0.0	8.40164	7.12343	-10.6217	13.48951	16.47982	1.17915	0.84807	180.09837	171.22209	67.97739	0.32469	 	3.58261E13	 	1.08054E-13	 	-8957.92099	29.1784	 
515.0	1.0	0.0	8.4036	7.12177	-10.64253	13.4654	16.42154	1.17587	0.85043	180.38336	171.36728	68.09157	0.32456	 	4.63608E13	 	8.29744E-14	 	-9103.555	29.1268	 
510.0	1.0	0.0	8.40556	7.12012	-10.66331	13.44128	16.36324	1.17258	0.85282	180.6679	171.51186	68.2056	0.32444	 	6.01912E13	 	6.35037E-14	 	-9248.93216	29.07543	 
505.0	1.0	0.0	8.4075	7.11847	-10.68402	13.41715	16.3049	1.16926	0.85524	180.95199	171.65584	68.31948	0.32431	 	7.84099E13	 	4.84372E-14	 	-9394.05367	29.0243	 
500.0	1.0	0.0	8.40945	7.11682	-10.70467	13.39301	16.24654	1.16592	0.85769	181.23563	171.79924	68.43321	0.32418	 	1.02493E14	 	3.68176E-14	 	-9538.9207	28.9734	 
495.0	1.0	0.0	8.41139	7.11518	-10.72525	13.36887	16.18815	1.16256	0.86017	181.51882	171.94203	68.54679	0.32405	 	1.3444099999999998E14	 	2.78869E-14	 	-9683.53442	28.92274	 
490.0	1.0	0.0	8.41332	7.11355	-10.74578	13.34472	16.12973	1.15917	0.86268	181.80156	172.08424	68.66023	0.32392	 	1.76976E14	 	2.10466E-14	 	-9827.89598	28.87231	 
485.0	1.0	0.0	8.41525	7.11191	-10.76624	13.32056	16.07128	1.15577	0.86523	182.08385	172.22586	68.77351	0.32379	 	2.33815E14	 	1.5826E-14	 	-9972.00657	28.82212	 
480.0	1.0	0.0	8.41718	7.11029	-10.78664	13.29639	16.0128	1.15234	0.8678	182.36569	172.36688	68.88664	0.32367	 	3.10052E14	 	1.18559E-14	 	-10115.86733	28.77215	 
475.0	1.0	0.0	8.41909	7.10867	-10.80697	13.27222	15.95429	1.14889	0.87041	182.64708	172.50732	68.99962	0.32354	 	4.12701E14	 	8.84789E-15	 	-10259.47943	28.72242	 
470.0	1.0	0.0	8.42101	7.10705	-10.82724	13.24803	15.89574	1.14541	0.87305	182.92803	172.64717	69.11245	0.32341	 	5.5145199999999994E14	 	6.57741E-15	 	-10402.84401	28.67292	 
465.0	1.0	0.0	8.42292	7.10544	-10.84745	13.22384	15.83717	1.14191	0.87572	183.20852	172.78644	69.22513	0.32328	 	7.39751E14	 	4.87019E-15	 	-10545.96223	28.62364	 
460.0	1.0	0.0	8.42482	7.10384	-10.8676	13.19965	15.77856	1.13839	0.87843	183.48856	172.92512	69.33766	0.32315	 	9.9633E14	 	3.5915E-15	 	-10688.83524	28.5746	 
455.0	1.0	0.0	8.42672	7.10224	-10.88769	13.17544	15.71992	1.13485	0.88118	183.76815	173.06322	69.45004	0.32302	 	1.3474E15	 	2.63761E-15	 	-10831.46416	28.52579	 
450.0	1.0	0.0	8.42861	7.10064	-10.90771	13.15123	15.66124	1.13128	0.88396	184.0473	173.20074	69.56227	0.3229	 	1.8298E15	 	1.92891E-15	 	-10973.85015	28.4772	 
445.0	1.0	0.0	8.4305	7.09905	-10.92767	13.127	15.60253	1.12768	0.88678	184.32599	173.33768	69.67435	0.32277	 	2.49552E15	 	1.40456E-15	 	-11115.99433	28.42884	 
440.0	1.0	0.0	8.43239	7.09746	-10.94757	13.10278	15.54378	1.12406	0.88963	184.60424	173.47404	69.78628	0.32264	 	3.41828E15	 	1.01826E-15	 	-11257.89783	28.3807	 
435.0	1.0	0.0	8.43426	7.09588	-10.9674	13.07854	15.48499	1.12042	0.89252	184.88203	173.60982	69.89806	0.32251	 	4.70309E15	 	7.349E-16	 	-11399.56178	28.33279	 
430.0	1.0	0.0	8.43614	7.09431	-10.98717	13.05429	15.42617	1.11675	0.89546	185.15937	173.74503	70.00968	0.32238	 	6.50026E15	 	5.27963E-16	 	-11540.9873	28.2851	 
425.0	1.0	0.0	8.43801	7.09274	-11.00688	13.03004	15.36731	1.11306	0.89843	185.43627	173.87966	70.12116	0.32226	 	9.02591E15	 	3.77524E-16	 	-11682.17534	28.23761	 
420.0	1.0	0.0	8.43987	7.09117	-11.02652	13.00578	15.30841	1.10934	0.90144	185.71271	174.01372	70.23249	0.32213	 	1.25924E16	 	2.68662E-16	 	-11823.12726	28.19038	 
415.0	1.0	0.0	8.44173	7.08961	-11.0461	12.98152	15.24947	1.10559	0.90449	185.98871	174.14721	70.34366	0.322	 	1.7653300000000002E16	 	1.90258E-16	 	-11963.84351	28.14325	 
410.0	1.0	0.0	8.44358	7.08805	-11.06562	12.95724	15.19049	1.10182	0.90759	186.26425	174.28013	70.45468	0.32187	 	2.4871E16	 	1.34063E-16	 	-12104.32428	28.09615	 
405.0	1.0	0.0	8.44543	7.0865	-11.08508	12.93296	15.13147	1.09802	0.91073	186.53935	174.41248	70.56556	0.32175	 	3.5217200000000004E16	 	9.39849E-17	 	-12244.56974	28.04909	 
400.0	1.0	0.0	8.44727	7.08496	-11.10447	12.90867	15.0724	1.0942	0.91391	186.81399	174.54426	70.67628	0.32162	 	5.01256E16	 	6.55449E-17	 	-12384.58008	28.00207	 
395.0	1.0	0.0	8.44911	7.08342	-11.1238	12.88437	15.01329	1.09035	0.91714	187.08819	174.67547	70.78685	0.32149	 	7.1723200000000008E16	 	4.54675E-17	 	-12524.35546	27.95508	 
390.0	1.0	0.0	8.45094	7.08188	-11.14307	12.86006	14.95414	1.08647	0.92041	187.36193	174.80612	70.89727	0.32136	 	1.03183E17	 	3.13684E-17	 	-12663.89605	27.90812	 
385.0	1.0	0.0	8.45277	7.08035	-11.16227	12.83575	14.89494	1.08256	0.92374	187.63523	174.9362	71.00753	0.32123	 	1.49263E17	 	2.15208E-17	 	-12803.20201	27.86119	 
380.0	1.0	0.0	8.45459	7.07883	-11.18141	12.81142	14.83569	1.07863	0.9271	187.90807	175.06573	71.11765	0.32111	 	2.17147E17	 	1.46807E-17	 	-12942.27349	27.81429	 
375.0	1.0	0.0	8.4564	7.07731	-11.20049	12.7871	14.7764	1.07466	0.93052	188.18047	175.19469	71.22762	0.32098	 	3.17736E17	 	9.95625E-18	 	-13081.11062	27.76743	 
370.0	1.0	0.0	8.45821	7.07579	-11.2195	12.76276	14.71706	1.07067	0.93399	188.45241	175.32309	71.33743	0.32085	 	4.67681E17	 	6.71196E-18	 	-13219.71356	27.72059	 
365.0	1.0	0.0	8.46002	7.07428	-11.23845	12.73841	14.65766	1.06666	0.93751	188.7239	175.45093	71.44709	0.32072	 	6.92571E17	 	4.49723E-18	 	-13358.08241	27.67377	 
360.0	1.0	0.0	8.46182	7.07277	-11.25734	12.71406	14.59822	1.06261	0.94108	188.99495	175.57821	71.5566	0.3206	 	1.03198E18	 	2.99448E-18	 	-13496.21732	27.62698	 
355.0	1.0	0.0	8.46362	7.07127	-11.27617	12.6897	14.53872	1.05853	0.94471	189.26554	175.70494	71.66596	0.32047	 	1.54752E18	 	1.98114E-18	 	-13634.11838	27.58021	 
350.0	1.0	0.0	8.46541	7.06978	-11.29493	12.66533	14.47917	1.05442	0.94839	189.53569	175.83111	71.77517	0.32034	 	2.33574E18	 	1.30213E-18	 	-13771.78571	27.53347	 
345.0	1.0	0.0	8.46719	7.06829	-11.31362	12.64096	14.41957	1.05029	0.95212	189.80538	175.95672	71.88422	0.32022	 	3.54899E18	 	8.50111E-19	 	-13909.2194	27.48674	 
340.0	1.0	0.0	8.46897	7.0668	-11.33226	12.61657	14.35991	1.04612	0.95591	190.07462	176.08179	71.99313	0.32009	 	5.42936E18	 	5.51194E-19	 	-14046.41953	27.44003	 
335.0	1.0	0.0	8.47074	7.06532	-11.35083	12.59218	14.30019	1.04192	0.95977	190.34342	176.2063	72.10188	0.31996	 	8.36429E18	 	3.54869E-19	 	-14183.38617	27.39333	 
330.0	1.0	0.0	8.47251	7.06385	-11.36933	12.56778	14.24041	1.03769	0.96368	190.61176	176.33026	72.21048	0.31983	 	1.29784E19	 	2.26825E-19	 	-14320.1194	27.34665	 
325.0	1.0	0.0	8.47428	7.06238	-11.38778	12.54337	14.18057	1.03343	0.96765	190.87965	176.45367	72.31892	0.31971	 	2.02863E19	 	1.43911E-19	 	-14456.61928	27.29998	 
320.0	1.0	0.0	8.47603	7.06091	-11.40616	12.51896	14.12067	1.02914	0.97168	191.14709	176.57654	72.42722	0.31958	 	3.19487E19	 	9.06145E-20	 	-14592.88584	27.25331	 
315.0	1.0	0.0	8.47779	7.05945	-11.42447	12.49454	14.0607	1.02482	0.97578	191.41408	176.69886	72.53536	0.31945	 	5.0706E19	 	5.6613E-20	 	-14728.91912	27.20666	 
310.0	1.0	0.0	8.47953	7.058	-11.44272	12.47011	14.00067	1.02046	0.97995	191.68063	176.82063	72.64335	0.31933	 	8.11156E19	 	3.50883E-20	 	-14864.71915	27.16	 
305.0	1.0	0.0	8.48128	7.05655	-11.46091	12.44567	13.94057	1.01608	0.98418	191.94672	176.94186	72.75119	0.3192	 	1.3082199999999998E20	 	2.15699E-20	 	-15000.28591	27.11335	 
300.0	1.0	0.0	8.48301	7.0551	-11.47904	12.42122	13.8804	1.01165	0.98848	192.21236	177.06255	72.85888	0.31907	 	2.1275299999999997E20	 	1.31486E-20	 	-15135.61943	27.0667	 
295.0	1.0	0.0	8.48474	7.05367	-11.4971	12.39677	13.82017	1.0072	0.99285	192.47755	177.18269	72.96641	0.31895	 	3.4897099999999997E20	 	7.94622E-21	 	-15270.71968	27.02005	 
290.0	1.0	0.0	8.48647	7.05223	-11.5151	12.37231	13.75985	1.00271	0.9973	192.74228	177.30229	73.07379	0.31882	 	5.7745699999999997E20	 	4.75983E-21	 	-15405.58663	26.97339	 
285.0	1.0	0.0	8.48819	7.0508	-11.53303	12.34784	13.69947	0.99819	1.00181	193.00657	177.42136	73.18102	0.31869	 	9.642019999999999E20	 	2.82533E-21	 	-15540.22023	26.92672	 
280.0	1.0	0.0	8.48991	7.04938	-11.5509	12.32337	13.63901	0.99363	1.00641	193.27041	177.53988	73.2881	0.31857	 	1.62496E21	 	1.66145E-21	 	-15674.62042	26.88004	 
275.0	1.0	0.0	8.49162	7.04796	-11.56871	12.29888	13.57846	0.98904	1.01108	193.5338	177.65787	73.39502	0.31844	 	2.76472E21	 	9.67687E-22	 	-15808.78712	26.83334	 
270.0	1.0	0.0	8.49332	7.04654	-11.58645	12.27439	13.51784	0.98442	1.01583	193.79673	177.77532	73.50179	0.31831	 	4.75018E21	 	5.5808E-22	 	-15942.72025	26.78663	 
265.0	1.0	0.0	8.49502	7.04514	-11.60413	12.24989	13.45713	0.97975	1.02066	194.05922	177.89224	73.60841	0.31819	 	8.24397E21	 	3.18606E-22	 	-16076.41969	26.73989	 
260.0	1.0	0.0	8.49671	7.04373	-11.62174	12.22538	13.39634	0.97506	1.02558	194.32126	178.00862	73.71487	0.31806	 	1.4456199999999999E22	 	1.80004E-22	 	-16209.88531	26.69312	 
255.0	1.0	0.0	8.4984	7.04233	-11.63929	12.20087	13.33546	0.97032	1.03059	194.58284	178.12448	73.82118	0.31793	 	2.56206E22	 	1.00613E-22	 	-16343.11697	26.64633	 
250.0	1.0	0.0	8.50008	7.04094	-11.65678	12.17634	13.27449	0.96555	1.03568	194.84397	178.2398	73.92734	0.31781	 	4.5906699999999995E22	 	5.56208E-23	 	-16476.11448	26.5995	 
245.0	1.0	0.0	8.50176	7.03955	-11.6742	12.15181	13.21343	0.96074	1.04086	195.10466	178.35459	74.03335	0.31768	 	8.318599999999999E22	 	3.04013E-23	 	-16608.87768	26.55264	 
240.0	1.0	0.0	8.50343	7.03817	-11.69156	12.12728	13.15226	0.95589	1.04614	195.36489	178.46885	74.1392	0.31755	 	1.5249499999999998E23	 	1.64238E-23	 	-16741.40633	26.50573	 
235.0	1.0	0.0	8.50509	7.03679	-11.70885	12.10273	13.091	0.95101	1.05151	195.62467	178.58258	74.2449	0.31743	 	2.8290599999999996E23	 	8.76671E-24	 	-16873.70021	26.45877	 
230.0	1.0	0.0	8.50675	7.03542	-11.72609	12.07818	13.02964	0.94609	1.05699	195.884	178.69579	74.35044	0.3173	 	5.3132599999999995E23	 	4.62192E-24	 	-17005.75906	26.41177	 
225.0	1.0	0.0	8.50841	7.03405	-11.74325	12.05361	12.96817	0.94113	1.06256	196.14288	178.80847	74.45583	0.31718	 	1.0105900000000001E24	 	2.40586E-24	 	-17137.58259	26.36471	 
220.0	1.0	0.0	8.51006	7.03268	-11.76035	12.02904	12.9066	0.93612	1.06823	196.40131	178.92063	74.56107	0.31705	 	1.94739E24	 	1.23599E-24	 	-17269.1705	26.31758	 
215.0	1.0	0.0	8.5117	7.03133	-11.77739	12.00447	12.84491	0.93108	1.07402	196.65928	179.03226	74.66616	0.31692	 	3.80333E24	 	6.26435E-25	 	-17400.52244	26.27039	 
210.0	1.0	0.0	8.51334	7.02997	-11.79436	11.97988	12.78311	0.926	1.07991	196.91681	179.14337	74.77109	0.3168	 	7.5317E24	 	3.13095E-25	 	-17531.63805	26.22312	 
205.0	1.0	0.0	8.51497	7.02863	-11.81127	11.95529	12.72118	0.92088	1.08592	197.17388	179.25396	74.87587	0.31667	 	1.51296E25	 	1.54249E-25	 	-17662.51691	26.17577	 
200.0	1.0	0.0	8.5166	7.02728	-11.82812	11.93069	12.65914	0.91572	1.09204	197.43051	179.36403	74.98049	0.31655	 	3.0843600000000003E25	 	7.48721E-26	 	-17793.1586	26.12834	 
195.0	1.0	0.0	8.51822	7.02595	-11.8449	11.90608	12.59696	0.91051	1.09828	197.68668	179.47358	75.08496	0.31642	 	6.38426E25	 	3.579E-26	 	-17923.56266	26.08081	 
190.0	1.0	0.0	8.51984	7.02461	-11.86162	11.88147	12.53466	0.90526	1.10465	197.9424	179.58261	75.18928	0.31629	 	1.3423800000000002E26	 	1.68396E-26	 	-18053.72858	26.03318	 
185.0	1.0	0.0	8.52145	7.02329	-11.87827	11.85684	12.47222	0.89997	1.11114	198.19767	179.69113	75.29344	0.31617	 	2.8687200000000003E26	 	7.79481E-27	 	-18183.65581	25.98545	 
180.0	1.0	0.0	8.52305	7.02196	-11.89486	11.83221	12.40964	0.89464	1.11777	198.45249	179.79913	75.39745	0.31604	 	6.23417E26	 	3.54773E-27	 	-18313.34378	25.93759	 
175.0	1.0	0.0	8.52465	7.02065	-11.91138	11.80757	12.34691	0.88926	1.12452	198.70685	179.90662	75.50131	0.31592	 	1.3784499999999998E27	 	1.58679E-27	 	-18442.79186	25.88962	 
170.0	1.0	0.0	8.52624	7.01934	-11.92784	11.78293	12.28404	0.88384	1.13142	198.96077	180.01359	75.60501	0.31579	 	3.1029799999999996E27	 	6.97042E-28	 	-18571.99936	25.8415	 
165.0	1.0	0.0	8.52783	7.01803	-11.94423	11.75827	12.221	0.87838	1.13846	199.21423	180.12006	75.70855	0.31567	 	7.11556E27	 	3.00539E-28	 	-18700.9656	25.79325	 
160.0	1.0	0.0	8.52941	7.01673	-11.96056	11.73361	12.15781	0.87287	1.14565	199.46725	180.22601	75.81194	0.31554	 	1.66326E28	 	1.27105E-28	 	-18829.68978	25.74484	 
155.0	1.0	0.0	8.53099	7.01543	-11.97683	11.70894	12.09445	0.86731	1.15299	199.71981	180.33145	75.91518	0.31541	 	3.96575E28	 	5.26935E-29	 	-18958.17109	25.69626	 
150.0	1.0	0.0	8.53256	7.01414	-11.99303	11.68426	12.03092	0.86171	1.16048	199.97192	180.43638	76.01826	0.31529	 	9.6518E28	 	2.1398E-29	 	-19086.40865	25.64751	 
145.0	1.0	0.0	8.53412	7.01285	-12.00916	11.65958	11.96721	0.85606	1.16814	200.22358	180.5408	76.12119	0.31516	 	2.3995400000000003E29	 	8.50531E-30	 	-19214.40152	25.59857	 
140.0	1.0	0.0	8.53568	7.01157	-12.02523	11.63488	11.90331	0.85037	1.17596	200.47478	180.64472	76.22397	0.31504	 	6.09849E29	 	3.30653E-30	 	-19342.14869	25.54943	 
135.0	1.0	0.0	8.53723	7.0103	-12.04124	11.61018	11.83922	0.84462	1.18396	200.72554	180.74813	76.32659	0.31491	 	1.58577E30	 	1.25622E-30	 	-19469.64911	25.50008	 
130.0	1.0	0.0	8.53878	7.00903	-12.05718	11.58548	11.77492	0.83883	1.19213	200.97584	180.85103	76.42905	0.31479	 	4.2223499999999997E30	 	4.66014E-31	 	-19596.90162	25.4505	 
125.0	1.0	0.0	8.54032	7.00776	-12.07306	11.56076	11.71042	0.83299	1.20049	201.22569	180.95344	76.53136	0.31466	 	1.1522599999999999E31	 	1.68649E-31	 	-19723.90501	25.40068	 
120.0	1.0	0.0	8.54186	7.0065	-12.08887	11.53604	11.6457	0.8271	1.20904	201.47509	181.05534	76.63352	0.31454	 	3.22578E31	 	5.94853E-32	 	-19850.658	25.3506	 
115.0	1.0	0.0	8.54339	7.00525	-12.10462	11.5113	11.58076	0.82116	1.21779	201.72404	181.15673	76.73552	0.31441	 	9.2734E31	 	2.0429E-32	 	-19977.15917	25.30023	 
110.0	1.0	0.0	8.54491	7.004	-12.1203	11.48656	11.51558	0.81517	1.22674	201.97253	181.25763	76.83736	0.31429	 	2.74039E32	 	6.82407E-33	 	-20103.40707	25.24958	 
105.0	1.0	0.0	8.54643	7.00275	-12.13592	11.46182	11.45015	0.80913	1.23589	202.22058	181.35803	76.93905	0.31416	 	8.33353E32	 	2.21474E-33	 	-20229.40012	25.19861	 
100.0	1.0	0.0	8.54795	7.00151	-12.15147	11.43706	11.38448	0.80304	1.24527	202.46817	181.45793	77.04059	0.31404	 	2.6109E33	 	6.97557E-34	 	-20355.13664	25.1473	 
95.0	1.0	0.0	8.54945	7.00028	-12.16696	11.4123	11.31853	0.79689	1.25487	202.71531	181.55733	77.14197	0.31391	 	8.43768E33	 	2.12955E-34	 	-20480.61485	25.09564	 
90.0	1.0	0.0	8.55096	6.99905	-12.18238	11.38753	11.25231	0.7907	1.26471	202.962	181.65624	77.24319	0.31379	 	2.81634E34	 	6.29344E-35	 	-20605.83282	25.0436	 
85.0	1.0	0.0	8.55245	6.99782	-12.19774	11.36275	11.18579	0.78445	1.27478	203.20823	181.75465	77.34426	0.31366	 	9.72213E34	 	1.798E-35	 	-20730.78854	24.99114	 
80.0	1.0	0.0	8.55394	6.99661	-12.21303	11.33796	11.11897	0.77815	1.28511	203.45402	181.85256	77.44518	0.31354	 	3.47596E35	 	4.95874E-36	 	-20855.47983	24.93826	 
75.0	1.0	0.0	8.55542	6.99539	-12.22826	11.31317	11.05184	0.77179	1.29569	203.69935	181.94999	77.54594	0.31341	 	1.2890799999999999E36	 	1.31817E-36	 	-20979.90436	24.88491	 
70.0	1.0	0.0	8.5569	6.99418	-12.24342	11.28837	10.98437	0.76538	1.30655	203.94423	182.04692	77.64654	0.31329	 	4.9667799999999996E36	 	3.37206E-37	 	-21104.05967	24.83106	 
65.0	1.0	0.0	8.55838	6.99298	-12.25852	11.26356	10.91656	0.75891	1.31768	204.18865	182.14336	77.74699	0.31316	 	1.9915599999999998E37	 	8.28711E-38	 	-21227.94312	24.77669	 
60.0	1.0	0.0	8.55984	6.99178	-12.27355	11.23874	10.84838	0.75239	1.3291	204.43263	182.23931	77.84728	0.31304	 	8.325569999999999E37	 	1.95305E-38	 	-21351.55187	24.72175	 
55.0	1.0	0.0	8.5613	6.99059	-12.28852	11.21392	10.77983	0.74581	1.34083	204.67615	182.33477	77.94741	0.31291	 	3.63552E38	 	4.40548E-39	 	-21474.8829	24.66621	 
50.0	1.0	0.0	8.56276	6.9894	-12.30342	11.18909	10.71087	0.73917	1.35286	204.91922	182.42974	78.04739	0.31279	 	1.6616100000000002E39	 	9.49212E-40	 	-21597.93301	24.61002	 
45.0	1.0	0.0	8.56421	6.98822	-12.31826	11.16425	10.64148	0.73248	1.36522	205.16184	182.52422	78.14722	0.31266	 	7.96587E39	 	1.94933E-40	 	-21720.69872	24.55314	 
40.0	1.0	0.0	8.56565	6.98704	-12.33303	11.1394	10.57166	0.72573	1.37792	205.404	182.61822	78.24689	0.31254	 	4.01491E40	 	3.80682E-41	 	-21843.17634	24.49552	 
35.0	1.0	0.0	8.56709	6.98587	-12.34774	11.11454	10.50137	0.71892	1.39097	205.64571	182.71173	78.3464	0.31241	 	2.13263E41	 	7.05235E-42	 	-21965.3619	24.43711	 
30.0	1.0	0.0	8.56852	6.9847	-12.36238	11.08968	10.43059	0.71206	1.40438	205.88697	182.80476	78.44575	0.31229	 	1.19695E42	 	1.23614E-42	 	-22087.25116	24.37785	 
25.0	1.0	0.0	8.56994	6.98354	-12.37696	 	10.35929	0.70513	1.41817	206.12778	182.8973	78.54495	0.31216	 	7.11812E42	 	2.04435E-43	 	-22208.83956	 	 
