T (C)	Fraction solid (wt)-TOTAL	Fraction liquid (wt)-LIQUID	Density (g/(cm)^3)-TOTAL	Molar volume (cm^3)-TOTAL	Volume change (%)-  	Average expansion coeff. (10e-6 1/K)-  	Thermal conductivity (W/(m*K))-TOTAL	Electrical resistivity (10e-6 Ohm*m)-TOTAL	Electrical conductivity (10e6 1/(Ohm*m))-TOTAL	Young's modulus (GPa)-TOTAL	Bulk modulus (GPa)-TOTAL	Shear modulus(GPa)-TOTAL	Poisson's ratio-TOTAL	Liquid viscosity (mPa s)-  	Total viscosity (mPa s)-  	Liquid diffusivity (10e-9 (m^2)/s)-  	Total diffusivity (10e-9 (m^2)/s)-  	Surface Tension (mN/m)-  	Enthalpy (J/mole)-TOTAL	Specific heat (J/(mole K))-TOTAL	Latent heat (J/mole)-TOTAL
1400.0	0.0	1.0	7.47759	7.98468	0.0	32.63553	29.97064	1.36774	0.73113	0.0	122.23217	0.0	0.5	7.23102	7.23102	1.12933	1.12933	1776.89572	40674.199	 	0.0
1395.0	0.0	1.0	7.48172	7.98027	-0.0552239	32.60218	29.88739	1.36746	0.73129	0.0	122.36904	0.0	0.5	7.3098	7.3098	1.11382	1.11382	1780.13349	40472.568	40.3262	0.0
1390.0	0.0	1.0	7.48584	7.97587	-0.11029	32.56903	29.80414	1.36716	0.73144	0.0	122.5059	0.0	0.5	7.38992	7.38992	1.09845	1.09845	1783.42013	40271.393	40.235	0.0
1385.0	0.0	1.0	7.48996	7.97149	-0.1652	32.53606	29.7209	1.36687	0.7316	0.0	122.64277	0.0	0.5	7.47141	7.47141	1.0832	1.0832	1786.75623	40070.671	40.1444	0.0
1380.0	0.0	1.0	7.49407	7.96711	-0.21996	32.50329	29.63765	1.36658	0.73175	0.0	122.77964	0.0	0.5	7.55429	7.55429	1.06808	1.06808	1790.14235	39870.402	40.0538	0.0
1375.0	0.0	1.0	7.49817	7.96275	-0.27456	32.47071	29.5544	1.36628	0.73191	0.0	122.9165	0.0	0.5	7.63861	7.63861	1.0531	1.0531	1793.57901	39670.581	39.9642	0.0
1370.0	0.0	1.0	7.50227	7.95841	-0.329	32.43833	29.47115	1.36599	0.73207	0.0	123.05337	0.0	0.5	7.72439	7.72439	1.03824	1.03824	1797.0667	39471.206	39.875	0.0
1365.0	0.0	1.0	7.50636	7.95407	-0.38328	32.40615	29.38791	1.36569	0.73223	0.0	123.19024	0.0	0.5	7.81167	7.81167	1.02352	1.02352	1800.60589	39272.275	39.7862	0.0
1360.0	0.0	1.0	7.51044	7.94975	-0.43741	32.37417	29.30466	1.36539	0.73239	0.0	123.3271	0.0	0.5	7.90048	7.90048	1.00893	1.00893	1804.197	39073.785	39.698	0.0
1355.0	0.0	1.0	7.51451	7.94544	-0.49139	32.3424	29.22141	1.36508	0.73256	0.0	123.46397	0.0	0.5	7.99085	7.99085	0.99446	0.99446	1807.84043	38875.733	39.6104	0.0
1350.0	0.0	1.0	7.51858	7.94114	-0.5452	32.31083	29.13816	1.36478	0.73272	0.0	123.60084	0.0	0.5	8.08282	8.08282	0.98013	0.98013	1811.53653	38678.117	39.5232	0.0
1345.0	0.0	1.0	7.52264	7.93686	-0.59886	32.27947	29.05491	1.36447	0.73288	0.0	123.7377	0.0	0.5	8.17643	8.17643	0.96592	0.96592	1815.28563	38480.935	39.4364	0.0
1340.0	0.0	1.0	7.52669	7.93259	-0.65237	32.24832	28.97167	1.36417	0.73305	0.0	123.87457	0.0	0.5	8.27171	8.27171	0.95184	0.95184	1819.08799	38284.184	39.3502	0.0
1335.0	0.0	1.0	7.53073	7.92833	-0.70572	32.21739	28.88842	1.36386	0.73321	0.0	124.01143	0.0	0.5	8.36871	8.36871	0.9379	0.9379	1822.94385	38087.862	39.2644	0.0
1330.0	0.0	1.0	7.53477	7.92408	-0.75891	32.18667	28.80517	1.36355	0.73338	0.0	124.1483	0.0	0.5	8.46745	8.46745	0.92408	0.92408	1826.85341	37891.965	39.1794	0.0
1325.82	0.0	1.0	7.53814	7.92054	-0.80325	32.16116	28.73558	1.36328	0.73352	0.0	124.26271	0.0	0.5	8.55138	8.55138	0.91262	0.91262	1830.16281	37728.546	39.0991	0.0
1325.0	0.02035	0.97965	7.54459	7.91376	-0.88815	31.93447	28.78983	1.36002	0.73528	1.6775E-5	124.73201	5.60122E-6	0.49745	8.56799	8.80724	0.91039	0.88565	1829.91747	37407.756	391.02134	288.733
1320.0	0.13803	0.86197	7.58201	7.87463	-1.37822	30.6265	29.10743	1.34097	0.74573	0.0363105	127.40376	0.0122461	0.48254	8.67218	20.72812	0.89663	0.37513	1828.48052	35553.749	370.8014	1947.688
1315.0	0.23799	0.76201	7.61431	7.84124	-1.79639	29.51921	29.37517	1.32458	0.75496	0.3273	129.67759	0.11135	0.46971	8.78039	108.67972	0.8828	0.071323	1827.10509	33961.797	318.3904	3345.009
1310.0	0.32346	0.67654	7.64239	7.81246	-2.1568	28.57329	29.60213	1.31028	0.76319	1.13599	131.62817	0.38941	0.4586	8.89266	363.11277	0.86891	0.0212798	1825.79181	32583.985	275.5624	4528.605
1305.0	0.39699	0.60301	7.66691	7.78749	-2.46961	27.76063	29.79462	1.29771	0.77059	2.61623	133.31621	0.90281	0.44893	9.00902	855.81286	0.85498	0.00900028	1824.54014	31382.287	240.3396	5536.502
1300.0	0.46063	0.53937	7.68849	7.76561	-2.74365	27.05661	29.95801	1.28654	0.77728	4.8048	134.78945	1.66778	0.44048	9.12948	1632.67584	0.84103	0.0047028	1823.34973	30326.312	211.195	6399.086
1295.0	0.51597	0.48403	7.70757	7.74633	-2.98507	26.44417	30.09578	1.27658	0.78334	7.65478	136.08599	2.67081	0.43304	9.25412	2718.24678	0.82706	0.00281569	1822.21926	29391.613	186.9398	7140.806
1290.0	0.56435	0.43565	7.72455	7.72924	-3.19912	25.90872	30.21119	1.26765	0.78886	11.07199	137.23627	3.88087	0.42648	9.38305	4122.70028	0.8131	0.00185057	1821.14747	28558.401	166.6424	7781.445
1285.0	0.60682	0.39318	7.73974	7.71403	-3.38953	25.44	30.30677	1.25961	0.7939	14.94385	138.26541	5.25943	0.42067	9.51633	5848.52174	0.79915	0.00130032	1820.13199	27810.558	149.5686	8337.119
1280.0	0.64427	0.35573	7.75338	7.70038	-3.56048	25.0262	30.38462	1.25235	0.7985	19.15561	139.19215	6.76637	0.4155	9.65406	7894.00215	0.78522	9.60291E-4	1819.17234	27134.89	135.1336	8821.023
1275.0	0.6774	0.3226	7.7657	7.68806	-3.71485	24.65922	30.44684	1.24577	0.80272	23.6008	140.03265	8.36387	0.41088	9.79624	10256.69229	0.77133	7.36703E-4	1818.26715	26520.529	122.8722	9244.019
1270.0	0.70682	0.29318	7.77688	7.67689	-3.85475	24.33328	30.49489	1.23979	0.80659	28.1865	140.80026	10.0184	0.40674	9.94303	12935.48681	0.75749	5.82253E-4	1817.41441	25958.484	112.409	9615.097
1265.0	0.73305	0.26695	7.78707	7.66671	-3.98216	24.04276	30.53056	1.23433	0.81016	32.83533	141.50626	11.70175	0.40301	10.09453	15931.6809	0.7437	4.7122E-4	1816.61264	25441.276	103.4416	9941.735
1260.0	0.75649	0.24351	7.79641	7.6574	-4.09886	23.78273	30.55509	1.22933	0.81345	37.4835	142.15927	13.39035	0.39965	10.2508	19249.19904	0.72998	3.8874E-4	1815.86074	24962.656	95.724	10230.181
1255.0	0.77752	0.22248	7.80499	7.64879	-4.2066	23.54813	30.56961	1.22474	0.8165	42.0826	142.76635	15.06612	0.3966	10.41187	22895.91963	0.71635	3.25758E-4	1815.15849	24517.378	89.0556	10485.674
1250.0	0.79641	0.20359	7.81292	7.64088	-4.30576	23.33809	30.57522	1.2205	0.81933	46.59309	143.33484	16.71405	0.39383	10.57805	26882.97511	0.70279	2.76536E-4	1814.50247	24101.021	83.2714	10712.635
1245.0	0.81345	0.18655	7.82025	7.63352	-4.39793	23.148	30.5728	1.21659	0.82197	50.98412	143.86878	18.32234	0.39131	10.74915	31222.98859	0.68933	2.37316E-4	1813.89357	23709.843	78.2356	10914.805
1240.0	0.82884	0.17116	7.82708	7.62666	-4.48383	22.97587	30.56325	1.21297	0.82443	55.24133	144.3734	19.88519	0.38901	10.92555	35937.93756	0.67597	2.05502E-4	1813.33001	23340.662	73.8362	11095.363
1235.0	0.84278	0.15722	7.83347	7.62023	-4.56429	22.81934	30.54726	1.20959	0.82673	59.34805	144.85199	21.39601	0.3869	11.10732	41048.12611	0.66271	1.79324E-4	1812.81165	22990.767	69.979	11257.018
1230.0	0.85545	0.14455	7.83944	7.61421	-4.63978	22.67708	30.5255	1.20644	0.82889	63.29658	145.30803	22.85147	0.38496	11.29447	46580.3091	0.64957	1.57502E-4	1812.33711	22657.834	66.5866	11402.091
1225.0	0.86697	0.13303	7.84507	7.60851	-4.71109	22.54682	30.49862	1.20349	0.83092	67.08541	145.74406	24.25064	0.38317	11.48715	52566.2238	0.63655	1.39103E-4	1811.90684	22339.868	63.5932	11532.576
1220.0	0.87748	0.12252	7.85038	7.60313	-4.77843	22.42801	30.46695	1.20072	0.83284	70.7083	146.16236	25.5908	0.38152	11.68564	59036.73647	0.62365	1.23443E-4	1811.51961	22035.148	60.944	11650.192
1215.0	0.88708	0.11292	7.8554	7.59803	-4.84237	22.31904	30.43109	1.19811	0.83465	74.17076	146.56502	26.87368	0.37999	11.88993	66033.3663	0.61088	1.09994E-4	1811.17553	21742.188	58.592	11756.423
1211.4	0.89343	0.10657	7.85885	7.59452	-4.8863	22.24666	30.40266	1.19633	0.83589	76.5468	146.84545	27.75517	0.37896	12.04043	71400.57979	0.60178	1.0148E-4	1810.95092	21538.553	 	11825.988
1210.0	0.89617	0.10383	7.8602	7.59312	-4.90381	22.21712	30.39267	1.19559	0.83641	77.58849	146.96338	28.14187	0.37852	12.10281	73703.21007	0.59812	9.82167E-5	1811.06581	21455.205	57.3966	11857.048
1205.0	0.90556	0.0944424	7.86405	7.58782	-4.9702	22.09847	30.32126	1.19437	0.83726	81.28606	147.39459	29.51662	0.37695	12.32929	82375.61476	0.58515	8.75803E-5	1813.87171	21133.88408	64.26418	11962.499
1200.0	0.91404	0.0859568	7.87572	7.57995	-5.06881	21.87511	29.93946	1.20551	0.82953	85.53399	148.10251	31.11085	0.37466	12.56222	93619.50239	0.57236	7.68011E-5	1816.6922	20615.10998	103.75482	12056.774
1195.0	0.92176	0.0782442	7.88661	7.57218	-5.16614	21.65397	29.57475	1.21623	0.82221	89.57355	148.77306	32.63059	0.37254	12.80166	106027.4387	0.55975	6.75832E-5	1819.52945	20116.53947	99.7141	12141.265
1190.0	0.92877	0.0712344	7.89678	7.56454	-5.26173	21.43658	29.22674	1.22652	0.81531	93.41181	149.41044	34.07785	0.37057	13.04791	119715.9369	0.54731	5.96518E-5	1822.38158	19636.40684	96.02653	12217.161
1185.0	0.93516	0.0648445	7.90627	7.55705	-5.35555	21.2231	28.89449	1.23638	0.80881	97.05663	150.01782	35.45504	0.36873	13.30099	134813.3035	0.53506	5.27905E-5	1825.24985	19173.15627	92.65011	12285.485
1180.0	0.94099	0.0590083	7.91513	7.54972	-5.44743	21.01408	28.57692	1.24584	0.80267	100.51729	150.59795	36.76518	0.36702	13.56117	151462.363	0.523	4.68266E-5	1828.13428	18725.40511	89.55023	12347.117
1175.0	0.94633	0.0536665	7.9234	7.54254	-5.53734	20.80977	28.2731	1.25489	0.79688	103.80351	151.15332	38.01153	0.36542	13.82857	169822.9318	0.51112	4.16202E-5	1831.03506	18291.92424	86.69617	12402.82
1170.0	0.95093	0.0490745	7.93108	7.5356	-5.62425	20.61357	27.97753	1.26377	0.79128	106.79953	151.6858	39.15027	0.36397	14.11687	189864.5873	0.49895	3.70983E-5	1833.95401	17871.72753	84.03934	12453.14
1165.0	0.95506	0.0449375	7.93822	7.52885	-5.7087	20.42379	27.6926	1.27235	0.78595	109.6125	152.1979	40.2212	0.36262	14.42173	211907.1413	0.48671	3.31242E-5	1836.8892	17462.63488	81.81853	12499.852
1160.0	0.95889	0.041108	7.94492	7.52228	-5.791	20.23954	27.42045	1.28051	0.78094	112.29113	152.68934	41.2424	0.36136	14.73387	236226.4628	0.47475	2.96108E-5	1839.84192	17064.82751	79.56147	12542.39
1155.0	0.96244	0.0375556	7.95122	7.51588	-5.87122	20.06061	27.1602	1.28827	0.77623	114.84466	153.16223	42.21714	0.36017	15.0536	263063.5564	0.46304	2.64972E-5	1842.81232	16677.51176	77.46315	12581.197
1150.0	0.96575	0.0342539	7.95714	7.50964	-5.94931	19.88723	26.91103	1.29565	0.77182	117.27967	153.61839	43.14772	0.35905	15.38114	292681.5066	0.45159	2.37324E-5	1845.79853	16299.97039	75.50827	12616.658
1145.0	0.96882	0.0311829	7.96274	7.50356	-6.02551	19.71868	26.67221	1.30265	0.76766	119.60338	154.05933	44.03676	0.35799	15.71669	325373.5419	0.4404	2.12729E-5	1848.80386	15931.55462	73.68315	12649.115
1140.0	0.97168	0.0283194	7.96804	7.49763	-6.0998	19.55512	26.44304	1.30931	0.76376	121.82334	154.48657	44.88698	0.357	16.06048	361467.8302	0.42945	1.90812E-5	1851.82613	15571.67891	71.97514	12678.868
1135.0	0.97435	0.0256475	7.97307	7.49184	-6.1723	19.39617	26.22293	1.31563	0.76009	123.94501	154.90128	45.70034	0.35606	16.41279	401323.3218	0.41875	1.71254E-5	1854.86707	15219.81881	70.37202	12706.181
1130.0	0.97685	0.0231524	7.97786	7.48619	-6.24299	19.24199	26.01131	1.32162	0.75664	125.97331	155.30466	46.47861	0.35518	16.77392	445338.971	0.40828	1.5378E-5	1857.9243	14875.49503	68.86476	12731.286
1125.0	0.97941	0.020591	7.98242	7.4806	-6.31303	19.08865	25.80226	1.32758	0.75325	128.13053	155.74135	47.30592	0.35428	17.18911	494648.7515	0.397	1.37957E-5	1860.95599	14513.87747	72.32351	12778.793
1120.0	0.98167	0.0183259	7.98672	7.47524	-6.38018	18.9439	25.60087	1.33324	0.75005	130.12675	156.16236	48.07243	0.35344	17.61878	548876.3691	0.38593	1.23883E-5	1864.00356	14160.85142	70.60521	12822.608
1115.0	0.9838	0.0162025	7.99082	7.47002	-6.44561	18.80375	25.40823	1.33853	0.74709	132.02521	156.56715	48.80204	0.35266	18.04956	608760.477	0.37537	1.11295E-5	1867.07209	13818.24293	68.5217	12860.716
1110.0	0.98613	0.0138668	7.99477	7.4647	-6.51216	18.65841	25.22497	1.3434	0.74438	134.01053	156.96707	49.56484	0.35187	18.46447	675726.7827	0.36561	9.99045E-6	1870.16038	13483.30544	66.9875	12895.69
1105.0	0.98842	0.011583	7.99855	7.45944	-6.57803	18.51414	25.0489	1.34795	0.74187	135.95348	157.35801	50.31176	0.35111	18.87608	749999.5982	0.35635	8.96855E-6	1873.26835	13156.23425	65.41424	12927.18
1100.0	0.99062	0.00937711	8.00218	7.45425	-6.64304	18.37154	24.87929	1.35222	0.73953	137.84237	157.74061	51.03834	0.35038	19.28592	832316.3797	0.34751	8.05223E-6	1876.39617	12836.43231	63.96039	12955.639
1095.0	0.99273	0.00726891	8.00567	7.44914	-6.70705	18.23112	24.7156	1.35622	0.73735	139.66892	158.11541	51.7414	0.34968	19.69543	923502.9563	0.33904	7.23073E-6	1879.54228	12523.43224	62.60001	12981.4
1090.0	0.99473	0.00527151	8.00904	7.44411	-6.76999	18.0932	24.55738	1.35996	0.73531	141.42674	158.48275	52.41845	0.34902	20.1059	1024475.109	0.33091	6.49425E-6	1882.70811	12216.7474	61.33697	13004.73
1085.0	0.99661	0.00339267	8.01231	7.43918	-6.83177	17.95814	24.40431	1.36348	0.73342	143.11272	158.84299	53.06829	0.34838	20.51839	1136261.643	0.32307	5.83386E-6	1885.8929	11916.07972	60.13354	13025.85
1080.0	0.99836	0.00163582	8.01549	7.43435	-6.89227	17.82633	24.25593	1.36677	0.73165	144.7244	159.19638	53.68991	0.34778	20.93347	1260001.111	0.31549	5.24157E-6	1889.09511	11621.21849	58.97225	13044.953
1075.0	1.0	0.0	8.0186	7.42962	-6.95149	17.69793	24.11201	1.36984	0.73001	146.26151	159.54324	54.28319	0.34721	 	1396971.121	 	4.71018E-6	 	11331.89072	57.86555	13062.214
1070.0	1.0	0.0	8.02266	7.42585	-6.99868	17.61181	23.96913	1.3729	0.72839	146.87338	159.8121	54.5257	0.34683	 	1551352.453	 	4.22572E-6	 	11092.55811	47.86652	 
1065.0	1.0	0.0	8.02667	7.42214	-7.04514	17.52753	23.83113	1.37571	0.7269	147.47205	160.07686	54.763	0.34646	 	1724157.052	 	3.78804E-6	 	10834.5046	51.6107	 
1060.0	1.0	0.0	8.03063	7.41849	-7.09088	17.44506	23.69777	1.37828	0.72554	148.05811	160.33781	54.9953	0.3461	 	1917712.915	 	3.39299E-6	 	10579.75346	50.95023	 
1055.0	1.0	0.0	8.03452	7.4149	-7.13592	17.36435	23.56885	1.38062	0.72431	148.63217	160.5952	55.22286	0.34575	 	2134654.781	 	3.03673E-6	 	10328.22094	50.3065	 
1050.0	1.0	0.0	8.03836	7.41135	-7.18028	17.28537	23.44413	1.38274	0.7232	149.19481	160.8493	55.44588	0.34541	 	2377966.292	 	2.71575E-6	 	10079.82581	49.67903	 
1045.0	1.0	0.0	8.04215	7.40786	-7.22398	17.20808	23.32341	1.38465	0.72221	149.74661	161.10035	55.6646	0.34508	 	2651028.491	 	2.42682E-6	 	9834.48497	49.06817	 
1040.0	1.0	0.0	8.04588	7.40443	-7.26703	17.13243	23.20649	1.38634	0.72132	150.28811	161.34859	55.87923	0.34476	 	2957675.543	 	2.16696E-6	 	9592.11442	48.47411	 
1035.0	1.0	0.0	8.04956	7.40104	-7.30946	17.05838	23.09315	1.38784	0.72054	150.81988	161.59423	56.08998	0.34445	 	3302258.588	 	1.93345E-6	 	9352.62806	47.89727	 
1030.0	1.0	0.0	8.0532	7.3977	-7.35127	16.98588	22.98322	1.38915	0.71986	151.34245	161.83748	56.29707	0.34414	 	3689719.379	 	1.7238E-6	 	9115.93841	47.33793	 
1025.0	1.0	0.0	8.05678	7.39441	-7.3925	16.91489	22.87649	1.39028	0.71928	151.85634	162.07855	56.50069	0.34384	 	4125675.075	 	1.53574E-6	 	8881.95619	46.79644	 
1020.0	1.0	0.0	8.06032	7.39116	-7.43315	16.84535	22.77279	1.39123	0.71879	152.36206	162.31762	56.70106	0.34356	 	4616515.567	 	1.36717E-6	 	8650.59114	46.27301	 
1015.0	1.0	0.0	8.06381	7.38796	-7.47326	16.77722	22.67194	1.39201	0.71838	152.86009	162.55487	56.89836	0.34327	 	5169516.315	 	1.2162E-6	 	8421.75055	45.76812	 
1010.0	1.0	0.0	8.06726	7.3848	-7.51283	16.71045	22.57377	1.39264	0.71806	153.35092	162.79047	57.09277	0.343	 	5792968.283	 	1.08109E-6	 	8195.34212	45.28169	 
1005.0	1.0	0.0	8.07067	7.38168	-7.55189	16.64496	22.47811	1.39312	0.71781	153.83499	163.02456	57.28449	0.34273	 	6496327.28	 	9.60286E-7	 	7971.2731	44.8138	 
1000.0	1.0	0.0	8.07404	7.3786	-7.59045	16.58073	22.38482	1.39345	0.71764	154.31275	163.25729	57.47367	0.34246	 	7290388.137	 	8.52345E-7	 	7749.45135	44.36435	 
995.0	1.0	0.0	8.07737	7.37556	-7.62854	16.51768	22.29374	1.39365	0.71754	154.7846	163.48879	57.66049	0.34221	 	8187484.885	 	7.55974E-7	 	7529.78609	43.93305	 
990.0	1.0	0.0	8.08066	7.37256	-7.66618	16.45576	22.20474	1.39372	0.7175	155.25093	163.71917	57.8451	0.34195	 	9201722.453	 	6.69996E-7	 	7312.18803	43.51961	 
985.0	1.0	0.0	8.08392	7.36959	-7.70338	16.39492	22.11768	1.39367	0.71753	155.71212	163.94853	58.02765	0.34171	 	1.034924616E7	 	5.93349E-7	 	7096.56974	43.12366	 
980.0	1.0	0.0	8.08714	7.36665	-7.74016	16.3351	22.03245	1.3935	0.71762	156.1685	164.17699	58.20827	0.34146	 	1.164855348E7	 	5.25071E-7	 	6882.84634	42.74468	 
975.0	1.0	0.0	8.09033	7.36375	-7.77653	16.27625	21.94892	1.39322	0.71776	156.62041	164.40461	58.38709	0.34122	 	1.312085548E7	 	4.64292E-7	 	6670.93593	42.38208	 
970.0	1.0	0.0	8.09349	7.36087	-7.81253	16.21832	21.86699	1.39284	0.71796	157.06814	164.63148	58.56424	0.34099	 	1.479049861E7	 	4.1023E-7	 	6460.7582	42.03555	 
965.0	1.0	0.0	8.09662	7.35803	-7.84815	16.16126	21.78656	1.39236	0.71821	157.51198	164.85766	58.73983	0.34076	 	1.668545344E7	 	3.62178E-7	 	6252.23707	41.70423	 
960.0	1.0	0.0	8.09972	7.35521	-7.88342	16.10502	21.70753	1.39178	0.7185	157.95219	165.08321	58.91396	0.34053	 	1.883788442E7	 	3.195E-7	 	6045.29912	41.38759	 
955.0	1.0	0.0	8.10279	7.35242	-7.91835	16.04955	21.62982	1.39112	0.71885	158.38901	165.30819	59.08673	0.34031	 	2.12848142E7	 	2.81623E-7	 	5839.87456	41.08491	 
950.0	1.0	0.0	8.10584	7.34966	-7.95296	15.99481	21.55334	1.39037	0.71923	158.82265	165.53262	59.25824	0.34009	 	2.406889987E7	 	2.48033E-7	 	5635.89683	40.79555	 
945.0	1.0	0.0	8.10886	7.34692	-7.98725	15.94076	21.47802	1.38955	0.71966	159.25334	165.75656	59.42855	0.33987	 	2.723933559E7	 	2.18268E-7	 	5433.30262	40.51884	 
940.0	1.0	0.0	8.11186	7.34421	-8.02124	15.88736	21.40379	1.38864	0.72013	159.68124	165.98003	59.59776	0.33966	 	3.085291173E7	 	1.91913E-7	 	5232.03188	40.25415	 
935.0	1.0	0.0	8.11483	7.34151	-8.05495	15.83457	21.33058	1.38766	0.72064	160.10656	166.20306	59.76592	0.33945	 	3.4975254E7	 	1.68596E-7	 	5032.02752	40.00087	 
930.0	1.0	0.0	8.11778	7.33885	-8.08838	15.78234	21.25834	1.38662	0.72118	160.52943	166.42568	59.93312	0.33924	 	3.968227175E7	 	1.47982E-7	 	4833.23603	39.7583	 
925.0	1.0	0.0	8.12071	7.3362	-8.12154	15.73065	21.187	1.3855	0.72176	160.95001	166.64789	60.09939	0.33903	 	4.506186446E7	 	1.29774E-7	 	4635.60621	39.52596	 
920.0	1.0	0.0	8.12362	7.33357	-8.15445	15.67946	21.11652	1.38433	0.72237	161.36843	166.86971	60.26481	0.33883	 	5.121591505E7	 	1.13704E-7	 	4439.0903	39.30318	 
915.0	1.0	0.0	8.12651	7.33096	-8.18712	15.62874	21.04685	1.38309	0.72302	161.78481	167.09115	60.42942	0.33863	 	5.826264077E7	 	9.95332E-8	 	4243.64265	39.08953	 
910.0	1.0	0.0	8.12938	7.32837	-8.21955	15.57846	20.97793	1.38179	0.7237	162.19928	167.31222	60.59327	0.33843	 	6.633935845E7	 	8.70473E-8	 	4049.22077	38.88438	 
905.0	1.0	0.0	8.13224	7.3258	-8.25174	15.52859	20.90974	1.38044	0.72441	162.61192	167.53292	60.75639	0.33823	 	7.560573826E7	 	7.60558E-8	 	3855.78401	38.68735	 
900.0	1.0	0.0	8.13507	7.32325	-8.28372	15.47911	20.84223	1.37904	0.72514	163.02284	167.75326	60.91884	0.33803	 	8.624764831E7	 	6.63885E-8	 	3663.29442	38.49792	 
895.0	1.0	0.0	8.13789	7.32071	-8.31549	15.42998	20.77537	1.37758	0.72591	163.43212	167.97324	61.08063	0.33784	 	9.848168417E7	 	5.78935E-8	 	3471.71641	38.3156	 
890.0	1.0	0.0	8.14069	7.31819	-8.34705	15.38119	20.70912	1.37607	0.72671	163.83984	168.19284	61.24181	0.33765	 	1.125605415E8	 	5.04355E-8	 	3281.01576	38.14013	 
885.0	1.0	0.0	8.14348	7.31569	-8.3784	15.3327	20.64346	1.37451	0.72753	164.24607	168.41208	61.40241	0.33746	 	1.287793532E8	 	4.3894E-8	 	3091.16072	37.97101	 
880.0	1.0	0.0	8.14625	7.3132	-8.40957	15.28451	20.57834	1.37291	0.72838	164.65087	168.63094	61.56245	0.33727	 	1.474832105E8	 	3.81619E-8	 	2902.12106	37.80793	 
875.0	1.0	0.0	8.149	7.31073	-8.44055	15.23658	20.51376	1.37126	0.72926	165.05431	168.84943	61.72195	0.33708	 	1.690760967E8	 	3.31439E-8	 	2713.8679	37.65063	 
870.0	1.0	0.0	8.15175	7.30827	-8.47134	15.1889	20.44967	1.36957	0.73016	165.45643	169.06752	61.88095	0.33689	 	1.94031482E8	 	2.87553E-8	 	2526.37538	37.4985	 
865.0	1.0	0.0	8.15447	7.30582	-8.50196	15.14144	20.38607	1.36783	0.73108	165.85729	169.28522	62.03945	0.33671	 	2.229049343E8	 	2.49211E-8	 	2339.61826	37.35142	 
860.0	1.0	0.0	8.15719	7.30339	-8.53241	15.0942	20.32292	1.36605	0.73204	166.25694	169.50252	62.19748	0.33652	 	2.563491236E8	 	2.15746E-8	 	2153.57297	37.20906	 
855.0	1.0	0.0	8.15989	7.30097	-8.56269	15.04715	20.2602	1.36423	0.73301	166.6554	169.7194	62.35506	0.33634	 	2.951317536E8	 	1.86568E-8	 	1968.21654	37.07129	 
850.0	1.0	0.0	8.16258	7.29857	-8.59281	15.00028	20.19791	1.36238	0.73401	167.05272	169.93586	62.5122	0.33616	 	3.401569146E8	 	1.61156E-8	 	1783.52787	36.93773	 
845.0	1.0	0.0	8.16478	7.2966	-8.61748	14.97796	20.14011	1.3602	0.73518	167.38858	170.13024	62.64453	0.33602	 	3.873814047E8	 	1.4088E-8	 	1625.79405	31.54676	 
840.0	1.0	0.0	8.16698	7.29463	-8.64209	14.95563	20.0823	1.35802	0.73637	167.72388	170.32376	62.77668	0.33588	 	4.41677667E8	 	1.23008E-8	 	1465.05584	32.14764	 
835.0	1.0	0.0	8.16918	7.29267	-8.66665	14.9333	20.02449	1.35582	0.73756	168.05864	170.51643	62.90865	0.33574	 	5.041806579E8	 	1.07275E-8	 	1304.53384	32.1044	 
830.0	1.0	0.0	8.17137	7.29072	-8.69114	14.91095	19.96667	1.35361	0.73876	168.39286	170.70824	63.04044	0.33559	 	5.762195398E8	 	9.34401E-9	 	1144.22743	32.06128	 
825.0	1.0	0.0	8.17356	7.28877	-8.71559	14.8886	19.90885	1.35139	0.73998	168.72652	170.89919	63.17206	0.33545	 	6.593529585E8	 	8.12887E-9	 	984.13597	32.01829	 
820.0	1.0	0.0	8.17574	7.28682	-8.73997	14.86623	19.85101	1.34916	0.7412	169.05964	171.08929	63.30349	0.33531	 	7.554111001E8	 	7.0629E-9	 	824.25879	31.97544	 
815.0	1.0	0.0	8.17792	7.28488	-8.7643	14.84386	19.79317	1.34691	0.74244	169.39221	171.27855	63.43475	0.33517	 	8.66545898E8	 	6.12892E-9	 	664.59518	31.93272	 
810.0	1.0	0.0	8.1801	7.28294	-8.78857	14.82148	19.73532	1.34465	0.74369	169.72423	171.46695	63.56583	0.33503	 	9.952910577E8	 	5.3116E-9	 	505.14444	31.89015	 
805.0	1.0	0.0	8.18227	7.281	-8.81278	14.79908	19.67747	1.34238	0.74494	170.05571	171.65452	63.69673	0.33489	 	1.144633923E9	 	4.59726E-9	 	345.90582	31.84772	 
800.0	1.0	0.0	8.18444	7.27908	-8.83693	14.77668	19.6196	1.3401	0.74621	170.38663	171.84123	63.82745	0.33474	 	1.318101644E9	 	3.97373E-9	 	186.87854	31.80546	 
795.0	1.0	0.0	8.1866	7.27715	-8.86103	14.75427	19.56173	1.3378	0.7475	170.71701	172.02711	63.95799	0.3346	 	1.519864651E9	 	3.43016E-9	 	28.06181	31.76335	 
790.0	1.0	0.0	8.18876	7.27523	-8.88507	14.73185	19.50385	1.33549	0.74879	171.04685	172.21216	64.08836	0.33446	 	1.754861093E9	 	2.95691E-9	 	-130.54521	31.7214	 
785.0	1.0	0.0	8.19092	7.27332	-8.90906	14.70942	19.44597	1.33316	0.75009	171.37613	172.39636	64.21854	0.33432	 	2.028946718E9	 	2.54544E-9	 	-288.9434	31.67964	 
780.0	1.0	0.0	8.19307	7.27141	-8.93298	14.68698	19.38807	1.33083	0.75141	171.70487	172.57974	64.34855	0.33418	 	2.349075685E9	 	2.18816E-9	 	-447.13362	31.63805	 
775.0	1.0	0.0	8.19522	7.2695	-8.95685	14.66453	19.33017	1.32848	0.75274	172.03306	172.76228	64.47838	0.33404	 	2.723519014E9	 	1.87836E-9	 	-605.11686	31.59665	 
770.0	1.0	0.0	8.19736	7.2676	-8.98066	14.64208	19.27226	1.32611	0.75408	172.36071	172.94399	64.60803	0.3339	 	3.16212896E9	 	1.6101E-9	 	-762.89406	31.55544	 
765.0	1.0	0.0	8.1995	7.2657	-9.00441	14.61961	19.21434	1.32373	0.75544	172.68781	173.12488	64.7375	0.33375	 	3.676659443E9	 	1.37814E-9	 	-920.46627	31.51444	 
760.0	1.0	0.0	8.20164	7.26381	-9.02811	14.59713	19.15641	1.32134	0.75681	173.01436	173.30495	64.86679	0.33361	 	4.281155094E9	 	1.17785E-9	 	-1077.83454	31.47365	 
755.0	1.0	0.0	8.20377	7.26192	-9.05175	14.57465	19.09847	1.31894	0.75819	173.34036	173.48419	64.9959	0.33347	 	4.992424365E9	 	1.00515E-9	 	-1234.99999	31.43309	 
750.0	1.0	0.0	8.2059	7.26004	-9.07533	14.55215	19.04052	1.31652	0.75958	173.66582	173.66261	65.12483	0.33333	 	5.830615851E9	 	8.56469E-10	 	-1391.96378	31.39276	 
745.0	1.0	0.0	8.20802	7.25816	-9.09885	14.52965	18.98257	1.31408	0.76099	173.99073	173.84021	65.25359	0.33319	 	6.81992153E9	 	7.2865E-10	 	-1548.72715	31.35267	 
740.0	1.0	0.0	8.21014	7.25629	-9.12232	14.50713	18.9246	1.31164	0.76241	174.31509	174.017	65.38216	0.33305	 	7.989436357E9	 	6.18934E-10	 	-1705.29138	31.31284	 
735.0	1.0	0.0	8.21225	7.25442	-9.14572	14.48461	18.86663	1.30917	0.76384	174.63891	174.19298	65.51055	0.33291	 	9.37421082E9	 	5.24901E-10	 	-1861.6578	31.27328	 
730.0	1.0	0.0	8.21437	7.25256	-9.16907	14.46208	18.80865	1.3067	0.76529	174.96218	174.36814	65.63877	0.33277	 	1.10165E10	 	4.44434E-10	 	-2017.82782	31.23401	 
725.0	1.0	0.0	8.21647	7.2507	-9.19236	14.43953	18.75065	1.3042	0.76675	175.2849	174.5425	65.7668	0.33262	 	1.2967599999999998E10	 	3.75685E-10	 	-2173.80295	31.19503	 
720.0	1.0	0.0	8.21857	7.24884	-9.2156	14.41698	18.69265	1.3017	0.76823	175.60707	174.71605	65.89466	0.33248	 	1.5289199999999998E10	 	3.17042E-10	 	-2329.58472	31.15635	 
715.0	1.0	0.0	8.22067	7.24699	-9.23877	14.39442	18.63464	1.29918	0.76972	175.9287	174.8888	66.02233	0.33234	 	1.80565E10	 	2.67101E-10	 	-2485.17478	31.11801	 
710.0	1.0	0.0	8.22277	7.24514	-9.26189	14.37185	18.57661	1.29664	0.77122	176.24978	175.06074	66.14983	0.3322	 	2.13609E10	 	2.2464E-10	 	-2640.57485	31.08002	 
705.0	1.0	0.0	8.22486	7.2433	-9.28495	14.34927	18.51858	1.29409	0.77274	176.57032	175.23188	66.27715	0.33206	 	2.5313399999999996E10	 	1.886E-10	 	-2795.78675	31.04238	 
700.0	1.0	0.0	8.22694	7.24147	-9.30795	14.32668	18.46054	1.29152	0.77428	176.89031	175.40223	66.40428	0.33192	 	3.0049599999999996E10	 	1.58062E-10	 	-2950.81241	31.00513	 
695.0	1.0	0.0	8.22903	7.23963	-9.33089	14.30409	18.40248	1.28894	0.77583	177.20975	175.57178	66.53124	0.33178	 	3.57352E10	 	1.32231E-10	 	-3105.65383	30.96829	 
690.0	1.0	0.0	8.2311	7.23781	-9.35378	14.28148	18.34442	1.28634	0.7774	177.52864	175.74053	66.65802	0.33164	 	4.25731E10	 	1.10419E-10	 	-3260.31318	30.93187	 
685.0	1.0	0.0	8.23318	7.23598	-9.37661	14.25886	18.28634	1.28373	0.77898	177.84699	175.9085	66.78462	0.3315	 	5.081219999999999E10	 	9.20348E-11	 	-3414.79267	30.8959	 
680.0	1.0	0.0	8.23525	7.23417	-9.39938	14.23624	18.22826	1.2811	0.78058	178.16479	176.07567	66.91103	0.33136	 	6.075849999999999E10	 	7.65668E-11	 	-3569.09473	30.86041	 
675.0	1.0	0.0	8.23731	7.23235	-9.42209	14.2136	18.17016	1.27845	0.7822	178.48205	176.24206	67.03727	0.33122	 	7.27889E10	 	6.35768E-11	 	-3723.22187	30.82543	 
670.0	1.0	0.0	8.23937	7.23054	-9.44474	14.19096	18.11205	1.27579	0.78383	178.79875	176.40766	67.16333	0.33107	 	8.73685E10	 	5.26881E-11	 	-3877.17676	30.79098	 
665.0	1.0	0.0	8.24143	7.22874	-9.46733	14.1683	18.05393	1.27311	0.78548	179.11492	176.57247	67.2892	0.33093	 	1.05073E11	 	4.35782E-11	 	-4030.96223	30.75709	 
660.0	1.0	0.0	8.24348	7.22694	-9.48987	14.14564	17.9958	1.27042	0.78714	179.43053	176.73651	67.4149	0.33079	 	1.26614E11	 	3.59712E-11	 	-4184.57347	30.72225	 
655.0	1.0	0.0	8.24553	7.22515	-9.51235	14.12297	17.93765	1.26771	0.78883	179.7456	176.89977	67.54042	0.33065	 	1.5288E11	 	2.96316E-11	 	-4337.96708	30.67872	 
650.0	1.0	0.0	8.24757	7.22336	-9.53477	14.10028	17.8795	1.26498	0.79053	180.06012	177.06225	67.66575	0.33051	 	1.84971E11	 	2.43588E-11	 	-4491.08544	30.62367	 
645.0	1.0	0.0	8.24961	7.22157	-9.55713	14.07759	17.82133	1.26223	0.79225	180.37409	177.22395	67.79091	0.33037	 	2.24263E11	 	1.99822E-11	 	-4643.92952	30.56882	 
640.0	1.0	0.0	8.25164	7.21979	-9.57943	14.05489	17.76314	1.25947	0.79398	180.68752	177.38488	67.91588	0.33023	 	2.72476E11	 	1.63569E-11	 	-4796.50026	30.51415	 
635.0	1.0	0.0	8.25368	7.21801	-9.60167	14.03218	17.70495	1.25669	0.79574	181.00041	177.54505	68.04068	0.33009	 	3.31764E11	 	1.33603E-11	 	-4948.79865	30.45968	 
630.0	1.0	0.0	8.2557	7.21624	-9.62386	14.00946	17.64674	1.2539	0.79751	181.31274	177.70444	68.16529	0.32995	 	4.04835E11	 	1.08885E-11	 	-5100.82562	30.40539	 
625.0	1.0	0.0	8.25772	7.21448	-9.64599	13.98673	17.58852	1.25108	0.79931	181.62453	177.86306	68.28972	0.32981	 	4.95095E11	 	8.85415E-12	 	-5252.58264	30.35141	 
620.0	1.0	0.0	8.25974	7.21271	-9.66805	13.96399	17.53029	1.24825	0.80112	181.93577	178.02092	68.41398	0.32967	 	6.06846E11	 	7.18345E-12	 	-5404.07199	30.29787	 
615.0	1.0	0.0	8.26175	7.21096	-9.69006	13.94125	17.47204	1.2454	0.80295	182.24647	178.17802	68.53805	0.32953	 	7.45527E11	 	5.81447E-12	 	-5555.29391	30.24438	 
610.0	1.0	0.0	8.26376	7.2092	-9.71201	13.91849	17.41378	1.24253	0.80481	182.55662	178.33435	68.66194	0.32939	 	9.18037E11	 	4.69528E-12	 	-5706.24935	30.19109	 
605.0	1.0	0.0	8.26577	7.20746	-9.73391	13.89572	17.3555	1.23965	0.80668	182.86622	178.48993	68.78565	0.32925	 	1.13315E12	 	3.78241E-12	 	-5856.93923	30.13798	 
600.0	1.0	0.0	8.26777	7.20571	-9.75574	13.87295	17.29721	1.23674	0.80858	183.17528	178.64475	68.90918	0.32911	 	1.40204E12	 	3.03959E-12	 	-6007.36448	30.08505	 
595.0	1.0	0.0	8.26976	7.20397	-9.77751	13.85016	17.23891	1.23382	0.81049	183.48379	178.79881	69.03252	0.32897	 	1.739E12	 	2.43659E-12	 	-6157.52603	30.03231	 
590.0	1.0	0.0	8.27175	7.20224	-9.79923	13.82737	17.18059	1.23088	0.81243	183.79175	178.95212	69.15569	0.32883	 	2.16232E12	 	1.94828E-12	 	-6307.42479	29.97975	 
585.0	1.0	0.0	8.27374	7.20051	-9.82089	13.80456	17.12225	1.22792	0.81439	184.09917	179.10468	69.27868	0.32869	 	2.69554E12	 	1.55383E-12	 	-6457.06169	29.92738	 
580.0	1.0	0.0	8.27572	7.19879	-9.84248	13.78175	17.0639	1.22494	0.81637	184.40604	179.25649	69.40148	0.32855	 	3.36894E12	 	1.236E-12	 	-6606.43765	29.87519	 
575.0	1.0	0.0	8.2777	7.19707	-9.86402	13.75893	17.00554	1.22194	0.81837	184.71236	179.40755	69.5241	0.32841	 	4.22164E12	 	9.80568E-13	 	-6755.55357	29.82318	 
570.0	1.0	0.0	8.27967	7.19535	-9.8855	13.7361	16.94716	1.21892	0.8204	185.01814	179.55787	69.64654	0.32827	 	5.30435E12	 	7.75817E-13	 	-6904.41037	29.77136	 
565.0	1.0	0.0	8.28164	7.19364	-9.90692	13.71326	16.88876	1.21588	0.82245	185.32337	179.70744	69.7688	0.32812	 	6.68292E12	 	6.12128E-13	 	-7053.00897	29.71972	 
560.0	1.0	0.0	8.2836	7.19193	-9.92828	13.69041	16.83034	1.21282	0.82452	185.62806	179.85627	69.89088	0.32798	 	8.44315E12	 	4.81621E-13	 	-7201.35027	29.66826	 
555.0	1.0	0.0	8.28556	7.19023	-9.94959	13.66755	16.77191	1.20974	0.82662	185.9322	180.00436	70.01278	0.32784	 	1.06972E13	 	3.77856E-13	 	-7349.43518	29.61698	 
550.0	1.0	0.0	8.28752	7.18854	-9.97083	13.64468	16.71347	1.20664	0.82875	186.23579	180.15172	70.13449	0.3277	 	1.3592E13	 	2.95586E-13	 	-7497.2646	29.56588	 
545.0	1.0	0.0	8.28947	7.18685	-9.99201	13.6218	16.655	1.20352	0.83089	186.53884	180.29833	70.25603	0.32756	 	1.73207E13	 	2.30544E-13	 	-7644.83943	29.51497	 
540.0	1.0	0.0	8.29142	7.18516	-10.01314	13.59891	16.59652	1.20038	0.83307	186.84134	180.44422	70.37738	0.32742	 	2.21383E13	 	1.79272E-13	 	-7792.16057	29.46423	 
535.0	1.0	0.0	8.29336	7.18348	-10.03421	13.57601	16.53802	1.19722	0.83527	187.14329	180.58937	70.49855	0.32728	 	2.8382E13	 	1.38975E-13	 	-7939.22891	29.41367	 
530.0	1.0	0.0	8.29529	7.1818	-10.05521	13.55311	16.4795	1.19404	0.83749	187.4447	180.73379	70.61954	0.32714	 	3.64992E13	 	1.07399E-13	 	-8086.04534	29.36329	 
525.0	1.0	0.0	8.29723	7.18013	-10.07616	13.53019	16.42096	1.19084	0.83975	187.74556	180.87748	70.74035	0.327	 	4.70862E13	 	8.27329E-14	 	-8232.61075	29.31308	 
520.0	1.0	0.0	8.29915	7.17846	-10.09705	13.50727	16.36241	1.18761	0.84203	188.04588	181.02045	70.86097	0.32686	 	6.09393E13	 	6.3525E-14	 	-8378.92603	29.26306	 
515.0	1.0	0.0	8.30108	7.1768	-10.11787	13.48433	16.30383	1.18436	0.84433	188.34565	181.16269	70.98141	0.32673	 	7.91267E13	 	4.86153E-14	 	-8524.99206	29.21321	 
510.0	1.0	0.0	8.303	7.17514	-10.13864	13.46139	16.24524	1.1811	0.84667	188.64487	181.30421	71.10167	0.32659	 	1.03085E14	 	3.70796E-14	 	-8670.80972	29.16353	 
505.0	1.0	0.0	8.30491	7.17348	-10.15935	13.43843	16.18662	1.1778	0.84904	188.94355	181.445	71.22175	0.32645	 	1.3475599999999998E14	 	2.8184E-14	 	-8816.37988	29.11403	 
500.0	1.0	0.0	8.30682	7.17184	-10.18	13.41547	16.12799	1.17449	0.85143	189.24168	181.58508	71.34165	0.32631	 	1.76767E14	 	2.13476E-14	 	-8961.70343	29.06471	 
495.0	1.0	0.0	8.30872	7.17019	-10.20059	13.3925	16.06933	1.17115	0.85386	189.53926	181.72444	71.46136	0.32617	 	2.32697E14	 	1.61117E-14	 	-9106.78122	29.01556	 
490.0	1.0	0.0	8.31062	7.16855	-10.22112	13.36952	16.01066	1.1678	0.85631	189.8363	181.86308	71.58089	0.32603	 	3.07429E14	 	1.21158E-14	 	-9251.61411	28.96658	 
485.0	1.0	0.0	8.31252	7.16692	-10.2416	13.34653	15.95196	1.16441	0.8588	190.13279	182.00101	71.70024	0.32589	 	4.07655E14	 	9.07713E-15	 	-9396.20297	28.91777	 
480.0	1.0	0.0	8.31441	7.16529	-10.26201	13.32353	15.89324	1.16101	0.86132	190.42873	182.13823	71.81941	0.32575	 	5.4258699999999994E14	 	6.77484E-15	 	-9540.54865	28.86914	 
475.0	1.0	0.0	8.3163	7.16366	-10.28236	13.30052	15.8345	1.15758	0.86387	190.72413	182.27474	71.93839	0.32561	 	7.24945E14	 	5.03698E-15	 	-9684.65202	28.82067	 
470.0	1.0	0.0	8.31818	7.16204	-10.30265	13.2775	15.77574	1.15413	0.86646	191.01899	182.41054	72.05719	0.32547	 	9.72376E14	 	3.73017E-15	 	-9828.51391	28.77238	 
465.0	1.0	0.0	8.32005	7.16043	-10.32288	13.25447	15.71695	1.15065	0.86908	191.31329	182.54563	72.17581	0.32533	 	1.30946E15	 	2.75131E-15	 	-9972.13517	28.72425	 
460.0	1.0	0.0	8.32193	7.15882	-10.34306	13.23143	15.65814	1.14715	0.87173	191.60705	182.68002	72.29425	0.32519	 	1.77056E15	 	2.02101E-15	 	-10115.51664	28.67629	 
455.0	1.0	0.0	8.32379	7.15721	-10.36317	13.20839	15.5993	1.14362	0.87442	191.90027	182.8137	72.4125	0.32505	 	2.40398E15	 	1.47835E-15	 	-10258.65914	28.6285	 
450.0	1.0	0.0	8.32566	7.15561	-10.38322	13.18533	15.54044	1.14007	0.87714	192.19294	182.94668	72.53057	0.32491	 	3.27783E15	 	1.07679E-15	 	-10401.56352	28.58087	 
445.0	1.0	0.0	8.32751	7.15401	-10.40321	13.16227	15.48156	1.13649	0.8799	192.48506	183.07896	72.64846	0.32477	 	4.48866E15	 	7.80881E-16	 	-10544.2306	28.53342	 
440.0	1.0	0.0	8.32937	7.15242	-10.42315	13.13919	15.42265	1.13289	0.8827	192.77663	183.21055	72.76616	0.32463	 	6.17394E15	 	5.63774E-16	 	-10686.66118	28.48612	 
435.0	1.0	0.0	8.33121	7.15084	-10.44302	13.11611	15.36372	1.12926	0.88553	193.06766	183.34144	72.88368	0.32449	 	8.53027E15	 	4.05181E-16	 	-10828.8561	28.43898	 
430.0	1.0	0.0	8.33306	7.14925	-10.46283	13.09301	15.30475	1.12561	0.88841	193.35815	183.47163	73.00102	0.32435	 	1.18402E16	 	2.89851E-16	 	-10970.81615	28.39201	 
425.0	1.0	0.0	8.3349	7.14768	-10.48258	13.06991	15.24577	1.12193	0.89132	193.64808	183.60113	73.11817	0.32421	 	1.65119E16	 	2.06366E-16	 	-11112.54202	28.34517	 
420.0	1.0	0.0	8.33673	7.1461	-10.50228	13.0468	15.18675	1.11822	0.89428	193.93747	183.72994	73.23515	0.32407	 	2.31375E16	 	1.46217E-16	 	-11254.03471	28.29854	 
415.0	1.0	0.0	8.33856	7.14454	-10.52191	13.02368	15.12771	1.11449	0.89727	194.22632	183.85806	73.35193	0.32393	 	3.25812E16	 	1.03087E-16	 	-11395.2945	28.25196	 
410.0	1.0	0.0	8.34038	7.14297	-10.54148	13.00055	15.06863	1.11073	0.90031	194.51462	183.98549	73.46854	0.3238	 	4.61098E16	 	7.23119E-17	 	-11536.32157	28.20541	 
405.0	1.0	0.0	8.3422	7.14142	-10.56099	12.97741	15.00953	1.10694	0.90339	194.80237	184.11224	73.58496	0.32366	 	6.55908E16	 	5.04626E-17	 	-11677.11604	28.15889	 
400.0	1.0	0.0	8.34402	7.13986	-10.58045	12.95426	14.9504	1.10313	0.90651	195.08958	184.2383	73.7012	0.32352	 	9.37921E16	 	3.50294E-17	 	-11817.67803	28.1124	 
395.0	1.0	0.0	8.34583	7.13831	-10.59984	12.9311	14.89124	1.09928	0.90968	195.37624	184.36368	73.81725	0.32338	 	1.34839E17	 	2.4185E-17	 	-11958.00767	28.06593	 
390.0	1.0	0.0	8.34763	7.13677	-10.61917	12.90793	14.83205	1.09541	0.9129	195.66235	184.48838	73.93312	0.32324	 	1.94912E17	 	1.66058E-17	 	-12098.10508	28.01948	 
385.0	1.0	0.0	8.34943	7.13523	-10.63844	12.88475	14.77283	1.09151	0.91616	195.94792	184.6124	74.04881	0.3231	 	2.83332E17	 	1.13374E-17	 	-12237.97034	27.97305	 
380.0	1.0	0.0	8.35123	7.1337	-10.65765	12.86156	14.71357	1.08758	0.91947	196.23294	184.73574	74.16431	0.32296	 	4.14229E17	 	7.6959E-18	 	-12377.60357	27.92665	 
375.0	1.0	0.0	8.35302	7.13217	-10.6768	12.83837	14.65428	1.08362	0.92283	196.51741	184.85841	74.27963	0.32282	 	6.09157E17	 	5.19317E-18	 	-12517.00485	27.88025	 
370.0	1.0	0.0	8.3548	7.13064	-10.69589	12.81516	14.59496	1.07963	0.92624	196.80134	184.9804	74.39477	0.32268	 	9.01203E17	 	3.48318E-18	 	-12656.17426	27.83388	 
365.0	1.0	0.0	8.35659	7.12912	-10.71492	12.79195	14.5356	1.07561	0.9297	197.08473	185.10172	74.50972	0.32254	 	1.34147E18	 	2.32182E-18	 	-12795.11187	27.78752	 
360.0	1.0	0.0	8.35836	7.12761	-10.73389	12.76872	14.47621	1.07156	0.93322	197.36756	185.22236	74.62449	0.3224	 	2.00941E18	 	1.53789E-18	 	-12933.81774	27.74117	 
355.0	1.0	0.0	8.36013	7.1261	-10.75279	12.74549	14.41678	1.06748	0.93678	197.64986	185.34234	74.73907	0.32227	 	3.02935E18	 	1.01205E-18	 	-13072.29192	27.69484	 
350.0	1.0	0.0	8.3619	7.1246	-10.77164	12.72225	14.35732	1.06337	0.9404	197.9316	185.46165	74.85347	0.32213	 	4.59717E18	 	6.61589E-19	 	-13210.53446	27.64851	 
345.0	1.0	0.0	8.36366	7.1231	-10.79043	12.69899	14.29781	1.05923	0.94408	198.2128	185.5803	74.96768	0.32199	 	7.02365E18	 	4.29554E-19	 	-13348.54539	27.60219	 
340.0	1.0	0.0	8.36541	7.1216	-10.80915	12.67573	14.23827	1.05506	0.94782	198.49345	185.69828	75.08171	0.32185	 	1.08053E19	 	2.76959E-19	 	-13486.32472	27.55587	 
335.0	1.0	0.0	8.36717	7.12011	-10.82782	12.65246	14.17869	1.05085	0.95161	198.77356	185.81559	75.19556	0.32171	 	1.67412E19	 	1.773E-19	 	-13623.87248	27.50955	 
330.0	1.0	0.0	8.36891	7.11862	-10.84642	12.62918	14.11908	1.04661	0.95547	199.05312	185.93225	75.30922	0.32157	 	2.61271E19	 	1.12673E-19	 	-13761.18864	27.46323	 
325.0	1.0	0.0	8.37065	7.11714	-10.86497	12.60589	14.05941	1.04234	0.95938	199.33213	186.04825	75.4227	0.32143	 	4.10795E19	 	7.10676E-20	 	-13898.27321	27.41691	 
320.0	1.0	0.0	8.37239	7.11567	-10.88345	12.58259	13.99971	1.03803	0.96336	199.6106	186.16358	75.53599	0.32129	 	6.50839E19	 	4.44813E-20	 	-14035.12615	27.37059	 
315.0	1.0	0.0	8.37412	7.1142	-10.90187	12.55928	13.93997	1.0337	0.9674	199.88852	186.27827	75.6491	0.32116	 	1.03925E20	 	2.7622E-20	 	-14171.74741	27.32425	 
310.0	1.0	0.0	8.37585	7.11273	-10.92023	12.53596	13.88018	1.02932	0.97151	200.16589	186.39229	75.76202	0.32102	 	1.67283E20	 	1.70144E-20	 	-14308.13696	27.27791	 
305.0	1.0	0.0	8.37757	7.11127	-10.93853	12.51264	13.82034	1.02491	0.97569	200.44272	186.50567	75.87476	0.32088	 	2.7149199999999997E20	 	1.03937E-20	 	-14444.29471	27.23155	 
300.0	1.0	0.0	8.37928	7.10981	-10.95677	12.4893	13.76046	1.02047	0.97994	200.71901	186.61839	75.98731	0.32074	 	4.4435899999999997E20	 	6.29537E-21	 	-14580.22058	27.18517	 
295.0	1.0	0.0	8.38099	7.10836	-10.97495	12.46595	13.70053	1.016	0.98426	200.99474	186.73046	76.09968	0.3206	 	7.33629E20	 	3.77984E-21	 	-14715.91447	27.13878	 
290.0	1.0	0.0	8.3827	7.10692	-10.99307	12.4426	13.64056	1.01148	0.98865	201.26993	186.84188	76.21187	0.32046	 	1.22204E21	 	2.24919E-21	 	-14851.37627	27.09236	 
285.0	1.0	0.0	8.3844	7.10547	-11.01112	12.41924	13.58053	1.00693	0.99312	201.54458	186.95266	76.32386	0.32032	 	2.05431E21	 	1.32609E-21	 	-14986.60584	27.04591	 
280.0	1.0	0.0	8.3861	7.10404	-11.02912	12.39586	13.52046	1.00235	0.99766	201.81868	187.06279	76.43568	0.32019	 	3.4859600000000003E21	 	7.74474E-22	 	-15121.60302	26.99944	 
275.0	1.0	0.0	8.38779	7.10261	-11.04705	12.37248	13.46033	0.99772	1.00228	202.09223	187.17227	76.54731	0.32005	 	5.97269E21	 	4.47936E-22	 	-15256.36766	26.95293	 
270.0	1.0	0.0	8.38947	7.10118	-11.06492	12.34909	13.40015	0.99306	1.00699	202.36523	187.28112	76.65875	0.31991	 	1.0335299999999998E22	 	2.56498E-22	 	-15390.89955	26.90638	 
265.0	1.0	0.0	8.39115	7.09976	-11.08273	12.32568	13.33991	0.98836	1.01177	202.63769	187.38932	76.77001	0.31977	 	1.80676E22	 	1.45375E-22	 	-15525.19848	26.85979	 
260.0	1.0	0.0	8.39283	7.09834	-11.10048	12.30227	13.27962	0.98363	1.01665	202.90961	187.49688	76.88108	0.31963	 	3.19175E22	 	8.15282E-23	 	-15659.26422	26.81315	 
255.0	1.0	0.0	8.3945	7.09693	-11.11817	12.27885	13.21927	0.97885	1.02161	203.18097	187.60381	76.99197	0.31949	 	5.69948E22	 	4.52281E-23	 	-15793.09653	26.76646	 
250.0	1.0	0.0	8.39616	7.09552	-11.1358	12.25542	13.15886	0.97403	1.02666	203.45179	187.7101	77.10267	0.31936	 	1.0291E23	 	2.48117E-23	 	-15926.6951	26.71972	 
245.0	1.0	0.0	8.39782	7.09412	-11.15336	12.23198	13.09839	0.96918	1.0318	203.72207	187.81575	77.21318	0.31922	 	1.8794399999999997E23	 	1.34559E-23	 	-16060.05965	26.67291	 
240.0	1.0	0.0	8.39948	7.09272	-11.17087	12.20853	13.03786	0.96428	1.03704	203.9918	187.92077	77.32351	0.31908	 	3.4729499999999995E23	 	7.2116E-24	 	-16193.18985	26.62604	 
235.0	1.0	0.0	8.40113	7.09133	-11.18831	12.18508	12.97726	0.95935	1.04238	204.26098	188.02516	77.43366	0.31894	 	6.49557E23	 	3.81822E-24	 	-16326.08534	26.5791	 
230.0	1.0	0.0	8.40277	7.08994	-11.20569	12.16161	12.9166	0.95437	1.04782	204.52961	188.12892	77.54362	0.3188	 	1.2301000000000001E24	 	1.99638E-24	 	-16458.74573	26.53208	 
225.0	1.0	0.0	8.40441	7.08856	-11.22301	12.13813	12.85587	0.94935	1.05336	204.7977	188.23205	77.65339	0.31867	 	2.3595500000000002E24	 	1.03043E-24	 	-16591.1706	26.48497	 
220.0	1.0	0.0	8.40605	7.08718	-11.24027	12.11464	12.79507	0.94428	1.059	205.06525	188.33455	77.76298	0.31853	 	4.58623E24	 	5.2482E-25	 	-16723.35951	26.43778	 
215.0	1.0	0.0	8.40767	7.0858	-11.25746	12.09115	12.7342	0.93918	1.06476	205.33224	188.43643	77.87238	0.31839	 	9.03637E24	 	2.63661E-25	 	-16855.31199	26.3905	 
210.0	1.0	0.0	8.4093	7.08444	-11.2746	12.06764	12.67326	0.93403	1.07063	205.59869	188.53768	77.98159	0.31825	 	1.8056300000000001E25	 	1.30599E-25	 	-16987.02751	26.3431	 
205.0	1.0	0.0	8.41092	7.08307	-11.29167	12.04413	12.61224	0.92883	1.07662	205.8646	188.63831	78.09062	0.31811	 	3.6605900000000003E25	 	6.37528E-26	 	-17118.50553	26.2956	 
200.0	1.0	0.0	8.41253	7.08171	-11.30868	12.02061	12.55114	0.9236	1.08273	206.12996	188.73832	78.19946	0.31798	 	7.53287E25	 	3.06567E-26	 	-17249.74544	26.24798	 
195.0	1.0	0.0	8.41414	7.08036	-11.32563	11.99707	12.48996	0.91831	1.08896	206.39477	188.8377	78.30812	0.31784	 	1.5742200000000003E26	 	1.45147E-26	 	-17380.74663	26.20024	 
190.0	1.0	0.0	8.41574	7.07901	-11.34252	11.97353	12.4287	0.91298	1.09531	206.65903	188.93647	78.41659	0.3177	 	3.3425600000000004E26	 	6.76284E-27	 	-17511.50842	26.15236	 
185.0	1.0	0.0	8.41734	7.07767	-11.35934	11.94998	12.36736	0.9076	1.1018	206.92275	189.03462	78.52487	0.31756	 	7.21493E26	 	3.09929E-27	 	-17642.03009	26.10433	 
180.0	1.0	0.0	8.41893	7.07633	-11.37611	11.92642	12.30592	0.90218	1.10842	207.18593	189.13216	78.63297	0.31742	 	1.58401E27	 	1.39627E-27	 	-17772.31087	26.05616	 
175.0	1.0	0.0	8.42052	7.075	-11.39281	11.90285	12.2444	0.89671	1.11519	207.44855	189.22908	78.74088	0.31729	 	3.5392099999999996E27	 	6.18021E-28	 	-17902.34994	26.00781	 
170.0	1.0	0.0	8.4221	7.07367	-11.40945	11.87927	12.18278	0.89119	1.1221	207.71063	189.32539	78.8486	0.31715	 	8.05255E27	 	2.68599E-28	 	-18032.14646	25.9593	 
165.0	1.0	0.0	8.42368	7.07235	-11.42603	11.85568	12.12107	0.88562	1.12915	207.97217	189.42109	78.95614	0.31701	 	1.8668500000000001E28	 	1.14552E-28	 	-18161.69946	25.9106	 
160.0	1.0	0.0	8.42525	7.07103	-11.44254	11.83208	12.05926	0.88	1.13636	208.23316	189.51618	79.06349	0.31687	 	4.4128E28	 	4.79083E-29	 	-18291.00799	25.86171	 
155.0	1.0	0.0	8.42681	7.06971	-11.459	11.80847	11.99735	0.87433	1.14373	208.4936	189.61066	79.17065	0.31674	 	1.06425E29	 	1.96353E-29	 	-18420.07098	25.8126	 
150.0	1.0	0.0	8.42837	7.0684	-11.47539	11.78486	11.93532	0.86861	1.15126	208.75349	189.70453	79.27763	0.3166	 	2.6206700000000003E29	 	7.88076E-30	 	-18548.88733	25.76327	 
145.0	1.0	0.0	8.42993	7.0671	-11.49172	11.76123	11.87319	0.86284	1.15896	209.01284	189.79779	79.38442	0.31646	 	6.59385E29	 	3.09513E-30	 	-18677.45584	25.7137	 
140.0	1.0	0.0	8.43148	7.0658	-11.50799	11.7376	11.81095	0.85702	1.16684	209.27164	189.89046	79.49102	0.31632	 	1.69654E30	 	1.18858E-30	 	-18805.77528	25.66389	 
135.0	1.0	0.0	8.43302	7.06451	-11.52419	11.71395	11.74859	0.85114	1.1749	209.5299	189.98252	79.59744	0.31618	 	4.46732E30	 	4.45923E-31	 	-18933.84428	25.6138	 
130.0	1.0	0.0	8.43456	7.06322	-11.54033	11.6903	11.68611	0.84521	1.18314	209.78761	190.07397	79.70367	0.31605	 	1.20492E31	 	1.63303E-31	 	-19061.66141	25.56343	 
125.0	1.0	0.0	8.43609	7.06193	-11.55641	11.66663	11.6235	0.83922	1.19158	210.04477	190.16483	79.80971	0.31591	 	3.3319099999999997E31	 	5.83231E-32	 	-19189.22519	25.51275	 
120.0	1.0	0.0	8.43762	7.06066	-11.57243	11.64296	11.56076	0.83318	1.20022	210.30139	190.25509	79.91556	0.31577	 	9.45503E31	 	2.02947E-32	 	-19316.534	25.46176	 
115.0	1.0	0.0	8.43914	7.05938	-11.58839	11.61928	11.49789	0.82708	1.20907	210.55746	190.34475	80.02123	0.31563	 	2.75615E32	 	6.87358E-33	 	-19443.58612	25.41042	 
110.0	1.0	0.0	8.44066	7.05811	-11.60428	11.59559	11.43488	0.82092	1.21814	210.81298	190.43381	80.12671	0.3155	 	8.26171E32	 	2.26353E-33	 	-19570.37974	25.35872	 
105.0	1.0	0.0	8.44217	7.05685	-11.62011	11.57188	11.37172	0.81471	1.22743	211.06796	190.52229	80.232	0.31536	 	2.54944E33	 	7.23945E-34	 	-19696.91293	25.30664	 
100.0	1.0	0.0	8.44368	7.05559	-11.63588	11.54817	11.30841	0.80844	1.23695	211.32239	190.61016	80.3371	0.31522	 	8.108390000000001E33	 	2.24613E-34	 	-19823.18363	25.25414	 
95.0	1.0	0.0	8.44518	7.05433	-11.65159	11.52445	11.24494	0.80211	1.24671	211.57628	190.69745	80.44202	0.31509	 	2.66117E34	 	6.75209E-35	 	-19949.18966	25.20121	 
90.0	1.0	0.0	8.44668	7.05309	-11.66723	11.50072	11.18132	0.79572	1.25673	211.82962	190.78414	80.54675	0.31495	 	9.02453E34	 	1.96403E-35	 	-20074.92869	25.14781	 
85.0	1.0	0.0	8.44817	7.05184	-11.68281	11.47699	11.11752	0.78927	1.267	212.08241	190.87025	80.65129	0.31481	 	3.1665299999999997E35	 	5.52036E-36	 	-20200.39824	25.09391	 
80.0	1.0	0.0	8.44965	7.0506	-11.69833	11.45324	11.05355	0.78275	1.27755	212.33466	190.95577	80.75564	0.31467	 	1.15128E36	 	1.49715E-36	 	-20325.59568	25.03949	 
75.0	1.0	0.0	8.45113	7.04937	-11.71379	11.42948	10.98939	0.77617	1.28837	212.58635	191.0407	80.85981	0.31454	 	4.3439E36	 	3.91177E-37	 	-20450.5182	24.9845	 
70.0	1.0	0.0	8.45261	7.04814	-11.72918	11.40572	10.92504	0.76953	1.29949	212.83751	191.12504	80.96379	0.3144	 	1.7036599999999999E37	 	9.83075E-38	 	-20575.16281	24.92892	 
65.0	1.0	0.0	8.45407	7.04692	-11.74451	11.38194	10.8605	0.76283	1.31091	213.08811	191.2088	81.06758	0.31426	 	6.95729E37	 	2.37222E-38	 	-20699.52631	24.8727	 
60.0	1.0	0.0	8.45554	7.0457	-11.75978	11.35815	10.79574	0.75605	1.32266	213.33817	191.29198	81.17118	0.31413	 	2.96373E38	 	5.48641E-39	 	-20823.60532	24.8158	 
55.0	1.0	0.0	8.45699	7.04448	-11.77498	11.33436	10.73077	0.74922	1.33473	213.58769	191.37458	81.27459	0.31399	 	1.31952E39	 	1.21379E-39	 	-20947.39617	24.75817	 
50.0	1.0	0.0	8.45845	7.04327	-11.79012	11.31056	10.66557	0.74231	1.34714	213.83666	191.4566	81.37781	0.31385	 	6.15269E39	 	2.56345E-40	 	-21070.89501	24.69977	 
45.0	1.0	0.0	8.45989	7.04207	-11.8052	11.28674	10.60014	0.73534	1.35992	214.08508	191.53804	81.48085	0.31371	 	3.01114E40	 	5.15689E-41	 	-21194.09768	24.64053	 
40.0	1.0	0.0	8.46133	7.04087	-11.82022	11.26292	10.53446	0.72829	1.37307	214.33295	191.6189	81.5837	0.31358	 	1.5503100000000002E41	 	9.85869E-42	 	-21316.99976	24.58042	 
35.0	1.0	0.0	8.46277	7.03968	-11.83517	11.23909	10.46851	0.72118	1.38662	214.58028	191.69919	81.68636	0.31344	 	8.41791E41	 	1.78667E-42	 	-21439.59648	24.51935	 
30.0	1.0	0.0	8.4642	7.03849	-11.85006	11.21525	10.4023	0.71399	1.40057	214.82706	191.7789	81.78883	0.3133	 	4.83312E42	 	3.06138E-43	 	-21561.88279	24.45726	 
25.0	1.0	0.0	8.46562	7.0373	-11.86489	 	10.3358	0.70674	1.41496	215.0733	191.85804	81.89111	0.31317	 	2.94244E43	 	4.94554E-44	 	-21683.85324	 	 
