T (C)	Fraction solid (wt)-TOTAL	Fraction liquid (wt)-LIQUID	Density (g/(cm)^3)-TOTAL	Molar volume (cm^3)-TOTAL	Volume change (%)-  	Average expansion coeff. (10e-6 1/K)-  	Thermal conductivity (W/(m*K))-TOTAL	Electrical resistivity (10e-6 Ohm*m)-TOTAL	Electrical conductivity (10e6 1/(Ohm*m))-TOTAL	Young's modulus (GPa)-TOTAL	Bulk modulus (GPa)-TOTAL	Shear modulus(GPa)-TOTAL	Poisson's ratio-TOTAL	Liquid viscosity (mPa s)-  	Total viscosity (mPa s)-  	Liquid diffusivity (10e-9 (m^2)/s)-  	Total diffusivity (10e-9 (m^2)/s)-  	Surface Tension (mN/m)-  	Enthalpy (J/mole)-TOTAL	Specific heat (J/(mole K))-TOTAL	Latent heat (J/mole)-TOTAL
1400.0	0.0	1.0	7.07275	7.99833	0.0	34.94634	30.28731	1.35344	0.73886	0.0	121.44573	0.0	0.5	6.7188	6.7188	1.21543	1.21543	1813.16229	40144.478	 	0.0
1395.0	0.0	1.0	7.07687	7.99368	-0.0582072	34.91184	30.20628	1.35302	0.73909	0.0	121.58267	0.0	0.5	6.791	6.791	1.19891	1.19891	1816.74601	39944.556	39.9844	0.0
1390.0	0.0	1.0	7.08099	7.98903	-0.11625	34.87755	30.12525	1.35259	0.73932	0.0	121.71962	0.0	0.5	6.86442	6.86442	1.18253	1.18253	1820.35374	39745.075	39.8962	0.0
1385.0	0.0	1.0	7.08509	7.9844	-0.17413	34.84346	30.04422	1.35216	0.73956	0.0	121.85656	0.0	0.5	6.93909	6.93909	1.16629	1.16629	1823.98528	39546.032	39.8086	0.0
1380.0	0.0	1.0	7.08919	7.97979	-0.23185	34.80958	29.96318	1.35173	0.73979	0.0	121.9935	0.0	0.5	7.01503	7.01503	1.15019	1.15019	1827.64041	39347.423	39.7218	0.0
1375.0	0.0	1.0	7.09328	7.97518	-0.2894	34.7759	29.88215	1.3513	0.74003	0.0	122.13045	0.0	0.5	7.09227	7.09227	1.13422	1.13422	1831.31892	39149.245	39.6356	0.0
1370.0	0.0	1.0	7.09737	7.97059	-0.3468	34.74245	29.80112	1.35086	0.74027	0.0	122.26739	0.0	0.5	7.17083	7.17083	1.11839	1.11839	1835.02058	38951.497	39.5496	0.0
1365.0	0.0	1.0	7.10144	7.96602	-0.40402	34.7092	29.72008	1.35042	0.74051	0.0	122.40434	0.0	0.5	7.25075	7.25075	1.1027	1.1027	1838.74515	38754.175	39.4644	0.0
1360.0	0.0	1.0	7.10552	7.96145	-0.46109	34.67618	29.63905	1.34998	0.74075	0.0	122.54128	0.0	0.5	7.33206	7.33206	1.08714	1.08714	1842.49239	38557.276	39.3798	0.0
1355.74	0.0	1.0	7.10898	7.95757	-0.50959	34.6482	29.57	1.3496	0.74096	0.0	122.65798	0.0	0.5	7.40248	7.40248	1.07399	1.07399	1845.70342	38389.815	39.30188	0.0
1355.0	0.03098	0.96902	7.1192	7.94615	-0.65235	34.25809	29.65589	1.34508	0.74345	7.83416E-5	123.24253	2.61783E-5	0.49631	7.411	7.72898	1.07227	1.02816	1845.53709	37926.7	626.58468	434.098
1350.0	0.22816	0.77184	7.18508	7.87333	-1.56286	31.76656	30.22123	1.31587	0.75995	0.24115	126.9382	0.0818846	0.47248	7.46955	43.09451	1.0606	0.18383	1844.36349	34985.206	588.2988	3179.53
1345.0	0.38037	0.61963	7.23739	7.81649	-2.27355	29.83353	30.67084	1.29259	0.77364	1.92861	129.8459	0.66336	0.45367	7.52923	279.21351	1.04895	0.0282858	1843.10503	32690.842	458.8728	5278.25
1340.0	0.49925	0.50075	7.27944	7.77136	-2.83773	28.31068	31.03187	1.2736	0.78518	5.89075	132.16897	2.04729	0.43867	7.59008	844.25677	1.03733	0.00932582	1841.77754	30875.725	363.0234	6898.134
1335.0	0.59309	0.40691	7.31361	7.73516	-3.29028	27.10121	31.32097	1.25793	0.79496	12.01628	134.05514	4.21146	0.42662	7.65206	1750.26814	1.02573	0.00448444	1840.3925	29419.442	291.2566	8159.595
1330.0	0.66782	0.33218	7.34169	7.70574	-3.65815	26.12995	31.55015	1.24491	0.80327	19.71213	135.60887	6.95629	0.41686	7.71527	2946.48091	1.01417	0.00265557	1838.96299	28234.589	236.9706	9150.033
1325.0	0.72781	0.27219	7.36498	7.68152	-3.96094	25.34215	31.72924	1.23403	0.81036	28.29424	136.90661	10.04132	0.40889	7.77948	4365.17364	1.00266	0.00178691	1837.50133	27257.014	195.515	9933.598
1320.0	0.77629	0.22371	7.38449	7.66142	-4.2123	24.69974	31.86617	1.22488	0.81641	37.1764	138.00731	13.25504	0.40235	7.84486	5944.65289	0.99119	0.00130803	1836.01667	26439.146	163.5736	10557.859
1315.0	0.81572	0.18428	7.40101	7.64452	-4.4236	24.17076	31.96797	1.21715	0.82159	45.92406	138.95297	16.43733	0.39694	7.91145	7636.57863	0.97977	0.00101503	1834.5198	25745.364	138.7564	11058.434
1310.0	0.84795	0.15205	7.41513	7.63015	-4.60324	23.73165	32.04055	1.21057	0.82606	54.25838	139.77648	19.48315	0.39244	7.9792	9408.36067	0.96839	8.21287E-4	1833.01971	25148.751	119.3226	11462.236
1305.0	0.87446	0.12554	7.42732	7.61783	-4.75729	23.36534	32.08887	1.20492	0.82993	62.01532	140.50349	22.32892	0.38868	8.04814	11239.66808	0.95706	6.85301E-4	1831.52277	24628.797	103.9908	11789.775
1300.0	0.89637	0.10363	7.43793	7.60716	-4.89061	23.05819	32.11687	1.20006	0.83329	69.11376	141.15307	24.9417	0.38551	8.11837	13119.3151	0.94578	5.85256E-4	1830.03486	24169.747	91.81	12056.802
1295.0	0.91455	0.0854461	7.44727	7.59782	-5.00739	22.79827	32.12814	1.19583	0.83624	75.54413	141.74047	27.31531	0.38282	8.18972	15045.626	0.93456	5.08703E-4	1828.56192	23759.405	82.0684	12275.511
1290.0	0.92972	0.0702847	7.45557	7.58956	-5.11069	22.57693	32.12531	1.19212	0.83884	81.32066	142.27732	29.45286	0.38052	8.26249	17020.00422	0.92337	4.48258E-4	1827.10909	23388.264	74.2282	12455.407
1285.0	0.94241	0.0575905	7.46301	7.58219	-5.20288	22.38748	32.11074	1.18884	0.84115	86.48492	142.77282	31.368	0.37855	8.33644	19048.62995	0.91225	3.99238E-4	1825.67908	23048.863	67.8802	12603.948
1280.0	0.95308	0.0469198	7.46974	7.57555	-5.28593	22.22429	32.08631	1.18593	0.84322	91.0892	143.23448	33.07879	0.37685	8.41181	21140.28684	0.90118	3.58583E-4	1824.2744	22735.31	62.7106	12727.024
1275.0	0.96208	0.0379169	7.47589	7.5695	-5.3615	22.08263	32.0536	1.18332	0.84508	95.18876	143.66816	34.60471	0.37537	8.48849	23305.54629	0.89016	3.2422E-4	1822.89839	22442.924	58.4772	12829.314
1270.0	0.96971	0.0302938	7.48154	7.56395	-5.43086	21.95883	32.0139	1.18096	0.84677	98.83928	144.07846	35.96568	0.37408	8.56665	25556.31791	0.87919	2.94711E-4	1821.55298	22167.96	54.9928	12914.56
1265.0	0.97618	0.0238164	7.48679	7.55882	-5.49499	21.85013	31.96829	1.17881	0.84831	102.09281	144.46929	37.18044	0.37294	8.6463	27905.69123	0.86827	2.69025E-4	1820.23783	21907.414	52.1092	12985.764
1260.0	0.9817	0.0182956	7.4917	7.55404	-5.55479	21.75394	31.91767	1.17685	0.84973	104.99738	144.84359	38.26642	0.37193	8.72736	30367.50299	0.85741	2.46412E-4	1818.95489	21658.857	49.7114	13045.353
1255.0	0.98643	0.0135741	7.49631	7.54955	-5.61089	21.66841	31.86276	1.17503	0.85104	107.59665	145.20376	39.23955	0.37102	8.80984	32956.44043	0.84661	2.26315E-4	1817.70288	21420.316	47.7082	13095.297
1250.83	0.98981	0.0101874	7.49997	7.54601	-5.65519	21.60437	31.81391	1.17362	0.85207	109.54436	145.49466	39.96961	0.37035	8.87999	35222.29471	0.83763	2.11177E-4	1816.68203	21228.106	 	13130.357
1250.0	0.99073	0.00926741	7.50075	7.54517	-5.66574	21.58609	31.80833	1.17319	0.85238	110.06894	145.56195	40.16613	0.37017	8.91054	35727.97343	0.83431	2.08076E-4	1816.47549	21186.041	46.855	13141.345
1245.0	0.99594	0.00406194	7.50528	7.54025	-5.72728	21.48218	31.77145	1.1707	0.85419	113.09845	145.95801	41.30193	0.36917	9.09972	38899.993	0.81428	1.90481E-4	1815.27371	20936.682	49.8718	13202.844
1240.0	1.0	0.0	7.5093	7.53583	-5.78245	21.3974	31.72825	1.16843	0.85585	115.60188	146.3252	42.24203	0.36833	 	42187.9805	 	1.75057E-4	 	20702.675	46.8014	13249.355
1235.0	1.0	0.0	7.5118	7.53331	-5.81394	21.38656	31.6448	1.16764	0.85643	116.02313	146.59689	42.40324	0.36809	 	45091.33512	 	1.63244E-4	 	20493.44564	41.84587	 
1230.0	1.0	0.0	7.5143	7.53081	-5.84524	21.37623	31.56136	1.16684	0.85701	116.44376	146.86782	42.56425	0.36786	 	48216.0587	 	1.52159E-4	 	20312.75252	36.13862	 
1225.0	1.0	0.0	7.51679	7.52831	-5.87649	21.36599	31.47791	1.16605	0.8576	116.86352	147.13699	42.72499	0.36763	 	51580.3815	 	1.41761E-4	 	20132.29963	36.09058	 
1220.0	1.0	0.0	7.51928	7.52582	-5.90769	21.35582	31.39446	1.16524	0.85819	117.2824	147.40441	42.88545	0.36739	 	55204.38478	 	1.32013E-4	 	19952.08667	36.04259	 
1215.0	1.0	0.0	7.52177	7.52332	-5.93883	21.34574	31.31101	1.16444	0.85878	117.70041	147.67009	43.04564	0.36716	 	59109.97254	 	1.22878E-4	 	19772.11335	35.99466	 
1210.0	1.0	0.0	7.52426	7.52084	-5.96992	21.33575	31.22755	1.16363	0.85938	118.11754	147.93404	43.20555	0.36693	 	63321.04944	 	1.1432E-4	 	19592.37937	35.9468	 
1205.0	1.0	0.0	7.52674	7.51836	-6.00096	21.32585	31.14409	1.16281	0.85999	118.53379	148.19627	43.36519	0.36669	 	67863.71725	 	1.06308E-4	 	19412.88441	35.89899	 
1200.0	1.0	0.0	7.52923	7.51588	-6.03194	21.31603	31.06062	1.16199	0.86059	118.94917	148.45679	43.52456	0.36646	 	72766.49195	 	9.88103E-5	 	19233.62818	35.85125	 
1196.62	1.0	0.0	7.5309	7.51421	-6.05283	21.30945	31.00424	1.16144	0.861	119.22922	148.63178	43.63204	0.3663	 	76297.21966	 	9.40217E-5	 	19112.6925	 	 
1195.0	1.0	0.0	7.53293	7.51218	-6.07819	21.25634	30.88329	1.1647	0.85859	119.62453	148.68897	43.78925	0.36591	 	78358.74223	 	9.1447E-5	 	18991.46016	48.4336	 
1190.0	1.0	0.0	7.53909	7.50604	-6.15492	21.09638	30.52973	1.17417	0.85166	120.79999	148.84798	44.25754	0.36474	 	85104.87065	 	8.39114E-5	 	18623.66451	73.55913	 
1185.0	1.0	0.0	7.5451	7.50007	-6.22963	20.9417	30.19069	1.1833	0.84509	121.91609	148.98493	44.70328	0.36361	 	92494.91182	 	7.69433E-5	 	18264.11813	71.90928	 
1180.0	1.0	0.0	7.55096	7.49424	-6.30241	20.79202	29.86575	1.19207	0.83887	122.97816	149.10401	45.12839	0.36254	 	100595.7922	 	7.05046E-5	 	17912.39343	70.34494	 
1175.0	1.0	0.0	7.55668	7.48857	-6.37338	20.64708	29.55413	1.2005	0.83299	123.99081	149.20857	45.53458	0.3615	 	109481.9154	 	6.45592E-5	 	17568.08979	68.86073	 
1170.0	1.0	0.0	7.56228	7.48303	-6.44261	20.50662	29.25511	1.20858	0.82742	124.95807	149.30129	45.92331	0.36051	 	119236.0603	 	5.90732E-5	 	17230.8315	67.45166	 
1165.0	1.0	0.0	7.56774	7.47762	-6.51021	20.37042	28.96796	1.21633	0.82214	125.88347	149.38433	46.2959	0.35955	 	129950.3849	 	5.40149E-5	 	16900.26608	66.11308	 
1160.0	1.0	0.0	7.57309	7.47234	-6.57625	20.23825	28.69202	1.22376	0.81715	126.77016	149.45946	46.65351	0.35863	 	141727.5566	 	4.93542E-5	 	16576.06252	64.84071	 
1155.0	1.0	0.0	7.57833	7.46718	-6.64081	20.10991	28.42666	1.23088	0.81243	127.62094	149.5281	46.99717	0.35775	 	154682.0346	 	4.50631E-5	 	16257.90981	63.63054	 
1150.0	1.0	0.0	7.58346	7.46213	-6.70396	19.98521	28.17127	1.23769	0.80796	128.43833	149.59145	47.32782	0.3569	 	168941.508	 	4.11151E-5	 	15945.5155	62.47886	 
1145.0	1.0	0.0	7.58849	7.45718	-6.76576	19.86396	27.92529	1.2442	0.80373	129.22459	149.65048	47.64631	0.35608	 	184648.5405	 	3.74855E-5	 	15638.60443	61.38221	 
1140.0	1.0	0.0	7.59342	7.45234	-6.82629	19.74599	27.68819	1.25043	0.79972	129.98178	149.70599	47.95342	0.35529	 	201962.3956	 	3.41511E-5	 	15336.9175	60.33739	 
1135.0	1.0	0.0	7.59825	7.4476	-6.88561	19.63114	27.45948	1.25638	0.79593	130.71179	149.75867	48.24985	0.35453	 	221061.1399	 	3.10902E-5	 	15040.21064	59.34137	 
1130.0	1.0	0.0	7.603	7.44295	-6.94376	19.51925	27.23869	1.26207	0.79235	131.41634	149.8091	48.53625	0.3538	 	242143.9984	 	2.82825E-5	 	14748.2537	58.39139	 
1125.0	1.0	0.0	7.60767	7.43838	-7.00081	19.41019	27.02538	1.2675	0.78895	132.09702	149.85777	48.81323	0.35309	 	265434.0301	 	2.57089E-5	 	14460.82959	57.48482	 
1120.0	1.0	0.0	7.61225	7.43391	-7.0568	19.30381	26.81913	1.27268	0.78574	132.75529	149.90509	49.08134	0.3524	 	291181.1779	 	2.33518E-5	 	14177.73336	56.61924	 
1115.0	1.0	0.0	7.61675	7.42951	-7.11178	19.19998	26.61955	1.27762	0.78271	133.39252	149.95144	49.34111	0.35174	 	319665.698	 	2.11947E-5	 	13898.77144	55.79239	 
1110.0	1.0	0.0	7.62119	7.42519	-7.1658	19.09859	26.42628	1.28233	0.77983	134.00996	149.99712	49.59301	0.3511	 	351202.1043	 	1.9222E-5	 	13623.76084	55.00212	 
1105.0	1.0	0.0	7.62555	7.42094	-7.21889	18.99951	26.23898	1.28681	0.77711	134.6088	150.04242	49.8375	0.35048	 	386143.5866	 	1.74194E-5	 	13352.52853	54.24646	 
1100.0	1.0	0.0	7.62984	7.41676	-7.27111	18.90264	26.05733	1.29108	0.77454	135.19014	150.08757	50.07501	0.34988	 	424887.1121	 	1.57736E-5	 	13084.91076	53.52355	 
1095.0	1.0	0.0	7.63407	7.41266	-7.32247	18.80788	25.88103	1.29514	0.77211	135.75501	150.1328	50.30592	0.34929	 	467879.1639	 	1.42721E-5	 	12820.75247	52.83166	 
1090.0	1.0	0.0	7.63824	7.40861	-7.37303	18.71512	25.70978	1.29901	0.76982	136.30437	150.17831	50.53062	0.34873	 	515622.3389	 	1.29032E-5	 	12559.90679	52.16914	 
1085.0	1.0	0.0	7.64234	7.40463	-7.42282	18.62427	25.54334	1.30268	0.76765	136.83912	150.22425	50.74944	0.34818	 	568682.8484	 	1.16564E-5	 	12302.23447	51.53446	 
1080.0	1.0	0.0	7.6464	7.40071	-7.47186	18.53524	25.38144	1.30616	0.7656	137.36013	150.27079	50.96274	0.34765	 	627699.0714	 	1.05216E-5	 	12047.60346	50.9262	 
1075.0	1.0	0.0	7.65039	7.39684	-7.5202	18.44795	25.22385	1.30946	0.76367	137.86819	150.31808	51.1708	0.34714	 	693391.3352	 	9.48957E-6	 	11795.88845	50.343	 
1070.0	1.0	0.0	7.65434	7.39303	-7.56784	18.36232	25.07037	1.31259	0.76185	138.36406	150.36623	51.37394	0.34664	 	766573.1214	 	8.5518E-6	 	11546.97047	49.7836	 
1065.0	1.0	0.0	7.65823	7.38927	-7.61484	18.27827	24.92077	1.31556	0.76013	138.84845	150.41536	51.57243	0.34615	 	848163.858	 	7.70037E-6	 	11300.7365	49.24679	 
1060.0	1.0	0.0	7.66207	7.38556	-7.6612	18.19573	24.77487	1.31836	0.75852	139.32204	150.46557	51.76653	0.34568	 	939203.597	 	6.92797E-6	 	11057.07915	48.73147	 
1055.0	1.0	0.0	7.66587	7.3819	-7.70696	18.11463	24.63248	1.32101	0.757	139.78544	150.51698	51.95649	0.34522	 	1040869.846	 	6.22784E-6	 	10815.89633	48.23656	 
1050.0	1.0	0.0	7.66963	7.37829	-7.75213	18.0349	24.49344	1.3235	0.75557	140.23927	150.56965	52.14255	0.34477	 	1154496.86	 	5.59375E-6	 	10577.09088	47.76109	 
1045.0	1.0	0.0	7.67334	7.37472	-7.79675	17.95648	24.35758	1.32586	0.75423	140.6841	150.62367	52.32493	0.34433	 	1281597.839	 	5.01995E-6	 	10340.57041	47.3041	 
1040.0	1.0	0.0	7.67701	7.3712	-7.84083	17.87931	24.22475	1.32807	0.75297	141.12045	150.67911	52.50383	0.34391	 	1423890.41	 	4.50116E-6	 	10106.24688	46.8647	 
1035.0	1.0	0.0	7.68064	7.36771	-7.88439	17.80334	24.09403	1.33019	0.75177	141.54883	150.73604	52.67946	0.34349	 	1583325.991	 	4.0325E-6	 	9874.03652	46.44207	 
1030.0	1.0	0.0	7.68423	7.36427	-7.92745	17.7285	23.96685	1.33214	0.75067	141.96972	150.79451	52.85202	0.34309	 	1762123.596	 	3.60948E-6	 	9643.85947	46.03541	 
1025.0	1.0	0.0	7.68779	7.36086	-7.97003	17.65474	23.84231	1.33396	0.74965	142.38357	150.8546	53.02167	0.34269	 	1962808.811	 	3.228E-6	 	9415.63959	45.64398	 
1020.0	1.0	0.0	7.69131	7.35749	-8.01215	17.58202	23.72028	1.33566	0.74869	142.79082	150.91633	53.18859	0.34231	 	2188258.775	 	2.88428E-6	 	9189.30432	45.26705	 
1015.0	1.0	0.0	7.69479	7.35416	-8.05382	17.51028	23.60066	1.33724	0.74781	143.19188	150.97976	53.35294	0.34193	 	2441754.201	 	2.57485E-6	 	8964.78442	44.90398	 
1010.0	1.0	0.0	7.69825	7.35086	-8.09506	17.43949	23.48333	1.3387	0.74699	143.58711	151.04494	53.51488	0.34156	 	2727039.404	 	2.29653E-6	 	8742.0138	44.55412	 
1005.0	1.0	0.0	7.70167	7.3476	-8.13589	17.36959	23.36822	1.34005	0.74624	143.9769	151.11189	53.67455	0.3412	 	3048391.96	 	2.04643E-6	 	8520.92941	44.21688	 
1000.0	1.0	0.0	7.70506	7.34436	-8.17631	17.30054	23.25521	1.3413	0.74555	144.36159	151.18066	53.83208	0.34085	 	3410703.271	 	1.82189E-6	 	8301.47098	43.89169	 
995.0	1.0	0.0	7.70842	7.34116	-8.21635	17.2323	23.14422	1.34244	0.74491	144.7415	151.25127	53.98761	0.34051	 	3819572.108	 	1.62048E-6	 	8083.58099	43.578	 
990.0	1.0	0.0	7.71175	7.33799	-8.25601	17.16484	23.03517	1.34347	0.74434	145.11695	151.32376	54.14127	0.34017	 	4281413.156	 	1.43997E-6	 	7867.20443	43.27531	 
985.0	1.0	0.0	7.71505	7.33485	-8.29531	17.09812	22.92798	1.34441	0.74382	145.48823	151.39814	54.29317	0.33984	 	4803583.279	 	1.27836E-6	 	7652.2887	42.98315	 
980.0	1.0	0.0	7.71833	7.33173	-8.33426	17.03209	22.82258	1.34525	0.74335	145.85563	151.47444	54.44342	0.33952	 	5394528.258	 	1.1338E-6	 	7438.78354	42.70103	 
975.0	1.0	0.0	7.72159	7.32864	-8.37287	16.96673	22.7189	1.346	0.74294	146.21941	151.55269	54.59213	0.3392	 	6063953.952	 	1.00461E-6	 	7226.64081	42.42855	 
970.0	1.0	0.0	7.72481	7.32558	-8.41115	16.902	22.61687	1.34666	0.74258	146.57982	151.63289	54.73941	0.33889	 	6823025.646	 	8.89269E-7	 	7015.81446	42.16527	 
965.0	1.0	0.0	7.72802	7.32254	-8.44912	16.83786	22.51643	1.34722	0.74227	146.93711	151.71508	54.88535	0.33858	 	7684600.862	 	7.86391E-7	 	6806.26041	41.91081	 
960.0	1.0	0.0	7.7312	7.31953	-8.48677	16.7743	22.41752	1.3477	0.742	147.2887	151.79637	55.029	0.33828	 	8663501.433	 	6.94719E-7	 	6597.93642	41.6648	 
955.0	1.0	0.0	7.73435	7.31654	-8.52413	16.71127	22.32009	1.3481	0.74179	147.6405	151.88264	55.17256	0.33799	 	9776831.767	 	6.13112E-7	 	6390.802	41.42688	 
950.0	1.0	0.0	7.73749	7.31358	-8.56121	16.64875	22.22408	1.34841	0.74161	147.98983	151.97093	55.31505	0.3377	 	1.104435156E7	 	5.40538E-7	 	6184.81836	41.19673	 
945.0	1.0	0.0	7.7406	7.31064	-8.598	16.58671	22.12944	1.34864	0.74149	148.33688	152.06125	55.45655	0.33742	 	1.248891289E7	 	4.76061E-7	 	5979.94829	40.97401	 
940.0	1.0	0.0	7.7437	7.30771	-8.63452	16.52513	22.03613	1.34879	0.7414	148.68184	152.1536	55.59712	0.33714	 	1.413697328E7	 	4.18837E-7	 	5776.1561	40.75844	 
935.0	1.0	0.0	7.74677	7.30481	-8.67078	16.46397	21.94411	1.34887	0.74136	149.02489	152.24798	55.73684	0.33686	 	1.601919862E7	 	3.68101E-7	 	5573.40752	40.54972	 
930.0	1.0	0.0	7.74983	7.30193	-8.70678	16.40321	21.85332	1.34886	0.74136	149.3662	152.34442	55.87578	0.33659	 	1.817117273E7	 	3.23164E-7	 	5371.66964	40.34758	 
925.0	1.0	0.0	7.75286	7.29908	-8.74253	16.34283	21.76373	1.34879	0.74141	149.70593	152.4429	56.01401	0.33633	 	2.063423304E7	 	2.83406E-7	 	5170.91086	40.15176	 
920.0	1.0	0.0	7.75588	7.29623	-8.77804	16.28281	21.67531	1.34864	0.74149	150.04423	152.54345	56.15159	0.33606	 	2.345645655E7	 	2.48267E-7	 	4971.10078	39.96202	 
915.0	1.0	0.0	7.75888	7.29341	-8.81332	16.22311	21.58801	1.34842	0.74161	150.38124	152.64605	56.28857	0.33581	 	2.669382363E7	 	2.17244E-7	 	4772.21021	39.77811	 
910.0	1.0	0.0	7.76187	7.29061	-8.84837	16.16372	21.50181	1.34813	0.74177	150.71712	152.75071	56.42502	0.33555	 	3.041159438E7	 	1.89884E-7	 	4574.21103	39.59983	 
905.0	1.0	0.0	7.76483	7.28782	-8.8832	16.10462	21.41666	1.34777	0.74197	151.05199	152.85744	56.56099	0.3353	 	3.468593836E7	 	1.65781E-7	 	4377.0762	39.42697	 
900.0	1.0	0.0	7.76778	7.28506	-8.91781	16.04578	21.33255	1.34734	0.7422	151.38598	152.96624	56.69653	0.33506	 	3.960586499E7	 	1.44571E-7	 	4180.77967	39.25931	 
895.0	1.0	0.0	7.77072	7.2823	-8.95222	15.98718	21.24944	1.34684	0.74248	151.71921	153.0771	56.83169	0.33481	 	4.527551633E7	 	1.25928E-7	 	3985.29633	39.09667	 
890.0	1.0	0.0	7.77364	7.27957	-8.98642	15.9288	21.16731	1.34628	0.74279	152.0518	153.19003	56.96652	0.33457	 	5.181689001E7	 	1.0956E-7	 	3790.60202	38.93886	 
885.0	1.0	0.0	7.77654	7.27685	-9.02042	15.87063	21.08612	1.34566	0.74313	152.38386	153.30502	57.10106	0.33433	 	5.937308028E7	 	9.52055E-8	 	3596.67336	38.78573	 
880.0	1.0	0.0	7.77943	7.27414	-9.05422	15.81264	21.00586	1.34497	0.74351	152.71548	153.42208	57.23536	0.3341	 	6.811213821E7	 	8.26319E-8	 	3403.48767	38.63714	 
875.0	1.0	0.0	7.78231	7.27146	-9.08784	15.75482	20.92649	1.34421	0.74393	153.04678	153.5412	57.36945	0.33387	 	7.823168038E7	 	7.16313E-8	 	3211.02318	38.4929	 
870.0	1.0	0.0	7.78517	7.26878	-9.12127	15.69714	20.84801	1.3434	0.74438	153.37785	153.66238	57.50339	0.33364	 	8.996438851E7	 	6.20182E-8	 	3019.25921	38.35279	 
865.0	1.0	0.0	7.78802	7.26612	-9.15453	15.63959	20.77038	1.34252	0.74487	153.70878	153.78562	57.63719	0.33342	 	1.035845934E8	 	5.36279E-8	 	2828.1755	38.21674	 
860.0	1.0	0.0	7.79086	7.26348	-9.18761	15.58215	20.6936	1.34158	0.74539	154.03966	153.91092	57.77091	0.33319	 	1.194161611E8	 	4.63139E-8	 	2637.75243	38.08461	 
855.0	1.0	0.0	7.79369	7.26084	-9.22052	15.5248	20.61763	1.34058	0.74594	154.37057	154.03827	57.90458	0.33297	 	1.378419487E8	 	3.99459E-8	 	2447.97104	37.95628	 
850.0	1.0	0.0	7.7965	7.25823	-9.25326	15.46752	20.54246	1.33953	0.74653	154.7016	154.16766	58.03822	0.33276	 	1.593151693E8	 	3.44086E-8	 	2258.81295	37.83162	 
845.0	1.0	0.0	7.79871	7.25617	-9.27895	15.44237	20.48286	1.33744	0.74769	155.03178	154.3717	58.16801	0.33262	 	1.808215184E8	 	3.01812E-8	 	2098.86693	31.9892	 
840.0	1.0	0.0	7.80091	7.25412	-9.30457	15.41721	20.42324	1.33535	0.74887	155.36151	154.57501	58.29764	0.33249	 	2.054646556E8	 	2.64425E-8	 	1935.86308	32.60077	 
835.0	1.0	0.0	7.80311	7.25208	-9.33013	15.39205	20.36362	1.33324	0.75005	155.69078	154.7776	58.42713	0.33235	 	2.337355949E8	 	2.31398E-8	 	1773.06689	32.55924	 
830.0	1.0	0.0	7.8053	7.25004	-9.35562	15.36688	20.30399	1.33113	0.75124	156.0196	154.97946	58.55648	0.33221	 	2.662073922E8	 	2.02256E-8	 	1610.47753	32.51787	 
825.0	1.0	0.0	7.80749	7.248	-9.38104	15.34172	20.24435	1.329	0.75245	156.34797	155.1806	58.68567	0.33208	 	3.035497124E8	 	1.76571E-8	 	1448.09414	32.47668	 
820.0	1.0	0.0	7.80968	7.24598	-9.4064	15.31655	20.1847	1.32686	0.75366	156.67588	155.38102	58.81472	0.33194	 	3.465461338E8	 	1.53959E-8	 	1285.91585	32.43566	 
815.0	1.0	0.0	7.81186	7.24395	-9.43169	15.29138	20.12504	1.3247	0.75489	157.00333	155.58073	58.94362	0.33181	 	3.961147345E8	 	1.34077E-8	 	1123.9417	32.39483	 
810.0	1.0	0.0	7.81403	7.24194	-9.45692	15.26621	20.06537	1.32254	0.75612	157.33033	155.77972	59.07237	0.33167	 	4.533326147E8	 	1.16616E-8	 	962.17074	32.35419	 
805.0	1.0	0.0	7.81621	7.23992	-9.48208	15.24104	20.00569	1.32036	0.75737	157.65687	155.978	59.20098	0.33154	 	5.19465153E8	 	1.013E-8	 	800.60196	32.31376	 
800.0	1.0	0.0	7.81837	7.23792	-9.50718	15.21586	19.94599	1.31817	0.75863	157.98296	156.17557	59.32944	0.3314	 	5.960009558E8	 	8.7882E-9	 	639.23431	32.27353	 
795.0	1.0	0.0	7.82054	7.23591	-9.53221	15.19069	19.88629	1.31597	0.7599	158.3086	156.37242	59.45775	0.33127	 	6.846936732E8	 	7.61417E-9	 	478.0667	32.23352	 
790.0	1.0	0.0	7.8227	7.23392	-9.55718	15.16551	19.82657	1.31375	0.76118	158.63378	156.56858	59.58591	0.33113	 	7.876121E8	 	6.58823E-9	 	317.09799	32.19374	 
785.0	1.0	0.0	7.82485	7.23193	-9.58208	15.14033	19.76685	1.31152	0.76247	158.9585	156.76403	59.71393	0.331	 	9.072002971E8	 	5.69286E-9	 	156.32698	32.1542	 
780.0	1.0	0.0	7.827	7.22994	-9.60691	15.11515	19.70711	1.30928	0.76378	159.28277	156.95877	59.8418	0.33087	 	1.046349843E9	 	4.91247E-9	 	-4.24757	32.11491	 
775.0	1.0	0.0	7.82915	7.22796	-9.63168	15.08997	19.64736	1.30703	0.76509	159.60659	157.15282	59.96952	0.33073	 	1.2084868E9	 	4.23319E-9	 	-164.62697	32.07588	 
770.0	1.0	0.0	7.83129	7.22598	-9.65638	15.06478	19.5876	1.30476	0.76642	159.92995	157.34616	60.09709	0.3306	 	1.39767655E9	 	3.64273E-9	 	-324.81257	32.03712	 
765.0	1.0	0.0	7.83342	7.22401	-9.68102	15.03959	19.52783	1.30248	0.76776	160.25286	157.53881	60.22452	0.33046	 	1.618750374E9	 	3.13016E-9	 	-484.80583	31.99865	 
760.0	1.0	0.0	7.83555	7.22205	-9.70559	15.01441	19.46805	1.30019	0.76912	160.57532	157.73076	60.35179	0.33033	 	1.877458538E9	 	2.68584E-9	 	-644.60822	31.96048	 
755.0	1.0	0.0	7.83768	7.22009	-9.7301	14.98921	19.40825	1.29789	0.77048	160.89732	157.92203	60.47892	0.33019	 	2.180655708E9	 	2.30121E-9	 	-804.22133	31.92262	 
750.0	1.0	0.0	7.8398	7.21813	-9.75454	14.96402	19.34844	1.29557	0.77186	161.21887	158.1126	60.60591	0.33006	 	2.536525935E9	 	1.96873E-9	 	-963.64681	31.8851	 
745.0	1.0	0.0	7.84192	7.21618	-9.77891	14.93883	19.28861	1.29323	0.77326	161.53996	158.30248	60.73274	0.32992	 	2.954856063E9	 	1.68175E-9	 	-1122.88641	31.84792	 
740.0	1.0	0.0	7.84404	7.21424	-9.80322	14.91363	19.22878	1.29089	0.77466	161.8606	158.49167	60.85943	0.32979	 	3.447368578E9	 	1.43441E-9	 	-1281.94192	31.8111	 
735.0	1.0	0.0	7.84614	7.2123	-9.82746	14.88844	19.16893	1.28853	0.77608	162.18078	158.68018	60.98597	0.32966	 	4.028127502E9	 	1.22154E-9	 	-1440.8153	31.77468	 
730.0	1.0	0.0	7.84825	7.21036	-9.85164	14.86324	19.10907	1.28615	0.77751	162.50052	158.868	61.11236	0.32952	 	4.714034216E9	 	1.03863E-9	 	-1599.50856	31.73865	 
725.0	1.0	0.0	7.85035	7.20844	-9.87575	14.83803	19.04919	1.28376	0.77896	162.8198	159.05515	61.2386	0.32939	 	5.52543422E9	 	8.8169E-10	 	-1758.02383	31.70305	 
720.0	1.0	0.0	7.85244	7.20651	-9.8998	14.81283	18.9893	1.28136	0.78042	163.13862	159.24161	61.3647	0.32925	 	6.486860966E9	 	7.47252E-10	 	-1916.36336	31.66791	 
715.0	1.0	0.0	7.85453	7.2046	-9.92378	14.78763	18.92939	1.27895	0.78189	163.45699	159.4274	61.49065	0.32912	 	7.627949389E9	 	6.32269E-10	 	-2074.52952	31.63323	 
710.0	1.0	0.0	7.85662	7.20268	-9.94769	14.76242	18.86947	1.27652	0.78338	163.77491	159.61251	61.61645	0.32899	 	8.984559916E9	 	5.34084E-10	 	-2232.52483	31.59906	 
705.0	1.0	0.0	7.8587	7.20077	-9.97154	14.73721	18.80954	1.27407	0.78489	164.09238	159.79694	61.7421	0.32885	 	1.06002E10	 	4.5038E-10	 	-2390.35191	31.56542	 
700.0	1.0	0.0	7.86078	7.19887	-9.99532	14.712	18.74959	1.27161	0.7864	164.40939	159.98071	61.8676	0.32872	 	1.2527599999999998E10	 	3.7914E-10	 	-2548.01356	31.53233	 
695.0	1.0	0.0	7.86285	7.19698	-10.01904	14.68679	18.68962	1.26914	0.78794	164.72595	160.1638	61.99296	0.32859	 	1.4830999999999998E10	 	3.1861E-10	 	-2705.51276	31.49984	 
690.0	1.0	0.0	7.86492	7.19508	-10.04269	14.66158	18.62964	1.26665	0.78949	165.04205	160.34622	62.11817	0.32845	 	1.75887E10	 	2.67268E-10	 	-2862.85261	31.46797	 
685.0	1.0	0.0	7.86698	7.1932	-10.06627	14.63636	18.56964	1.26414	0.79105	165.35771	160.52798	62.24323	0.32832	 	2.08964E10	 	2.23794E-10	 	-3020.03645	31.43677	 
680.0	1.0	0.0	7.86904	7.19132	-10.08979	14.61114	18.50963	1.26162	0.79263	165.67291	160.70907	62.36814	0.32819	 	2.4870999999999996E10	 	1.87049E-10	 	-3177.06777	31.40626	 
675.0	1.0	0.0	7.87109	7.18944	-10.11325	14.58592	18.4496	1.25909	0.79423	165.98765	160.8895	62.4929	0.32805	 	2.9655999999999996E10	 	1.56045E-10	 	-3333.95031	31.37651	 
670.0	1.0	0.0	7.87314	7.18757	-10.13664	14.5607	18.38955	1.25654	0.79584	166.30195	161.06927	62.61751	0.32792	 	3.54277E10	 	1.29934E-10	 	-3490.68801	31.34754	 
665.0	1.0	0.0	7.87518	7.1857	-10.15996	14.53548	18.32948	1.25397	0.79747	166.61579	161.24838	62.74198	0.32779	 	4.2403E10	 	1.07985E-10	 	-3647.28505	31.31941	 
660.0	1.0	0.0	7.87722	7.18384	-10.18321	14.51025	18.2694	1.25139	0.79911	166.92918	161.42683	62.8663	0.32765	 	5.084949999999999E10	 	8.95677E-11	 	-3803.73404	31.2898	 
655.0	1.0	0.0	7.87926	7.18199	-10.2064	14.48503	18.2093	1.24879	0.80077	167.24211	161.60462	62.99047	0.32752	 	6.109799999999999E10	 	7.41444E-11	 	-3959.96889	31.24697	 
650.0	1.0	0.0	7.88129	7.18014	-10.22953	14.4598	18.14918	1.24618	0.80245	167.5546	161.78176	63.11449	0.32739	 	7.35581E10	 	6.12532E-11	 	-4115.90199	31.18662	 
645.0	1.0	0.0	7.88331	7.1783	-10.25259	14.43457	18.08905	1.24355	0.80415	167.86663	161.95824	63.23836	0.32725	 	8.87385E10	 	5.04997E-11	 	-4271.5347	31.12654	 
640.0	1.0	0.0	7.88533	7.17646	-10.27558	14.40934	18.02889	1.24091	0.80586	168.17821	162.13408	63.36208	0.32712	 	1.07272E11	 	4.15473E-11	 	-4426.86835	31.06673	 
635.0	1.0	0.0	7.88735	7.17462	-10.29851	14.3841	17.96871	1.23825	0.80759	168.48933	162.30927	63.48566	0.32699	 	1.29947E11	 	3.41097E-11	 	-4581.90431	31.00719	 
630.0	1.0	0.0	7.88936	7.17279	-10.32137	14.35887	17.90852	1.23557	0.80935	168.80001	162.4838	63.60909	0.32685	 	1.5775E11	 	2.79433E-11	 	-4736.64392	30.94792	 
625.0	1.0	0.0	7.89136	7.17097	-10.34416	14.33363	17.8483	1.23287	0.81111	169.11023	162.6577	63.73236	0.32672	 	1.91916E11	 	2.28415E-11	 	-4891.08876	30.88897	 
620.0	1.0	0.0	7.89336	7.16915	-10.36689	14.30839	17.78807	1.23016	0.8129	169.42	162.83095	63.85549	0.32659	 	2.33994E11	 	1.86298E-11	 	-5045.24074	30.8304	 
615.0	1.0	0.0	7.89536	7.16734	-10.38955	14.28315	17.72781	1.22743	0.81471	169.72931	163.00355	63.97847	0.32646	 	2.85935E11	 	1.51602E-11	 	-5199.10092	30.77204	 
610.0	1.0	0.0	7.89735	7.16553	-10.41215	14.25791	17.66754	1.22469	0.81654	170.03818	163.17552	64.1013	0.32632	 	3.502E11	 	1.23085E-11	 	-5352.6706	30.71394	 
605.0	1.0	0.0	7.89934	7.16373	-10.43468	14.23266	17.60724	1.22192	0.81838	170.34659	163.34684	64.22399	0.32619	 	4.299E11	 	9.96983E-12	 	-5505.95113	30.6561	 
600.0	1.0	0.0	7.90132	7.16193	-10.45715	14.20742	17.54692	1.21914	0.82025	170.65455	163.51753	64.34652	0.32606	 	5.2898E11	 	8.05631E-12	 	-5658.94383	30.59854	 
595.0	1.0	0.0	7.9033	7.16014	-10.47955	14.18217	17.48657	1.21634	0.82214	170.96206	163.68759	64.46891	0.32593	 	6.52452E11	 	6.49431E-12	 	-5811.65003	30.54124	 
590.0	1.0	0.0	7.90527	7.15836	-10.50188	14.15692	17.42621	1.21353	0.82404	171.26911	163.85701	64.59114	0.32579	 	8.06702E11	 	5.22228E-12	 	-5964.07105	30.4842	 
585.0	1.0	0.0	7.90724	7.15658	-10.52415	14.13167	17.36582	1.21069	0.82597	171.57572	164.0258	64.71323	0.32566	 	9.99888E11	 	4.18889E-12	 	-6116.20819	30.42743	 
580.0	1.0	0.0	7.9092	7.1548	-10.54635	14.10641	17.30541	1.20784	0.82792	171.88187	164.19395	64.83517	0.32553	 	1.24246E12	 	3.35142E-12	 	-6268.06279	30.37092	 
575.0	1.0	0.0	7.91116	7.15303	-10.56849	14.08116	17.24497	1.20497	0.8299	172.18757	164.36148	64.95695	0.3254	 	1.54784E12	 	2.67444E-12	 	-6419.63615	30.31467	 
570.0	1.0	0.0	7.91311	7.15126	-10.59056	14.0559	17.18451	1.20208	0.83189	172.49282	164.52838	65.07859	0.32527	 	1.93331E12	 	2.12858E-12	 	-6570.92961	30.25869	 
565.0	1.0	0.0	7.91506	7.1495	-10.61256	14.03064	17.12402	1.19917	0.83391	172.79761	164.69466	65.20008	0.32513	 	2.4212E12	 	1.68958E-12	 	-6721.94443	30.20296	 
560.0	1.0	0.0	7.917	7.14775	-10.6345	14.00538	17.06351	1.19625	0.83595	173.10196	164.86031	65.32143	0.325	 	3.0404E12	 	1.33745E-12	 	-6872.68196	30.14751	 
555.0	1.0	0.0	7.91894	7.146	-10.65637	13.98012	17.00297	1.1933	0.83801	173.40585	165.02533	65.44262	0.32487	 	3.82848E12	 	1.05577E-12	 	-7023.14348	30.0923	 
550.0	1.0	0.0	7.92087	7.14426	-10.67818	13.95485	16.94241	1.19034	0.8401	173.70929	165.18974	65.56366	0.32474	 	4.83434E12	 	8.31053E-13	 	-7173.33032	30.03737	 
545.0	1.0	0.0	7.9228	7.14252	-10.69992	13.92959	16.88181	1.18735	0.84221	174.01228	165.35353	65.68455	0.32461	 	6.12191E12	 	6.52278E-13	 	-7323.24373	29.98268	 
540.0	1.0	0.0	7.92472	7.14078	-10.72159	13.90432	16.82119	1.18435	0.84435	174.31482	165.5167	65.8053	0.32447	 	7.77494E12	 	5.10458E-13	 	-7472.88505	29.92826	 
535.0	1.0	0.0	7.92664	7.13906	-10.7432	13.87905	16.76054	1.18133	0.84651	174.6169	165.67925	65.92589	0.32434	 	9.90358E12	 	3.98278E-13	 	-7622.25556	29.8741	 
530.0	1.0	0.0	7.92856	7.13733	-10.76474	13.85378	16.69987	1.17828	0.84869	174.91854	165.84119	66.04633	0.32421	 	1.26531E13	 	3.09804E-13	 	-7771.35654	29.8202	 
525.0	1.0	0.0	7.93046	7.13561	-10.78622	13.82851	16.63916	1.17522	0.8509	175.21972	166.00252	66.16663	0.32408	 	1.62156E13	 	2.40236E-13	 	-7920.18928	29.76655	 
520.0	1.0	0.0	7.93237	7.1339	-10.80763	13.80323	16.57842	1.17214	0.85314	175.52045	166.16323	66.28677	0.32395	 	2.08462E13	 	1.85701E-13	 	-8068.75507	29.71316	 
515.0	1.0	0.0	7.93427	7.13219	-10.82897	13.77795	16.51765	1.16903	0.85541	175.82073	166.32334	66.40677	0.32382	 	2.68848E13	 	1.43083E-13	 	-8217.05518	29.66002	 
510.0	1.0	0.0	7.93616	7.13049	-10.85025	13.75267	16.45685	1.16591	0.8577	176.12056	166.48284	66.52661	0.32368	 	3.47854E13	 	1.09884E-13	 	-8365.09089	29.60714	 
505.0	1.0	0.0	7.93805	7.1288	-10.87146	13.72739	16.39602	1.16276	0.86002	176.41994	166.64173	66.64631	0.32355	 	4.5157E13	 	8.41056E-14	 	-8512.86349	29.55452	 
500.0	1.0	0.0	7.93993	7.12711	-10.8926	13.70211	16.33516	1.1596	0.86237	176.71886	166.80001	66.76586	0.32342	 	5.88191E13	 	6.41552E-14	 	-8660.37422	29.50215	 
495.0	1.0	0.0	7.94181	7.12542	-10.91368	13.67683	16.27426	1.15641	0.86475	177.01734	166.95769	66.88525	0.32329	 	7.68788E13	 	4.8767E-14	 	-8807.62435	29.45003	 
490.0	1.0	0.0	7.94369	7.12374	-10.9347	13.65154	16.21333	1.1532	0.86715	177.31536	167.11477	67.0045	0.32316	 	1.00837E14	 	3.69384E-14	 	-8954.61516	29.39816	 
485.0	1.0	0.0	7.94555	7.12206	-10.95565	13.62625	16.15236	1.14997	0.86959	177.61293	167.27125	67.12359	0.32303	 	1.3273499999999998E14	 	2.78777E-14	 	-9101.34789	29.34654	 
480.0	1.0	0.0	7.94742	7.12039	-10.97653	13.60096	16.09136	1.14671	0.87206	177.91005	167.42713	67.24254	0.3229	 	1.75362E14	 	2.0962E-14	 	-9247.8238	29.29518	 
475.0	1.0	0.0	7.94928	7.11873	-10.99734	13.57567	16.03032	1.14344	0.87456	178.20672	167.58241	67.36134	0.32277	 	2.32543E14	 	1.57026E-14	 	-9394.04414	29.24407	 
470.0	1.0	0.0	7.95113	7.11707	-11.01809	13.55038	15.96925	1.14014	0.87709	178.50293	167.7371	67.47998	0.32264	 	3.09542E14	 	1.17177E-14	 	-9540.01014	29.1932	 
465.0	1.0	0.0	7.95298	7.11541	-11.03877	13.52508	15.90813	1.13682	0.87965	178.7987	167.89119	67.59848	0.32251	 	4.13636E14	 	8.70989E-15	 	-9685.72306	29.14258	 
460.0	1.0	0.0	7.95482	7.11376	-11.05939	13.49979	15.84698	1.13348	0.88224	179.09402	168.04469	67.71682	0.32237	 	5.5492699999999994E14	 	6.44828E-15	 	-9831.18411	29.09221	 
455.0	1.0	0.0	7.95666	7.11212	-11.07994	13.47449	15.78579	1.13011	0.88487	179.38888	168.19759	67.83502	0.32224	 	7.47489E14	 	4.75448E-15	 	-9976.39455	29.04209	 
450.0	1.0	0.0	7.95849	7.11048	-11.10043	13.44919	15.72455	1.12672	0.88753	179.68329	168.34991	67.95306	0.32211	 	1.01103E15	 	3.49102E-15	 	-10121.35558	28.99221	 
445.0	1.0	0.0	7.96032	7.10885	-11.12084	13.42389	15.66328	1.12331	0.89023	179.97725	168.50164	68.07096	0.32198	 	1.37324E15	 	2.55243E-15	 	-10266.06843	28.94257	 
440.0	1.0	0.0	7.96215	7.10722	-11.1412	13.39858	15.60196	1.11987	0.89296	180.27076	168.65278	68.1887	0.32185	 	1.87326E15	 	1.85811E-15	 	-10410.53431	28.89318	 
435.0	1.0	0.0	7.96396	7.1056	-11.16148	13.37328	15.5406	1.11641	0.89573	180.56382	168.80333	68.30629	0.32172	 	2.56656E15	 	1.34667E-15	 	-10554.75443	28.84402	 
430.0	1.0	0.0	7.96578	7.10398	-11.1817	13.34797	15.4792	1.11292	0.89853	180.85643	168.9533	68.42374	0.32159	 	3.53223E15	 	9.71595E-16	 	-10698.73	28.79511	 
425.0	1.0	0.0	7.96758	7.10237	-11.20186	13.32266	15.41775	1.10941	0.90138	181.14859	169.10269	68.54103	0.32146	 	4.88354E15	 	6.97752E-16	 	-10842.46204	28.74641	 
420.0	1.0	0.0	7.96939	7.10076	-11.22194	13.29735	15.35625	1.10588	0.90426	181.44029	169.2515	68.65817	0.32133	 	6.78343E15	 	4.98729E-16	 	-10985.952	28.69799	 
415.0	1.0	0.0	7.97119	7.09916	-11.24197	13.27203	15.29471	1.10232	0.90718	181.73155	169.39972	68.77516	0.3212	 	9.46756E15	 	3.54758E-16	 	-11129.20037	28.64967	 
410.0	1.0	0.0	7.97298	7.09757	-11.26192	13.24672	15.23312	1.09874	0.91014	182.02235	169.54737	68.892	0.32107	 	1.32784E16	 	2.51106E-16	 	-11272.20735	28.6014	 
405.0	1.0	0.0	7.97477	7.09598	-11.28181	13.2214	15.17148	1.09513	0.91314	182.31271	169.69444	69.00869	0.32094	 	1.87163E16	 	1.76845E-16	 	-11414.97314	28.55316	 
400.0	1.0	0.0	7.97655	7.09439	-11.30163	13.19608	15.10978	1.09149	0.91618	182.60261	169.84094	69.12523	0.32081	 	2.65161E16	 	1.23905E-16	 	-11557.49791	28.50495	 
395.0	1.0	0.0	7.97832	7.09281	-11.32139	13.17076	15.04804	1.08783	0.91926	182.89206	169.98686	69.24161	0.32068	 	3.77627E16	 	8.6357E-17	 	-11699.78185	28.45679	 
390.0	1.0	0.0	7.9801	7.09123	-11.34108	13.14544	14.98624	1.08414	0.92239	183.18106	170.13221	69.35785	0.32055	 	5.4067E16	 	5.98641E-17	 	-11841.82513	28.40866	 
385.0	1.0	0.0	7.98186	7.08966	-11.3607	13.12012	14.92439	1.08042	0.92556	183.46961	170.27698	69.47394	0.32042	 	7.7834E16	 	4.12707E-17	 	-11983.62793	28.36056	 
380.0	1.0	0.0	7.98362	7.0881	-11.38026	13.09479	14.86248	1.07668	0.92878	183.7577	170.42119	69.58987	0.32029	 	1.12675E17	 	2.82925E-17	 	-12125.19038	28.31249	 
375.0	1.0	0.0	7.98538	7.08654	-11.39975	13.06947	14.80051	1.07291	0.93204	184.04535	170.56483	69.70565	0.32016	 	1.64047E17	 	1.92839E-17	 	-12266.51264	28.26445	 
370.0	1.0	0.0	7.98713	7.08499	-11.41918	13.04414	14.73848	1.06912	0.93535	184.33255	170.7079	69.82128	0.32003	 	2.40239E17	 	1.30664E-17	 	-12407.59484	28.21644	 
365.0	1.0	0.0	7.98888	7.08344	-11.43854	13.0188	14.6764	1.06529	0.93871	184.61929	170.8504	69.93676	0.3199	 	3.53927E17	 	8.80026E-18	 	-12548.43713	28.16846	 
360.0	1.0	0.0	7.99062	7.0819	-11.45783	12.99347	14.61425	1.06144	0.94211	184.90559	170.99234	70.05209	0.31977	 	5.24618E17	 	5.89047E-18	 	-12689.0396	28.1205	 
355.0	1.0	0.0	7.99235	7.08036	-11.47706	12.96814	14.55204	1.05756	0.94557	185.19143	171.13372	70.16727	0.31964	 	7.82516E17	 	3.91793E-18	 	-12829.40238	28.07256	 
350.0	1.0	0.0	7.99408	7.07883	-11.49622	12.9428	14.48977	1.05365	0.94908	185.47682	171.27453	70.2823	0.31951	 	1.17471E18	 	2.5891E-18	 	-12969.52557	28.02464	 
345.0	1.0	0.0	7.99581	7.0773	-11.51531	12.91746	14.42742	1.04971	0.95264	185.76177	171.41479	70.39717	0.31938	 	1.77509E18	 	1.69965E-18	 	-13109.40924	27.97673	 
340.0	1.0	0.0	7.99753	7.07578	-11.53434	12.89212	14.36501	1.04575	0.95625	186.04626	171.55448	70.51189	0.31925	 	2.70045E18	 	1.1082E-18	 	-13249.05348	27.92885	 
335.0	1.0	0.0	7.99924	7.07426	-11.5533	12.86678	14.30253	1.04175	0.95992	186.3303	171.69362	70.62646	0.31913	 	4.13664E18	 	7.17546E-19	 	-13388.45836	27.88098	 
330.0	1.0	0.0	8.00095	7.07275	-11.5722	12.84144	14.23998	1.03772	0.96365	186.61389	171.8322	70.74088	0.319	 	6.3816E18	 	4.61299E-19	 	-13527.62392	27.83311	 
325.0	1.0	0.0	8.00266	7.07124	-11.59103	12.81609	14.17735	1.03367	0.96743	186.89703	171.97023	70.85515	0.31887	 	9.91653E18	 	2.944E-19	 	-13666.55021	27.78526	 
320.0	1.0	0.0	8.00436	7.06974	-11.60979	12.79074	14.11465	1.02958	0.97127	187.17971	172.1077	70.96927	0.31874	 	1.55245E19	 	1.86481E-19	 	-13805.23726	27.73741	 
315.0	1.0	0.0	8.00605	7.06825	-11.62849	12.76539	14.05187	1.02546	0.97517	187.46195	172.24462	71.08323	0.31861	 	2.44897E19	 	1.17217E-19	 	-13943.68507	27.68956	 
310.0	1.0	0.0	8.00774	7.06676	-11.64712	12.74004	13.98901	1.02131	0.97913	187.74374	172.38099	71.19704	0.31848	 	3.89354E19	 	7.31007E-20	 	-14081.89364	27.64171	 
305.0	1.0	0.0	8.00942	7.06527	-11.66568	12.71469	13.92607	1.01713	0.98315	188.02507	172.51681	71.3107	0.31835	 	6.24007E19	 	4.52207E-20	 	-14219.86298	27.59387	 
300.0	1.0	0.0	8.0111	7.06379	-11.68418	12.68934	13.86304	1.01292	0.98724	188.30596	172.65208	71.42421	0.31822	 	1.00834E20	 	2.77426E-20	 	-14357.59304	27.54601	 
295.0	1.0	0.0	8.01277	7.06232	-11.70261	12.66398	13.79993	1.00868	0.9914	188.58639	172.7868	71.53757	0.31809	 	1.64322E20	 	1.68754E-20	 	-14495.08376	27.49814	 
290.0	1.0	0.0	8.01444	7.06085	-11.72097	12.63862	13.73673	1.0044	0.99562	188.86637	172.92098	71.65077	0.31796	 	2.7011499999999997E20	 	1.01757E-20	 	-14632.33509	27.45027	 
285.0	1.0	0.0	8.0161	7.05939	-11.73927	12.61326	13.67343	1.00009	0.99991	189.1459	173.05461	71.76382	0.31784	 	4.4798999999999993E20	 	6.08092E-21	 	-14769.34696	27.40237	 
280.0	1.0	0.0	8.01776	7.05793	-11.7575	12.5879	13.61004	0.99575	1.00427	189.42499	173.1877	71.87672	0.31771	 	7.498259999999999E20	 	3.60055E-21	 	-14906.11924	27.35446	 
275.0	1.0	0.0	8.01941	7.05647	-11.77567	12.56254	13.54656	0.99137	1.0087	189.70362	173.32025	71.98947	0.31758	 	1.26688E21	 	2.1118E-21	 	-15042.65185	27.30652	 
270.0	1.0	0.0	8.02105	7.05503	-11.79377	12.53717	13.48297	0.98696	1.01321	189.9818	173.45226	72.10207	0.31745	 	2.16123E21	 	1.22661E-21	 	-15178.94461	27.25855	 
265.0	1.0	0.0	8.02269	7.05358	-11.8118	12.5118	13.41929	0.98252	1.01779	190.25953	173.58373	72.21451	0.31732	 	3.72373E21	 	7.05362E-22	 	-15314.99738	27.21055	 
260.0	1.0	0.0	8.02433	7.05215	-11.82977	12.48644	13.35549	0.97804	1.02246	190.5368	173.71466	72.3268	0.31719	 	6.481670000000001E21	 	4.01466E-22	 	-15450.80996	27.16252	 
255.0	1.0	0.0	8.02596	7.05072	-11.84767	12.46106	13.29159	0.97352	1.0272	190.81363	173.84505	72.43894	0.31707	 	1.14013E22	 	2.26095E-22	 	-15586.38217	27.11444	 
250.0	1.0	0.0	8.02758	7.04929	-11.8655	12.43569	13.22757	0.96897	1.03202	191.09001	173.9749	72.55092	0.31694	 	2.02726E22	 	1.25952E-22	 	-15721.71377	27.06632	 
245.0	1.0	0.0	8.0292	7.04787	-11.88327	12.41032	13.16344	0.96439	1.03693	191.36593	174.10423	72.66275	0.31681	 	3.6449099999999997E22	 	6.93833E-23	 	-15856.80448	27.01814	 
240.0	1.0	0.0	8.03081	7.04645	-11.90097	12.38494	13.09919	0.95977	1.04192	191.64141	174.23301	72.77443	0.31668	 	6.628739999999999E22	 	3.77833E-23	 	-15991.65405	26.96991	 
235.0	1.0	0.0	8.03242	7.04504	-11.9186	12.35956	13.03482	0.95511	1.047	191.91643	174.36127	72.88596	0.31655	 	1.21979E23	 	2.03326E-23	 	-16126.26216	26.92162	 
230.0	1.0	0.0	8.03402	7.04364	-11.93617	12.33418	12.97032	0.95041	1.05217	192.19101	174.489	72.99733	0.31642	 	2.27199E23	 	1.08088E-23	 	-16260.62845	26.87326	 
225.0	1.0	0.0	8.03562	7.04224	-11.95367	12.3088	12.90568	0.94568	1.05744	192.46513	174.61619	73.10855	0.3163	 	4.28497E23	 	5.67413E-24	 	-16394.75258	26.82482	 
220.0	1.0	0.0	8.03721	7.04084	-11.97111	12.28342	12.84092	0.94091	1.0628	192.7388	174.74286	73.21962	0.31617	 	8.1861E23	 	2.94028E-24	 	-16528.63412	26.77631	 
215.0	1.0	0.0	8.0388	7.03945	-11.98847	12.25803	12.77601	0.9361	1.06826	193.01202	174.869	73.33053	0.31604	 	1.58477E24	 	1.5034E-24	 	-16662.27266	26.72771	 
210.0	1.0	0.0	8.04038	7.03807	-12.00578	12.23265	12.71096	0.93126	1.07382	193.2848	174.99462	73.44129	0.31591	 	3.11022E24	 	7.58189E-25	 	-16795.6677	26.67901	 
205.0	1.0	0.0	8.04195	7.03669	-12.02301	12.20726	12.64576	0.92637	1.07948	193.55712	175.11971	73.5519	0.31579	 	6.19073E24	 	3.76972E-25	 	-16928.81875	26.63021	 
200.0	1.0	0.0	8.04352	7.03532	-12.04018	12.18187	12.58041	0.92145	1.08525	193.82898	175.24428	73.66236	0.31566	 	1.25029E25	 	1.84704E-25	 	-17061.72524	26.5813	 
195.0	1.0	0.0	8.04509	7.03395	-12.05728	12.15647	12.51489	0.91648	1.09113	194.1004	175.36832	73.77266	0.31553	 	2.5633000000000003E25	 	8.91399E-26	 	-17194.3866	26.53227	 
190.0	1.0	0.0	8.04664	7.03259	-12.07432	12.13108	12.44922	0.91148	1.09712	194.37137	175.49185	73.88281	0.3154	 	5.33729E25	 	4.23533E-26	 	-17326.80219	26.48312	 
185.0	1.0	0.0	8.0482	7.03123	-12.09129	12.10568	12.38337	0.90643	1.10323	194.64189	175.61485	73.9928	0.31528	 	1.1292600000000001E26	 	1.98016E-26	 	-17458.97131	26.43382	 
180.0	1.0	0.0	8.04975	7.02988	-12.10819	12.08029	12.31735	0.90134	1.10945	194.91195	175.73734	74.10264	0.31515	 	2.4291300000000003E26	 	9.10496E-27	 	-17590.89325	26.38439	 
175.0	1.0	0.0	8.05129	7.02853	-12.12503	12.05489	12.25114	0.89622	1.1158	195.18157	175.85931	74.21233	0.31502	 	5.3153200000000004E26	 	4.1151E-27	 	-17722.56722	26.33479	 
170.0	1.0	0.0	8.05283	7.02719	-12.1418	12.02949	12.18474	0.89105	1.12228	195.45073	175.98076	74.32187	0.31489	 	1.18381E27	 	1.82707E-27	 	-17853.99239	26.28503	 
165.0	1.0	0.0	8.05436	7.02585	-12.1585	12.00408	12.11815	0.88583	1.12888	195.71944	176.1017	74.43125	0.31477	 	2.68517E27	 	7.96411E-28	 	-17985.16786	26.23509	 
160.0	1.0	0.0	8.05588	7.02452	-12.17514	11.97868	12.05136	0.88058	1.13562	195.98771	176.22212	74.54047	0.31464	 	6.206889999999999E27	 	3.40605E-28	 	-18116.09267	26.18496	 
155.0	1.0	0.0	8.0574	7.0232	-12.19171	11.95327	11.98435	0.87528	1.14249	196.25552	176.34203	74.64955	0.31451	 	1.4631E28	 	1.42826E-28	 	-18246.76581	26.13463	 
150.0	1.0	0.0	8.05892	7.02188	-12.20821	11.92786	11.91713	0.86994	1.14951	196.52288	176.46143	74.75847	0.31439	 	3.51946E28	 	5.86819E-29	 	-18377.18618	26.08408	 
145.0	1.0	0.0	8.06043	7.02056	-12.22465	11.90245	11.84968	0.86455	1.15667	196.78979	176.58032	74.86723	0.31426	 	8.64559E28	 	2.36061E-29	 	-18507.35264	26.03329	 
140.0	1.0	0.0	8.06193	7.01925	-12.24102	11.87704	11.78199	0.85912	1.16398	197.05625	176.6987	74.97584	0.31413	 	2.1705E29	 	9.2904E-30	 	-18637.26395	25.98226	 
135.0	1.0	0.0	8.06343	7.01795	-12.25732	11.85163	11.71406	0.85365	1.17144	197.32226	176.81657	75.0843	0.314	 	5.5734E29	 	3.57426E-30	 	-18766.91877	25.93096	 
130.0	1.0	0.0	8.06492	7.01665	-12.27356	11.82621	11.64587	0.84813	1.17907	197.58781	176.93393	75.1926	0.31388	 	1.465E30	 	1.34312E-30	 	-18896.31571	25.87939	 
125.0	1.0	0.0	8.06641	7.01536	-12.28973	11.80079	11.57742	0.84256	1.18686	197.85292	177.05079	75.30075	0.31375	 	3.94548E30	 	4.92531E-31	 	-19025.45329	25.82752	 
120.0	1.0	0.0	8.06789	7.01407	-12.30584	11.77537	11.50869	0.83695	1.19482	198.11758	177.16715	75.40875	0.31362	 	1.08969E31	 	1.76092E-31	 	-19154.3299	25.77532	 
115.0	1.0	0.0	8.06936	7.01279	-12.32187	11.74995	11.43967	0.83129	1.20295	198.38178	177.283	75.51659	0.3135	 	3.0894099999999997E31	 	6.13211E-32	 	-19282.94385	25.72279	 
110.0	1.0	0.0	8.07083	7.01151	-12.33784	11.72453	11.37036	0.82558	1.21126	198.64553	177.39834	75.62428	0.31337	 	9.00035E31	 	2.07776E-32	 	-19411.29333	25.6699	 
105.0	1.0	0.0	8.0723	7.01024	-12.35375	11.6991	11.30073	0.81983	1.21977	198.90884	177.51319	75.73181	0.31325	 	2.69726E32	 	6.8427E-33	 	-19539.37641	25.61661	 
100.0	1.0	0.0	8.07376	7.00897	-12.36959	11.67368	11.23077	0.81403	1.22846	199.17169	177.62754	75.83918	0.31312	 	8.324559999999999E32	 	2.18781E-33	 	-19667.19104	25.56293	 
95.0	1.0	0.0	8.07521	7.00771	-12.38536	11.64825	11.16048	0.80818	1.23735	199.43409	177.74138	75.94641	0.31299	 	2.6490700000000004E33	 	6.78294E-34	 	-19794.73505	25.5088	 
90.0	1.0	0.0	8.07666	7.00645	-12.40106	11.62282	11.08983	0.80228	1.24644	199.69604	177.85473	76.05348	0.31287	 	8.70301E33	 	2.03659E-34	 	-19922.0061	25.45421	 
85.0	1.0	0.0	8.0781	7.0052	-12.4167	11.59739	11.01881	0.79634	1.25575	199.95754	177.96758	76.16039	0.31274	 	2.9557600000000004E34	 	5.91402E-35	 	-20049.0017	25.39912	 
80.0	1.0	0.0	8.07954	7.00396	-12.43227	11.57195	10.9474	0.79034	1.26528	200.21859	178.07994	76.26715	0.31261	 	1.03921E35	 	1.6586E-35	 	-20175.71922	25.3435	 
75.0	1.0	0.0	8.08097	7.00272	-12.44777	11.54652	10.87558	0.7843	1.27503	200.47918	178.1918	76.37375	0.31249	 	3.78812E35	 	4.48569E-36	 	-20302.15582	25.28732	 
70.0	1.0	0.0	8.08239	7.00148	-12.46321	11.52108	10.80334	0.7782	1.28501	200.73933	178.30317	76.4802	0.31236	 	1.4338799999999998E36	 	1.16804E-36	 	-20428.30851	25.23054	 
65.0	1.0	0.0	8.08381	7.00025	-12.47858	11.49564	10.73065	0.77206	1.29524	200.99902	178.41405	76.5865	0.31224	 	5.64544E36	 	2.92347E-37	 	-20554.17406	25.17311	 
60.0	1.0	0.0	8.08523	6.99903	-12.49389	11.4702	10.65749	0.76586	1.30572	201.25827	178.52443	76.69263	0.31211	 	2.3160499999999996E37	 	7.02068E-38	 	-20679.74905	25.115	 
55.0	1.0	0.0	8.08663	6.99781	-12.50913	11.44475	10.58384	0.75962	1.31645	201.51706	178.63432	76.79862	0.31198	 	9.91927E37	 	1.61465E-38	 	-20805.0298	25.05615	 
50.0	1.0	0.0	8.08804	6.9966	-12.5243	11.41931	10.50967	0.75332	1.32745	201.7754	178.74373	76.90445	0.31186	 	4.44386E38	 	3.5492E-39	 	-20930.0124	24.99652	 
45.0	1.0	0.0	8.08943	6.99539	-12.5394	11.39386	10.43496	0.74698	1.33873	202.03329	178.85264	77.01012	0.31173	 	2.0869500000000002E39	 	7.44056E-40	 	-21054.69265	24.93605	 
40.0	1.0	0.0	8.09083	6.99419	-12.55444	11.36842	10.35967	0.74058	1.35029	202.29073	178.96107	77.11564	0.31161	 	1.02971E40	 	1.4843E-40	 	-21179.06607	24.87469	 
35.0	1.0	0.0	8.09221	6.99299	-12.56941	11.34296	10.28378	0.73413	1.36215	202.54772	179.06902	77.221	0.31148	 	5.35076E40	 	2.81082E-41	 	-21303.12785	24.81236	 
30.0	1.0	0.0	8.09359	6.9918	-12.58431	11.31752	10.20726	0.72764	1.37431	202.80426	179.17648	77.32621	0.31136	 	2.93578E41	 	5.03989E-42	 	-21426.87286	24.749	 
25.0	1.0	0.0	8.09496	6.99061	-12.59915	 	10.13006	0.72109	1.38679	203.06034	179.28345	77.43126	0.31123	 	1.7054099999999998E42	 	8.53284E-43	 	-21550.29556	 	 
