T (C)	Fraction solid (wt)-TOTAL	Fraction liquid (wt)-LIQUID	Density (g/(cm)^3)-TOTAL	Molar volume (cm^3)-TOTAL	Volume change (%)-  	Average expansion coeff. (10e-6 1/K)-  	Thermal conductivity (W/(m*K))-TOTAL	Electrical resistivity (10e-6 Ohm*m)-TOTAL	Electrical conductivity (10e6 1/(Ohm*m))-TOTAL	Young's modulus (GPa)-TOTAL	Bulk modulus (GPa)-TOTAL	Shear modulus(GPa)-TOTAL	Poisson's ratio-TOTAL	Liquid viscosity (mPa s)-  	Total viscosity (mPa s)-  	Liquid diffusivity (10e-9 (m^2)/s)-  	Total diffusivity (10e-9 (m^2)/s)-  	Surface Tension (mN/m)-  	Enthalpy (J/mole)-TOTAL	Specific heat (J/(mole K))-TOTAL	Latent heat (J/mole)-TOTAL
1400.0	0.0	1.0	7.10218	7.96818	0.0	32.82328	28.40251	1.44326	0.69288	0.0	120.64221	0.0	0.5	6.79354	6.79354	1.20206	1.20206	1749.88331	43918.059	 	0.0
1395.0	0.0	1.0	7.10615	7.96373	-0.0558539	32.78878	28.32636	1.44281	0.69309	0.0	120.78695	0.0	0.5	6.86605	6.86605	1.18581	1.18581	1752.48254	43715.096	40.5926	0.0
1390.0	0.0	1.0	7.11011	7.9593	-0.11155	32.75446	28.2502	1.44237	0.6933	0.0	120.9317	0.0	0.5	6.93977	6.93977	1.1697	1.1697	1755.11005	43512.591	40.501	0.0
1385.0	0.0	1.0	7.11406	7.95487	-0.16709	32.72033	28.17405	1.44192	0.69352	0.0	121.07644	0.0	0.5	7.01474	7.01474	1.15372	1.15372	1757.76627	43310.539	40.4104	0.0
1380.0	0.0	1.0	7.11801	7.95046	-0.22247	32.68639	28.0979	1.44147	0.69374	0.0	121.22118	0.0	0.5	7.09098	7.09098	1.13787	1.13787	1760.45164	43108.94	40.3198	0.0
1375.0	0.0	1.0	7.12195	7.94606	-0.27769	32.65265	28.02175	1.44101	0.69396	0.0	121.36593	0.0	0.5	7.16851	7.16851	1.12216	1.12216	1763.16658	42907.791	40.2298	0.0
1370.0	0.0	1.0	7.12589	7.94167	-0.33275	32.61909	27.9456	1.44056	0.69418	0.0	121.51067	0.0	0.5	7.24738	7.24738	1.10658	1.10658	1765.9115	42707.088	40.1406	0.0
1365.0	0.0	1.0	7.12982	7.9373	-0.38765	32.58574	27.86945	1.4401	0.6944	0.0	121.65542	0.0	0.5	7.3276	7.3276	1.09114	1.09114	1768.68679	42506.83	40.0516	0.0
1360.0	0.0	1.0	7.13374	7.93293	-0.4424	32.55259	27.79329	1.43963	0.69462	0.0	121.80016	0.0	0.5	7.4092	7.4092	1.07582	1.07582	1771.49284	42307.015	39.963	0.0
1355.0	0.0	1.0	7.13765	7.92858	-0.49698	32.51963	27.71714	1.43917	0.69485	0.0	121.9449	0.0	0.5	7.49223	7.49223	1.06064	1.06064	1774.33001	42107.64	39.875	0.0
1350.0	0.0	1.0	7.14156	7.92425	-0.55141	32.48688	27.64099	1.4387	0.69507	0.0	122.08965	0.0	0.5	7.57671	7.57671	1.0456	1.0456	1777.19866	41908.703	39.7874	0.0
1345.0	0.0	1.0	7.14546	7.91992	-0.60568	32.45434	27.56484	1.43823	0.6953	0.0	122.23439	0.0	0.5	7.66267	7.66267	1.03068	1.03068	1780.09913	41710.201	39.7004	0.0
1340.0	0.0	1.0	7.14935	7.91561	-0.65979	32.422	27.48869	1.43776	0.69553	0.0	122.37914	0.0	0.5	7.75015	7.75015	1.0159	1.0159	1783.03173	41512.132	39.6138	0.0
1335.0	0.0	1.0	7.15323	7.91131	-0.71374	32.38988	27.41253	1.43729	0.69576	0.0	122.52388	0.0	0.5	7.83917	7.83917	1.00125	1.00125	1785.99677	41314.495	39.5274	0.0
1330.0	0.0	1.0	7.15711	7.90703	-0.76754	32.35797	27.33638	1.43681	0.69599	0.0	122.66862	0.0	0.5	7.92979	7.92979	0.98673	0.98673	1788.99453	41117.285	39.442	0.0
1325.0	0.0	1.0	7.16098	7.90275	-0.82118	32.32627	27.26023	1.43633	0.69622	0.0	122.81337	0.0	0.5	8.02203	8.02203	0.97234	0.97234	1792.02527	40920.503	39.3564	0.0
1320.0	0.0	1.0	7.16485	7.89849	-0.87465	32.29479	27.18408	1.43585	0.69645	0.0	122.95811	0.0	0.5	8.11594	8.11594	0.95809	0.95809	1795.08923	40724.144	39.2718	0.0
1319.66	0.0	1.0	7.16511	7.8982	-0.87826	32.29268	27.17894	1.43581	0.69647	0.0	122.96789	0.0	0.5	8.12234	8.12234	0.95713	0.95713	1795.29736	40710.898	39.22533	0.0
1315.0	0.1206	0.8794	7.19898	7.86108	-1.34421	31.04235	27.5458	1.41254	0.70794	0.0194577	123.73095	0.00655505	0.48417	8.22096	15.4875	0.94288	0.50049	1794.58222	38804.437	408.9091	1723.77
1310.0	0.22965	0.77035	7.23017	7.82713	-1.77022	29.90844	27.87762	1.39134	0.71873	0.26115	124.47171	0.0888448	0.46968	8.32965	92.48804	0.92765	0.0835455	1793.91907	37062.751	348.3372	3269.939
1305.0	0.32145	0.67855	7.25693	7.79823	-2.13298	28.95269	28.15656	1.3732	0.72822	1.02045	125.1498	0.3501	0.45735	8.44152	342.55575	0.91246	0.0224856	1793.35643	35577.676	297.015	4559.915
1300.0	0.39936	0.60064	7.28011	7.77338	-2.44484	28.14051	28.39251	1.35748	0.73666	2.47019	125.7792	0.85369	0.44677	8.55667	845.90522	0.89733	0.00907685	1792.8886	34298.809	255.7734	5644.099
1295.0	0.46602	0.53398	7.30034	7.75185	-2.71499	27.44623	28.59231	1.34371	0.74421	4.64393	126.37009	1.61513	0.43764	8.67527	1648.65122	0.88225	0.00464243	1792.50978	33187.109	222.34	6561.528
1290.0	0.52342	0.47658	7.31814	7.73291	-2.95264	26.84371	28.76117	1.33156	0.751	7.48396	126.92777	2.61733	0.42969	8.79732	2771.51561	0.86724	0.00275277	1792.21542	32212.037	195.0144	7342.741
1285.0	0.57318	0.42682	7.33392	7.71622	-3.16218	26.32085	28.9033	1.32077	0.75713	10.88381	127.45982	3.82491	0.42275	8.923	4219.256	0.85229	0.00180244	1791.99936	31349.481	172.5112	8011.845
1280.0	0.61653	0.38347	7.34799	7.70133	-3.34904	25.8622	29.02184	1.31116	0.76269	14.72089	127.96967	5.19567	0.41665	9.05245	5988.31564	0.8374	0.00126589	1791.85711	30580.247	153.8468	8588.036
1275.0	0.65451	0.34549	7.36063	7.68801	-3.51622	25.45947	29.1199	1.30253	0.76773	18.87633	128.46208	6.68775	0.41126	9.1858	8073.01257	0.82259	9.35975E-4	1791.78322	29888.926	138.2642	9086.718
1270.0	0.68795	0.31205	7.37204	7.67598	-3.66712	25.10301	29.19968	1.29478	0.77233	23.24186	128.93881	8.26243	0.40648	9.3232	10467.15083	0.80785	7.19559E-4	1791.77337	29263.061	125.173	9520.347
1265.0	0.71751	0.28249	7.38241	7.66505	-3.80428	24.78558	29.26356	1.28777	0.77654	27.72683	129.40233	9.88682	0.40221	9.46467	13167.37938	0.79319	5.70146E-4	1791.82332	28692.508	114.1106	9899.064
1260.0	0.74376	0.25624	7.39187	7.65508	-3.92939	24.50253	29.31326	1.28141	0.78039	32.25761	129.85471	11.53381	0.39839	9.61051	16174.01211	0.77862	4.62651E-4	1791.92853	28168.955	104.7106	10231.179
1255.0	0.76715	0.23285	7.40056	7.64592	-4.04434	24.24844	29.35041	1.27561	0.78394	36.77303	130.29683	13.18067	0.39496	9.7608	19489.24855	0.76413	3.82699E-4	1792.08545	27685.546	96.6818	10523.548
1250.0	0.78806	0.21194	7.40857	7.63744	-4.15078	24.01856	29.37652	1.27031	0.78721	41.23113	130.72985	14.81152	0.39186	9.9156	23121.74753	0.74974	3.21521E-4	1792.29078	27236.594	89.7904	10781.853
1245.0	0.80683	0.19317	7.41599	7.62959	-4.24933	23.81128	29.39281	1.26543	0.79024	45.59736	131.15545	16.41312	0.38905	10.07521	27082.88287	0.73544	2.73594E-4	1792.54034	26817.356	83.8476	11010.837
1240.0	0.82372	0.17628	7.42289	7.62226	-4.34129	23.62284	29.40031	1.26095	0.79306	49.84364	131.57369	17.97461	0.3865	10.23973	31385.18167	0.72124	2.35312E-4	1792.83161	26423.856	78.7	11214.472
1235.0	0.83898	0.16102	7.42934	7.61542	-4.42721	23.4517	29.40004	1.25679	0.79568	53.95855	131.986	19.49124	0.38417	10.40933	36051.04002	0.70714	2.0418E-4	1793.16094	26052.746	74.222	11396.107
1230.0	0.85278	0.14722	7.43539	7.60896	-4.5082	23.29464	29.39284	1.25293	0.79813	57.92988	132.39225	20.95803	0.38204	10.58418	41101.89352	0.69316	1.78495E-4	1793.52638	25701.189	70.3114	11558.574
1225.0	0.86531	0.13469	7.44109	7.60287	-4.58464	23.15062	29.37937	1.24934	0.80043	61.74781	132.79296	22.37091	0.38009	10.76446	46562.0716	0.67928	1.5704E-4	1793.92508	25366.777	66.8824	11704.281
1220.0	0.87672	0.12328	7.44647	7.5971	-4.65704	23.01818	29.36039	1.24597	0.80259	65.41689	133.18903	23.73113	0.37829	10.95039	52467.13249	0.66552	1.389E-4	1794.35446	25047.451	63.8652	11835.283
1215.0	0.88711	0.11289	7.45156	7.59162	-4.72583	22.89614	29.33631	1.24282	0.80462	68.92919	133.58033	25.03541	0.37663	11.14218	58845.78256	0.65187	1.23429E-4	1794.8125	24741.448	61.2006	11953.343
1210.0	0.89662	0.10338	7.45641	7.58638	-4.79162	22.78262	29.30779	1.23985	0.80655	72.29437	133.96727	26.28702	0.3751	11.33991	65742.15686	0.63835	1.1011E-4	1795.29764	24447.252	58.8392	12059.974
1205.0	0.90533	0.0946653	7.46103	7.58138	-4.8544	22.67778	29.27524	1.23704	0.80838	75.51373	134.35043	27.48612	0.37367	11.54399	73198.97601	0.62496	9.85599E-5	1795.80706	24163.552	56.74	12156.485
1200.0	0.91333	0.0866697	7.46545	7.57657	-4.91472	22.58	29.23899	1.23439	0.81012	78.5894	134.72959	28.63328	0.37234	11.75456	81261.63535	0.61168	8.84806E-5	1796.33993	23889.214	54.8676	12244.009
1195.0	0.92068	0.0793192	7.46969	7.57195	-4.97268	22.48901	29.19943	1.23186	0.81178	81.52914	135.10521	29.73114	0.37111	11.97186	89985.73821	0.59854	7.96312E-5	1796.89422	23623.251	53.1926	12323.529
1190.0	0.92745	0.0725461	7.47375	7.56749	-5.02867	22.40366	29.15685	1.22946	0.81337	84.3382	135.47724	30.7815	0.36995	12.19609	99429.86703	0.58554	7.18222E-5	1797.46904	23364.804	51.6894	12395.905
1185.0	0.9337	0.0662969	7.47768	7.56318	-5.08272	22.32386	29.11155	1.22717	0.81489	87.02147	135.84609	31.78596	0.36887	12.42759	109658.6604	0.57267	6.49002E-5	1798.06259	23113.119	50.337	12461.886
1180.0	0.93948	0.0605212	7.48146	7.55901	-5.13514	22.24872	29.06376	1.22497	0.81635	89.58627	136.21166	32.74715	0.36785	12.66658	120744.2133	0.55994	5.87396E-5	1798.67437	22867.537	49.1164	12522.13
1175.0	0.94482	0.0551756	7.48512	7.55495	-5.18604	22.17795	29.01371	1.22286	0.81776	92.03832	136.57415	33.66704	0.36689	12.91335	132765.593	0.54735	5.32371E-5	1799.30313	22627.478	48.0118	12577.216
1170.0	0.94978	0.0502218	7.48685	7.54843	-5.26783	22.00447	28.74055	1.23022	0.81286	94.91206	137.36254	34.7489	0.36568	13.16821	145808.3614	0.5349	4.83076E-5	1801.68154	22161.83553	93.12849	12627.655
1165.0	0.95438	0.0456234	7.49614	7.54109	-5.36002	21.79492	28.38972	1.24111	0.80573	98.05042	138.04764	35.94396	0.36393	13.4315	162969.4425	0.5226	4.3071E-5	1804.06089	21673.8983	97.58745	12673.896
1160.0	0.95865	0.0413525	7.50497	7.53377	-5.4519	21.58456	28.05933	1.25135	0.79913	101.05924	138.71606	37.09147	0.3623	13.70343	181956.4163	0.51045	3.84424E-5	1806.44212	21200.19097	94.74147	12716.339
1155.0	0.96307	0.0369347	7.51349	7.52631	-5.54553	21.36647	27.75379	1.26072	0.7932	104.15167	139.38137	38.27142	0.3607	13.97408	203321.3141	0.49881	3.42829E-5	1808.82255	20729.62662	94.11287	12765.727
1150.0	0.96771	0.0322868	7.5217	7.51868	-5.64119	21.13962	27.4701	1.26928	0.78785	107.37094	140.04605	39.50019	0.35912	14.24814	227436.7141	0.48751	3.05405E-5	1811.20345	20262.9511	93.3351	12821.013
1145.0	0.97198	0.0280177	7.52948	7.51119	-5.73527	20.91607	27.1992	1.27742	0.78283	110.43777	140.70124	40.67237	0.35765	14.52703	254069.269	0.47647	2.72431E-5	1813.58675	19810.83375	90.42347	12871.264
1140.0	0.97536	0.0246371	7.53679	7.50402	-5.82529	20.70432	26.93027	1.28562	0.77783	113.17103	141.37392	41.71911	0.35635	14.86117	283050.5385	0.46411	2.43675E-5	1815.96496	19360.38585	90.08958	12929.139
1135.0	0.97812	0.0218828	7.54361	7.49725	-5.91019	20.5081	26.67202	1.29348	0.77311	115.61136	142.02916	42.65533	0.35518	15.21989	314635.7269	0.45157	2.18438E-5	1818.3457	18923.03525	87.47012	12983.008
1130.0	0.9805	0.019499	7.54999	7.49081	-5.991	20.32414	26.42778	1.3008	0.76876	117.84535	142.6569	43.51353	0.35412	15.58531	349237.754	0.43942	1.96096E-5	1820.73369	18502.34984	84.13708	13029.119
1125.0	0.98258	0.0174162	7.556	7.48467	-6.06813	20.15115	26.19658	1.3076	0.76476	119.90381	143.26052	44.30518	0.35316	15.95793	387194.2453	0.42763	1.76243E-5	1823.1286	18096.68542	81.13288	13068.944
1120.0	0.98551	0.0144934	7.56176	7.47812	-6.1503	19.95915	25.98429	1.31357	0.76128	122.32716	143.85255	45.23546	0.35212	16.32212	430503.5743	0.41659	1.57946E-5	1825.53174	17701.47544	79.042	13106.876
1115.0	0.98879	0.0112065	7.56721	7.47136	-6.23511	19.75623	25.78587	1.31893	0.75819	124.9143	144.43549	46.22832	0.35106	16.68446	479256.4214	0.40608	1.41369E-5	1827.94288	17316.8679	76.92151	13142.594
1110.0	0.99196	0.00804275	7.57234	7.46468	-6.31898	19.55471	25.59735	1.32386	0.75537	127.43674	145.00618	47.19699	0.35005	17.05491	533295.538	0.39583	1.26587E-5	1830.36136	16943.6805	74.63748	13175.091
1105.0	0.99487	0.00512894	7.57716	7.45816	-6.40076	19.35867	25.41744	1.32841	0.75278	129.83218	145.56341	48.11766	0.34911	17.43949	592919.9604	0.3857	1.13445E-5	1832.78672	16581.64414	72.40727	13204.43
1100.0	0.99755	0.00245258	7.58168	7.45182	-6.48036	19.16848	25.24553	1.3326	0.75041	132.10133	146.10704	48.99049	0.34823	17.83848	658674.9537	0.3757	1.0175E-5	1835.21996	16230.29547	70.26973	13230.846
1095.0	1.0	0.0	7.58594	7.44565	-6.55774	18.98435	25.08191	1.33641	0.74827	134.2468	146.6371	49.81639	0.34742	 	731170.0523	 	9.13276E-6	 	15889.16052	68.22699	13254.565
1090.0	1.0	0.0	7.59055	7.44113	-6.61444	18.87198	24.91815	1.34028	0.74612	135.05681	147.04552	50.13536	0.34692	 	809359.3846	 	8.22032E-6	 	15576.33731	62.56464	 
1085.0	1.0	0.0	7.59505	7.43672	-6.66978	18.76341	24.76271	1.34374	0.74419	135.83937	147.4412	50.4436	0.34645	 	896636.4833	 	7.39295E-6	 	15279.34794	59.39787	 
1080.0	1.0	0.0	7.59945	7.43242	-6.72382	18.65848	24.61498	1.34683	0.74248	136.59615	147.82512	50.74176	0.34599	 	994107.5384	 	6.64354E-6	 	14988.85968	58.09765	 
1075.0	1.0	0.0	7.60375	7.42821	-6.77662	18.55702	24.47438	1.34956	0.74098	137.32881	148.19819	51.03046	0.34556	 	1103020.127	 	5.96543E-6	 	14704.56023	56.85989	 
1070.0	1.0	0.0	7.60796	7.4241	-6.82823	18.45886	24.34032	1.35196	0.73967	138.03898	148.56128	51.31034	0.34514	 	1224782.852	 	5.35244E-6	 	14426.1314	55.68577	 
1065.0	1.0	0.0	7.61209	7.42007	-6.87874	18.36382	24.21228	1.35405	0.73852	138.72823	148.91521	51.58201	0.34473	 	1360987.806	 	4.79885E-6	 	14153.25392	54.5755	 
1060.0	1.0	0.0	7.61613	7.41613	-6.92819	18.27171	24.08975	1.35585	0.73754	139.3981	149.26076	51.84606	0.34435	 	1513436.332	 	4.29934E-6	 	13885.6118	53.52842	 
1055.0	1.0	0.0	7.6201	7.41227	-6.97665	18.18235	23.97227	1.35739	0.73671	140.05001	149.59863	52.10305	0.34397	 	1684168.526	 	3.849E-6	 	13622.896	52.54316	 
1050.0	1.0	0.0	7.624	7.40849	-7.02417	18.09557	23.85941	1.35867	0.73601	140.68533	149.92948	52.35351	0.34361	 	1875497.082	 	3.44334E-6	 	13364.80756	51.61769	 
1045.0	1.0	0.0	7.62782	7.40477	-7.07082	18.01119	23.75078	1.35973	0.73544	141.30533	150.25392	52.59793	0.34326	 	2090046.144	 	3.07819E-6	 	13111.05979	50.74956	 
1040.0	1.0	0.0	7.63159	7.40112	-7.11664	17.92906	23.64601	1.36058	0.73498	141.9112	150.57248	52.83679	0.34292	 	2330795.954	 	2.74977E-6	 	12861.37986	49.93598	 
1035.0	1.0	0.0	7.63529	7.39753	-7.16169	17.84902	23.54478	1.36122	0.73463	142.50402	150.88568	53.0705	0.34259	 	2601134.217	 	2.4546E-6	 	12615.50988	49.174	 
1030.0	1.0	0.0	7.63894	7.394	-7.20601	17.77092	23.44679	1.36169	0.73438	143.08482	151.19396	53.29948	0.34227	 	2904915.207	 	2.18951E-6	 	12373.20729	48.46052	 
1025.0	1.0	0.0	7.64253	7.39052	-7.24964	17.69462	23.35177	1.36198	0.73422	143.65452	151.49773	53.52407	0.34196	 	3246528.013	 	1.95161E-6	 	12134.24507	47.79244	 
1020.0	1.0	0.0	7.64607	7.38709	-7.29264	17.62	23.25805	1.3622	0.73411	144.21398	151.79736	53.74463	0.34166	 	3630975.129	 	1.73825E-6	 	11898.41146	47.16672	 
1015.0	1.0	0.0	7.64957	7.38372	-7.33504	17.54692	23.16824	1.3622	0.73411	144.76397	152.09318	53.96145	0.34136	 	4063963.409	 	1.54705E-6	 	11665.50904	46.58048	 
1010.0	1.0	0.0	7.65303	7.38038	-7.37686	17.47527	23.08072	1.36205	0.73419	145.30521	152.38549	54.17481	0.34108	 	4552009.176	 	1.37582E-6	 	11435.35472	46.03087	 
1005.0	1.0	0.0	7.65644	7.37709	-7.41816	17.40496	22.99534	1.36178	0.73433	145.83835	152.67455	54.38499	0.3408	 	5102559.874	 	1.22259E-6	 	11207.77872	45.5152	 
1000.0	1.0	0.0	7.65982	7.37384	-7.45895	17.33588	22.91191	1.3614	0.73454	146.36397	152.96061	54.59219	0.34052	 	5724135.002	 	1.08557E-6	 	10982.62381	45.03098	 
995.0	1.0	0.0	7.66315	7.37063	-7.49926	17.26793	22.8303	1.3609	0.73481	146.88262	153.24388	54.79665	0.34025	 	6426489.772	 	9.63127E-7	 	10759.74451	44.57586	 
990.0	1.0	0.0	7.66646	7.36745	-7.53913	17.20104	22.75037	1.36029	0.73514	147.39479	153.52455	54.99856	0.33999	 	7220804.872	 	8.538E-7	 	10539.00621	44.14766	 
985.0	1.0	0.0	7.66973	7.36431	-7.57858	17.13513	22.672	1.35959	0.73551	147.90093	153.80279	55.19809	0.33973	 	8119907.166	 	7.56255E-7	 	10320.28441	43.74436	 
980.0	1.0	0.0	7.67297	7.3612	-7.61762	17.07011	22.59508	1.3588	0.73594	148.40145	154.07877	55.3954	0.33947	 	9138526.65	 	6.69289E-7	 	10103.46394	43.36409	 
975.0	1.0	0.0	7.67618	7.35812	-7.65628	17.00593	22.51952	1.35792	0.73642	148.89671	154.35263	55.59065	0.33922	 	1.029359532E7	 	5.91816E-7	 	9888.43821	43.00515	 
970.0	1.0	0.0	7.67937	7.35507	-7.69458	16.94252	22.44521	1.35696	0.73694	149.38706	154.62447	55.78396	0.33898	 	1.160459595E7	 	5.22854E-7	 	9675.10854	42.66593	 
965.0	1.0	0.0	7.68253	7.35204	-7.73254	16.87981	22.37208	1.35592	0.73751	149.87281	154.89443	55.97546	0.33874	 	1.309396927E7	 	4.61518E-7	 	9463.38351	42.34501	 
960.0	1.0	0.0	7.68566	7.34904	-7.77017	16.81776	22.30006	1.3548	0.73811	150.35424	155.16261	56.16527	0.3385	 	1.478758929E7	 	4.0701E-7	 	9253.17839	42.04102	 
955.0	1.0	0.0	7.68877	7.34607	-7.80749	16.75632	22.22907	1.35362	0.73876	150.8316	155.42908	56.35349	0.33826	 	1.671531963E7	 	3.58611E-7	 	9044.41455	41.75277	 
950.0	1.0	0.0	7.69186	7.34312	-7.84451	16.69542	22.15906	1.35237	0.73944	151.30515	155.69394	56.54021	0.33803	 	1.891166506E7	 	3.15672E-7	 	8837.01896	41.47912	 
945.0	1.0	0.0	7.69493	7.34019	-7.88124	16.63504	22.08997	1.35105	0.74016	151.77508	155.95726	56.72551	0.3378	 	2.141653465E7	 	2.77612E-7	 	8630.92381	41.21903	 
940.0	1.0	0.0	7.69798	7.33729	-7.91771	16.57513	22.02174	1.34967	0.74092	152.2416	156.21911	56.90948	0.33758	 	2.427613824E7	 	2.43906E-7	 	8426.06595	40.97157	 
935.0	1.0	0.0	7.701	7.3344	-7.95391	16.51565	21.95434	1.34824	0.74171	152.7049	156.47955	57.09219	0.33735	 	2.754403863E7	 	2.14082E-7	 	8222.38663	40.73586	 
930.0	1.0	0.0	7.70401	7.33154	-7.98985	16.45656	21.8877	1.34675	0.74253	153.16513	156.73863	57.2737	0.33713	 	3.128239021E7	 	1.87718E-7	 	8019.83108	40.51111	 
925.0	1.0	0.0	7.707	7.32869	-8.02556	16.39783	21.8218	1.3452	0.74338	153.62245	156.9964	57.45408	0.33692	 	3.556339655E7	 	1.64435E-7	 	7818.34819	40.29658	 
920.0	1.0	0.0	7.70998	7.32587	-8.06104	16.33943	21.75661	1.3436	0.74427	154.077	157.2529	57.63338	0.3367	 	4.04710291E7	 	1.43892E-7	 	7617.89026	40.09159	 
915.0	1.0	0.0	7.71294	7.32306	-8.09629	16.28132	21.69207	1.34195	0.74518	154.52891	157.50819	57.81165	0.33649	 	4.610305546E7	 	1.25785E-7	 	7418.41273	39.89551	 
910.0	1.0	0.0	7.71588	7.32027	-8.13132	16.22349	21.62816	1.34025	0.74613	154.9783	157.76228	57.98895	0.33627	 	5.257343635E7	 	1.0984E-7	 	7219.87386	39.70777	 
905.0	1.0	0.0	7.7188	7.31749	-8.16615	16.16589	21.56486	1.3385	0.7471	155.42528	158.01523	58.16531	0.33607	 	6.001516042E7	 	9.58134E-8	 	7022.23465	39.52784	 
900.0	1.0	0.0	7.72171	7.31473	-8.20077	16.10852	21.50214	1.33671	0.7481	155.86994	158.26705	58.34077	0.33586	 	6.858360241E7	 	8.34872E-8	 	6825.45849	39.35523	 
895.0	1.0	0.0	7.72461	7.31199	-8.23519	16.05133	21.43996	1.33488	0.74913	156.31238	158.51778	58.51538	0.33565	 	7.846050578E7	 	7.26665E-8	 	6629.51112	39.18947	 
890.0	1.0	0.0	7.72749	7.30926	-8.26943	15.99432	21.37832	1.33299	0.75019	156.75268	158.76743	58.68916	0.33545	 	8.985870844E7	 	6.31775E-8	 	6434.36034	39.03016	 
885.0	1.0	0.0	7.73036	7.30655	-8.30348	15.93746	21.31718	1.33107	0.75127	157.19093	159.01604	58.86215	0.33525	 	1.030277631E8	 	5.48652E-8	 	6239.97595	38.87688	 
880.0	1.0	0.0	7.73322	7.30385	-8.33735	15.88073	21.25652	1.32911	0.75239	157.62719	159.26362	59.03437	0.33505	 	1.182606244E8	 	4.75918E-8	 	6046.3292	38.72935	 
875.0	1.0	0.0	7.73606	7.30116	-8.37105	15.82411	21.19633	1.3271	0.75352	158.06153	159.5102	59.20586	0.33485	 	1.359016219E8	 	4.12345E-8	 	5853.39336	38.58717	 
870.0	1.0	0.0	7.7389	7.29849	-8.40458	15.76759	21.13659	1.32506	0.75468	158.49401	159.75578	59.37663	0.33465	 	1.563559601E8	 	3.56842E-8	 	5661.144	38.44987	 
866.82	1.0	0.0	7.74069	7.2968	-8.42582	15.73166	21.0988	1.32373	0.75544	158.76831	159.91157	59.48496	0.33452	 	1.710537454E8	 	3.25272E-8	 	5539.13713	 	 
865.0	1.0	0.0	7.74169	7.29585	-8.43769	15.71223	21.08119	1.32273	0.75601	158.90126	159.9655	59.53846	0.33444	 	1.80109659E8	 	3.08425E-8	 	5455.71792	41.08521	 
860.0	1.0	0.0	7.74444	7.29327	-8.47011	15.65937	21.03344	1.31991	0.75763	159.26455	160.11335	59.68465	0.33422	 	2.077290963E8	 	2.66242E-8	 	5227.50715	45.64216	 
855.0	1.0	0.0	7.74715	7.29071	-8.50222	15.60732	20.98567	1.31707	0.75926	159.62454	160.26061	59.82952	0.33399	 	2.398590758E8	 	2.29561E-8	 	5001.06187	45.28906	 
850.0	1.0	0.0	7.74985	7.28818	-8.53401	15.55606	20.93799	1.31422	0.76091	159.98151	160.40747	59.97316	0.33378	 	2.772795269E8	 	1.977E-8	 	4776.33127	44.94612	 
845.0	1.0	0.0	7.75206	7.2861	-8.56011	15.53046	20.87815	1.31212	0.76212	160.3404	160.63747	60.11376	0.33364	 	3.154827395E8	 	1.72986E-8	 	4617.38338	31.78958	 
840.0	1.0	0.0	7.75427	7.28403	-8.58614	15.50486	20.8183	1.31001	0.76335	160.69876	160.8666	60.25418	0.33351	 	3.593660107E8	 	1.51183E-8	 	4455.42128	32.39242	 
835.0	1.0	0.0	7.75647	7.28196	-8.6121	15.47926	20.75845	1.30789	0.76459	161.05658	161.09485	60.39443	0.33337	 	4.098347754E8	 	1.3197E-8	 	4293.69035	32.34619	 
830.0	1.0	0.0	7.75867	7.27989	-8.638	15.45366	20.6986	1.30575	0.76584	161.41387	161.32224	60.5345	0.33324	 	4.679484009E8	 	1.1506E-8	 	4132.1898	32.30011	 
825.0	1.0	0.0	7.76086	7.27784	-8.66382	15.42806	20.63874	1.3036	0.76711	161.77061	161.54876	60.6744	0.3331	 	5.349479756E8	 	1.00193E-8	 	3970.91885	32.25419	 
820.0	1.0	0.0	7.76305	7.27578	-8.68958	15.40246	20.57887	1.30144	0.76838	162.12682	161.77441	60.81412	0.33297	 	6.122894057E8	 	8.71384E-9	 	3809.87666	32.20844	 
815.0	1.0	0.0	7.76524	7.27374	-8.71528	15.37686	20.519	1.29927	0.76966	162.48249	161.9992	60.95367	0.33284	 	7.016828884E8	 	7.56893E-9	 	3649.0624	32.16285	 
810.0	1.0	0.0	7.76742	7.27169	-8.7409	15.35126	20.45912	1.29708	0.77096	162.83763	162.22314	61.09304	0.3327	 	8.05140057E8	 	6.56605E-9	 	3488.47517	32.11745	 
805.0	1.0	0.0	7.76959	7.26966	-8.76646	15.32566	20.39924	1.29488	0.77227	163.19223	162.44621	61.23224	0.33257	 	9.25030371E8	 	5.68866E-9	 	3328.1141	32.07221	 
800.0	1.0	0.0	7.77176	7.26763	-8.79195	15.30006	20.33936	1.29267	0.77359	163.54629	162.66843	61.37126	0.33243	 	1.064148662E9	 	4.92204E-9	 	3167.97824	32.02717	 
795.0	1.0	0.0	7.77393	7.2656	-8.81737	15.27446	20.27947	1.29045	0.77492	163.89982	162.8898	61.51011	0.3323	 	1.22579616E9	 	4.25305E-9	 	3008.06665	31.98232	 
790.0	1.0	0.0	7.77609	7.26358	-8.84272	15.24886	20.21957	1.28822	0.77627	164.25282	163.11032	61.64878	0.33217	 	1.413877844E9	 	3.67003E-9	 	2848.37835	31.93766	 
785.0	1.0	0.0	7.77825	7.26157	-8.86801	15.22327	20.15967	1.28597	0.77762	164.60527	163.32999	61.78728	0.33203	 	1.63301957E9	 	3.16259E-9	 	2688.91229	31.89321	 
780.0	1.0	0.0	7.7804	7.25956	-8.89323	15.19767	20.09976	1.28371	0.77899	164.9572	163.54882	61.92561	0.3319	 	1.888709229E9	 	2.72152E-9	 	2529.66742	31.84897	 
775.0	1.0	0.0	7.78255	7.25755	-8.91838	15.17207	20.03985	1.28143	0.78038	165.30859	163.7668	62.06376	0.33176	 	2.18746711E9	 	2.33867E-9	 	2370.64265	31.80495	 
770.0	1.0	0.0	7.7847	7.25555	-8.94346	15.14648	19.97993	1.27914	0.78177	165.65944	163.98395	62.20173	0.33163	 	2.537051857E9	 	2.0068E-9	 	2211.83685	31.76116	 
765.0	1.0	0.0	7.78683	7.25356	-8.96847	15.12088	19.92	1.27684	0.78318	166.00976	164.20025	62.33953	0.3315	 	2.946709842E9	 	1.71953E-9	 	2053.24883	31.7176	 
760.0	1.0	0.0	7.78897	7.25157	-8.99342	15.09528	19.86007	1.27453	0.78461	166.35955	164.41572	62.47716	0.33136	 	3.427477596E9	 	1.47121E-9	 	1894.87736	31.67429	 
755.0	1.0	0.0	7.7911	7.24959	-9.0183	15.06969	19.80014	1.2722	0.78604	166.7088	164.63036	62.61461	0.33123	 	3.992549204E9	 	1.25688E-9	 	1736.72117	31.63124	 
750.0	1.0	0.0	7.79322	7.24761	-9.04311	15.04409	19.74019	1.26985	0.78749	167.05752	164.84417	62.75189	0.3311	 	4.657723359E9	 	1.07214E-9	 	1578.77893	31.58845	 
745.0	1.0	0.0	7.79534	7.24564	-9.06786	15.0185	19.68024	1.2675	0.78896	167.40571	165.05715	62.88899	0.33096	 	5.441948253E9	 	9.13154E-10	 	1421.04925	31.54594	 
740.0	1.0	0.0	7.79746	7.24368	-9.09253	14.99291	19.62028	1.26513	0.79043	167.75336	165.2693	63.02592	0.33083	 	6.367986894E9	 	7.7653E-10	 	1263.53069	31.50371	 
735.0	1.0	0.0	7.79957	7.24171	-9.11714	14.96731	19.56032	1.26274	0.79193	168.10048	165.48063	63.16268	0.33069	 	7.463230832E9	 	6.59303E-10	 	1106.22175	31.46179	 
730.0	1.0	0.0	7.80168	7.23976	-9.14168	14.94172	19.50035	1.26035	0.79343	168.44707	165.69114	63.29926	0.33056	 	8.760697211E9	 	5.58874E-10	 	949.12083	31.42018	 
725.0	1.0	0.0	7.80378	7.23781	-9.16616	14.91613	19.44037	1.25793	0.79496	168.79313	165.90083	63.43566	0.33043	 	1.03003E10	 	4.72971E-10	 	792.22631	31.37891	 
720.0	1.0	0.0	7.80588	7.23586	-9.19056	14.89053	19.38039	1.25551	0.79649	169.13865	166.10971	63.5719	0.33029	 	1.2130099999999998E10	 	3.9961E-10	 	635.53645	31.33797	 
715.0	1.0	0.0	7.80797	7.23392	-9.2149	14.86494	19.32039	1.25306	0.79804	169.48365	166.31777	63.70795	0.33016	 	1.4308699999999998E10	 	3.37061E-10	 	479.04944	31.2974	 
710.0	1.0	0.0	7.81006	7.23199	-9.23917	14.83935	19.26039	1.25061	0.79961	169.82811	166.52502	63.84384	0.33003	 	1.6906999999999998E10	 	2.83818E-10	 	322.76339	31.25721	 
705.0	1.0	0.0	7.81214	7.23006	-9.26337	14.81376	19.20039	1.24814	0.8012	170.17204	166.73145	63.97955	0.32989	 	2.00112E10	 	2.38572E-10	 	166.67631	31.21742	 
700.0	1.0	0.0	7.81422	7.22814	-9.28751	14.78817	19.14037	1.24565	0.80279	170.51544	166.93709	64.11508	0.32976	 	2.3726399999999996E10	 	2.00187E-10	 	10.78611	31.17804	 
695.0	1.0	0.0	7.81629	7.22622	-9.31158	14.76258	19.08035	1.24315	0.80441	170.85831	167.14191	64.25044	0.32963	 	2.8180799999999996E10	 	1.67678E-10	 	-144.90942	31.13911	 
690.0	1.0	0.0	7.81836	7.22431	-9.33558	14.73698	19.02031	1.24063	0.80604	171.20065	167.34593	64.38563	0.32949	 	3.3531399999999996E10	 	1.40194E-10	 	-300.41259	31.10063	 
685.0	1.0	0.0	7.82043	7.2224	-9.35951	14.71139	18.96027	1.2381	0.80769	171.54245	167.54915	64.52064	0.32936	 	3.99704E10	 	1.16999E-10	 	-455.72582	31.06265	 
680.0	1.0	0.0	7.82249	7.2205	-9.38337	14.6858	18.90023	1.23555	0.80936	171.88373	167.75158	64.65548	0.32923	 	4.773369999999999E10	 	9.74592E-11	 	-610.85169	31.02517	 
675.0	1.0	0.0	7.82454	7.2186	-9.40717	14.66022	18.84017	1.23299	0.81104	172.22448	167.95321	64.79014	0.32909	 	5.711159999999999E10	 	8.10287E-11	 	-765.79292	30.98825	 
670.0	1.0	0.0	7.82659	7.21671	-9.4309	14.63463	18.7801	1.23041	0.81274	172.5647	168.15404	64.92463	0.32896	 	6.846209999999999E10	 	6.72384E-11	 	-920.55235	30.95189	 
665.0	1.0	0.0	7.82864	7.21483	-9.45456	14.60904	18.72003	1.22781	0.81446	172.90439	168.35408	65.05895	0.32883	 	8.22271E10	 	5.56857E-11	 	-1075.13303	30.91614	 
660.0	1.0	0.0	7.83068	7.21295	-9.47815	14.58345	18.65994	1.2252	0.81619	173.24354	168.55333	65.19309	0.3287	 	9.895379999999998E10	 	4.60263E-11	 	-1229.53016	30.87943	 
655.0	1.0	0.0	7.83271	7.21107	-9.50168	14.55786	18.59985	1.22257	0.81795	173.58217	168.75179	65.32706	0.32856	 	1.19321E11	 	3.79655E-11	 	-1383.69964	30.8339	 
650.0	1.0	0.0	7.83474	7.2092	-9.52514	14.53227	18.53975	1.21993	0.81972	173.92027	168.94947	65.46085	0.32843	 	1.44172E11	 	3.1252E-11	 	-1537.58286	30.77664	 
645.0	1.0	0.0	7.83677	7.20734	-9.54853	14.50669	18.47963	1.21727	0.82151	174.25785	169.14637	65.59447	0.3283	 	1.74558E11	 	2.5672E-11	 	-1691.18093	30.71961	 
640.0	1.0	0.0	7.83879	7.20548	-9.57185	14.4811	18.41951	1.21459	0.82332	174.59489	169.34248	65.72791	0.32816	 	2.11792E11	 	2.10436E-11	 	-1844.49497	30.66281	 
635.0	1.0	0.0	7.84081	7.20363	-9.59511	14.45551	18.35938	1.2119	0.82515	174.9314	169.53781	65.86119	0.32803	 	2.57515E11	 	1.72124E-11	 	-1997.5261	30.60623	 
630.0	1.0	0.0	7.84282	7.20178	-9.61829	14.42993	18.29923	1.20919	0.827	175.26739	169.73237	65.99428	0.3279	 	3.13787E11	 	1.40479E-11	 	-2150.27542	30.54986	 
625.0	1.0	0.0	7.84483	7.19994	-9.64141	14.40434	18.23908	1.20646	0.82887	175.60285	169.92615	66.12721	0.32777	 	3.83199E11	 	1.14396E-11	 	-2302.74448	30.49381	 
620.0	1.0	0.0	7.84683	7.1981	-9.66447	14.37876	18.17892	1.20371	0.83076	175.93778	170.11916	66.25995	0.32763	 	4.69014E11	 	9.29449E-12	 	-2454.9355	30.4382	 
615.0	1.0	0.0	7.84883	7.19627	-9.68745	14.35317	18.11874	1.20095	0.83268	176.27218	170.3114	66.39253	0.3275	 	5.75353E11	 	7.53423E-12	 	-2606.84902	30.3827	 
610.0	1.0	0.0	7.85082	7.19444	-9.71037	14.32759	18.05855	1.19817	0.83461	176.60606	170.50287	66.52493	0.32737	 	7.07438E11	 	6.09302E-12	 	-2758.48609	30.32742	 
605.0	1.0	0.0	7.8528	7.19262	-9.73322	14.302	17.99835	1.19537	0.83656	176.9394	170.69358	66.65716	0.32723	 	8.71895E11	 	4.91577E-12	 	-2909.84783	30.27235	 
600.0	1.0	0.0	7.85479	7.19081	-9.756	14.27642	17.93814	1.19255	0.83854	177.27222	170.88352	66.78921	0.3271	 	1.07716E12	 	3.95636E-12	 	-3060.93528	30.21749	 
595.0	1.0	0.0	7.85676	7.189	-9.77871	14.25084	17.87792	1.18972	0.84054	177.60452	171.07269	66.92109	0.32697	 	1.33399E12	 	3.17635E-12	 	-3211.74954	30.16285	 
590.0	1.0	0.0	7.85874	7.18719	-9.80136	14.22525	17.81769	1.18686	0.84256	177.93628	171.26111	67.05279	0.32684	 	1.65616E12	 	2.54373E-12	 	-3362.29166	30.10843	 
585.0	1.0	0.0	7.8607	7.1854	-9.82394	14.19967	17.75744	1.18399	0.8446	178.26752	171.44877	67.18432	0.3267	 	2.06132E12	 	2.03191E-12	 	-3512.56274	30.05422	 
580.0	1.0	0.0	7.86267	7.1836	-9.84645	14.17409	17.69718	1.1811	0.84667	178.59824	171.63567	67.31568	0.32657	 	2.5722E12	 	1.61886E-12	 	-3662.56383	30.00022	 
575.0	1.0	0.0	7.86463	7.18181	-9.86889	14.14851	17.63691	1.17819	0.84876	178.92842	171.82182	67.44686	0.32644	 	3.21807E12	 	1.28636E-12	 	-3812.29599	29.94643	 
570.0	1.0	0.0	7.86658	7.18003	-9.89127	14.12292	17.57663	1.17526	0.85087	179.25808	172.00721	67.57787	0.32631	 	4.03684E12	 	1.01941E-12	 	-3961.7603	29.89286	 
565.0	1.0	0.0	7.86853	7.17825	-9.91358	14.09734	17.51633	1.17232	0.85301	179.58722	172.19186	67.7087	0.32618	 	5.07763E12	 	8.05651E-13	 	-4110.95781	29.8395	 
560.0	1.0	0.0	7.87047	7.17648	-9.93582	14.07176	17.45602	1.16935	0.85518	179.91583	172.37575	67.83936	0.32604	 	6.40438E12	 	6.3494E-13	 	-4259.88957	29.78635	 
555.0	1.0	0.0	7.87241	7.17471	-9.95799	14.04618	17.39569	1.16636	0.85737	180.24391	172.5589	67.96985	0.32591	 	8.10048E12	 	4.98982E-13	 	-4408.55664	29.73341	 
550.0	1.0	0.0	7.87434	7.17295	-9.98009	14.0206	17.33535	1.16336	0.85958	180.57147	172.74131	68.10016	0.32578	 	1.0275E13	 	3.91005E-13	 	-4556.96006	29.68068	 
545.0	1.0	0.0	7.87627	7.1712	-10.00213	13.99502	17.275	1.16033	0.86182	180.8985	172.92297	68.2303	0.32565	 	1.30713E13	 	3.05493E-13	 	-4705.10089	29.62817	 
540.0	1.0	0.0	7.87819	7.16945	-10.0241	13.96944	17.21463	1.15728	0.86409	181.22501	173.1039	68.36026	0.32551	 	1.66778E13	 	2.37968E-13	 	-4852.98017	29.57586	 
535.0	1.0	0.0	7.88011	7.1677	-10.046	13.94386	17.15424	1.15421	0.86639	181.55099	173.28408	68.49005	0.32538	 	2.13437E13	 	1.84803E-13	 	-5000.59894	29.52375	 
530.0	1.0	0.0	7.88202	7.16596	-10.06784	13.91828	17.09384	1.15113	0.86871	181.87645	173.46353	68.61967	0.32525	 	2.73989E13	 	1.43071E-13	 	-5147.95824	29.47186	 
525.0	1.0	0.0	7.88393	7.16423	-10.08961	13.89271	17.03343	1.14802	0.87107	182.20138	173.64224	68.74911	0.32512	 	3.52822E13	 	1.10412E-13	 	-5295.05909	29.42017	 
520.0	1.0	0.0	7.88583	7.1625	-10.11131	13.86713	16.97299	1.14489	0.87345	182.52578	173.82022	68.87838	0.32499	 	4.55788E13	 	8.49334E-14	 	-5441.90253	29.36869	 
515.0	1.0	0.0	7.88773	7.16077	-10.13294	13.84155	16.91255	1.14174	0.87586	182.84967	173.99747	69.00747	0.32485	 	5.9072E13	 	6.51199E-14	 	-5588.48957	29.31741	 
510.0	1.0	0.0	7.88963	7.15906	-10.1545	13.81597	16.85208	1.13856	0.8783	183.17302	174.17399	69.13639	0.32472	 	7.68136E13	 	4.97615E-14	 	-5734.82125	29.26634	 
505.0	1.0	0.0	7.89151	7.15734	-10.176	13.7904	16.7916	1.13537	0.88077	183.49586	174.34979	69.26514	0.32459	 	1.00221E14	 	3.78957E-14	 	-5880.89858	29.21546	 
500.0	1.0	0.0	7.8934	7.15564	-10.19743	13.76482	16.7311	1.13215	0.88327	183.81817	174.52486	69.39371	0.32446	 	1.3121299999999998E14	 	2.8759E-14	 	-6026.72257	29.1648	 
495.0	1.0	0.0	7.89528	7.15393	-10.21879	13.73924	16.67058	1.12892	0.88581	184.13995	174.6992	69.5221	0.32433	 	1.72392E14	 	2.17478E-14	 	-6172.29423	29.11433	 
490.0	1.0	0.0	7.89715	7.15224	-10.24008	13.71367	16.61005	1.12565	0.88837	184.46121	174.87283	69.65033	0.32419	 	2.27305E14	 	1.63865E-14	 	-6317.61456	29.06407	 
485.0	1.0	0.0	7.89902	7.15054	-10.26131	13.68809	16.54949	1.12237	0.89097	184.78195	175.04573	69.77838	0.32406	 	3.00806E14	 	1.23014E-14	 	-6462.68456	29.014	 
480.0	1.0	0.0	7.90088	7.14886	-10.28247	13.66252	16.48892	1.11907	0.8936	185.10217	175.21792	69.90625	0.32393	 	3.99558E14	 	9.20002E-15	 	-6607.50524	28.96414	 
475.0	1.0	0.0	7.90274	7.14718	-10.30356	13.63694	16.42832	1.11574	0.89627	185.42186	175.38939	70.03395	0.3238	 	5.3274599999999994E14	 	6.85418E-15	 	-6752.07756	28.91447	 
470.0	1.0	0.0	7.90459	7.1455	-10.32458	13.61137	16.36771	1.11238	0.89897	185.74103	175.56014	70.16147	0.32367	 	7.13086E14	 	5.08652E-15	 	-6896.40252	28.86499	 
465.0	1.0	0.0	7.90644	7.14383	-10.34554	13.5858	16.30708	1.10901	0.90171	186.05967	175.73019	70.28883	0.32354	 	9.58251E14	 	3.75969E-15	 	-7040.48112	28.81572	 
460.0	1.0	0.0	7.90828	7.14217	-10.36642	13.56022	16.24643	1.10561	0.90448	186.37779	175.89952	70.416	0.32341	 	1.29291E15	 	2.76766E-15	 	-7184.31429	28.76663	 
455.0	1.0	0.0	7.91012	7.14051	-10.38724	13.53465	16.18575	1.10218	0.90729	186.69539	176.06815	70.54301	0.32327	 	1.75163E15	 	2.02893E-15	 	-7327.90302	28.71775	 
450.0	1.0	0.0	7.91195	7.13886	-10.408	13.50908	16.12505	1.09874	0.91014	187.01246	176.23607	70.66983	0.32314	 	2.38308E15	 	1.48107E-15	 	-7471.24828	28.66905	 
445.0	1.0	0.0	7.91378	7.13721	-10.42868	13.4835	16.06434	1.09526	0.91302	187.32902	176.40328	70.79649	0.32301	 	3.25611E15	 	1.07647E-15	 	-7614.35102	28.62055	 
440.0	1.0	0.0	7.9156	7.13557	-10.4493	13.45793	16.00359	1.09177	0.91595	187.64505	176.5698	70.92297	0.32288	 	4.46847E15	 	7.78948E-16	 	-7757.21217	28.57223	 
435.0	1.0	0.0	7.91742	7.13393	-10.46985	13.43236	15.94283	1.08824	0.91891	187.96055	176.73561	71.04927	0.32275	 	6.15972E15	 	5.61114E-16	 	-7899.8327	28.52411	 
430.0	1.0	0.0	7.91923	7.1323	-10.49033	13.40679	15.88204	1.0847	0.92192	188.27554	176.90072	71.17541	0.32262	 	8.52992E15	 	4.02337E-16	 	-8042.21354	28.47617	 
425.0	1.0	0.0	7.92103	7.13067	-10.51075	13.38122	15.82123	1.08112	0.92497	188.59	177.06513	71.30136	0.32249	 	1.18674E16	 	2.87132E-16	 	-8184.3555	28.42839	 
420.0	1.0	0.0	7.92284	7.12905	-10.53109	13.35565	15.76039	1.07752	0.92806	188.90394	177.22885	71.42714	0.32235	 	1.6589500000000002E16	 	2.0393E-16	 	-8326.25968	28.38084	 
415.0	1.0	0.0	7.92463	7.12743	-10.55137	13.33008	15.69953	1.0739	0.93119	189.21736	177.39187	71.55275	0.32222	 	2.33037E16	 	1.44127E-16	 	-8467.92654	28.33337	 
410.0	1.0	0.0	7.92642	7.12582	-10.57158	13.30451	15.63864	1.07024	0.93437	189.53026	177.5542	71.67819	0.32209	 	3.28986E16	 	1.0135E-16	 	-8609.35631	28.28595	 
405.0	1.0	0.0	7.92821	7.12422	-10.59173	13.27894	15.57773	1.06657	0.93759	189.84264	177.71584	71.80344	0.32196	 	4.66808E16	 	7.09045E-17	 	-8750.54924	28.23859	 
400.0	1.0	0.0	7.92999	7.12262	-10.6118	13.25337	15.51679	1.06286	0.94086	190.15449	177.87679	71.92853	0.32183	 	6.6582000000000008E16	 	4.93448E-17	 	-8891.50558	28.19127	 
395.0	1.0	0.0	7.93176	7.12102	-10.63181	13.2278	15.45582	1.05913	0.94417	190.46582	178.03705	72.05344	0.3217	 	9.54736E16	 	3.41568E-17	 	-9032.22554	28.14399	 
390.0	1.0	0.0	7.93353	7.11943	-10.65176	13.20223	15.39482	1.05537	0.94754	190.77663	178.19663	72.17817	0.32157	 	1.37648E17	 	2.35141E-17	 	-9172.70935	28.09676	 
385.0	1.0	0.0	7.9353	7.11785	-10.67163	13.17666	15.3338	1.05158	0.95095	191.08692	178.35552	72.30274	0.32144	 	1.99559E17	 	1.60968E-17	 	-9312.95722	28.04957	 
380.0	1.0	0.0	7.93706	7.11627	-10.69144	13.1511	15.27274	1.04776	0.95442	191.39669	178.51373	72.42712	0.32131	 	2.90966E17	 	1.09561E-17	 	-9452.96934	28.00242	 
375.0	1.0	0.0	7.93881	7.1147	-10.71117	13.12553	15.21165	1.04392	0.95793	191.70594	178.67127	72.55133	0.32117	 	4.26716E17	 	7.41349E-18	 	-9592.74593	27.95532	 
370.0	1.0	0.0	7.94056	7.11313	-10.73084	13.09996	15.15054	1.04004	0.9615	192.01466	178.82812	72.67537	0.32104	 	6.29539E17	 	4.98628E-18	 	-9732.28714	27.90824	 
365.0	1.0	0.0	7.94231	7.11157	-10.75045	13.07439	15.08939	1.03614	0.96512	192.32287	178.98429	72.79923	0.32091	 	9.34441E17	 	3.33317E-18	 	-9871.59314	27.8612	 
360.0	1.0	0.0	7.94405	7.11001	-10.76998	13.04883	15.02821	1.0322	0.9688	192.63055	179.13979	72.92292	0.32078	 	1.3957E18	 	2.21413E-18	 	-10010.66411	27.81419	 
355.0	1.0	0.0	7.94578	7.10846	-10.78945	13.02326	14.96699	1.02824	0.97253	192.93771	179.29462	73.04643	0.32065	 	2.09799E18	 	1.46133E-18	 	-10149.50019	27.76722	 
350.0	1.0	0.0	7.94751	7.10692	-10.80885	12.9977	14.90574	1.02425	0.97633	193.24436	179.44877	73.16977	0.32052	 	3.17436E18	 	9.58127E-19	 	-10288.10152	27.72027	 
345.0	1.0	0.0	7.94923	7.10537	-10.82819	12.97213	14.84446	1.02022	0.98018	193.55048	179.60226	73.29294	0.32039	 	4.83525E18	 	6.23967E-19	 	-10426.4682	27.67334	 
340.0	1.0	0.0	7.95095	7.10384	-10.84745	12.94657	14.78314	1.01617	0.98409	193.85608	179.75507	73.41593	0.32026	 	7.41587E18	 	4.03544E-19	 	-10564.60039	27.62644	 
335.0	1.0	0.0	7.95266	7.10231	-10.86665	12.921	14.72178	1.01208	0.98806	194.16116	179.90722	73.53874	0.32013	 	1.14541E19	 	2.59142E-19	 	-10702.49814	27.57955	 
330.0	1.0	0.0	7.95437	7.10079	-10.88578	12.89544	14.66039	1.00797	0.9921	194.46572	180.0587	73.66138	0.32	 	1.78192E19	 	1.65206E-19	 	-10840.16157	27.53269	 
325.0	1.0	0.0	7.95607	7.09927	-10.90484	12.86988	14.59895	1.00382	0.9962	194.76976	180.20952	73.78384	0.31987	 	2.7927E19	 	1.04538E-19	 	-10977.59073	27.48583	 
320.0	1.0	0.0	7.95777	7.09775	-10.92384	12.84431	14.53748	0.99964	1.00037	195.07329	180.35968	73.90613	0.31974	 	4.41012E19	 	6.56449E-20	 	-11114.78569	27.43899	 
315.0	1.0	0.0	7.95946	7.09625	-10.94277	12.81875	14.47597	0.99542	1.0046	195.37629	180.50918	74.02825	0.31961	 	7.0186E19	 	4.09001E-20	 	-11251.74648	27.39216	 
310.0	1.0	0.0	7.96115	7.09474	-10.96163	12.79319	14.41441	0.99117	1.00891	195.67877	180.65801	74.15019	0.31948	 	1.1259299999999998E20	 	2.52788E-20	 	-11388.47314	27.34533	 
305.0	1.0	0.0	7.96283	7.09324	-10.98042	12.76763	14.35281	0.98689	1.01328	195.98073	180.80619	74.27195	0.31935	 	1.82105E20	 	1.54955E-20	 	-11524.96566	27.29851	 
300.0	1.0	0.0	7.9645	7.09175	-10.99914	12.74206	14.29117	0.98258	1.01773	196.28217	180.95372	74.39354	0.31922	 	2.9701299999999997E20	 	9.41845E-21	 	-11661.22405	27.25168	 
295.0	1.0	0.0	7.96617	7.09027	-11.0178	12.7165	14.22948	0.97823	1.02226	196.58309	181.10059	74.51496	0.31908	 	4.8861799999999993E20	 	5.67519E-21	 	-11797.24827	27.20484	 
290.0	1.0	0.0	7.96784	7.08878	-11.03639	12.69094	14.16775	0.97384	1.02686	196.8835	181.24681	74.6362	0.31895	 	8.10964E20	 	3.38929E-21	 	-11933.03828	27.158	 
285.0	1.0	0.0	7.96949	7.08731	-11.05491	12.66538	14.10596	0.96943	1.03154	197.18338	181.39237	74.75726	0.31882	 	1.35824E21	 	2.00568E-21	 	-12068.59403	27.11115	 
280.0	1.0	0.0	7.97115	7.08584	-11.07337	12.63982	14.04413	0.96497	1.0363	197.48274	181.53729	74.87815	0.31869	 	2.29615E21	 	1.17579E-21	 	-12203.91542	27.06428	 
275.0	1.0	0.0	7.9728	7.08437	-11.09176	12.61426	13.98225	0.96048	1.04115	197.78159	181.68156	74.99886	0.31856	 	3.9190800000000003E21	 	6.82657E-22	 	-12339.00235	27.01739	 
270.0	1.0	0.0	7.97444	7.08291	-11.11008	12.5887	13.92032	0.95595	1.04608	198.07991	181.82519	75.1194	0.31843	 	6.755260000000001E21	 	3.92432E-22	 	-12473.8547	26.97047	 
265.0	1.0	0.0	7.97608	7.08146	-11.12833	12.56314	13.85833	0.95139	1.05109	198.37772	181.96816	75.23977	0.3183	 	1.1762399999999999E22	 	2.23304E-22	 	-12608.47231	26.92352	 
260.0	1.0	0.0	7.97771	7.08001	-11.14651	12.53758	13.79629	0.94679	1.0562	198.67501	182.1105	75.35996	0.31817	 	2.0694899999999997E22	 	1.2574E-22	 	-12742.85502	26.87654	 
255.0	1.0	0.0	7.97934	7.07857	-11.16463	12.51202	13.73419	0.94215	1.0614	198.97178	182.25219	75.47997	0.31804	 	3.68027E22	 	7.00429E-23	 	-12877.00261	26.82952	 
250.0	1.0	0.0	7.98096	7.07713	-11.18268	12.48647	13.67204	0.93747	1.0667	199.26803	182.39325	75.59981	0.31791	 	6.617199999999999E22	 	3.85868E-23	 	-13010.91488	26.78245	 
245.0	1.0	0.0	7.98258	7.0757	-11.20066	12.46091	13.60982	0.93276	1.07209	199.56376	182.53366	75.71947	0.31778	 	1.20333E23	 	2.10163E-23	 	-13144.59157	26.73534	 
240.0	1.0	0.0	7.98419	7.07427	-11.21857	12.43535	13.54755	0.928	1.07758	199.85897	182.67344	75.83896	0.31765	 	2.2139099999999997E23	 	1.13128E-23	 	-13278.0324	26.68817	 
235.0	1.0	0.0	7.98579	7.07285	-11.23642	12.4098	13.48521	0.92321	1.08318	200.15366	182.81259	75.95827	0.31752	 	4.1223399999999995E23	 	6.01638E-24	 	-13411.23708	26.64094	 
230.0	1.0	0.0	7.98739	7.07143	-11.2542	12.38424	13.4228	0.91838	1.08888	200.44784	182.9511	76.07741	0.31739	 	7.771289999999999E23	 	3.16003E-24	 	-13544.20525	26.59363	 
225.0	1.0	0.0	7.98899	7.07002	-11.27191	12.35868	13.36033	0.9135	1.09469	200.7415	183.08897	76.19637	0.31726	 	1.48378E24	 	1.63861E-24	 	-13676.93655	26.54626	 
220.0	1.0	0.0	7.99057	7.06861	-11.28956	12.33313	13.29779	0.90859	1.10061	201.03464	183.22622	76.31516	0.31713	 	2.8704E24	 	8.38539E-25	 	-13809.43058	26.4988	 
215.0	1.0	0.0	7.99216	7.06721	-11.30713	12.30757	13.23518	0.90363	1.10665	201.32726	183.36283	76.43377	0.317	 	5.628410000000001E24	 	4.23306E-25	 	-13941.6869	26.45126	 
210.0	1.0	0.0	7.99374	7.06582	-11.32464	12.28202	13.1725	0.89863	1.11281	201.61936	183.49882	76.5522	0.31687	 	1.1191300000000001E25	 	2.10711E-25	 	-14073.70504	26.40363	 
205.0	1.0	0.0	7.99531	7.06443	-11.34208	12.25646	13.10974	0.89359	1.11909	201.91094	183.63419	76.67046	0.31675	 	2.2574600000000003E25	 	1.03378E-25	 	-14205.4845	26.35589	 
200.0	1.0	0.0	7.99688	7.06304	-11.35946	12.23091	13.0469	0.8885	1.12549	202.20201	183.76892	76.78854	0.31662	 	4.62168E25	 	4.99672E-26	 	-14337.0247	26.30804	 
195.0	1.0	0.0	7.99844	7.06166	-11.37676	12.20535	12.98398	0.88337	1.13203	202.49256	183.90304	76.90645	0.31649	 	9.60786E25	 	2.37818E-26	 	-14468.32509	26.26008	 
190.0	1.0	0.0	7.99999	7.06029	-11.394	12.1798	12.92098	0.8782	1.1387	202.78259	184.03653	77.02419	0.31636	 	2.0291600000000003E26	 	1.11402E-26	 	-14599.38501	26.21199	 
185.0	1.0	0.0	8.00154	7.05892	-11.41117	12.15425	12.85789	0.87298	1.1455	203.0721	184.1694	77.14174	0.31623	 	4.35603E26	 	5.13338E-27	 	-14730.2038	26.16376	 
180.0	1.0	0.0	8.00309	7.05756	-11.42828	12.12869	12.79471	0.86772	1.15245	203.36109	184.30165	77.25912	0.3161	 	9.510170000000001E26	 	2.32563E-27	 	-14860.78073	26.11539	 
175.0	1.0	0.0	8.00463	7.0562	-11.44531	12.10314	12.73144	0.86241	1.15955	203.64957	184.43329	77.37633	0.31597	 	2.11277E27	 	1.03528E-27	 	-14991.11502	26.06686	 
170.0	1.0	0.0	8.00616	7.05485	-11.46228	12.07759	12.66808	0.85705	1.16679	203.93753	184.56431	77.49336	0.31584	 	4.77902E27	 	4.52584E-28	 	-15121.20587	26.01817	 
165.0	1.0	0.0	8.00769	7.0535	-11.47918	12.05204	12.60462	0.85165	1.1742	204.22497	184.69471	77.61021	0.31571	 	1.10132E28	 	1.94175E-28	 	-15251.05241	25.96931	 
160.0	1.0	0.0	8.00921	7.05216	-11.49602	12.02649	12.54105	0.84619	1.18176	204.51189	184.8245	77.72689	0.31558	 	2.5874000000000003E28	 	8.17075E-29	 	-15380.65371	25.92026	 
155.0	1.0	0.0	8.01073	7.05083	-11.51278	12.00093	12.47739	0.84069	1.18949	204.7983	184.95368	77.84339	0.31545	 	6.20119E28	 	3.36983E-29	 	-15510.0088	25.87102	 
150.0	1.0	0.0	8.01224	7.04949	-11.52948	11.97538	12.41361	0.83515	1.1974	205.08419	185.08225	77.95972	0.31532	 	1.5172500000000002E29	 	1.3612E-29	 	-15639.11664	25.82157	 
145.0	1.0	0.0	8.01375	7.04817	-11.54611	11.94983	12.34972	0.82955	1.20548	205.36956	185.21021	78.07586	0.31519	 	3.7925700000000005E29	 	5.38128E-30	 	-15767.97615	25.7719	 
140.0	1.0	0.0	8.01525	7.04685	-11.56268	11.92428	12.28571	0.8239	1.21374	205.65442	185.33756	78.19184	0.31506	 	9.69258E29	 	2.08044E-30	 	-15896.58616	25.722	 
135.0	1.0	0.0	8.01675	7.04554	-11.57917	11.89873	12.22158	0.8182	1.2222	205.93875	185.4643	78.30764	0.31493	 	2.5347199999999998E30	 	7.85917E-31	 	-16024.9455	25.67187	 
130.0	1.0	0.0	8.01824	7.04423	-11.5956	11.87318	12.15733	0.81245	1.23085	206.22257	185.59044	78.42326	0.3148	 	6.78853E30	 	2.89853E-31	 	-16153.05289	25.62148	 
125.0	1.0	0.0	8.01972	7.04292	-11.61196	11.84764	12.09295	0.80664	1.23971	206.50588	185.71598	78.5387	0.31468	 	1.86366E31	 	1.04272E-31	 	-16280.90702	25.57083	 
120.0	1.0	0.0	8.0212	7.04162	-11.62826	11.82209	12.02843	0.80078	1.24878	206.78866	185.84092	78.65397	0.31455	 	5.24946E31	 	3.65536E-32	 	-16408.50651	25.5199	 
115.0	1.0	0.0	8.02267	7.04033	-11.64448	11.79654	11.96377	0.79487	1.25806	207.07093	185.96525	78.76906	0.31442	 	1.51862E32	 	1.24749E-32	 	-16535.84994	25.46869	 
110.0	1.0	0.0	8.02414	7.03904	-11.66064	11.77099	11.89896	0.78891	1.26758	207.35269	186.08899	78.88398	0.31429	 	4.51674E32	 	4.14029E-33	 	-16662.93588	25.41719	 
105.0	1.0	0.0	8.0256	7.03776	-11.67673	11.74544	11.834	0.78289	1.27733	207.63392	186.21212	78.99872	0.31416	 	1.38267E33	 	1.33485E-33	 	-16789.76282	25.36539	 
100.0	1.0	0.0	8.02706	7.03648	-11.69275	11.7199	11.76888	0.77681	1.28732	207.91464	186.33467	79.11328	0.31403	 	4.36147E33	 	4.17578E-34	 	-16916.32926	25.31329	 
95.0	1.0	0.0	8.02851	7.03521	-11.70871	11.69435	11.7036	0.77068	1.29756	208.19484	186.45661	79.22767	0.3139	 	1.41938E34	 	1.26594E-34	 	-17042.63372	25.26089	 
90.0	1.0	0.0	8.02995	7.03395	-11.7246	11.6688	11.63815	0.76448	1.30807	208.47453	186.57796	79.34188	0.31377	 	4.77175E34	 	3.71445E-35	 	-17168.67475	25.20821	 
85.0	1.0	0.0	8.03139	7.03269	-11.74042	11.64326	11.57252	0.75823	1.31885	208.7537	186.69872	79.45592	0.31364	 	1.6594299999999998E35	 	1.0534E-35	 	-17294.45099	25.15525	 
80.0	1.0	0.0	8.03283	7.03143	-11.75617	11.61771	11.5067	0.75192	1.32992	209.03235	186.81889	79.56977	0.31352	 	5.978159999999999E35	 	2.88323E-36	 	-17419.96124	25.10205	 
75.0	1.0	0.0	8.03426	7.03018	-11.77186	11.59217	11.44069	0.74556	1.34128	209.31049	186.93847	79.68346	0.31339	 	2.2344099999999997E36	 	7.60484E-37	 	-17545.20456	25.04866	 
70.0	1.0	0.0	8.03568	7.02894	-11.78748	11.56662	11.37447	0.73913	1.35295	209.58811	187.05746	79.79696	0.31326	 	8.678519999999999E36	 	1.92986E-37	 	-17670.1804	24.99517	 
65.0	1.0	0.0	8.03709	7.0277	-11.80303	11.54108	11.30804	0.73264	1.36494	209.86521	187.17587	79.91029	0.31313	 	3.5087699999999998E37	 	4.70372E-38	 	-17794.88878	24.94168	 
60.0	1.0	0.0	8.03851	7.02646	-11.81851	11.51553	11.24139	0.72608	1.37725	210.1418	187.29369	80.02344	0.313	 	1.4793599999999998E38	 	1.09914E-38	 	-17919.33061	24.88837	 
55.0	1.0	0.0	8.03991	7.02524	-11.83393	11.48999	11.17451	0.71947	1.38992	210.41787	187.41092	80.13641	0.31287	 	6.51687E38	 	2.45765E-39	 	-18043.50809	24.8355	 
50.0	1.0	0.0	8.04131	7.02401	-11.84928	11.46445	11.10739	0.71278	1.40295	210.69342	187.52757	80.24921	0.31274	 	3.0056E39	 	5.24759E-40	 	-18167.42531	24.78344	 
45.0	1.0	0.0	8.04271	7.0228	-11.86456	11.4389	11.04001	0.70604	1.41635	210.96846	187.64364	80.36183	0.31262	 	1.45442E40	 	1.06765E-40	 	-18291.28339	24.77162	 
40.0	1.0	0.0	8.04409	7.02158	-11.87977	11.41336	10.97236	0.69923	1.43015	211.24299	187.75913	80.47428	0.31249	 	7.4014299999999995E40	 	2.06502E-41	 	-18415.22807	24.78894	 
35.0	1.0	0.0	8.04548	7.02038	-11.89492	11.38782	10.90443	0.69235	1.44436	211.51699	187.87404	80.58655	0.31236	 	3.9707500000000005E41	 	3.7877E-42	 	-18538.7605	24.70649	 
30.0	1.0	0.0	8.04685	7.01917	-11.91	11.36227	10.83621	0.6854	1.45899	211.79048	187.98837	80.69864	0.31223	 	2.2516199999999997E42	 	6.57126E-43	 	-18661.8841	24.62472	 
25.0	1.0	0.0	8.04823	7.01798	-11.92501	 	10.76768	0.67839	1.47408	212.06346	188.10213	80.81055	0.3121	 	1.3533E43	 	1.07529E-43	 	-18784.60042	 	 
