T (C)	Fraction solid (wt)-TOTAL	Fraction liquid (wt)-LIQUID	Density (g/(cm)^3)-TOTAL	Molar volume (cm^3)-TOTAL	Volume change (%)-  	Average expansion coeff. (10e-6 1/K)-  	Thermal conductivity (W/(m*K))-TOTAL	Electrical resistivity (10e-6 Ohm*m)-TOTAL	Electrical conductivity (10e6 1/(Ohm*m))-TOTAL	Young's modulus (GPa)-TOTAL	Bulk modulus (GPa)-TOTAL	Shear modulus(GPa)-TOTAL	Poisson's ratio-TOTAL	Liquid viscosity (mPa s)-  	Total viscosity (mPa s)-  	Liquid diffusivity (10e-9 (m^2)/s)-  	Total diffusivity (10e-9 (m^2)/s)-  	Surface Tension (mN/m)-  	Enthalpy (J/mole)-TOTAL	Specific heat (J/(mole K))-TOTAL	Latent heat (J/mole)-TOTAL
1400.0	0.0	1.0	7.22547	8.0489	0.0	35.02553	30.0207	1.36546	0.73235	0.0	122.24726	0.0	0.5	6.75147	6.75147	1.20955	1.20955	1798.27214	43289.711	 	0.0
1395.0	0.0	1.0	7.22959	8.04432	-0.0570091	34.99462	29.93481	1.36529	0.73245	0.0	122.38751	0.0	0.5	6.82351	6.82351	1.1932	1.1932	1801.6575	43091.215	39.6992	0.0
1390.0	0.0	1.0	7.2337	8.03974	-0.11386	34.96392	29.84892	1.36511	0.73254	0.0	122.52776	0.0	0.5	6.89676	6.89676	1.17699	1.17699	1805.06765	42893.148	39.6134	0.0
1385.0	0.0	1.0	7.23781	8.03518	-0.17055	34.93345	29.76303	1.36494	0.73263	0.0	122.66801	0.0	0.5	6.97125	6.97125	1.16091	1.16091	1808.50246	42695.506	39.5284	0.0
1380.0	0.0	1.0	7.24191	8.03063	-0.22707	34.9032	29.67714	1.36476	0.73273	0.0	122.80825	0.0	0.5	7.04699	7.04699	1.14497	1.14497	1811.96175	42498.287	39.4438	0.0
1375.0	0.0	1.0	7.246	8.02609	-0.28344	34.87319	29.59126	1.36458	0.73283	0.0	122.9485	0.0	0.5	7.12403	7.12403	1.12917	1.12917	1815.44537	42301.49	39.3594	0.0
1370.0	0.0	1.0	7.25009	8.02157	-0.33965	34.8434	29.50537	1.3644	0.73292	0.0	123.08875	0.0	0.5	7.20238	7.20238	1.11349	1.11349	1818.95312	42105.11	39.276	0.0
1365.0	0.0	1.0	7.25417	8.01706	-0.39569	34.81386	29.41948	1.36422	0.73302	0.0	123.229	0.0	0.5	7.28209	7.28209	1.09795	1.09795	1822.4848	41909.145	39.193	0.0
1360.0	0.0	1.0	7.25824	8.01256	-0.45158	34.78454	29.33359	1.36404	0.73312	0.0	123.36925	0.0	0.5	7.36317	7.36317	1.08255	1.08255	1826.0402	41713.593	39.1104	0.0
1355.0	0.0	1.0	7.26231	8.00807	-0.5073	34.75547	29.2477	1.36386	0.73321	0.0	123.5095	0.0	0.5	7.44566	7.44566	1.06728	1.06728	1829.61909	41518.451	39.0284	0.0
1350.0	0.0	1.0	7.26637	8.0036	-0.56287	34.72664	29.16182	1.36367	0.73331	0.0	123.64975	0.0	0.5	7.52959	7.52959	1.05214	1.05214	1833.22122	41323.716	38.947	0.0
1345.0	0.0	1.0	7.27042	7.99914	-0.61827	34.69806	29.07593	1.36349	0.73341	0.0	123.79	0.0	0.5	7.615	7.615	1.03714	1.03714	1836.84636	41129.387	38.8658	0.0
1340.0	0.0	1.0	7.27446	7.99469	-0.67352	34.66973	28.99004	1.3633	0.73351	0.0	123.93025	0.0	0.5	7.70191	7.70191	1.02226	1.02226	1840.49423	40935.46	38.7854	0.0
1336.15	0.0	1.0	7.27757	7.99128	-0.71592	34.64809	28.92395	1.36316	0.73359	0.0	124.03817	0.0	0.5	7.76984	7.76984	1.01091	1.01091	1843.31663	40786.505	38.71415	0.0
1335.0	0.02801	0.97199	7.28718	7.98072	-0.84707	34.29664	29.00765	1.35825	0.73624	5.69935E-5	124.63696	1.90415E-5	0.49656	7.79464	8.09997	1.00697	0.96901	1843.41861	40337.964	389.20985	403.968
1330.0	0.1417	0.8583	7.32647	7.93797	-1.37831	32.87505	29.3518	1.33815	0.7473	0.0382678	127.08342	0.0129069	0.48246	7.90377	15.95526	0.98998	0.49041	1843.891	38514.074	364.778	2034.729
1325.0	0.23814	0.76186	7.36046	7.90128	-1.83409	31.66397	29.64354	1.32085	0.75709	0.31204	129.20858	0.10611	0.47032	8.01541	64.87626	0.97315	0.12023	1844.39309	36947.712	313.2724	3408.356
1320.0	0.32057	0.67943	7.39008	7.86958	-2.22793	30.62604	29.89252	1.30575	0.76584	1.04474	131.07253	0.35784	0.45981	8.12961	198.75736	0.95647	0.0391219	1844.9255	35590.423	271.4578	4573.303
1315.0	0.39154	0.60846	7.41606	7.84204	-2.57013	29.73275	30.10575	1.29243	0.77373	2.36474	132.72159	0.81506	0.45065	8.24633	450.70377	0.93998	0.0171984	1845.48637	34404.25	237.2346	5567.528
1310.0	0.45305	0.54695	7.43906	7.81775	-2.8719	28.95254	30.28845	1.28059	0.78089	4.30393	134.19102	1.4917	0.44262	8.36591	840.8969	0.92363	0.00918895	1846.07831	33359.189	209.0122	6421.025
1305.0	0.50667	0.49333	7.4595	7.7963	-3.13838	28.27139	30.44473	1.27	0.7874	6.82529	135.51139	2.37724	0.43555	8.48811	1379.44654	0.90745	0.0055838	1846.69903	32431.321	185.5736	7157.716
1300.0	0.55367	0.44633	7.47782	7.77714	-3.37636	27.67021	30.57777	1.26046	0.79336	9.85326	136.70467	3.44693	0.42928	8.61322	2069.89046	0.89144	0.00370945	1847.34939	31601.425	165.9792	7796.818
1295.0	0.59507	0.40493	7.4943	7.76	-3.58936	27.13933	30.69014	1.25186	0.79881	13.2974	137.792	4.66999	0.42371	8.7412	2912.69315	0.87559	0.00262772	1848.02715	30853.94	149.497	8353.891
1290.0	0.6317	0.3683	7.5092	7.74452	-3.78172	26.66649	30.78424	1.24405	0.80383	17.06399	138.78758	6.01386	0.41872	8.87206	3906.49303	0.85993	0.00195299	1848.73239	30176.181	135.5518	8841.616
1285.0	0.66425	0.33575	7.52276	7.73045	-3.95645	26.24325	30.86197	1.23695	0.80844	21.06466	139.70495	7.44731	0.41425	9.006	5049.67479	0.84443	0.00150603	1849.46431	29557.741	123.688	9270.399
1280.0	0.69329	0.30671	7.53518	7.71763	-4.1158	25.86342	30.92504	1.23046	0.8127	25.22167	140.55498	8.9425	0.41021	9.14319	6341.55934	0.82909	0.00119537	1850.22116	28990.026	113.543	9648.831
1275.0	0.71928	0.28072	7.54657	7.70585	-4.26218	25.52014	30.97506	1.22452	0.81664	29.46927	141.34588	10.47562	0.40656	9.2835	7782.59549	0.81393	9.70902E-4	1851.0025	28465.903	104.8246	9984.046
1270.0	0.74263	0.25737	7.55707	7.69502	-4.39663	25.21064	31.01322	1.21907	0.8203	33.74998	142.08579	12.0256	0.40325	9.42712	9374.15167	0.79894	8.03457E-4	1851.80557	27979.413	97.298	10281.995
1265.0	0.76366	0.23634	7.5668	7.68497	-4.52149	24.92817	31.04087	1.21403	0.8237	38.02326	142.78087	13.57743	0.40024	9.57429	11120.25013	0.78411	6.75104E-4	1852.63106	27525.558	90.771	10547.678
1260.0	0.78268	0.21732	7.57584	7.67564	-4.63741	24.67101	31.05907	1.20938	0.82687	42.25322	143.43655	15.11764	0.39748	9.72476	13025.98576	0.76947	5.74461E-4	1853.4761	27100.119	85.0878	10785.309
1255.0	0.7999	0.2001	7.58429	7.66696	-4.74528	24.43672	31.0687	1.20506	0.82983	46.41065	144.058	16.63516	0.39496	9.87902	15097.53689	0.75499	4.94022E-4	1854.33873	26699.526	80.1186	10998.459
1250.0	0.81557	0.18443	7.59219	7.65878	-4.84692	24.21994	31.07058	1.20105	0.83261	50.47644	144.64762	18.12267	0.39263	10.03695	17342.9664	0.74068	4.28653E-4	1855.22087	26320.737	75.7578	11190.166
1245.0	0.82982	0.17018	7.59962	7.65112	-4.94208	24.02162	31.06554	1.1973	0.83521	54.43567	145.20999	19.57425	0.39049	10.19862	19772.9601	0.72654	3.7474E-4	1856.11718	25961.152	71.917	11363.028
1240.0	0.84284	0.15716	7.60662	7.64387	-5.03214	23.83773	31.05414	1.19379	0.83767	58.27799	145.74752	20.98577	0.38851	10.3644	22398.58172	0.71256	3.29722E-4	1857.02932	25618.544	68.5216	11519.27
1235.0	0.85475	0.14525	7.61324	7.63704	-5.11706	23.66849	31.03708	1.1905	0.83998	61.99657	146.26322	22.35433	0.38668	10.53409	25233.80209	0.69877	2.91708E-4	1857.95306	25290.99	65.5108	11660.813
1230.0	0.86567	0.13433	7.61951	7.63053	-5.19796	23.51057	31.01475	1.18741	0.84217	65.58698	146.75842	23.67805	0.38497	10.70805	28292.97091	0.68514	2.59305E-4	1858.89025	24976.831	62.8318	11789.314
1225.0	0.8757	0.1243	7.62547	7.62434	-5.27475	23.36439	30.98778	1.18449	0.84425	69.04863	147.23586	24.95635	0.38339	10.88618	31594.14499	0.67169	2.31438E-4	1859.83655	24674.627	60.4408	11906.212
1220.0	0.88493	0.11507	7.63116	7.61842	-5.34841	23.227	30.9565	1.18173	0.84622	72.38392	147.69683	26.18992	0.3819	11.06895	35156.64026	0.65839	2.07292E-4	1860.79412	24383.124	58.3006	12012.757
1215.0	0.89344	0.10656	7.63659	7.61276	-5.41864	23.09946	30.92134	1.17911	0.8481	75.5933	148.14317	27.37861	0.38052	11.25606	39002.17565	0.64528	1.86228E-4	1861.75777	24101.228	56.3792	12110.043
1210.0	0.90131	0.0986939	7.64179	7.60733	-5.48616	22.97957	30.8825	1.17663	0.84989	78.67385	148.57547	28.5212	0.37922	11.44812	43150.98292	0.63232	1.67757E-4	1862.72989	23827.98	54.6496	12199.025
1205.0	0.90858	0.0914155	7.64678	7.6021	-5.55114	22.86685	30.84049	1.17426	0.8516	81.63949	148.99575	29.62259	0.37799	11.645	47634.31592	0.61953	1.51456E-4	1863.70749	23562.539	53.0882	12280.544
1200.0	0.91532	0.0846829	7.65158	7.59706	-5.61373	22.76092	30.79536	1.172	0.85324	84.4821	149.4042	30.67964	0.37684	11.84695	52474.73099	0.60691	1.3702E-4	1864.69049	23304.163	51.6752	12355.339
1195.0	0.92156	0.0784352	7.6562	7.59219	-5.67422	22.66098	30.74751	1.16984	0.85482	87.21391	149.80199	31.6967	0.37576	12.05396	57707.3803	0.59447	1.24173E-4	1865.67741	23052.195	50.3936	12424.064
1190.0	0.92737	0.0726311	7.65883	7.58653	-5.74452	22.52801	30.616	1.17086	0.85407	89.91793	150.14784	32.70733	0.37458	12.26655	63365.89131	0.58217	1.12699E-4	1869.43882	22740.01173	62.43665	12487.296
1185.0	0.93277	0.0672315	7.66985	7.57881	-5.84044	22.30967	30.28862	1.17948	0.84783	92.99164	150.48503	33.86878	0.37282	12.48442	70734.44177	0.57006	1.00614E-4	1873.20093	22317.4796	84.50643	12545.548
1180.0	0.9378	0.0622044	7.68021	7.57116	-5.9355	22.09226	29.97622	1.18768	0.84198	95.94043	150.8066	34.98514	0.37116	12.70822	78856.1058	0.5581	8.99419E-5	1876.96273	21907.20543	82.05483	12599.277
1175.0	0.94232	0.0576825	7.6899	7.56362	-6.02919	21.87752	29.67398	1.19565	0.83637	98.70744	151.11389	36.03497	0.36961	12.94543	87766.65187	0.54599	8.05324E-5	1880.72448	21508.24611	79.79186	12649.051
1170.0	0.94636	0.0536434	7.69895	7.5562	-6.12134	21.66603	29.37923	1.20348	0.83093	101.29728	151.40872	37.01974	0.36815	13.20355	97542.47455	0.53347	7.22112E-5	1884.4872	21118.46521	77.95618	12696.654
1165.0	0.95082	0.0491829	7.70765	7.54854	-6.21652	21.44255	29.11049	1.21038	0.82619	103.91999	151.71873	38.01938	0.36667	13.50385	108622.3207	0.5198	6.46207E-5	1888.26057	20729.72613	77.74782	12749.89
1160.0	0.95536	0.0446357	7.71589	7.54082	-6.31247	21.21451	28.85996	1.21664	0.82194	106.50619	152.03246	39.00723	0.36521	13.83634	121037.5211	0.50554	5.77908E-5	1892.04062	20345.89856	76.76551	12804.571
1155.0	0.95949	0.0405143	7.72352	7.53334	-6.40546	20.99442	28.61823	1.22264	0.8179	108.93346	152.33082	39.93604	0.36385	14.17768	134666.8639	0.49165	5.17607E-5	1895.82159	19973.68784	74.44214	12853.697
1150.0	0.96299	0.0370094	7.73074	7.52624	-6.4936	20.78884	28.3757	1.22877	0.81382	111.06868	152.62458	40.7561	0.3626	14.49006	149501.3093	0.47937	4.64614E-5	1899.62545	19602.23768	74.29003	12907.843
1145.0	0.96616	0.0338429	7.73748	7.51945	-6.57801	20.59413	28.14057	1.23468	0.80992	113.05671	152.90751	41.52111	0.36144	14.80366	165776.1477	0.46756	4.17529E-5	1903.43278	19238.46933	72.75367	12959.82
1140.0	0.96906	0.0309418	7.74374	7.5129	-6.65938	20.40809	27.91473	1.24028	0.80627	114.93684	153.17825	42.24557	0.36034	15.12831	183659.1225	0.45592	3.75545E-5	1907.24172	18884.38531	70.8168	13007.377
1135.0	0.97172	0.0282763	7.74957	7.50658	-6.73781	20.23045	27.69764	1.24558	0.80284	116.72053	153.43833	42.93366	0.35931	15.46369	203316.9846	0.44445	3.38035E-5	1911.04997	18539.22998	69.03107	13051.03
1130.0	0.97418	0.0258175	7.75501	7.50048	-6.81366	20.06012	27.48878	1.25059	0.79962	118.42148	153.68929	43.59048	0.35834	15.81082	224939.132	0.43315	3.04457E-5	1914.85943	18202.33438	67.37912	13091.226
1125.0	0.97722	0.0227784	7.76033	7.4941	-6.89292	19.87644	27.28976	1.25522	0.79667	120.45089	153.968	44.3717	0.35729	16.19294	249515.1231	0.42142	2.73491E-5	1918.62491	17856.40349	69.18618	13145.044
1120.0	0.98057	0.0194306	7.76544	7.48759	-6.97379	19.68545	27.09931	1.25952	0.79395	122.70915	154.26389	45.23956	0.35622	16.60817	277190.1539	0.40941	2.45305E-5	1922.35261	17506.92453	69.89579	13206.797
1115.0	0.98346	0.0165446	7.77011	7.48142	-7.05046	19.50739	26.91491	1.2636	0.79139	124.81773	154.54063	46.05031	0.35523	17.03399	307423.0952	0.39775	2.20387E-5	1926.08522	17170.70021	67.24486	13259.489
1110.0	0.98597	0.0140343	7.77441	7.47553	-7.1236	19.34014	26.73635	1.26746	0.78898	126.83977	154.80189	46.82749	0.35433	17.47097	340521.2611	0.3864	1.98249E-5	1929.82249	16845.7941	64.98122	13304.88
1105.0	0.98817	0.0118318	7.77839	7.46989	-7.19367	19.18214	26.56335	1.2711	0.78672	128.82841	155.05052	47.59097	0.3535	17.91937	376818.7197	0.37537	1.78505E-5	1933.56277	16530.69298	63.02022	13344.307
1100.0	0.99012	0.0098831	7.7821	7.46447	-7.26111	19.03206	26.39561	1.27454	0.7846	130.81764	155.28865	48.35353	0.35272	18.37967	416678.5042	0.36464	1.60844E-5	1937.30775	16224.19641	61.29931	13378.808
1095.0	0.99185	0.00814819	7.78557	7.45923	-7.32619	18.88895	26.23281	1.27778	0.78261	132.81056	155.51808	49.11648	0.352	18.8529	460500.6807	0.35419	1.45007E-5	1941.05628	15925.33384	59.77251	13409.199
1090.0	0.99341	0.00659356	7.78884	7.45415	-7.3892	18.75192	26.0728	1.28092	0.78069	134.7732	155.74025	49.86742	0.35132	19.33861	508731.0652	0.34404	1.3078E-5	1944.80703	15633.31061	58.40465	13436.129
1085.0	0.99497	0.00502526	7.79205	7.44918	-7.45101	18.61792	25.91952	1.28377	0.77896	136.77664	155.96324	50.63371	0.35065	19.80097	562169.0704	0.33477	1.17915E-5	1948.56812	15344.82016	57.69809	13462.761
1080.0	0.99644	0.00355674	7.79511	7.44433	-7.51128	18.48821	25.77054	1.28644	0.77734	138.62742	156.18253	51.34312	0.35001	20.26726	621187.0625	0.32586	1.06319E-5	1952.33239	15061.45074	56.67388	13487.375
1075.0	0.99778	0.00221978	7.79801	7.43961	-7.56994	18.36311	25.62543	1.28894	0.77583	140.22583	156.39684	51.95839	0.3494	20.74597	686304.0199	0.31717	9.58757E-6	1956.09745	14783.51695	55.58676	13509.53
1070.0	0.999	9.97031E-4	7.80078	7.435	-7.62715	18.24212	25.48392	1.29129	0.77442	141.59148	156.60692	52.48678	0.34883	21.23738	758204.7544	0.30868	8.64619E-6	1959.86359	14510.56346	54.5907	13529.558
1065.0	1.0	0.0	7.8047	7.43052	-7.68283	18.1256	25.34374	1.2936	0.77304	142.76273	156.79935	52.94359	0.34825	 	841895.352	 	7.75771E-6	 	14337.43048	34.6266	 
1060.0	1.0	0.0	7.80859	7.42682	-7.72884	18.04356	25.20475	1.29587	0.77168	143.2737	156.947	53.14884	0.34785	 	932031.6651	 	6.98128E-6	 	14101.99004	47.08809	 
1055.0	1.0	0.0	7.81244	7.42316	-7.77425	17.96295	25.06937	1.29799	0.77042	143.77637	157.0945	53.35077	0.34746	 	1032663.687	 	6.27733E-6	 	13868.9175	46.61451	 
1050.0	1.0	0.0	7.81624	7.41955	-7.81909	17.8837	24.93739	1.29994	0.76926	144.27122	157.24192	53.54955	0.34708	 	1145107.14	 	5.63962E-6	 	13638.11802	46.15989	 
1045.0	1.0	0.0	7.82	7.41599	-7.86337	17.80574	24.80865	1.30175	0.7682	144.75866	157.38934	53.74536	0.34671	 	1270854.15	 	5.06239E-6	 	13409.5012	45.72337	 
1040.0	1.0	0.0	7.82371	7.41247	-7.90713	17.72901	24.68296	1.30342	0.76721	145.22677	157.52341	53.93376	0.34634	 	1411598.365	 	4.54036E-6	 	13182.98077	45.30408	 
1035.0	1.0	0.0	7.82739	7.40899	-7.95037	17.65345	24.56019	1.30494	0.76632	145.70096	157.67137	54.12422	0.34599	 	1569263.967	 	4.06863E-6	 	12958.47447	44.90126	 
1030.0	1.0	0.0	7.83102	7.40555	-7.99311	17.57901	24.44016	1.30634	0.7655	146.16893	157.81949	54.31217	0.34564	 	1746039.035	 	3.64273E-6	 	12735.90372	44.51415	 
1025.0	1.0	0.0	7.83462	7.40214	-8.03539	17.50563	24.32276	1.30761	0.76475	146.63101	157.96781	54.49774	0.34529	 	1944414.066	 	3.25854E-6	 	12515.19357	44.14203	 
1020.0	1.0	0.0	7.83819	7.39878	-8.07721	17.43326	24.20784	1.30876	0.76408	147.08754	158.11638	54.68107	0.34496	 	2167226.435	 	2.91227E-6	 	12296.27247	43.78422	 
1015.0	1.0	0.0	7.84172	7.39545	-8.11859	17.36185	24.09528	1.30979	0.76348	147.53882	158.26523	54.86227	0.34463	 	2417711.789	 	2.60045E-6	 	12079.07211	43.44007	 
1010.0	1.0	0.0	7.84521	7.39215	-8.15954	17.29136	23.98498	1.3107	0.76295	147.98513	158.41438	55.04146	0.34431	 	2699563.502	 	2.31991E-6	 	11863.52723	43.10898	 
1005.0	1.0	0.0	7.84868	7.38889	-8.20009	17.22173	23.8768	1.31151	0.76248	148.42675	158.56387	55.21876	0.34399	 	3017001.551	 	2.06773E-6	 	11649.57553	42.79034	 
1000.0	1.0	0.0	7.85211	7.38565	-8.24025	17.15293	23.77067	1.31221	0.76207	148.86393	158.71372	55.39425	0.34368	 	3374852.314	 	1.84124E-6	 	11437.15752	42.4836	 
995.0	1.0	0.0	7.85552	7.38245	-8.28002	17.08492	23.66084	1.31313	0.76154	149.29692	158.86395	55.56805	0.34337	 	3778641.262	 	1.63803E-6	 	11226.21634	42.18824	 
990.0	1.0	0.0	7.8589	7.37928	-8.31943	17.01764	23.55841	1.31364	0.76125	149.72595	159.01459	55.74023	0.34307	 	4234700.566	 	1.45586E-6	 	11016.6977	41.90373	 
985.0	1.0	0.0	7.86224	7.37614	-8.35849	16.95107	23.45776	1.31405	0.76101	150.15122	159.16564	55.91089	0.34277	 	4750294.259	 	1.2927E-6	 	10808.54972	41.6296	 
980.0	1.0	0.0	7.86557	7.37302	-8.3972	16.88517	23.35879	1.31437	0.76082	150.57294	159.31712	56.08011	0.34248	 	5333764.025	 	1.14672E-6	 	10601.72313	41.36532	 
975.0	1.0	0.0	7.86886	7.36993	-8.43558	16.81991	23.26144	1.31461	0.76068	150.99131	159.46905	56.24796	0.34219	 	5994699.038	 	1.01622E-6	 	10396.16995	41.11064	 
970.0	1.0	0.0	7.87214	7.36687	-8.47365	16.75524	23.16564	1.31476	0.7606	151.4065	159.62144	56.41451	0.34191	 	6744134.122	 	8.99672E-7	 	10191.84518	40.86495	 
965.0	1.0	0.0	7.87539	7.36383	-8.5114	16.69114	23.07131	1.31482	0.76056	151.81868	159.77429	56.57985	0.34163	 	7594781.37	 	7.95691E-7	 	9988.70556	40.62792	 
960.0	1.0	0.0	7.87861	7.36082	-8.54885	16.62758	22.9784	1.31481	0.76057	152.22802	159.92762	56.74402	0.34136	 	8561300.75	 	7.03012E-7	 	9786.70971	40.39917	 
955.0	1.0	0.0	7.88181	7.35782	-8.58602	16.56453	22.88684	1.31472	0.76062	152.63467	160.08142	56.9071	0.34109	 	9660617.157	 	6.20488E-7	 	9585.81808	40.17833	 
950.0	1.0	0.0	7.885	7.35486	-8.6229	16.50195	22.79658	1.31455	0.76072	153.03877	160.23572	57.06913	0.34082	 	1.091229191E7	 	5.4708E-7	 	9385.99281	39.96505	 
945.0	1.0	0.0	7.88816	7.35191	-8.65951	16.43983	22.70756	1.31431	0.76086	153.44045	160.39051	57.23018	0.34056	 	1.233895864E7	 	4.81847E-7	 	9187.19773	39.75901	 
940.0	1.0	0.0	7.8913	7.34898	-8.69586	16.37813	22.61974	1.31399	0.76104	153.83985	160.54579	57.3903	0.34029	 	1.396683544E7	 	4.23939E-7	 	8989.39824	39.5599	 
935.0	1.0	0.0	7.89442	7.34608	-8.73194	16.31683	22.53307	1.31361	0.76126	154.23709	160.70158	57.54953	0.34004	 	1.58263273E7	 	3.72587E-7	 	8792.56123	39.3674	 
930.0	1.0	0.0	7.89752	7.34319	-8.76778	16.2559	22.44751	1.31316	0.76152	154.63229	160.85787	57.70793	0.33978	 	1.795273542E7	 	3.27096E-7	 	8596.65499	39.18125	 
925.0	1.0	0.0	7.9006	7.34033	-8.80338	16.19533	22.36301	1.31264	0.76182	155.02555	161.01467	57.86553	0.33953	 	2.038709365E7	 	2.86842E-7	 	8401.64923	39.00115	 
920.0	1.0	0.0	7.90366	7.33748	-8.83874	16.13508	22.27953	1.31206	0.76216	155.41697	161.17198	58.02239	0.33928	 	2.317715562E7	 	2.51259E-7	 	8207.51492	38.82686	 
915.0	1.0	0.0	7.90671	7.33466	-8.87387	16.07515	22.19704	1.31142	0.76253	155.80666	161.32979	58.17853	0.33904	 	2.637856178E7	 	2.1984E-7	 	8014.22427	38.65813	 
910.0	1.0	0.0	7.90974	7.33185	-8.90878	16.01549	22.1155	1.31072	0.76294	156.1947	161.48812	58.334	0.3388	 	3.005622021E7	 	1.92129E-7	 	7821.75069	38.49472	 
905.0	1.0	0.0	7.91275	7.32905	-8.94347	15.95611	22.03487	1.30995	0.76339	156.58119	161.64695	58.48883	0.33856	 	3.428594296E7	 	1.67715E-7	 	7630.06869	38.3364	 
900.0	1.0	0.0	7.91575	7.32628	-8.97794	15.89697	21.95514	1.30913	0.76386	156.96621	161.8063	58.64305	0.33832	 	3.915638692E7	 	1.4623E-7	 	7439.15391	38.18296	 
895.0	1.0	0.0	7.91873	7.32352	-9.01221	15.83806	21.87626	1.30825	0.76438	157.34983	161.96616	58.79671	0.33808	 	4.477135974E7	 	1.27346E-7	 	7248.98296	38.03419	 
890.0	1.0	0.0	7.9217	7.32078	-9.04628	15.77937	21.79821	1.30732	0.76493	157.73213	162.12654	58.94982	0.33785	 	5.125256245E7	 	1.10766E-7	 	7059.53344	37.8899	 
885.0	1.0	0.0	7.92465	7.31805	-9.08015	15.72086	21.72096	1.30633	0.76551	158.11319	162.28742	59.10242	0.33762	 	5.874285597E7	 	9.62269E-8	 	6870.7839	37.74991	 
880.0	1.0	0.0	7.92759	7.31534	-9.11382	15.66253	21.64449	1.30528	0.76612	158.49307	162.44881	59.25454	0.33739	 	6.74101554E7	 	8.34924E-8	 	6682.71365	37.61405	 
875.0	1.0	0.0	7.93051	7.31265	-9.14731	15.60436	21.56877	1.30419	0.76676	158.87182	162.61072	59.40619	0.33717	 	7.74520848E7	 	7.23523E-8	 	6495.30292	37.48215	 
870.0	1.0	0.0	7.93342	7.30997	-9.18062	15.54634	21.49378	1.30304	0.76744	159.24953	162.77313	59.55741	0.33694	 	8.910153514E7	 	6.26188E-8	 	6308.53313	37.35396	 
865.0	1.0	0.0	7.93631	7.3073	-9.21374	15.48845	21.4195	1.30184	0.76815	159.62623	162.93605	59.70822	0.33672	 	1.026333269E8	 	5.4125E-8	 	6122.38619	37.22939	 
860.0	1.0	0.0	7.93919	7.30465	-9.24669	15.43067	21.3459	1.30059	0.76888	160.00198	163.09947	59.85864	0.3365	 	1.183721934E8	 	4.67223E-8	 	5936.84479	37.10828	 
855.0	1.0	0.0	7.94206	7.30201	-9.27946	15.37299	21.27298	1.29929	0.76965	160.37685	163.2634	60.0087	0.33628	 	1.367023721E8	 	4.02789E-8	 	5751.89229	36.9905	 
850.0	1.0	0.0	7.94492	7.29939	-9.31206	15.3154	21.2007	1.29794	0.77045	160.75086	163.42784	60.1584	0.33606	 	1.580791271E8	 	3.46777E-8	 	5567.51276	36.8759	 
845.0	1.0	0.0	7.94713	7.29735	-9.33735	15.29112	21.13744	1.29603	0.77159	161.09992	163.63705	60.29561	0.33592	 	1.794098815E8	 	3.04187E-8	 	5414.24884	30.65279	 
840.0	1.0	0.0	7.94934	7.29532	-9.36258	15.26683	21.07416	1.2941	0.77274	161.44837	163.84534	60.43262	0.33577	 	2.038506168E8	 	2.66519E-8	 	5258.05648	31.23847	 
835.0	1.0	0.0	7.95155	7.29329	-9.38775	15.24254	21.01088	1.29217	0.77389	161.7962	164.05271	60.56944	0.33563	 	2.318879735E8	 	2.33242E-8	 	5102.06485	31.19833	 
830.0	1.0	0.0	7.95376	7.29127	-9.41285	15.21824	20.94758	1.29023	0.77506	162.14343	164.25915	60.70604	0.33548	 	2.640898753E8	 	2.03878E-8	 	4946.27319	31.15833	 
825.0	1.0	0.0	7.95595	7.28926	-9.43789	15.19395	20.88426	1.28828	0.77623	162.49004	164.46469	60.84245	0.33533	 	3.011199561E8	 	1.77995E-8	 	4790.68074	31.11849	 
820.0	1.0	0.0	7.95815	7.28725	-9.46287	15.16966	20.82094	1.28631	0.77742	162.83604	164.66931	60.97866	0.33519	 	3.437546981E8	 	1.55209E-8	 	4635.2867	31.07881	 
815.0	1.0	0.0	7.96034	7.28524	-9.48778	15.14536	20.7576	1.28433	0.77861	163.18144	164.87302	61.11466	0.33504	 	3.929038188E8	 	1.35173E-8	 	4480.09024	31.03929	 
810.0	1.0	0.0	7.96253	7.28324	-9.51263	15.12106	20.69424	1.28235	0.77982	163.52622	165.07582	61.25046	0.3349	 	4.496345549E8	 	1.17575E-8	 	4325.09052	30.99994	 
805.0	1.0	0.0	7.96471	7.28125	-9.53742	15.09677	20.63088	1.28035	0.78104	163.87039	165.27772	61.38606	0.33475	 	5.152006319E8	 	1.02139E-8	 	4170.28665	30.96077	 
800.0	1.0	0.0	7.96689	7.27926	-9.56214	15.07247	20.5675	1.27834	0.78227	164.21396	165.47871	61.52146	0.33461	 	5.910768701E8	 	8.86142E-9	 	4015.67772	30.92179	 
795.0	1.0	0.0	7.96906	7.27727	-9.5868	15.04817	20.5041	1.27631	0.78351	164.55691	165.67881	61.65665	0.33446	 	6.790005869E8	 	7.67801E-9	 	3861.26275	30.88299	 
790.0	1.0	0.0	7.97123	7.27529	-9.6114	15.02386	20.4407	1.27428	0.78476	164.89926	165.87801	61.79165	0.33432	 	7.810212E8	 	6.64383E-9	 	3707.04076	30.8444	 
785.0	1.0	0.0	7.97339	7.27332	-9.63593	14.99956	20.37727	1.27223	0.78602	165.24099	166.07631	61.92644	0.33417	 	8.995597474E8	 	5.74122E-9	 	3553.01073	30.80601	 
780.0	1.0	0.0	7.97555	7.27135	-9.6604	14.97526	20.31384	1.27018	0.78729	165.58212	166.27373	62.06103	0.33403	 	1.037480414E9	 	4.95447E-9	 	3399.17155	30.76783	 
775.0	1.0	0.0	7.97771	7.26938	-9.68481	14.95095	20.25039	1.26811	0.78858	165.92263	166.47026	62.19541	0.33388	 	1.198176616E9	 	4.26962E-9	 	3245.52211	30.72989	 
770.0	1.0	0.0	7.97986	7.26742	-9.70915	14.92664	20.18692	1.26603	0.78987	166.26254	166.6659	62.3296	0.33374	 	1.385674777E9	 	3.67428E-9	 	3092.06125	30.69217	 
765.0	1.0	0.0	7.982	7.26547	-9.73343	14.90233	20.12344	1.26393	0.79118	166.60183	166.86065	62.46358	0.33359	 	1.604759612E9	 	3.15745E-9	 	2938.78772	30.65471	 
760.0	1.0	0.0	7.98414	7.26352	-9.75764	14.87802	20.05994	1.26183	0.7925	166.94052	167.05453	62.59735	0.33345	 	1.861125638E9	 	2.70941E-9	 	2785.70024	30.61749	 
755.0	1.0	0.0	7.98628	7.26158	-9.78179	14.85371	19.99643	1.25971	0.79383	167.2786	167.24753	62.73093	0.3333	 	2.161560682E9	 	2.32154E-9	 	2632.79748	30.58055	 
750.0	1.0	0.0	7.98841	7.25964	-9.80588	14.8294	19.9329	1.25758	0.79518	167.61607	167.43965	62.8643	0.33316	 	2.514168523E9	 	1.98624E-9	 	2480.07802	30.54389	 
745.0	1.0	0.0	7.99054	7.2577	-9.82991	14.80509	19.86936	1.25543	0.79654	167.95293	167.6309	62.99747	0.33301	 	2.928639448E9	 	1.69681E-9	 	2327.54041	30.50752	 
740.0	1.0	0.0	7.99267	7.25578	-9.85387	14.78077	19.8058	1.25328	0.79791	168.28918	167.82128	63.13044	0.33287	 	3.41657961E9	 	1.44733E-9	 	2175.18307	30.47147	 
735.0	1.0	0.0	7.99479	7.25385	-9.87776	14.75646	19.74222	1.25111	0.79929	168.62482	168.01079	63.26321	0.33272	 	3.991912631E9	 	1.23262E-9	 	2023.00441	30.43573	 
730.0	1.0	0.0	7.9969	7.25193	-9.9016	14.73214	19.67863	1.24893	0.80069	168.95985	168.19944	63.39577	0.33258	 	4.671370166E9	 	1.04811E-9	 	1871.00269	30.40034	 
725.0	1.0	0.0	7.99901	7.25002	-9.92537	14.70782	19.61502	1.24673	0.8021	169.29428	168.38722	63.52813	0.33244	 	5.475092185E9	 	8.89797E-10	 	1719.17615	30.36531	 
720.0	1.0	0.0	8.00112	7.24811	-9.94908	14.6835	19.55139	1.24452	0.80352	169.62809	168.57414	63.66029	0.33229	 	6.427362815E9	 	7.54169E-10	 	1567.52288	30.33065	 
715.0	1.0	0.0	8.00322	7.24621	-9.97272	14.65918	19.48774	1.2423	0.80496	169.9613	168.76021	63.79224	0.33215	 	7.557514013E9	 	6.38162E-10	 	1416.04091	30.29639	 
710.0	1.0	0.0	8.00532	7.24431	-9.9963	14.63485	19.42408	1.24007	0.80641	170.2939	168.94542	63.92399	0.332	 	8.901037369E9	 	5.39096E-10	 	1264.72813	30.26256	 
705.0	1.0	0.0	8.00741	7.24242	-10.01982	14.61053	19.3604	1.23782	0.80787	170.62588	169.12978	64.05554	0.33186	 	1.0501E10	 	4.54636E-10	 	1113.58235	30.22916	 
700.0	1.0	0.0	8.0095	7.24053	-10.04327	14.5862	19.2967	1.23556	0.80935	170.95727	169.31329	64.18688	0.33172	 	1.2409499999999998E10	 	3.82747E-10	 	962.60124	30.19622	 
695.0	1.0	0.0	8.01158	7.23865	-10.06666	14.56188	19.23298	1.23328	0.81085	171.28804	169.49594	64.31802	0.33157	 	1.4690299999999998E10	 	3.21662E-10	 	811.78233	30.16378	 
690.0	1.0	0.0	8.01366	7.23677	-10.08999	14.53755	19.16924	1.23099	0.81235	171.6182	169.67776	64.44896	0.33143	 	1.74207E10	 	2.69846E-10	 	661.12303	30.13186	 
685.0	1.0	0.0	8.01573	7.2349	-10.11325	14.51322	19.10549	1.22869	0.81388	171.94776	169.85873	64.57969	0.33128	 	2.06954E10	 	2.25968E-10	 	510.62059	30.10049	 
680.0	1.0	0.0	8.0178	7.23303	-10.13645	14.48889	19.04171	1.22637	0.81541	172.27671	170.03886	64.71022	0.33114	 	2.4630199999999996E10	 	1.88878E-10	 	360.27211	30.0697	 
675.0	1.0	0.0	8.01987	7.23117	-10.15958	14.46456	18.97792	1.22404	0.81697	172.60505	170.21815	64.84055	0.331	 	2.9366899999999996E10	 	1.57582E-10	 	210.0745	30.03952	 
670.0	1.0	0.0	8.02193	7.22931	-10.18266	14.44022	18.9141	1.22169	0.81854	172.93278	170.39661	64.97067	0.33085	 	3.50799E10	 	1.31223E-10	 	60.02452	30.01	 
665.0	1.0	0.0	8.02398	7.22746	-10.20566	14.41589	18.85026	1.21933	0.82012	173.2599	170.57424	65.10059	0.33071	 	4.19838E10	 	1.09063E-10	 	-89.88129	29.98116	 
660.0	1.0	0.0	8.02603	7.22561	-10.22861	14.39155	18.78641	1.21695	0.82172	173.58642	170.75103	65.2303	0.33057	 	5.034319999999999E10	 	9.04684E-11	 	-239.637	29.95114	 
655.0	1.0	0.0	8.02808	7.22377	-10.25149	14.36721	18.72253	1.21456	0.82334	173.91232	170.92699	65.35981	0.33042	 	6.048539999999999E10	 	7.48953E-11	 	-389.18911	29.91042	 
650.0	1.0	0.0	8.03012	7.22194	-10.27431	14.34288	18.65863	1.21216	0.82498	174.23762	171.10213	65.48912	0.33028	 	7.28153E10	 	6.1878E-11	 	-538.46672	29.85552	 
645.0	1.0	0.0	8.03216	7.2201	-10.29706	14.31854	18.5947	1.20974	0.82663	174.56231	171.27645	65.61823	0.33014	 	8.78361E10	 	5.10184E-11	 	-687.47095	29.80085	 
640.0	1.0	0.0	8.03419	7.21828	-10.31975	14.29419	18.53076	1.2073	0.82829	174.8864	171.44994	65.74712	0.32999	 	1.06173E11	 	4.19772E-11	 	-836.20296	29.7464	 
635.0	1.0	0.0	8.03622	7.21646	-10.34238	14.26985	18.46679	1.20485	0.82998	175.20987	171.62261	65.87582	0.32985	 	1.28607E11	 	3.44651E-11	 	-984.66392	29.69219	 
630.0	1.0	0.0	8.03824	7.21464	-10.36494	14.24551	18.4028	1.20238	0.83168	175.53274	171.79447	66.00431	0.32971	 	1.56111E11	 	2.82366E-11	 	-1132.85495	29.63821	 
625.0	1.0	0.0	8.04026	7.21283	-10.38744	14.22116	18.33879	1.1999	0.8334	175.855	171.96552	66.1326	0.32956	 	1.89908E11	 	2.3083E-11	 	-1280.7774	29.58449	 
620.0	1.0	0.0	8.04227	7.21102	-10.40988	14.19682	18.27475	1.1974	0.83514	176.17666	172.13575	66.26068	0.32942	 	2.31528E11	 	1.88282E-11	 	-1428.43295	29.53111	 
615.0	1.0	0.0	8.04428	7.20922	-10.43225	14.17247	18.21069	1.19488	0.8369	176.4977	172.30517	66.38856	0.32928	 	2.829E11	 	1.53229E-11	 	-1575.82245	29.4779	 
610.0	1.0	0.0	8.04628	7.20743	-10.45456	14.14812	18.14661	1.19235	0.83868	176.81814	172.47378	66.51623	0.32914	 	3.46456E11	 	1.24415E-11	 	-1722.94705	29.42492	 
605.0	1.0	0.0	8.04828	7.20564	-10.4768	14.12377	18.0825	1.18981	0.84047	177.13797	172.64159	66.6437	0.32899	 	4.25271E11	 	1.00784E-11	 	-1869.80786	29.37216	 
600.0	1.0	0.0	8.05028	7.20385	-10.49899	14.09942	18.01836	1.18724	0.84229	177.45719	172.80859	66.77097	0.32885	 	5.23242E11	 	8.14467E-12	 	-2016.40601	29.31963	 
595.0	1.0	0.0	8.05227	7.20207	-10.5211	14.07506	17.9542	1.18466	0.84412	177.77581	172.9748	66.89803	0.32871	 	6.45322E11	 	6.56607E-12	 	-2162.74262	29.26732	 
590.0	1.0	0.0	8.05425	7.2003	-10.54316	14.05071	17.89001	1.18207	0.84598	178.09382	173.1402	67.02488	0.32856	 	7.97821E11	 	5.28041E-12	 	-2308.81882	29.21524	 
585.0	1.0	0.0	8.05623	7.19853	-10.56515	14.02635	17.8258	1.17945	0.84785	178.41122	173.30481	67.15153	0.32842	 	9.88799E11	 	4.23586E-12	 	-2454.63573	29.16338	 
580.0	1.0	0.0	8.05821	7.19676	-10.58708	14.002	17.76156	1.17682	0.84975	178.72801	173.46862	67.27798	0.32828	 	1.22858E12	 	3.38929E-12	 	-2600.19446	29.11174	 
575.0	1.0	0.0	8.06018	7.195	-10.60894	13.97764	17.69729	1.17417	0.85166	179.0442	173.63165	67.40422	0.32814	 	1.53042E12	 	2.70489E-12	 	-2745.49611	29.06033	 
570.0	1.0	0.0	8.06215	7.19325	-10.63074	13.95328	17.63299	1.17151	0.8536	179.35978	173.79388	67.53026	0.328	 	1.91139E12	 	2.15299E-12	 	-2890.5418	29.00914	 
565.0	1.0	0.0	8.06411	7.1915	-10.65248	13.92892	17.56867	1.16882	0.85556	179.67475	173.95532	67.65609	0.32785	 	2.39353E12	 	1.70911E-12	 	-3035.33265	28.95817	 
560.0	1.0	0.0	8.06606	7.18975	-10.67415	13.90455	17.50431	1.16612	0.85754	179.98912	174.11598	67.78171	0.32771	 	3.0054E12	 	1.35303E-12	 	-3179.86974	28.90742	 
555.0	1.0	0.0	8.06802	7.18801	-10.69576	13.88019	17.43993	1.1634	0.85955	180.30288	174.27586	67.90713	0.32757	 	3.78406E12	 	1.06816E-12	 	-3324.15418	28.85689	 
550.0	1.0	0.0	8.06996	7.18628	-10.7173	13.85583	17.37551	1.16067	0.86157	180.61603	174.43495	68.03235	0.32743	 	4.77783E12	 	8.40882E-13	 	-3468.18707	28.80658	 
545.0	1.0	0.0	8.0719	7.18455	-10.73878	13.83146	17.31107	1.15791	0.86362	180.92857	174.59327	68.15736	0.32729	 	6.04979E12	 	6.60053E-13	 	-3611.96951	28.75649	 
540.0	1.0	0.0	8.07384	7.18283	-10.7602	13.80709	17.24659	1.15514	0.8657	181.24051	174.75081	68.28217	0.32714	 	7.68265E12	 	5.1659E-13	 	-3755.50258	28.70661	 
535.0	1.0	0.0	8.07577	7.18111	-10.78155	13.78272	17.18208	1.15234	0.8678	181.55184	174.90757	68.40676	0.327	 	9.78511E12	 	4.031E-13	 	-3898.78737	28.65696	 
530.0	1.0	0.0	8.0777	7.17939	-10.80284	13.75835	17.11754	1.14953	0.86992	181.86257	175.06357	68.53116	0.32686	 	1.25005E13	 	3.13585E-13	 	-4041.82496	28.60752	 
525.0	1.0	0.0	8.07962	7.17769	-10.82407	13.73398	17.05297	1.1467	0.87207	182.17268	175.21879	68.65535	0.32672	 	1.60186E13	 	2.43191E-13	 	-4184.61644	28.5583	 
520.0	1.0	0.0	8.08154	7.17598	-10.84523	13.70961	16.98836	1.14385	0.87424	182.48219	175.37324	68.77933	0.32658	 	2.0591E13	 	1.88003E-13	 	-4327.16287	28.50929	 
515.0	1.0	0.0	8.08346	7.17428	-10.86633	13.68524	16.92372	1.14098	0.87644	182.79109	175.52693	68.9031	0.32644	 	2.6553E13	 	1.44871E-13	 	-4469.46535	28.4605	 
510.0	1.0	0.0	8.08536	7.17259	-10.88737	13.66086	16.85905	1.13809	0.87866	183.09939	175.67985	69.02667	0.32629	 	3.43527E13	 	1.11268E-13	 	-4611.52493	28.41191	 
505.0	1.0	0.0	8.08727	7.1709	-10.90834	13.63648	16.79434	1.13518	0.88091	183.40708	175.83201	69.15004	0.32615	 	4.45908E13	 	8.51736E-14	 	-4753.34266	28.36355	 
500.0	1.0	0.0	8.08916	7.16922	-10.92925	13.61211	16.72959	1.13226	0.88319	183.71416	175.98341	69.2732	0.32601	 	5.80757E13	 	6.49764E-14	 	-4894.91963	28.31539	 
495.0	1.0	0.0	8.09106	7.16754	-10.95009	13.58773	16.66481	1.12931	0.8855	184.02064	176.13405	69.39615	0.32587	 	7.58993E13	 	4.93963E-14	 	-5036.25688	28.26745	 
490.0	1.0	0.0	8.09295	7.16587	-10.97087	13.56335	16.59998	1.12634	0.88783	184.32651	176.28394	69.5189	0.32573	 	9.95416E13	 	3.7419E-14	 	-5177.35546	28.21972	 
485.0	1.0	0.0	8.09483	7.1642	-10.99159	13.53896	16.53512	1.12335	0.8902	184.63177	176.43307	69.64144	0.32559	 	1.3101599999999998E14	 	2.82434E-14	 	-5318.21642	28.17219	 
480.0	1.0	0.0	8.09671	7.16254	-11.01224	13.51458	16.47022	1.12034	0.89259	184.93643	176.58145	69.76377	0.32545	 	1.73073E14	 	2.12393E-14	 	-5458.84079	28.12487	 
475.0	1.0	0.0	8.09858	7.16088	-11.03283	13.4902	16.40529	1.1173	0.89501	185.24048	176.72908	69.8859	0.32531	 	2.29482E14	 	1.59121E-14	 	-5599.22963	28.07777	 
470.0	1.0	0.0	8.10045	7.15923	-11.05335	13.46581	16.34031	1.11425	0.89747	185.54392	176.87596	70.00782	0.32517	 	3.05434E14	 	1.18753E-14	 	-5739.38395	28.03086	 
465.0	1.0	0.0	8.10232	7.15758	-11.07382	13.44142	16.27529	1.11117	0.89995	185.84676	177.02209	70.12953	0.32502	 	4.08102E14	 	8.828E-15	 	-5879.30478	27.98417	 
460.0	1.0	0.0	8.10417	7.15594	-11.09421	13.41703	16.21022	1.10808	0.90246	186.14899	177.16749	70.25104	0.32488	 	5.4743999999999994E14	 	6.53646E-15	 	-6018.99316	27.93767	 
455.0	1.0	0.0	8.10603	7.15431	-11.11455	13.39264	16.14512	1.10496	0.90501	186.45061	177.31214	70.37234	0.32474	 	7.3732E14	 	4.82005E-15	 	-6158.45008	27.89139	 
450.0	1.0	0.0	8.10788	7.15267	-11.13482	13.36825	16.07997	1.10182	0.90759	186.75163	177.45605	70.49344	0.3246	 	9.97158E14	 	3.53957E-15	 	-6297.67656	27.8453	 
445.0	1.0	0.0	8.10972	7.15105	-11.15502	13.34386	16.01477	1.09865	0.91021	187.05204	177.59922	70.61433	0.32446	 	1.35425E15	 	2.58824E-15	 	-6436.6736	27.79941	 
440.0	1.0	0.0	8.11156	7.14943	-11.17517	13.31947	15.94953	1.09547	0.91285	187.35185	177.74165	70.73501	0.32432	 	1.84712E15	 	1.8844E-15	 	-6575.4422	27.75372	 
435.0	1.0	0.0	8.11339	7.14781	-11.19525	13.29507	15.88424	1.09226	0.91554	187.65104	177.88336	70.85548	0.32418	 	2.53044E15	 	1.36589E-15	 	-6713.98336	27.70823	 
430.0	1.0	0.0	8.11522	7.1462	-11.21526	13.27068	15.81891	1.08902	0.91825	187.94964	178.02432	70.97575	0.32404	 	3.4821E15	 	9.85583E-16	 	-6852.29804	27.66294	 
425.0	1.0	0.0	8.11705	7.14459	-11.23521	13.24628	15.75353	1.08577	0.92101	188.24762	178.16456	71.09581	0.3239	 	4.81363E15	 	7.07885E-16	 	-6990.3871	27.61781	 
420.0	1.0	0.0	8.11887	7.14299	-11.2551	13.22188	15.68809	1.08249	0.9238	188.545	178.30407	71.21566	0.32376	 	6.68548E15	 	5.06036E-16	 	-7128.2517	27.57292	 
415.0	1.0	0.0	8.12068	7.1414	-11.27492	13.19748	15.62261	1.07918	0.92663	188.84177	178.44286	71.33531	0.32362	 	9.32965E15	 	3.60002E-16	 	-7265.89227	27.52811	 
410.0	1.0	0.0	8.12249	7.13981	-11.29468	13.17308	15.55707	1.07586	0.92949	189.13794	178.58092	71.45474	0.32348	 	1.30833E16	 	2.54851E-16	 	-7403.30895	27.48334	 
405.0	1.0	0.0	8.12429	7.13822	-11.31438	13.14867	15.49149	1.0725	0.9324	189.4335	178.71826	71.57397	0.32334	 	1.84389E16	 	1.79506E-16	 	-7540.5019	27.43859	 
400.0	1.0	0.0	8.12609	7.13664	-11.33401	13.12427	15.42584	1.06913	0.93534	189.72845	178.85487	71.693	0.3232	 	2.61195E16	 	1.25786E-16	 	-7677.47127	27.39387	 
395.0	1.0	0.0	8.12789	7.13507	-11.35358	13.09986	15.36015	1.06572	0.93833	190.0228	178.99077	71.81181	0.32306	 	3.71928E16	 	8.76801E-17	 	-7814.2172	27.34919	 
390.0	1.0	0.0	8.12967	7.1335	-11.37308	13.07546	15.29439	1.0623	0.94136	190.31654	179.12595	71.93042	0.32292	 	5.32437E16	 	6.07897E-17	 	-7950.7398	27.30452	 
385.0	1.0	0.0	8.13146	7.13193	-11.39252	13.05105	15.22858	1.05884	0.94443	190.60968	179.26041	72.04882	0.32278	 	7.66381E16	 	4.19148E-17	 	-8087.03922	27.25988	 
380.0	1.0	0.0	8.13324	7.13037	-11.4119	13.02664	15.16271	1.05536	0.94754	190.9022	179.39417	72.16701	0.32264	 	1.10928E17	 	2.8738E-17	 	-8223.11555	27.21527	 
375.0	1.0	0.0	8.13501	7.12882	-11.43121	13.00223	15.09678	1.05186	0.9507	191.19413	179.52721	72.28499	0.3225	 	1.6148E17	 	1.95904E-17	 	-8358.96891	27.17067	 
370.0	1.0	0.0	8.13678	7.12727	-11.45046	12.97782	15.03078	1.04833	0.9539	191.48544	179.65954	72.40277	0.32236	 	2.36445E17	 	1.32761E-17	 	-8494.59937	27.12609	 
365.0	1.0	0.0	8.13854	7.12572	-11.46965	12.9534	14.96473	1.04477	0.95715	191.77615	179.79116	72.52034	0.32222	 	3.48286E17	 	8.94279E-18	 	-8630.00703	27.08153	 
360.0	1.0	0.0	8.1403	7.12418	-11.48877	12.92899	14.89861	1.04118	0.96045	192.06626	179.92208	72.6377	0.32208	 	5.16178E17	 	5.98678E-18	 	-8765.19194	27.03698	 
355.0	1.0	0.0	8.14205	7.12265	-11.50783	12.90457	14.83242	1.03757	0.96379	192.35575	180.05229	72.75485	0.32194	 	7.69809E17	 	3.9826E-18	 	-8900.15418	26.99245	 
350.0	1.0	0.0	8.1438	7.12112	-11.52682	12.88016	14.76617	1.03393	0.96718	192.64465	180.1818	72.87179	0.32181	 	1.15545E18	 	2.63225E-18	 	-9034.89378	26.94792	 
345.0	1.0	0.0	8.14554	7.1196	-11.54575	12.85574	14.69984	1.03026	0.97063	192.93293	180.31061	72.98853	0.32167	 	1.74572E18	 	1.72825E-18	 	-9169.41077	26.9034	 
340.0	1.0	0.0	8.14728	7.11808	-11.56461	12.83132	14.63345	1.02656	0.97412	193.22061	180.43872	73.10505	0.32153	 	2.65533E18	 	1.12703E-18	 	-9303.70519	26.85888	 
335.0	1.0	0.0	8.14901	7.11657	-11.58342	12.8069	14.56698	1.02284	0.97767	193.50768	180.56614	73.22137	0.32139	 	4.06686E18	 	7.29858E-19	 	-9437.77703	26.81437	 
330.0	1.0	0.0	8.15074	7.11506	-11.60215	12.78247	14.50044	1.01908	0.98127	193.79415	180.69285	73.33748	0.32125	 	6.27291E18	 	4.69292E-19	 	-9571.62629	26.76985	 
325.0	1.0	0.0	8.15246	7.11356	-11.62083	12.75805	14.43382	1.0153	0.98493	194.08001	180.81888	73.45338	0.32111	 	9.74597E18	 	2.99552E-19	 	-9705.25295	26.72533	 
320.0	1.0	0.0	8.15418	7.11206	-11.63944	12.73362	14.36712	1.01149	0.98864	194.36527	180.94421	73.56907	0.32097	 	1.52548E19	 	1.89777E-19	 	-9838.65697	26.6808	 
315.0	1.0	0.0	8.15589	7.11056	-11.65798	12.7092	14.30035	1.00765	0.99241	194.64992	181.06886	73.68456	0.32083	 	2.40601E19	 	1.1931E-19	 	-9971.8383	26.63627	 
310.0	1.0	0.0	8.1576	7.10908	-11.67647	12.68477	14.23349	1.00377	0.99624	194.93396	181.19281	73.79983	0.32069	 	3.82457E19	 	7.44191E-20	 	-10104.79687	26.59171	 
305.0	1.0	0.0	8.1593	7.10759	-11.69488	12.66034	14.16654	0.99987	1.00013	195.21739	181.31608	73.91489	0.32056	 	6.12841E19	 	4.60447E-20	 	-10237.53259	26.54714	 
300.0	1.0	0.0	8.161	7.10612	-11.71324	12.63591	14.09951	0.99593	1.00408	195.50022	181.43867	74.02975	0.32042	 	9.90117E19	 	2.82533E-20	 	-10370.04536	26.50255	 
295.0	1.0	0.0	8.16269	7.10465	-11.73153	12.61148	14.0324	0.99197	1.0081	195.78245	181.56057	74.1444	0.32028	 	1.61321E20	 	1.71893E-20	 	-10502.33507	26.45794	 
290.0	1.0	0.0	8.16437	7.10318	-11.74975	12.58705	13.96519	0.98797	1.01218	196.06407	181.68179	74.25883	0.32014	 	2.6513199999999997E20	 	1.03669E-20	 	-10634.40156	26.4133	 
285.0	1.0	0.0	8.16605	7.10172	-11.76792	12.56261	13.89788	0.98394	1.01632	196.34508	181.80233	74.37306	0.32	 	4.3963999999999993E20	 	6.19641E-21	 	-10766.24468	26.36862	 
280.0	1.0	0.0	8.16773	7.10026	-11.78601	12.53818	13.83049	0.97988	1.02054	196.62549	181.92219	74.48708	0.31986	 	7.35705E20	 	3.66966E-21	 	-10897.86423	26.32391	 
275.0	1.0	0.0	8.1694	7.09881	-11.80405	12.51374	13.76299	0.97578	1.02482	196.90528	182.04138	74.60089	0.31972	 	1.24277E21	 	2.15277E-21	 	-11029.26002	26.27916	 
270.0	1.0	0.0	8.17107	7.09736	-11.82202	12.4893	13.69539	0.97165	1.02917	197.18448	182.15989	74.71449	0.31959	 	2.1196600000000001E21	 	1.25066E-21	 	-11160.43182	26.23436	 
265.0	1.0	0.0	8.17272	7.09592	-11.83993	12.46486	13.62769	0.96749	1.0336	197.46307	182.27773	74.82788	0.31945	 	3.65135E21	 	7.19344E-22	 	-11291.37936	26.18951	 
260.0	1.0	0.0	8.17438	7.09448	-11.85777	12.44042	13.55988	0.9633	1.0381	197.74105	182.3949	74.94106	0.31931	 	6.35433E21	 	4.09512E-22	 	-11422.10239	26.14461	 
255.0	1.0	0.0	8.17603	7.09305	-11.87555	12.41598	13.49196	0.95907	1.04268	198.01842	182.5114	75.05403	0.31917	 	1.1174899999999999E22	 	2.30676E-22	 	-11552.60058	26.09964	 
250.0	1.0	0.0	8.17767	7.09163	-11.89326	12.39153	13.42393	0.9548	1.04734	198.29519	182.62723	75.16679	0.31903	 	1.98656E22	 	1.28532E-22	 	-11682.87361	26.05461	 
245.0	1.0	0.0	8.17931	7.09021	-11.91091	12.36709	13.35578	0.9505	1.05208	198.57136	182.7424	75.27934	0.3189	 	3.5709299999999997E22	 	7.08207E-23	 	-11812.92112	26.0095	 
240.0	1.0	0.0	8.18094	7.08879	-11.9285	12.34264	13.28751	0.94616	1.0569	198.84691	182.8569	75.39168	0.31876	 	6.4927E22	 	3.8575E-23	 	-11942.74271	25.96432	 
235.0	1.0	0.0	8.18257	7.08738	-11.94602	12.3182	13.21912	0.94179	1.0618	199.12187	182.97073	75.50381	0.31862	 	1.19448E23	 	2.07634E-23	 	-12072.33796	25.91905	 
230.0	1.0	0.0	8.18419	7.08598	-11.96348	12.29375	13.1506	0.93739	1.0668	199.39621	183.08391	75.61572	0.31848	 	2.22431E23	 	1.10405E-23	 	-12201.7064	25.87369	 
225.0	1.0	0.0	8.18581	7.08458	-11.98087	12.2693	13.08195	0.93294	1.07188	199.66995	183.19643	75.72743	0.31835	 	4.1940199999999995E23	 	5.79717E-24	 	-12330.84756	25.82823	 
220.0	1.0	0.0	8.18742	7.08318	-11.9982	12.24485	13.01316	0.92846	1.07705	199.94308	183.30829	75.83893	0.31821	 	8.010349999999999E23	 	3.00479E-24	 	-12459.7609	25.78267	 
215.0	1.0	0.0	8.18903	7.08179	-12.01547	12.22039	12.94424	0.92394	1.08232	200.21561	183.41949	75.95022	0.31807	 	1.5503500000000001E24	 	1.53678E-24	 	-12588.44584	25.73699	 
210.0	1.0	0.0	8.19063	7.08041	-12.03267	12.19594	12.87518	0.91938	1.08769	200.48753	183.53004	76.0613	0.31793	 	3.04189E24	 	7.75221E-25	 	-12716.90177	25.69119	 
205.0	1.0	0.0	8.19223	7.07903	-12.04981	12.17148	12.80596	0.91478	1.09316	200.75885	183.63993	76.17216	0.3178	 	6.0531E24	 	3.85543E-25	 	-12845.12806	25.64526	 
200.0	1.0	0.0	8.19382	7.07765	-12.06689	12.14703	12.7366	0.91015	1.09872	201.02955	183.74918	76.28282	0.31766	 	1.22216E25	 	1.88954E-25	 	-12973.12399	25.59919	 
195.0	1.0	0.0	8.1954	7.07628	-12.0839	12.12257	12.66707	0.90547	1.1044	201.29966	183.85777	76.39326	0.31752	 	2.5049500000000003E25	 	9.12164E-26	 	-13100.88883	25.55297	 
190.0	1.0	0.0	8.19698	7.07492	-12.10084	12.09811	12.59739	0.90076	1.11018	201.56915	183.96571	76.5035	0.31739	 	5.2143200000000005E25	 	4.33522E-26	 	-13228.42177	25.50659	 
185.0	1.0	0.0	8.19856	7.07356	-12.11772	12.07365	12.52754	0.896	1.11607	201.83804	184.07301	76.61352	0.31725	 	1.1029200000000001E26	 	2.02744E-26	 	-13355.72196	25.46004	 
180.0	1.0	0.0	8.20013	7.07221	-12.13454	12.04919	12.45751	0.8912	1.12208	202.10633	184.17966	76.72333	0.31711	 	2.3717800000000002E26	 	9.32513E-27	 	-13482.78853	25.41331	 
175.0	1.0	0.0	8.20169	7.07086	-12.1513	12.02473	12.3873	0.88637	1.1282	202.37401	184.28567	76.83293	0.31697	 	5.1882600000000005E26	 	4.21588E-27	 	-13609.62047	25.36639	 
170.0	1.0	0.0	8.20325	7.06951	-12.16799	12.00026	12.31691	0.88149	1.13445	202.64108	184.39104	76.94232	0.31684	 	1.15516E27	 	1.87239E-27	 	-13736.2168	25.31926	 
165.0	1.0	0.0	8.2048	7.06818	-12.18461	11.9758	12.24633	0.87656	1.14082	202.90755	184.49577	77.0515	0.3167	 	2.6193599999999997E27	 	8.16423E-28	 	-13862.57639	25.27192	 
160.0	1.0	0.0	8.20635	7.06684	-12.20117	11.95133	12.17555	0.8716	1.14732	203.17341	184.59986	77.16047	0.31656	 	6.0528E27	 	3.49276E-28	 	-13988.69812	25.22435	 
155.0	1.0	0.0	8.20789	7.06552	-12.21767	11.92686	12.10456	0.86659	1.15395	203.43866	184.70331	77.26922	0.31643	 	1.4263100000000001E28	 	1.46511E-28	 	-14114.58074	25.17652	 
150.0	1.0	0.0	8.20943	7.06419	-12.23411	11.90239	12.03336	0.86154	1.16072	203.70331	184.80612	77.37776	0.31629	 	3.4298E28	 	6.0216E-29	 	-14240.22293	25.12844	 
145.0	1.0	0.0	8.21096	7.06288	-12.25048	11.87792	11.96194	0.85644	1.16763	203.96735	184.9083	77.4861	0.31615	 	8.422420000000001E28	 	2.42316E-29	 	-14365.62332	25.08008	 
140.0	1.0	0.0	8.21249	7.06156	-12.26678	11.85345	11.8903	0.8513	1.17468	204.23078	185.00985	77.59422	0.31602	 	2.1137300000000003E29	 	9.53995E-30	 	-14490.78043	25.03142	 
135.0	1.0	0.0	8.21401	7.06026	-12.28302	11.82897	11.81841	0.84611	1.18188	204.49361	185.11076	77.70212	0.31588	 	5.425640000000001E29	 	3.6716E-30	 	-14615.69267	24.98245	 
130.0	1.0	0.0	8.21552	7.05895	-12.2992	11.8045	11.74628	0.84088	1.18923	204.75584	185.21105	77.80982	0.31575	 	1.42564E30	 	1.38021E-30	 	-14740.35841	24.93315	 
125.0	1.0	0.0	8.21703	7.05766	-12.31531	11.78002	11.67389	0.8356	1.19675	205.01745	185.3107	77.9173	0.31561	 	3.83799E30	 	5.06325E-31	 	-14864.77586	24.88349	 
120.0	1.0	0.0	8.21854	7.05637	-12.33136	11.75554	11.60124	0.83027	1.20443	205.27846	185.40973	78.02457	0.31547	 	1.05959E31	 	1.81095E-31	 	-14988.94315	24.83346	 
115.0	1.0	0.0	8.22004	7.05508	-12.34735	11.73107	11.5283	0.8249	1.21227	205.53887	185.50814	78.13163	0.31534	 	3.0028699999999997E31	 	6.30885E-32	 	-15112.85827	24.78302	 
110.0	1.0	0.0	8.22153	7.0538	-12.36327	11.70659	11.45509	0.81948	1.22029	205.79867	185.60592	78.23848	0.3152	 	8.74462E31	 	2.13853E-32	 	-15236.51912	24.73217	 
105.0	1.0	0.0	8.22302	7.05252	-12.37912	11.6821	11.38157	0.81401	1.22849	206.05786	185.70308	78.34512	0.31507	 	2.61952E32	 	7.04578E-33	 	-15359.92343	24.68086	 
100.0	1.0	0.0	8.2245	7.05125	-12.39491	11.65762	11.30774	0.80849	1.23688	206.31644	185.79962	78.45154	0.31493	 	8.08111E32	 	2.25372E-33	 	-15483.06884	24.62908	 
95.0	1.0	0.0	8.22598	7.04998	-12.41064	11.63314	11.23358	0.80292	1.24545	206.57442	185.89553	78.55775	0.31479	 	2.57046E33	 	6.99039E-34	 	-15605.95277	24.57679	 
90.0	1.0	0.0	8.22745	7.04872	-12.42631	11.60865	11.15909	0.7973	1.25423	206.8318	185.99083	78.66375	0.31466	 	8.44087E33	 	2.09984E-34	 	-15728.57256	24.52396	 
85.0	1.0	0.0	8.22891	7.04747	-12.44191	11.58417	11.08424	0.79164	1.26321	207.08857	186.08552	78.76953	0.31452	 	2.8653800000000003E34	 	6.10055E-35	 	-15850.9253	24.47055	 
80.0	1.0	0.0	8.23037	7.04622	-12.45744	11.55968	11.00902	0.78592	1.2724	207.34473	186.17958	78.8751	0.31439	 	1.00695E35	 	1.71174E-35	 	-15973.00796	24.41653	 
75.0	1.0	0.0	8.23183	7.04497	-12.47291	11.53519	10.93342	0.78015	1.28181	207.60028	186.27304	78.98046	0.31425	 	3.6686999999999995E35	 	4.63171E-36	 	-16094.81728	24.36187	 
70.0	1.0	0.0	8.23328	7.04373	-12.48832	11.5107	10.85741	0.77433	1.29145	207.85523	186.36588	79.08561	0.31412	 	1.3879599999999998E36	 	1.20668E-36	 	-16216.34982	24.30651	 
65.0	1.0	0.0	8.23472	7.0425	-12.50366	11.48621	10.78098	0.76845	1.30132	208.10957	186.45811	79.19054	0.31398	 	5.461779999999999E36	 	3.02177E-37	 	-16337.60189	24.25041	 
60.0	1.0	0.0	8.23616	7.04127	-12.51894	11.46171	10.70411	0.76253	1.31143	208.36331	186.54973	79.29526	0.31384	 	2.2394899999999997E37	 	7.2607E-38	 	-16458.56957	24.19354	 
55.0	1.0	0.0	8.23759	7.04004	-12.53416	11.43722	10.62678	0.75655	1.32179	208.61644	186.64075	79.39976	0.31371	 	9.586E37	 	1.67079E-38	 	-16579.24868	24.13582	 
50.0	1.0	0.0	8.23902	7.03882	-12.54931	11.41272	10.54895	0.75052	1.33241	208.86897	186.73116	79.50406	0.31357	 	4.29208E38	 	3.67471E-39	 	-16699.63477	24.07722	 
45.0	1.0	0.0	8.24044	7.03761	-12.5644	11.38822	10.47062	0.74443	1.3433	209.12088	186.82096	79.60814	0.31344	 	2.01447E39	 	7.70827E-40	 	-16819.72309	24.01766	 
40.0	1.0	0.0	8.24186	7.0364	-12.57942	11.36373	10.39175	0.73829	1.35447	209.37219	186.91016	79.712	0.3133	 	9.93341E39	 	1.53865E-40	 	-16939.50858	23.9571	 
35.0	1.0	0.0	8.24327	7.0352	-12.59438	11.33922	10.31231	0.7321	1.36593	209.6229	186.99875	79.81566	0.31317	 	5.15849E40	 	2.91559E-41	 	-17058.98581	23.89545	 
30.0	1.0	0.0	8.24467	7.034	-12.60927	11.31473	10.23228	0.72586	1.37768	209.873	187.08675	79.91909	0.31303	 	2.8284300000000003E41	 	5.23116E-42	 	-17178.149	23.83264	 
25.0	1.0	0.0	8.24607	7.0328	-12.6241	 	10.15163	0.71956	1.38974	210.12249	187.17414	80.02232	0.3129	 	1.64194E42	 	8.86268E-43	 	-17296.99199	 	 
