T (C)	Fraction solid (wt)-TOTAL	Fraction liquid (wt)-LIQUID	Density (g/(cm)^3)-TOTAL	Molar volume (cm^3)-TOTAL	Volume change (%)-  	Average expansion coeff. (10e-6 1/K)-  	Thermal conductivity (W/(m*K))-TOTAL	Electrical resistivity (10e-6 Ohm*m)-TOTAL	Electrical conductivity (10e6 1/(Ohm*m))-TOTAL	Young's modulus (GPa)-TOTAL	Bulk modulus (GPa)-TOTAL	Shear modulus(GPa)-TOTAL	Poisson's ratio-TOTAL	Liquid viscosity (mPa s)-  	Total viscosity (mPa s)-  	Liquid diffusivity (10e-9 (m^2)/s)-  	Total diffusivity (10e-9 (m^2)/s)-  	Surface Tension (mN/m)-  	Enthalpy (J/mole)-TOTAL	Specific heat (J/(mole K))-TOTAL	Latent heat (J/mole)-TOTAL
1400.0	0.0	1.0	7.38283	7.88206	0.0	30.77805	29.12054	1.40767	0.71039	0.0	125.0964	0.0	0.5	7.19308	7.19308	1.13529	1.13529	1769.20924	50393.679	 	0.0
1395.0	0.0	1.0	7.38683	7.87779	-0.0541618	30.74187	29.0389	1.40741	0.71052	0.0	125.24651	0.0	0.5	7.27063	7.27063	1.11982	1.11982	1771.98805	50190.157	40.7044	0.0
1390.0	0.0	1.0	7.39083	7.87353	-0.10817	30.70585	28.95727	1.40715	0.71066	0.0	125.39663	0.0	0.5	7.34949	7.34949	1.10449	1.10449	1774.79523	49987.101	40.6112	0.0
1385.0	0.0	1.0	7.39481	7.86929	-0.16202	30.67	28.87564	1.40688	0.71079	0.0	125.54675	0.0	0.5	7.42968	7.42968	1.08928	1.08928	1777.63098	49784.509	40.5184	0.0
1380.0	0.0	1.0	7.39879	7.86505	-0.21571	30.63432	28.794	1.40662	0.71092	0.0	125.69686	0.0	0.5	7.51125	7.51125	1.0742	1.0742	1780.49549	49582.377	40.4264	0.0
1375.0	0.0	1.0	7.40276	7.86083	-0.26925	30.5988	28.71237	1.40635	0.71106	0.0	125.84698	0.0	0.5	7.59421	7.59421	1.05926	1.05926	1783.38892	49380.704	40.3346	0.0
1370.0	0.0	1.0	7.40673	7.85663	-0.32263	30.56346	28.63074	1.40608	0.7112	0.0	125.99709	0.0	0.5	7.67861	7.67861	1.04444	1.04444	1786.31143	49179.487	40.2434	0.0
1365.0	0.0	1.0	7.41069	7.85243	-0.37586	30.52829	28.54911	1.40581	0.71133	0.0	126.14721	0.0	0.5	7.76446	7.76446	1.02974	1.02974	1789.26315	48978.723	40.1528	0.0
1360.0	0.0	1.0	7.41464	7.84825	-0.42893	30.49329	28.46747	1.40554	0.71147	0.0	126.29733	0.0	0.5	7.85181	7.85181	1.01518	1.01518	1792.24419	48778.411	40.0624	0.0
1355.0	0.0	1.0	7.41858	7.84408	-0.48184	30.45848	28.38584	1.40527	0.71161	0.0	126.44744	0.0	0.5	7.94069	7.94069	1.00074	1.00074	1795.25463	48578.547	39.9728	0.0
1350.0	0.0	1.0	7.42251	7.83992	-0.5346	30.42384	28.30421	1.40499	0.71175	0.0	126.59756	0.0	0.5	8.03113	8.03113	0.98644	0.98644	1798.29457	48379.129	39.8836	0.0
1345.0	0.0	1.0	7.42644	7.83577	-0.5872	30.38939	28.22258	1.40471	0.71189	0.0	126.74768	0.0	0.5	8.12317	8.12317	0.97225	0.97225	1801.36405	48180.155	39.7948	0.0
1341.91	0.0	1.0	7.42886	7.83322	-0.61958	30.36821	28.1722	1.40454	0.71198	0.0	126.84031	0.0	0.5	8.18078	8.18078	0.96357	0.96357	1803.27305	48057.594	39.72018	0.0
1340.0	0.0560502	0.94395	7.44459	7.81668	-0.82948	29.81283	28.33863	1.39464	0.71703	9.58533E-4	127.44055	3.21102E-4	0.49257	8.22388	9.17458	0.95738	0.85817	1802.79582	47140.931	478.82772	840.691
1335.0	0.18796	0.81204	7.48195	7.77768	-1.32421	28.50794	28.73456	1.37116	0.72931	0.12418	128.85888	0.0420985	0.47488	8.338	53.32612	0.94135	0.14719	1801.63975	44976.769	432.8324	2806.759
1330.0	0.29622	0.70378	7.51319	7.74528	-1.73531	27.43376	29.05881	1.35164	0.73984	0.78166	130.06525	0.26766	0.46016	8.45457	291.87068	0.92549	0.0268084	1800.59878	43178.978	359.5582	4406.893
1325.0	0.38603	0.61397	7.5396	7.71813	-2.07968	26.54419	29.32695	1.33511	0.749	2.2935	131.11128	0.79206	0.44781	8.57371	870.28542	0.90978	0.00896278	1799.6692	41667.122	302.3712	5721.528
1320.0	0.46124	0.53876	7.56218	7.69512	-2.37169	25.79962	29.54988	1.32089	0.75706	4.74501	132.03333	1.65061	0.43735	8.69533	1870.45175	0.89425	0.00415716	1798.84731	40380.902	257.244	6810.958
1315.0	0.52477	0.47523	7.58168	7.6753	-2.62306	25.16762	29.73484	1.30856	0.7642	8.05785	132.85724	2.82055	0.42842	8.81968	3322.63108	0.87887	0.0023329	1798.12936	39274.558	221.2688	7720.943
1310.0	0.57884	0.42116	7.59868	7.6581	-2.84131	24.62751	29.88765	1.29777	0.77056	12.0723	133.60319	4.24859	0.42074	8.94674	5225.80684	0.86366	0.00147862	1797.51049	38312.962	192.3192	8486.606
1305.0	0.6252	0.3748	7.61363	7.64308	-3.03189	24.16441	30.01275	1.28827	0.77623	16.60602	134.28766	5.87159	0.4141	9.07675	7564.33624	0.8486	0.00101827	1796.98541	37468.867	168.819	9135.194
1300.0	0.66518	0.33482	7.62688	7.62974	-3.2011	23.76063	30.11396	1.27988	0.78132	21.48934	134.92063	7.62947	0.40831	9.20964	10319.1256	0.83371	7.4407E-4	1796.5502	36720.931	149.5872	9688.046
1295.0	0.69987	0.30013	7.63872	7.61785	-3.35195	23.40795	30.19451	1.27241	0.78591	26.57558	135.5124	9.46936	0.40324	9.34563	13473.06076	0.81897	5.68078E-4	1796.19945	36052.285	133.7292	10162.029
1290.0	0.73012	0.26988	7.64938	7.60719	-3.48724	23.09873	30.25704	1.26573	0.79006	31.74156	136.07043	11.34618	0.39878	9.4848	17011.30994	0.80438	4.48487E-4	1795.92824	35449.482	120.5606	10570.589
1285.0	0.75664	0.24336	7.65905	7.59755	-3.60953	22.82581	30.30407	1.25972	0.79383	36.89741	136.60045	13.2265	0.39483	9.62715	20927.9588	0.78995	3.63387E-4	1795.73191	34901.719	109.5526	10924.524
1280.0	0.77999	0.22001	7.66786	7.58874	-3.72133	22.5821	30.33729	1.2543	0.79726	41.97353	137.10619	15.08412	0.39132	9.77298	25221.14807	0.77566	3.00563E-4	1795.6066	34400.251	100.2936	11232.579
1275.0	0.80064	0.19936	7.67595	7.58068	-3.82355	22.36522	30.35869	1.24938	0.80039	46.92065	137.5924	16.90008	0.38818	9.92222	29896.81956	0.76154	2.5274E-4	1795.54719	33937.954	92.4594	11501.875
1270.0	0.81896	0.18104	7.68342	7.57323	-3.91806	22.16987	30.36962	1.2449	0.80328	51.70619	138.06128	18.66161	0.38536	10.07509	34966.25988	0.74756	2.154E-4	1795.55019	33508.982	85.7944	11738.256
1265.0	0.83529	0.16471	7.69036	7.56632	-4.00577	21.99357	30.37135	1.2408	0.80593	56.3075	138.51542	20.35958	0.38283	10.2317	40445.74977	0.73373	1.85615E-4	1795.61148	33108.509	80.0946	11946.545
1260.0	0.8499	0.1501	7.69683	7.55987	-4.08753	21.83392	30.36499	1.23702	0.80839	60.71248	138.95707	21.98879	0.38053	10.39219	46357.46921	0.72005	1.61418E-4	1795.72731	32732.532	75.1954	12130.746
1255.0	0.86301	0.13699	7.70289	7.55382	-4.16434	21.68808	30.35146	1.23354	0.81068	64.91448	139.38741	23.54618	0.37845	10.5566	52727.18778	0.70653	1.41455E-4	1795.89457	32377.706	70.9652	12294.198
1250.0	0.8748	0.1252	7.7086	7.54812	-4.23668	21.55476	30.33172	1.2303	0.81281	68.91908	139.80825	25.03323	0.37655	10.72513	59592.28892	0.69315	1.2475E-4	1796.10953	32041.228	67.2956	12439.704
1245.0	0.88545	0.11455	7.714	7.54274	-4.30496	21.43286	30.30631	1.22729	0.8148	72.72263	140.2207	26.44809	0.37482	10.89797	66984.73237	0.67992	1.10618E-4	1796.369	31720.732	64.0992	12569.627
1240.0	0.89509	0.10491	7.71914	7.53761	-4.37	21.31997	30.27603	1.22447	0.81668	76.34	140.62558	27.79588	0.37323	11.07517	74954.33688	0.66683	9.85308E-5	1796.67052	31414.216	61.3032	12685.968
1235.0	0.90384	0.096161	7.72402	7.53273	-4.43193	21.21581	30.24122	1.22183	0.81844	79.76841	141.02364	29.07517	0.37176	11.25692	83540.03038	0.6539	8.81123E-5	1797.01108	31119.976	58.848	12790.428
1230.0	0.9118	0.0882021	7.7287	7.52804	-4.49135	21.11862	30.20249	1.21934	0.82011	83.02435	141.41549	30.29183	0.37041	11.44338	92802.18222	0.64111	7.90553E-5	1797.38849	30836.556	56.684	12884.461
1225.0	0.91907	0.0809338	7.73319	7.52355	-4.54834	21.02819	30.16022	1.21699	0.8217	86.11548	141.80198	31.44841	0.36915	11.63477	102799.8031	0.62847	7.11295E-5	1797.79989	30562.707	54.7698	12969.313
1220.0	0.92571	0.0742898	7.7375	7.51923	-4.60315	20.9439	30.1148	1.21476	0.82321	89.04907	142.18352	32.54737	0.36799	11.83106	113596.0498	0.61598	6.41545E-5	1798.24299	30297.356	53.0702	13046.058
1215.0	0.9318	0.0682007	7.74167	7.51506	-4.65614	20.8646	30.06647	1.21264	0.82465	91.8361	142.56034	33.59265	0.36691	12.03272	125264.9428	0.60363	5.79834E-5	1798.71608	30039.573	51.5566	13115.622
1210.0	0.93739	0.0626086	7.7457	7.51101	-4.70748	20.78989	30.01557	1.21061	0.82603	94.48515	142.93293	34.58726	0.3659	12.23982	137886.2098	0.59142	5.2499E-5	1799.21702	29788.551	50.2044	13178.808
1205.0	0.94254	0.0574618	7.7496	7.50708	-4.75728	20.71946	29.96234	1.20867	0.82735	97.00508	143.30154	35.53437	0.36495	12.45238	151547.5881	0.57937	4.76054E-5	1799.74388	29543.592	48.9918	13236.316
1200.2	0.9471	0.0529029	7.75324	7.50342	-4.80382	20.65531	29.90923	1.20689	0.82858	99.30901	143.65189	36.40113	0.36409	12.66196	165727.8556	0.56793	4.33907E-5	1800.27233	29313.619	 	13286.694
1200.0	0.94733	0.0526716	7.75341	7.50324	-4.80605	20.65169	29.90682	1.20682	0.82862	99.39771	143.66788	36.43475	0.36405	12.67368	166377.9144	0.56732	4.32153E-5	1800.31841	29302.945	48.1294	13289.891
1195.0	0.95289	0.0471123	7.75751	7.49901	-4.85969	20.56773	29.8461	1.20517	0.82976	101.56007	144.06317	37.25477	0.36305	12.96964	183345.4628	0.5525	3.90829E-5	1801.47704	29039.117	52.7656	13367.028
1190.0	0.95785	0.0421487	7.76143	7.49495	-4.91116	20.49003	29.78356	1.20359	0.83085	103.56861	144.44905	38.01717	0.36213	13.27334	201608.0236	0.53802	3.54216E-5	1802.63639	28784.41	50.9414	13435.42
1186.21	0.96125	0.0387515	7.76428	7.49199	-4.94875	20.43533	29.73498	1.20243	0.83165	104.99714	144.73619	38.55976	0.36149	13.5087	216382.2329	0.52727	3.29175E-5	1803.51308	28596.941	 	13481.89
1185.0	0.96442	0.0355787	7.76614	7.49017	-4.97183	20.38187	29.72323	1.20191	0.83201	105.96765	144.91898	38.93086	0.36097	13.55031	223190.9198	0.52522	3.18869E-5	1804.12581	28488.025	59.277	13545.865
1180.0	0.97506	0.0249434	7.77294	7.48352	-5.05617	20.1958	29.66967	1.19995	0.83337	109.92073	145.60129	40.43541	0.35921	13.72074	251108.1601	0.51692	2.82447E-5	1806.48885	28089.809	79.6432	13758.514
1175.0	0.98247	0.0175315	7.77856	7.47806	-5.12552	20.05708	29.60949	1.19825	0.83455	114.47762	146.18012	42.1515	0.35793	13.89553	278926.3941	0.50866	2.53402E-5	1808.65979	27759.306	66.1006	13903.82
1172.56	0.98527	0.0147253	7.781	7.47569	-5.15555	20.00138	29.57839	1.19749	0.83508	116.81454	146.43514	43.02804	0.35742	13.98337	292680.4762	0.50461	2.41088E-5	1809.65939	27615.166	 	13957.818
1172.56	0.98527	0.0147253	7.781	7.47569	-5.15555	20.00138	29.57839	1.19749	0.83508	116.81454	146.43514	43.02804	0.35742	13.98337	292680.4762	0.50461	2.41088E-5	1809.6594	27615.166	 	13957.818
1170.0	0.98862	0.0113772	7.78374	7.47281	-5.19215	19.92608	29.54209	1.19684	0.83553	119.82355	146.73926	44.15648	0.35681	14.14107	308499.3935	0.4981	2.2832E-5	1810.43799	27452.425	61.3762	14025.874
1166.27	0.9925	0.00750331	7.78731	7.46904	-5.23991	19.83395	29.48783	1.19595	0.83616	123.37272	147.14225	45.48933	0.35606	14.36908	331779.5218	0.48893	2.11751E-5	1811.50613	27236.838	 	14103.884
1165.0	0.99361	0.00639262	7.78846	7.46786	-5.25498	19.80643	29.4691	1.19565	0.83637	124.3472	147.27098	45.85609	0.35584	14.4407	339841.2016	0.48607	2.06545E-5	1811.64243	27167.762	56.9326	14126.077
1160.0	0.99726	0.00273958	7.79268	7.4635	-5.3102	19.71092	29.39441	1.19452	0.83716	127.31659	147.74863	46.97734	0.35509	14.72315	372535.6195	0.47509	1.87763E-5	1812.17671	26911.382	51.276	14198.362
1155.0	1.0	0.0	7.79649	7.45956	-5.36023	19.63181	29.31831	1.19344	0.83791	129.39636	148.18914	47.76644	0.35447	 	407107.0581	 	1.71219E-5	 	26674.388	47.3988	14251.624
1150.0	1.0	0.0	7.79898	7.45718	-5.39046	19.61813	29.23569	1.19262	0.83849	129.83663	148.50918	47.93535	0.35429	 	440348.8725	 	1.5774E-5	 	26479.03827	39.06995	 
1145.0	1.0	0.0	7.80146	7.4548	-5.42061	19.60459	29.15308	1.1918	0.83907	130.27612	148.82771	48.10402	0.35411	 	476568.897	 	1.45239E-5	 	26306.02274	34.60311	 
1140.0	1.0	0.0	7.80395	7.45243	-5.4507	19.59112	29.07046	1.19097	0.83965	130.71477	149.14461	48.27241	0.35393	 	516056.7053	 	1.33653E-5	 	26133.27239	34.55007	 
1135.0	1.0	0.0	7.80642	7.45006	-5.48073	19.57773	28.98783	1.19014	0.84023	131.1526	149.45988	48.44054	0.35375	 	559132.4108	 	1.2292E-5	 	25960.78677	34.49712	 
1130.0	1.0	0.0	7.8089	7.4477	-5.5107	19.56442	28.9052	1.18931	0.84083	131.58959	149.77354	48.6084	0.35357	 	606149.9111	 	1.12982E-5	 	25788.56542	34.44427	 
1125.0	1.0	0.0	7.81137	7.44534	-5.54062	19.5512	28.82257	1.18847	0.84142	132.02574	150.08559	48.776	0.35339	 	657500.7058	 	1.03787E-5	 	25616.6079	34.3915	 
1123.74	1.0	0.0	7.81199	7.44475	-5.54812	19.54789	28.80182	1.18826	0.84157	132.1351	150.16367	48.81803	0.35334	 	671121.7838	 	1.0159E-5	 	25573.48316	 	 
1120.0	1.0	0.0	7.8158	7.44113	-5.59406	19.45714	28.63492	1.19198	0.83894	132.8345	150.58064	49.08978	0.35298	 	720673.907	 	9.43508E-6	 	25325.64216	58.19315	 
1115.0	1.0	0.0	7.82079	7.43638	-5.6543	19.33879	28.42061	1.19666	0.83566	133.74284	151.11844	49.44295	0.3525	 	793043.2595	 	8.54331E-6	 	25000.25845	65.07674	 
1110.0	1.0	0.0	7.82568	7.43173	-5.71331	19.2236	28.21458	1.20105	0.8326	134.62634	151.63952	49.78665	0.35203	 	873257.3348	 	7.73061E-6	 	24680.96247	63.8592	 
1105.0	1.0	0.0	7.83048	7.42717	-5.77113	19.11146	28.0162	1.20518	0.82975	135.48664	152.1454	50.1215	0.35158	 	962220.7499	 	6.9905E-6	 	24367.51323	62.68985	 
1100.0	1.0	0.0	7.8352	7.4227	-5.82783	19.00224	27.82502	1.20906	0.82709	136.32505	152.63717	50.44798	0.35114	 	1060948.365	 	6.31699E-6	 	24059.6813	61.56638	 
1095.0	1.0	0.0	7.83983	7.41832	-5.88343	18.89583	27.64063	1.2127	0.82461	137.14276	153.11576	50.76654	0.35072	 	1170579.429	 	5.70453E-6	 	23757.24831	60.4866	 
1090.0	1.0	0.0	7.84437	7.41402	-5.93798	18.79211	27.46265	1.21609	0.8223	137.94086	153.58204	51.07759	0.35031	 	1292393.639	 	5.14796E-6	 	23460.00434	59.4488	 
1085.0	1.0	0.0	7.84884	7.4098	-5.99153	18.69098	27.29072	1.21927	0.82016	138.72036	154.03675	51.38151	0.34991	 	1427829.522	 	4.64257E-6	 	23167.74845	58.45118	 
1080.0	1.0	0.0	7.85323	7.40565	-6.04412	18.59233	27.1245	1.22222	0.81818	139.48223	154.48062	51.67866	0.34951	 	1578505.247	 	4.18395E-6	 	22880.28818	57.49205	 
1075.0	1.0	0.0	7.85755	7.40158	-6.09577	18.49607	26.96369	1.22497	0.81635	140.22736	154.91428	51.96938	0.34913	 	1746242.375	 	3.76808E-6	 	22597.4383	56.56998	 
1070.0	1.0	0.0	7.8618	7.39758	-6.14653	18.40209	26.80797	1.22751	0.81465	140.9566	155.33833	52.25399	0.34876	 	1933092.862	 	3.39124E-6	 	22319.02114	55.68343	 
1065.0	1.0	0.0	7.86599	7.39365	-6.19644	18.3103	26.65706	1.22987	0.8131	141.67075	155.75333	52.53281	0.3484	 	2141369.944	 	3.05E-6	 	22044.86559	54.83111	 
1060.0	1.0	0.0	7.8701	7.38978	-6.24552	18.22062	26.51069	1.23204	0.81166	142.37059	156.15978	52.80611	0.34805	 	2373683.334	 	2.74121E-6	 	21774.80688	54.01174	 
1055.0	1.0	0.0	7.87416	7.38597	-6.2938	18.13297	26.3686	1.23403	0.81035	143.05681	156.55817	53.07417	0.34771	 	2632979.452	 	2.46199E-6	 	21508.68664	53.22405	 
1050.0	1.0	0.0	7.87816	7.38223	-6.34133	18.04724	26.23055	1.23586	0.80916	143.73011	156.94893	53.33726	0.34737	 	2922587.412	 	2.20967E-6	 	21246.35236	52.46685	 
1045.0	1.0	0.0	7.88209	7.37854	-6.38812	17.96338	26.09631	1.23752	0.80807	144.39113	157.33249	53.59561	0.34704	 	3246271.644	 	1.98183E-6	 	20987.65725	51.73902	 
1040.0	1.0	0.0	7.88598	7.37491	-6.43421	17.88129	25.96566	1.23903	0.80708	145.04049	157.70922	53.84947	0.34672	 	3608292.263	 	1.77623E-6	 	20732.45998	51.03945	 
1035.0	1.0	0.0	7.88981	7.37133	-6.47962	17.80091	25.8384	1.24039	0.8062	145.67875	158.07949	54.09905	0.34641	 	4013473.967	 	1.59083E-6	 	20480.62492	50.36701	 
1030.0	1.0	0.0	7.89358	7.3678	-6.52438	17.72217	25.71432	1.24161	0.80541	146.30647	158.44363	54.34456	0.3461	 	4467285.562	 	1.42376E-6	 	20232.02139	49.72071	 
1025.0	1.0	0.0	7.89731	7.36432	-6.56852	17.64499	25.59326	1.2427	0.8047	146.92416	158.80196	54.58621	0.3458	 	4975930.843	 	1.27332E-6	 	19986.52378	49.09952	 
1020.0	1.0	0.0	7.90099	7.36089	-6.61205	17.56931	25.47503	1.24366	0.80408	147.53233	159.15477	54.82418	0.3455	 	5546453.159	 	1.13794E-6	 	19744.01184	48.50239	 
1015.0	1.0	0.0	7.90463	7.3575	-6.655	17.49506	25.35948	1.24449	0.80354	148.13143	159.50233	55.05865	0.34521	 	6186855.983	 	1.01621E-6	 	19504.36968	47.92843	 
1010.0	1.0	0.0	7.90822	7.35416	-6.69739	17.42218	25.24645	1.24521	0.80308	148.72191	159.8449	55.28979	0.34493	 	6906241.144	 	9.06823E-7	 	19267.48644	47.37665	 
1005.0	1.0	0.0	7.91177	7.35086	-6.73925	17.35062	25.1358	1.24582	0.80268	149.30418	160.18272	55.51777	0.34465	 	7714968.668	 	8.08601E-7	 	19033.25595	46.8461	 
1000.0	1.0	0.0	7.91528	7.34761	-6.78059	17.28031	25.02739	1.24632	0.80236	149.87864	160.51602	55.74273	0.34438	 	8624841.155	 	7.20469E-7	 	18801.57602	46.33599	 
995.0	1.0	0.0	7.91875	7.34439	-6.82144	17.21121	24.9211	1.24672	0.8021	150.44565	160.845	55.96482	0.34411	 	9649315.995	 	6.41447E-7	 	18572.34919	45.84537	 
990.0	1.0	0.0	7.92218	7.3412	-6.8618	17.14326	24.81681	1.24702	0.80191	151.00557	161.16987	56.18418	0.34384	 	1.080375121E7	 	5.70646E-7	 	18345.48221	45.3734	 
985.0	1.0	0.0	7.92558	7.33806	-6.90171	17.0764	24.7144	1.24724	0.80177	151.55874	161.4908	56.40093	0.34358	 	1.210569024E7	 	5.07259E-7	 	18120.88546	44.91935	 
980.0	1.0	0.0	7.92894	7.33495	-6.94117	17.01059	24.61378	1.24736	0.80169	152.10546	161.80797	56.61519	0.34333	 	1.357519024E7	 	4.50551E-7	 	17898.47359	44.48237	 
975.0	1.0	0.0	7.93226	7.33187	-6.9802	16.94579	24.51483	1.24739	0.80167	152.64603	162.12153	56.82709	0.34307	 	1.523520405E7	 	3.99857E-7	 	17678.16495	44.06173	 
970.0	1.0	0.0	7.93556	7.32883	-7.01881	16.88194	24.41748	1.24735	0.8017	153.18073	162.43165	57.03673	0.34283	 	1.711202236E7	 	3.54576E-7	 	17459.88171	43.65665	 
965.0	1.0	0.0	7.93882	7.32582	-7.05703	16.81902	24.32164	1.24723	0.80178	153.70983	162.73845	57.2442	0.34258	 	1.923578901E7	 	3.14159E-7	 	17243.54883	43.26658	 
960.0	1.0	0.0	7.94205	7.32283	-7.09486	16.75697	24.22721	1.24703	0.8019	154.23357	163.04208	57.44962	0.34234	 	2.164109672E7	 	2.78114E-7	 	17029.09524	42.89072	 
955.0	1.0	0.0	7.94526	7.31988	-7.13232	16.69575	24.13413	1.24677	0.80207	154.75218	163.34266	57.65306	0.3421	 	2.436768283E7	 	2.45994E-7	 	16816.45307	42.52843	 
950.0	1.0	0.0	7.94843	7.31696	-7.16942	16.63534	24.04233	1.24643	0.80229	155.26589	163.64029	57.85461	0.34186	 	2.746123967E7	 	2.17393E-7	 	16605.55756	42.1791	 
945.0	1.0	0.0	7.95158	7.31406	-7.20617	16.57568	23.95173	1.24603	0.80255	155.7749	163.9351	58.05437	0.34163	 	3.0974361E7	 	1.91949E-7	 	16396.34623	41.84227	 
940.0	1.0	0.0	7.9547	7.31119	-7.24258	16.51676	23.86227	1.24557	0.80284	156.27942	164.22717	58.25239	0.3414	 	3.496764082E7	 	1.6933E-7	 	16188.76014	41.51722	 
935.0	1.0	0.0	7.9578	7.30835	-7.27867	16.45853	23.7739	1.24505	0.80318	156.77962	164.51662	58.44876	0.34117	 	3.95109651E7	 	1.49242E-7	 	15982.74279	41.20347	 
930.0	1.0	0.0	7.96087	7.30553	-7.31445	16.40096	23.68656	1.24447	0.80356	157.27569	164.80352	58.64355	0.34095	 	4.468501821E7	 	1.31415E-7	 	15778.24022	40.90051	 
925.0	1.0	0.0	7.96392	7.30273	-7.34992	16.34403	23.60019	1.24383	0.80397	157.76778	165.08796	58.83681	0.34072	 	5.058304944E7	 	1.15609E-7	 	15575.20098	40.60785	 
920.0	1.0	0.0	7.96694	7.29996	-7.38509	16.28771	23.51475	1.24314	0.80441	158.25606	165.37002	59.02861	0.3405	 	5.731294324E7	 	1.01608E-7	 	15373.57587	40.32502	 
915.0	1.0	0.0	7.96994	7.29721	-7.41998	16.23196	23.43018	1.2424	0.80489	158.74066	165.64977	59.219	0.34028	 	6.499964961E7	 	8.92169E-8	 	15173.31796	40.05158	 
910.0	1.0	0.0	7.97292	7.29448	-7.45459	16.17676	23.34645	1.24161	0.80541	159.22174	165.92728	59.40805	0.34007	 	7.378804073E7	 	7.82601E-8	 	14974.38242	39.78711	 
905.0	1.0	0.0	7.97588	7.29177	-7.48893	16.12208	23.26352	1.24077	0.80595	159.6994	166.20262	59.59579	0.33985	 	8.384627096E7	 	6.8581E-8	 	14776.7264	39.5312	 
900.0	1.0	0.0	7.97882	7.28909	-7.523	16.06791	23.18134	1.23988	0.80653	160.1738	166.47584	59.78229	0.33964	 	9.536973612E7	 	6.00385E-8	 	14580.30901	39.28348	 
895.0	1.0	0.0	7.98174	7.28642	-7.55683	16.01421	23.09988	1.23895	0.80713	160.64502	166.74701	59.96757	0.33943	 	1.085857418E8	 	5.25064E-8	 	14385.09114	39.04357	 
890.0	1.0	0.0	7.98464	7.28378	-7.5904	15.96097	23.01911	1.23798	0.80777	161.1132	167.01619	60.1517	0.33922	 	1.237590143E8	 	4.58718E-8	 	14191.03541	38.81115	 
885.0	1.0	0.0	7.98752	7.28115	-7.62374	15.90815	22.93899	1.23696	0.80843	161.57843	167.28341	60.33471	0.33902	 	1.411982185E8	 	4.00334E-8	 	13998.10609	38.58586	 
880.0	1.0	0.0	7.99039	7.27854	-7.65684	15.85575	22.85949	1.23591	0.80912	162.04081	167.54874	60.51663	0.33881	 	1.612636599E8	 	3.49008E-8	 	13806.26904	38.36741	 
875.0	1.0	0.0	7.99323	7.27595	-7.68971	15.80374	22.78059	1.23481	0.80984	162.50043	167.81221	60.6975	0.33861	 	1.843764619E8	 	3.03934E-8	 	13615.49079	38.15565	 
870.0	1.0	0.0	7.99606	7.27337	-7.72236	15.75211	22.70225	1.23367	0.81059	162.95738	168.07387	60.87736	0.33841	 	2.110293568E8	 	2.64391E-8	 	13425.74098	37.94996	 
865.0	1.0	0.0	7.99887	7.27082	-7.75479	15.70083	22.62445	1.2325	0.81136	163.41174	168.33376	61.05625	0.33821	 	2.417996065E8	 	2.29737E-8	 	13236.9897	37.75025	 
860.0	1.0	0.0	8.00167	7.26828	-7.78702	15.64988	22.54717	1.23129	0.81215	163.8636	168.59192	61.23418	0.33801	 	2.773643218E8	 	1.99399E-8	 	13049.20832	37.55628	 
855.0	1.0	0.0	8.00445	7.26575	-7.81903	15.59925	22.47038	1.23005	0.81298	164.31302	168.84838	61.41119	0.33781	 	3.18518717E8	 	1.7287E-8	 	12862.3694	37.36778	 
850.0	1.0	0.0	8.00721	7.26325	-7.85085	15.54893	22.39406	1.22877	0.81382	164.76009	169.10319	61.58731	0.33761	 	3.661978911E8	 	1.49695E-8	 	12676.44668	37.18454	 
845.0	1.0	0.0	8.00947	7.2612	-7.87682	15.52476	22.32449	1.22711	0.81492	165.13666	169.33525	61.73491	0.33747	 	4.171708536E8	 	1.3082E-8	 	12521.65442	30.95845	 
840.0	1.0	0.0	8.01172	7.25916	-7.90273	15.50059	22.25492	1.22544	0.81603	165.51254	169.56621	61.88228	0.33732	 	4.757957157E8	 	1.14188E-8	 	12363.93599	31.54369	 
835.0	1.0	0.0	8.01397	7.25712	-7.92857	15.47642	22.18533	1.22377	0.81715	165.88773	169.79607	62.02943	0.33717	 	5.433034073E8	 	9.95504E-9	 	12206.45212	31.49677	 
830.0	1.0	0.0	8.01621	7.25509	-7.95435	15.45224	22.11573	1.22208	0.81828	166.26223	170.02485	62.17634	0.33702	 	6.211359557E8	 	8.66831E-9	 	12049.20222	31.44998	 
825.0	1.0	0.0	8.01845	7.25306	-7.98007	15.42806	22.04613	1.22038	0.81942	166.63604	170.25254	62.32303	0.33687	 	7.10984914E8	 	7.53855E-9	 	11892.18563	31.40332	 
820.0	1.0	0.0	8.02069	7.25104	-8.00572	15.40388	21.97651	1.21867	0.82056	167.00915	170.47914	62.46949	0.33673	 	8.148371881E8	 	6.5478E-9	 	11735.40172	31.35678	 
815.0	1.0	0.0	8.02292	7.24902	-8.03131	15.37969	21.90689	1.21695	0.82172	167.38157	170.70466	62.61572	0.33658	 	9.350297642E8	 	5.68002E-9	 	11578.84984	31.31038	 
810.0	1.0	0.0	8.02515	7.24701	-8.05684	15.3555	21.83725	1.21523	0.82289	167.7533	170.9291	62.76172	0.33643	 	1.07431516E9	 	4.92089E-9	 	11422.5293	31.26411	 
805.0	1.0	0.0	8.02737	7.245	-8.0823	15.33131	21.76761	1.21349	0.82407	168.12433	171.15247	62.9075	0.33628	 	1.235939813E9	 	4.25764E-9	 	11266.43943	31.21797	 
800.0	1.0	0.0	8.02959	7.243	-8.1077	15.30711	21.69795	1.21174	0.82526	168.49467	171.37476	63.05305	0.33613	 	1.423738104E9	 	3.67889E-9	 	11110.57951	31.17198	 
795.0	1.0	0.0	8.0318	7.24101	-8.13303	15.28291	21.62828	1.20997	0.82646	168.86433	171.59599	63.19836	0.33599	 	1.642245297E9	 	3.17454E-9	 	10954.94883	31.12614	 
790.0	1.0	0.0	8.03401	7.23901	-8.1583	15.25871	21.5586	1.2082	0.82768	169.23329	171.81614	63.34345	0.33584	 	1.896833419E9	 	2.7356E-9	 	10799.54667	31.08043	 
785.0	1.0	0.0	8.03622	7.23703	-8.18351	15.2345	21.48891	1.20642	0.8289	169.60155	172.03524	63.48832	0.33569	 	2.19387497E9	 	2.35408E-9	 	10644.37227	31.03488	 
780.0	1.0	0.0	8.03842	7.23504	-8.20865	15.21029	21.41921	1.20463	0.83013	169.96913	172.25327	63.63295	0.33554	 	2.540940491E9	 	2.02294E-9	 	10489.42483	30.98949	 
775.0	1.0	0.0	8.04062	7.23307	-8.23373	15.18607	21.3495	1.20282	0.83138	170.33601	172.47025	63.77735	0.3354	 	2.947037352E9	 	1.7359E-9	 	10334.70359	30.94425	 
770.0	1.0	0.0	8.04281	7.2311	-8.25875	15.16186	21.27978	1.20101	0.83263	170.7022	172.68618	63.92153	0.33525	 	3.422898828E9	 	1.48744E-9	 	10180.20771	30.89918	 
765.0	1.0	0.0	8.045	7.22913	-8.2837	15.13764	21.21005	1.19918	0.8339	171.06771	172.90105	64.06548	0.3351	 	3.981334617E9	 	1.27268E-9	 	10025.93637	30.85427	 
760.0	1.0	0.0	8.04718	7.22717	-8.30859	15.11341	21.1403	1.19734	0.83518	171.43251	173.11487	64.20919	0.33495	 	4.637656557E9	 	1.08731E-9	 	9871.88868	30.80954	 
755.0	1.0	0.0	8.04936	7.22521	-8.33341	15.08919	21.07054	1.19549	0.83648	171.79663	173.32766	64.35268	0.33481	 	5.410196539E9	 	9.27535E-10	 	9718.06376	30.76498	 
750.0	1.0	0.0	8.05154	7.22326	-8.35817	15.06496	21.00077	1.19363	0.83778	172.16006	173.53939	64.49594	0.33466	 	6.320937631E9	 	7.90032E-10	 	9564.46069	30.72061	 
745.0	1.0	0.0	8.05371	7.22131	-8.38287	15.04072	20.93099	1.19176	0.8391	172.5228	173.75009	64.63898	0.33451	 	7.396284493E9	 	6.71869E-10	 	9411.0785	30.67644	 
740.0	1.0	0.0	8.05587	7.21937	-8.4075	15.01649	20.86119	1.18987	0.84043	172.88484	173.95976	64.78178	0.33436	 	8.668005438E9	 	5.70481E-10	 	9257.91621	30.63246	 
735.0	1.0	0.0	8.05803	7.21744	-8.43207	14.99225	20.79139	1.18798	0.84177	173.24619	174.16839	64.92435	0.33422	 	1.01744E10	 	4.83619E-10	 	9104.97281	30.58868	 
730.0	1.0	0.0	8.06019	7.2155	-8.45657	14.968	20.72157	1.18607	0.84312	173.60686	174.37599	65.0667	0.33407	 	1.1961599999999998E10	 	4.09319E-10	 	8952.24722	30.54512	 
725.0	1.0	0.0	8.06234	7.21358	-8.48101	14.94376	20.65173	1.18415	0.84449	173.96952	174.58527	65.20982	0.33392	 	1.4085699999999998E10	 	3.45863E-10	 	8799.73836	30.50177	 
720.0	1.0	0.0	8.06449	7.21166	-8.50539	14.91951	20.58189	1.18221	0.84587	174.32877	174.79079	65.3517	0.33377	 	1.6614199999999998E10	 	2.91757E-10	 	8647.44508	30.45866	 
715.0	1.0	0.0	8.06664	7.20974	-8.5297	14.89525	20.51203	1.18027	0.84727	174.68734	174.99529	65.49334	0.33363	 	1.96294E10	 	2.45699E-10	 	8495.36618	30.41578	 
710.0	1.0	0.0	8.06877	7.20783	-8.55395	14.871	20.44215	1.17831	0.84867	175.04521	175.19877	65.63476	0.33348	 	2.32312E10	 	2.06555E-10	 	8343.50044	30.37315	 
705.0	1.0	0.0	8.07091	7.20592	-8.57814	14.84674	20.37226	1.17634	0.8501	175.40239	175.40124	65.77595	0.33333	 	2.7541199999999996E10	 	1.73344E-10	 	8191.84654	30.33078	 
700.0	1.0	0.0	8.07304	7.20402	-8.60226	14.82247	20.30236	1.17435	0.85153	175.75888	175.6027	65.91691	0.33319	 	3.2707999999999996E10	 	1.45215E-10	 	8040.40316	30.28868	 
695.0	1.0	0.0	8.07516	7.20212	-8.62631	14.79821	20.23245	1.17236	0.85298	176.11468	175.80314	66.05764	0.33304	 	3.89132E10	 	1.21432E-10	 	7889.16889	30.24685	 
690.0	1.0	0.0	8.07729	7.20023	-8.65031	14.77394	20.16251	1.17035	0.85445	176.46979	176.00258	66.19814	0.33289	 	4.63792E10	 	1.01358E-10	 	7738.14226	30.20533	 
685.0	1.0	0.0	8.0794	7.19835	-8.67424	14.74966	20.09257	1.16833	0.85593	176.82421	176.20101	66.33841	0.33274	 	5.537889999999999E10	 	8.44454E-11	 	7587.3217	30.16411	 
680.0	1.0	0.0	8.08151	7.19647	-8.6981	14.72539	20.02261	1.16629	0.85742	177.17794	176.39845	66.47845	0.3326	 	6.624819999999999E10	 	7.02221E-11	 	7436.70564	30.12321	 
675.0	1.0	0.0	8.08362	7.19459	-8.7219	14.70111	19.95263	1.16424	0.85893	177.53098	176.59488	66.61826	0.33245	 	7.94008E10	 	5.82826E-11	 	7286.29236	30.08265	 
670.0	1.0	0.0	8.08572	7.19272	-8.74564	14.67682	19.88264	1.16218	0.86045	177.88333	176.79032	66.75784	0.3323	 	9.534739999999998E10	 	4.8279E-11	 	7136.08009	30.04245	 
665.0	1.0	0.0	8.08782	7.19085	-8.76931	14.65254	19.81263	1.1601	0.86199	178.23499	176.98477	66.89719	0.33216	 	1.1472E11	 	3.99134E-11	 	6986.06697	30.00262	 
660.0	1.0	0.0	8.08992	7.18899	-8.79292	14.62825	19.74261	1.15801	0.86355	178.58596	177.17823	67.03631	0.33201	 	1.38304E11	 	3.2931E-11	 	6836.25551	29.96229	 
655.0	1.0	0.0	8.092	7.18714	-8.81647	14.60396	19.67257	1.15591	0.86512	178.93623	177.3707	67.1752	0.33186	 	1.67071E11	 	2.71147E-11	 	6686.67053	29.917	 
650.0	1.0	0.0	8.09409	7.18529	-8.83995	14.57966	19.60252	1.15379	0.86671	179.28582	177.56219	67.31386	0.33172	 	2.02235E11	 	2.22793E-11	 	6537.34495	29.86512	 
645.0	1.0	0.0	8.09617	7.18344	-8.86336	14.55536	19.53245	1.15166	0.86831	179.63472	177.75269	67.45229	0.33157	 	2.45311E11	 	1.82677E-11	 	6388.27799	29.81339	 
640.0	1.0	0.0	8.09824	7.1816	-8.88671	14.53106	19.46236	1.14951	0.86994	179.98293	177.94222	67.59049	0.33142	 	2.98191E11	 	1.49463E-11	 	6239.46889	29.76182	 
635.0	1.0	0.0	8.10031	7.17976	-8.91	14.50675	19.39225	1.14735	0.87157	180.33045	178.13076	67.72846	0.33128	 	3.63251E11	 	1.22022E-11	 	6090.91685	29.71041	 
630.0	1.0	0.0	8.10238	7.17793	-8.93323	14.48244	19.32213	1.14517	0.87323	180.67728	178.31834	67.8662	0.33113	 	4.43473E11	 	9.93984E-12	 	5942.62108	29.65915	 
625.0	1.0	0.0	8.10444	7.17611	-8.95639	14.45813	19.25199	1.14298	0.8749	181.02341	178.50495	68.00371	0.33098	 	5.42616E11	 	8.07872E-12	 	5794.58044	29.60813	 
620.0	1.0	0.0	8.1065	7.17429	-8.97948	14.43381	19.18183	1.14078	0.8766	181.36886	178.69058	68.14099	0.33084	 	6.65426E11	 	6.55106E-12	 	5646.79316	29.55746	 
615.0	1.0	0.0	8.10855	7.17247	-9.00251	14.40949	19.11165	1.13856	0.87831	181.71362	178.87526	68.27804	0.33069	 	8.17907E11	 	5.29992E-12	 	5499.259	29.50683	 
610.0	1.0	0.0	8.1106	7.17066	-9.02548	14.38517	19.04145	1.13632	0.88003	182.05769	179.05897	68.41485	0.33054	 	1.00768E12	 	4.27758E-12	 	5351.97718	29.45636	 
605.0	1.0	0.0	8.11264	7.16886	-9.04838	14.36084	18.97124	1.13407	0.88178	182.40107	179.24171	68.55144	0.3304	 	1.24444E12	 	3.44415E-12	 	5204.94696	29.40604	 
600.0	1.0	0.0	8.11468	7.16706	-9.07122	14.33651	18.901	1.1318	0.88355	182.74376	179.42351	68.6878	0.33025	 	1.54054E12	 	2.76631E-12	 	5058.16759	29.35587	 
595.0	1.0	0.0	8.11671	7.16526	-9.094	14.31218	18.83075	1.12952	0.88533	183.08576	179.60434	68.82392	0.3301	 	1.9118E12	 	2.21635E-12	 	4911.63833	29.30585	 
590.0	1.0	0.0	8.11874	7.16347	-9.11671	14.28784	18.76048	1.12722	0.88714	183.42707	179.78423	68.95981	0.32996	 	2.37847E12	 	1.77123E-12	 	4765.35842	29.25598	 
585.0	1.0	0.0	8.12076	7.16169	-9.13935	14.2635	18.69018	1.1249	0.88896	183.7677	179.96317	69.09548	0.32981	 	2.96659E12	 	1.41186E-12	 	4619.32713	29.20626	 
580.0	1.0	0.0	8.12278	7.15991	-9.16193	14.23916	18.61987	1.12257	0.89081	184.10763	180.14116	69.23091	0.32966	 	3.70973E12	 	1.12246E-12	 	4473.54371	29.15668	 
575.0	1.0	0.0	8.12479	7.15813	-9.18445	14.21481	18.54953	1.12023	0.89268	184.44687	180.3182	69.36611	0.32952	 	4.65127E12	 	8.89995E-13	 	4328.00745	29.10725	 
570.0	1.0	0.0	8.1268	7.15636	-9.2069	14.19046	18.47917	1.11786	0.89456	184.78543	180.4943	69.50108	0.32937	 	5.84744E12	 	7.03761E-13	 	4182.71758	29.05797	 
565.0	1.0	0.0	8.12881	7.1546	-9.22929	14.16611	18.4088	1.11548	0.89647	185.12329	180.66947	69.63582	0.32922	 	7.37134E12	 	5.5496E-13	 	4037.6734	29.00884	 
560.0	1.0	0.0	8.13081	7.15284	-9.25161	14.14176	18.3384	1.11308	0.8984	185.46047	180.8437	69.77032	0.32908	 	9.31824E12	 	4.36391E-13	 	3892.87417	28.95985	 
555.0	1.0	0.0	8.1328	7.15108	-9.27387	14.1174	18.26797	1.11067	0.90036	185.79696	181.01699	69.9046	0.32893	 	1.18127E13	 	3.42172E-13	 	3748.31917	28.911	 
550.0	1.0	0.0	8.13479	7.14933	-9.29607	14.09303	18.19753	1.10824	0.90233	186.13275	181.18935	70.03864	0.32879	 	1.50182E13	 	2.67514E-13	 	3604.00768	28.8623	 
545.0	1.0	0.0	8.13678	7.14759	-9.3182	14.06867	18.12706	1.10579	0.90433	186.46786	181.36078	70.17245	0.32864	 	1.91497E13	 	2.08525E-13	 	3459.93899	28.81374	 
540.0	1.0	0.0	8.13876	7.14585	-9.34027	14.0443	18.05657	1.10332	0.90636	186.80228	181.53129	70.30603	0.32849	 	2.44908E13	 	1.62052E-13	 	3316.11238	28.76532	 
535.0	1.0	0.0	8.14073	7.14412	-9.36227	14.01992	17.98606	1.10083	0.9084	187.13601	181.70087	70.43938	0.32835	 	3.1417E13	 	1.25549E-13	 	3172.52714	28.71705	 
530.0	1.0	0.0	8.1427	7.14239	-9.38421	13.99555	17.91552	1.09833	0.91047	187.46906	181.86954	70.5725	0.3282	 	4.04272E13	 	9.69637E-14	 	3029.18257	28.66891	 
525.0	1.0	0.0	8.14467	7.14066	-9.40608	13.97117	17.84495	1.09581	0.91257	187.80141	182.03728	70.70539	0.32806	 	5.21862E13	 	7.46476E-14	 	2886.07797	28.62092	 
520.0	1.0	0.0	8.14663	7.13894	-9.42789	13.94679	17.77436	1.09327	0.91469	188.13308	182.20411	70.83804	0.32791	 	6.75826E13	 	5.72805E-14	 	2743.21265	28.57306	 
515.0	1.0	0.0	8.14859	7.13723	-9.44963	13.9224	17.70375	1.09071	0.91683	188.46405	182.37002	70.97046	0.32776	 	8.7809E13	 	4.38083E-14	 	2600.5859	28.52535	 
510.0	1.0	0.0	8.15054	7.13552	-9.47131	13.89801	17.63311	1.08813	0.919	188.79434	182.53502	71.10265	0.32762	 	1.14471E14	 	3.33916E-14	 	2458.19703	28.47777	 
505.0	1.0	0.0	8.15249	7.13382	-9.49293	13.87362	17.56244	1.08554	0.9212	189.12394	182.69911	71.23461	0.32747	 	1.49737E14	 	2.53641E-14	 	2316.04538	28.43033	 
500.0	1.0	0.0	8.15443	7.13212	-9.51448	13.84922	17.49175	1.08292	0.92343	189.45285	182.8623	71.36633	0.32733	 	1.96551E14	 	1.91989E-14	 	2174.13024	28.38303	 
495.0	1.0	0.0	8.15636	7.13043	-9.53597	13.82482	17.42103	1.08028	0.92568	189.78107	183.02458	71.49783	0.32718	 	2.5891499999999997E14	 	1.44802E-14	 	2032.45096	28.33586	 
490.0	1.0	0.0	8.1583	7.12874	-9.55739	13.80042	17.35028	1.07763	0.92796	190.1086	183.18596	71.62909	0.32703	 	3.42301E14	 	1.08815E-14	 	1891.00687	28.28882	 
485.0	1.0	0.0	8.16022	7.12705	-9.57874	13.77601	17.2795	1.07495	0.93027	190.43545	183.34644	71.76011	0.32689	 	4.54211E14	 	8.14675E-15	 	1749.79729	28.24192	 
480.0	1.0	0.0	8.16214	7.12538	-9.60004	13.75161	17.2087	1.07226	0.93261	190.7616	183.50602	71.89091	0.32674	 	6.04977E14	 	6.07617E-15	 	1608.82157	28.19514	 
475.0	1.0	0.0	8.16406	7.1237	-9.62127	13.72719	17.13786	1.06954	0.93498	191.08707	183.66471	72.02147	0.3266	 	8.08879E14	 	4.51432E-15	 	1468.07904	28.1485	 
470.0	1.0	0.0	8.16597	7.12203	-9.64243	13.70278	17.067	1.06681	0.93738	191.41185	183.82251	72.1518	0.32645	 	1.08574E15	 	3.3407E-15	 	1327.56908	28.10199	 
465.0	1.0	0.0	8.16788	7.12037	-9.66353	13.67836	16.9961	1.06405	0.93981	191.73594	183.97941	72.2819	0.32631	 	1.46319E15	 	2.46225E-15	 	1187.29103	28.05561	 
460.0	1.0	0.0	8.16978	7.11871	-9.68456	13.65394	16.92517	1.06127	0.94227	192.05934	184.13543	72.41177	0.32616	 	1.97989E15	 	1.80733E-15	 	1047.24425	28.00935	 
455.0	1.0	0.0	8.17168	7.11706	-9.70553	13.62951	16.85422	1.05847	0.94476	192.38206	184.29057	72.5414	0.32602	 	2.69022E15	 	1.32105E-15	 	907.42811	27.96323	 
450.0	1.0	0.0	8.17357	7.11541	-9.72644	13.60508	16.78323	1.05565	0.94729	192.70408	184.44482	72.6708	0.32587	 	3.67091E15	 	9.61483E-16	 	767.842	27.91722	 
445.0	1.0	0.0	8.17546	7.11377	-9.74728	13.58065	16.7122	1.0528	0.94984	193.02542	184.59819	72.79996	0.32572	 	5.03083E15	 	6.96726E-16	 	628.48529	27.87134	 
440.0	1.0	0.0	8.17734	7.11213	-9.76805	13.55621	16.64115	1.04994	0.95244	193.34607	184.75068	72.9289	0.32558	 	6.92509E15	 	5.02623E-16	 	489.35737	27.82559	 
435.0	1.0	0.0	8.17922	7.1105	-9.78876	13.53177	16.57006	1.04705	0.95506	193.66603	184.9023	73.0576	0.32543	 	9.5757E15	 	3.60945E-16	 	350.45762	27.77995	 
430.0	1.0	0.0	8.18109	7.10887	-9.80941	13.50733	16.49893	1.04414	0.95773	193.98531	185.05305	73.18606	0.32529	 	1.3302E16	 	2.57999E-16	 	211.78547	27.73443	 
425.0	1.0	0.0	8.18296	7.10725	-9.82999	13.48288	16.42777	1.0412	0.96043	194.30389	185.20292	73.3143	0.32514	 	1.85656E16	 	1.83538E-16	 	73.34038	27.68902	 
420.0	1.0	0.0	8.18482	7.10563	-9.85051	13.45844	16.35658	1.03825	0.96316	194.62179	185.35192	73.4423	0.325	 	2.60369E16	 	1.29935E-16	 	-64.87833	27.64374	 
415.0	1.0	0.0	8.18668	7.10402	-9.87096	13.43398	16.28534	1.03527	0.96593	194.939	185.50006	73.57006	0.32485	 	3.66948E16	 	9.15305E-17	 	-202.87097	27.59853	 
410.0	1.0	0.0	8.18853	7.10241	-9.89135	13.40953	16.21407	1.03226	0.96875	195.25552	185.64733	73.6976	0.32471	 	5.19757E16	 	6.41509E-17	 	-340.63773	27.55335	 
405.0	1.0	0.0	8.19038	7.10081	-9.91167	13.38507	16.14276	1.02923	0.9716	195.57135	185.79375	73.8249	0.32456	 	7.3999E16	 	4.47287E-17	 	-478.1788	27.50821	 
400.0	1.0	0.0	8.19222	7.09922	-9.93193	13.36061	16.07141	1.02618	0.97449	195.8865	185.9393	73.95196	0.32442	 	1.05908E17	 	3.10219E-17	 	-615.49436	27.46311	 
395.0	1.0	0.0	8.19406	7.09762	-9.95212	13.33614	16.00003	1.0231	0.97742	196.20095	186.08399	74.0788	0.32427	 	1.52393E17	 	2.13991E-17	 	-752.58458	27.41804	 
390.0	1.0	0.0	8.19589	7.09604	-9.97225	13.31167	15.9286	1.02	0.98039	196.51472	186.22783	74.20539	0.32413	 	2.20488E17	 	1.46796E-17	 	-889.44961	27.37301	 
385.0	1.0	0.0	8.19772	7.09446	-9.99231	13.2872	15.85713	1.01687	0.98341	196.82781	186.37082	74.33176	0.32398	 	3.20804E17	 	1.00132E-17	 	-1026.08961	27.328	 
380.0	1.0	0.0	8.19954	7.09288	-10.01231	13.26272	15.78562	1.01372	0.98647	197.1402	186.51295	74.45789	0.32384	 	4.6945E17	 	6.79063E-18	 	-1162.50471	27.28302	 
375.0	1.0	0.0	8.20136	7.09131	-10.03224	13.23824	15.71406	1.01054	0.98957	197.4519	186.65424	74.58378	0.32369	 	6.91018E17	 	4.57797E-18	 	-1298.69505	27.23807	 
370.0	1.0	0.0	8.20317	7.08974	-10.05211	13.21376	15.64246	1.00733	0.99272	197.76292	186.79468	74.70945	0.32355	 	1.02329E18	 	3.0676E-18	 	-1434.66073	27.19314	 
365.0	1.0	0.0	8.20497	7.08818	-10.07192	13.18928	15.57082	1.0041	0.99592	198.07325	186.93427	74.83487	0.3234	 	1.5247E18	 	2.0428E-18	 	-1570.40186	27.14823	 
360.0	1.0	0.0	8.20678	7.08663	-10.09165	13.16479	15.49913	1.00084	0.99916	198.3829	187.07303	74.96007	0.32326	 	2.28613E18	 	1.35174E-18	 	-1705.91855	27.10334	 
355.0	1.0	0.0	8.20857	7.08507	-10.11133	13.1403	15.42739	0.99756	1.00245	198.69185	187.21094	75.08503	0.32311	 	3.45001E18	 	8.88649E-19	 	-1841.21087	27.05846	 
350.0	1.0	0.0	8.21036	7.08353	-10.13094	13.1158	15.35561	0.99424	1.00579	199.00012	187.34801	75.20975	0.32297	 	5.24091E18	 	5.80327E-19	 	-1976.27888	27.0136	 
345.0	1.0	0.0	8.21215	7.08199	-10.15048	13.0913	15.28377	0.9909	1.00918	199.3077	187.48425	75.33424	0.32282	 	8.0155E18	 	3.764E-19	 	-2111.12265	26.96875	 
340.0	1.0	0.0	8.21393	7.08045	-10.16996	13.0668	15.21189	0.98753	1.01263	199.61459	187.61966	75.4585	0.32268	 	1.23442E19	 	2.42431E-19	 	-2245.7422	26.92391	 
335.0	1.0	0.0	8.2157	7.07892	-10.18938	13.04229	15.13996	0.98413	1.01613	199.92079	187.75424	75.58252	0.32253	 	1.91462E19	 	1.5503E-19	 	-2380.13758	26.87908	 
330.0	1.0	0.0	8.21748	7.0774	-10.20873	13.01779	15.06797	0.9807	1.01968	200.22631	187.88798	75.70631	0.32239	 	2.9913E19	 	9.8413E-20	 	-2514.30879	26.83424	 
325.0	1.0	0.0	8.21924	7.07588	-10.22801	12.99327	14.99593	0.97724	1.02329	200.53114	188.0209	75.82986	0.32224	 	4.70844E19	 	6.2004E-20	 	-2648.25582	26.78941	 
320.0	1.0	0.0	8.221	7.07436	-10.24723	12.96876	14.92383	0.97376	1.02695	200.83528	188.153	75.95317	0.3221	 	7.46819E19	 	3.87646E-20	 	-2781.97865	26.74457	 
315.0	1.0	0.0	8.22276	7.07285	-10.26638	12.94424	14.85168	0.97024	1.03067	201.13873	188.28427	76.07626	0.32195	 	1.1938799999999998E20	 	2.40444E-20	 	-2915.47725	26.69972	 
310.0	1.0	0.0	8.2245	7.07135	-10.28547	12.91972	14.77947	0.96669	1.03446	201.4415	188.41472	76.1991	0.32181	 	1.92398E20	 	1.47934E-20	 	-3048.75155	26.65486	 
305.0	1.0	0.0	8.22625	7.06985	-10.3045	12.89519	14.70721	0.96311	1.0383	201.74358	188.54435	76.32171	0.32167	 	3.1262499999999997E20	 	9.02618E-21	 	-3181.8015	26.60999	 
300.0	1.0	0.0	8.22799	7.06835	-10.32346	12.87066	14.63488	0.9595	1.04221	202.04497	188.67317	76.44409	0.32152	 	5.1230099999999997E20	 	5.46047E-21	 	-3314.62697	26.56509	 
295.0	1.0	0.0	8.22972	7.06687	-10.34235	12.84613	14.56249	0.95586	1.04618	202.34567	188.80117	76.56623	0.32138	 	8.468419999999999E20	 	3.27452E-21	 	-3447.22787	26.52018	 
290.0	1.0	0.0	8.23145	7.06538	-10.36118	12.8216	14.49004	0.95218	1.05022	202.64569	188.92836	76.68813	0.32123	 	1.41239E21	 	1.94606E-21	 	-3579.60406	26.47524	 
285.0	1.0	0.0	8.23317	7.0639	-10.37994	12.79706	14.41753	0.94848	1.05432	202.94502	189.05473	76.8098	0.32109	 	2.37733E21	 	1.1459E-21	 	-3711.75538	26.43026	 
280.0	1.0	0.0	8.23489	7.06243	-10.39864	12.77251	14.34494	0.94474	1.0585	203.24366	189.1803	76.93124	0.32094	 	4.03934E21	 	6.68373E-22	 	-3843.68164	26.38525	 
275.0	1.0	0.0	8.23661	7.06096	-10.41728	12.74797	14.2723	0.94096	1.06274	203.54161	189.30507	77.05244	0.3208	 	6.929980000000001E21	 	3.86059E-22	 	-3975.38265	26.3402	 
270.0	1.0	0.0	8.23831	7.0595	-10.43585	12.72342	14.19958	0.93715	1.06706	203.83888	189.42903	77.1734	0.32066	 	1.2008E22	 	2.20768E-22	 	-4106.85817	26.2951	 
265.0	1.0	0.0	8.24002	7.05804	-10.45435	12.69887	14.12679	0.93331	1.07146	204.13546	189.55218	77.29413	0.32051	 	2.1020499999999998E22	 	1.24953E-22	 	-4238.10794	26.24995	 
260.0	1.0	0.0	8.24171	7.05658	-10.47279	12.67431	14.05393	0.92943	1.07593	204.43135	189.67454	77.41462	0.32037	 	3.7185899999999996E22	 	6.99774E-23	 	-4369.13168	26.20475	 
255.0	1.0	0.0	8.2434	7.05514	-10.49116	12.64975	13.98099	0.92552	1.08047	204.72655	189.7961	77.53487	0.32022	 	6.649719999999999E22	 	3.8765E-23	 	-4499.92908	26.15948	 
250.0	1.0	0.0	8.24509	7.05369	-10.50947	12.62519	13.90798	0.92157	1.0851	205.02107	189.91686	77.65489	0.32008	 	1.20241E23	 	2.12353E-23	 	-4630.49979	26.11414	 
245.0	1.0	0.0	8.24677	7.05226	-10.52771	12.60063	13.83489	0.91758	1.08982	205.3149	190.03683	77.77468	0.31993	 	2.1992199999999998E23	 	1.14993E-23	 	-4760.84343	26.06873	 
240.0	1.0	0.0	8.24845	7.05082	-10.54589	12.57606	13.76171	0.91356	1.09462	205.60804	190.15601	77.89422	0.31979	 	4.07E23	 	6.1537E-24	 	-4890.9596	26.02323	 
235.0	1.0	0.0	8.25012	7.04939	-10.564	12.55149	13.68846	0.9095	1.0995	205.9005	190.2744	78.01353	0.31965	 	7.623959999999999E23	 	3.2531E-24	 	-5020.84785	25.97765	 
230.0	1.0	0.0	8.25178	7.04797	-10.58205	12.52691	13.61512	0.9054	1.10448	206.19226	190.39199	78.13261	0.3195	 	1.44605E24	 	1.69824E-24	 	-5150.50769	25.93197	 
225.0	1.0	0.0	8.25344	7.04655	-10.60003	12.50233	13.54169	0.90127	1.10955	206.48335	190.50881	78.25145	0.31936	 	2.77823E24	 	8.75141E-25	 	-5279.93862	25.88619	 
220.0	1.0	0.0	8.2551	7.04514	-10.61795	12.47775	13.46817	0.89709	1.11471	206.77374	190.62483	78.37005	0.31921	 	5.40883E24	 	4.45002E-25	 	-5409.14006	25.84029	 
215.0	1.0	0.0	8.25675	7.04374	-10.6358	12.45317	13.39456	0.89288	1.11998	207.06345	190.74008	78.48841	0.31907	 	1.06749E25	 	2.2319E-25	 	-5538.11142	25.79427	 
210.0	1.0	0.0	8.25839	7.04233	-10.65359	12.42858	13.32086	0.88862	1.12534	207.35246	190.85454	78.60654	0.31893	 	2.13668E25	 	1.10365E-25	 	-5666.85205	25.74813	 
205.0	1.0	0.0	8.26003	7.04094	-10.67131	12.40399	13.24705	0.88432	1.13081	207.6408	190.96823	78.72443	0.31878	 	4.33925E25	 	5.37819E-26	 	-5795.36125	25.70184	 
200.0	1.0	0.0	8.26166	7.03955	-10.68896	12.37939	13.17315	0.87998	1.13638	207.92844	191.08114	78.84209	0.31864	 	8.94527E25	 	2.58162E-26	 	-5923.63828	25.65541	 
195.0	1.0	0.0	8.26329	7.03816	-10.70655	12.35479	13.09914	0.8756	1.14207	208.2154	191.19328	78.9595	0.31849	 	1.8727600000000003E26	 	1.22008E-26	 	-6051.68234	25.60881	 
190.0	1.0	0.0	8.26491	7.03678	-10.72408	12.33019	13.02503	0.87118	1.14787	208.50167	191.30464	79.07669	0.31835	 	3.98384E26	 	5.67423E-27	 	-6179.49259	25.56205	 
185.0	1.0	0.0	8.26653	7.0354	-10.74154	12.30559	12.95081	0.86672	1.15378	208.78725	191.41523	79.19363	0.31821	 	8.61539E26	 	2.59549E-27	 	-6307.0681	25.5151	 
180.0	1.0	0.0	8.26814	7.03403	-10.75893	12.28098	12.87647	0.86221	1.15982	209.07215	191.52506	79.31033	0.31806	 	1.89514E27	 	1.16705E-27	 	-6434.40791	25.46796	 
175.0	1.0	0.0	8.26975	7.03266	-10.77626	12.25637	12.80202	0.85765	1.16597	209.35636	191.63411	79.4268	0.31792	 	4.2427299999999996E27	 	5.15542E-28	 	-6561.51099	25.42062	 
170.0	1.0	0.0	8.27135	7.0313	-10.79353	12.23175	12.72745	0.85305	1.17226	209.63988	191.7424	79.54304	0.31778	 	9.67273E27	 	2.23609E-28	 	-6688.37623	25.37305	 
165.0	1.0	0.0	8.27294	7.02995	-10.81072	12.20713	12.65275	0.84841	1.17868	209.92272	191.84993	79.65903	0.31763	 	2.24709E28	 	9.51675E-29	 	-6815.00245	25.32525	 
160.0	1.0	0.0	8.27453	7.0286	-10.82786	12.18251	12.57793	0.84371	1.18524	210.20486	191.9567	79.77479	0.31749	 	5.32285E28	 	3.97174E-29	 	-6941.3884	25.27719	 
155.0	1.0	0.0	8.27611	7.02725	-10.84492	12.15789	12.50297	0.83897	1.19193	210.48632	192.06271	79.89031	0.31735	 	1.28651E29	 	1.62431E-29	 	-7067.53276	25.22887	 
150.0	1.0	0.0	8.27769	7.02591	-10.86193	12.13326	12.42788	0.83419	1.19877	210.7671	192.16796	80.00559	0.3172	 	3.17499E29	 	6.50486E-30	 	-7193.43409	25.18027	 
145.0	1.0	0.0	8.27927	7.02458	-10.87886	12.10863	12.35264	0.82935	1.20576	211.04719	192.27245	80.12063	0.31706	 	8.006700000000001E29	 	2.54897E-30	 	-7319.0909	25.13136	 
140.0	1.0	0.0	8.28083	7.02325	-10.89573	12.08399	12.27726	0.82447	1.21291	211.32659	192.37619	80.23544	0.31692	 	2.06484E30	 	9.76578E-31	 	-7444.50157	25.08213	 
135.0	1.0	0.0	8.2824	7.02192	-10.91254	12.05935	12.20173	0.81953	1.22021	211.6053	192.47918	80.35001	0.31677	 	5.450059999999999E30	 	3.65515E-31	 	-7569.6644	25.03257	 
130.0	1.0	0.0	8.28395	7.0206	-10.92928	12.03471	12.12604	0.81454	1.22768	211.88332	192.58142	80.46434	0.31663	 	1.4735699999999998E31	 	1.33531E-31	 	-7694.57758	24.98264	 
125.0	1.0	0.0	8.2855	7.01929	-10.94595	12.01007	12.0502	0.8095	1.23533	212.16066	192.68291	80.57843	0.31649	 	4.08499E31	 	4.75711E-32	 	-7819.23916	24.93232	 
120.0	1.0	0.0	8.28705	7.01798	-10.96256	11.98542	11.97418	0.80441	1.24314	212.43732	192.78365	80.69228	0.31634	 	1.16218E32	 	1.65109E-32	 	-7943.64711	24.88159	 
115.0	1.0	0.0	8.28859	7.01668	-10.9791	11.96077	11.89799	0.79927	1.25115	212.71328	192.88365	80.8059	0.3162	 	3.39668E32	 	5.5774E-33	 	-8067.79924	24.83043	 
110.0	1.0	0.0	8.29012	7.01538	-10.99558	11.93611	11.82163	0.79407	1.25934	212.98856	192.98291	80.91928	0.31606	 	1.02092E33	 	1.83174E-33	 	-8191.69321	24.77879	 
105.0	1.0	0.0	8.29165	7.01408	-11.01199	11.91146	11.74507	0.78881	1.26773	213.26315	193.08142	81.03242	0.31591	 	3.1591400000000004E33	 	5.84227E-34	 	-8315.32659	24.72667	 
100.0	1.0	0.0	8.29318	7.0128	-11.02834	11.88679	11.66832	0.7835	1.27632	213.53706	193.1792	81.14532	0.31577	 	1.00761E34	 	1.8075E-34	 	-8438.69671	24.67402	 
95.0	1.0	0.0	8.29469	7.01151	-11.04462	11.86213	11.59138	0.77814	1.28512	213.81027	193.27623	81.25798	0.31563	 	3.31664E34	 	5.41767E-35	 	-8561.80079	24.62082	 
90.0	1.0	0.0	8.29621	7.01023	-11.06084	11.83746	11.51422	0.77271	1.29414	214.08281	193.37254	81.3704	0.31548	 	1.12811E35	 	1.57116E-35	 	-8684.63587	24.56701	 
85.0	1.0	0.0	8.29771	7.00896	-11.07699	11.81279	11.43685	0.76723	1.30339	214.35465	193.4681	81.48259	0.31534	 	3.9705499999999996E35	 	4.40252E-36	 	-8807.19877	24.51258	 
80.0	1.0	0.0	8.29921	7.00769	-11.09307	11.78812	11.35925	0.76169	1.31288	214.62581	193.56294	81.59453	0.3152	 	1.4481899999999998E36	 	1.19021E-36	 	-8929.48611	24.45747	 
75.0	1.0	0.0	8.30071	7.00643	-11.10909	11.76344	11.28141	0.75608	1.32261	214.89628	193.65705	81.70624	0.31505	 	5.482E36	 	3.09966E-37	 	-9051.49429	24.40164	 
70.0	1.0	0.0	8.3022	7.00517	-11.12504	11.73876	11.20333	0.75042	1.33259	215.16606	193.75043	81.81771	0.31491	 	2.1572499999999998E37	 	7.76371E-38	 	-9173.2195	24.34504	 
65.0	1.0	0.0	8.30368	7.00392	-11.14093	11.71407	11.125	0.74469	1.34284	215.43516	193.84308	81.92894	0.31477	 	8.84012E37	 	1.86697E-38	 	-9294.65763	24.28763	 
60.0	1.0	0.0	8.30516	7.00267	-11.15675	11.68938	11.0464	0.7389	1.35337	215.70357	193.935	82.03993	0.31463	 	3.77922E38	 	4.30254E-39	 	-9415.80434	24.22934	 
55.0	1.0	0.0	8.30664	7.00143	-11.17251	11.66469	10.96753	0.73304	1.36418	215.9713	194.0262	82.15068	0.31448	 	1.6887800000000002E39	 	9.48388E-40	 	-9536.65495	24.17012	 
50.0	1.0	0.0	8.3081	7.0002	-11.1882	11.64	10.88836	0.72712	1.37528	216.23834	194.11668	82.26119	0.31434	 	7.904310000000001E39	 	1.99539E-40	 	-9657.20451	24.10991	 
45.0	1.0	0.0	8.30956	6.99896	-11.20382	11.6153	10.80889	0.72114	1.3867	216.50469	194.20645	82.37147	0.3142	 	3.8835E40	 	3.99849E-41	 	-9777.44769	24.04864	 
40.0	1.0	0.0	8.31102	6.99774	-11.21938	11.5906	10.72911	0.71508	1.39844	216.77035	194.29549	82.4815	0.31405	 	2.00752E41	 	7.61341E-42	 	-9897.3788	23.98622	 
35.0	1.0	0.0	8.31247	6.99652	-11.23488	11.56589	10.64899	0.70896	1.41052	217.03533	194.38382	82.59129	0.31391	 	1.09458E42	 	1.37404E-42	 	-10016.99179	23.9226	 
30.0	1.0	0.0	8.31392	6.9953	-11.2503	11.54118	10.56852	0.70276	1.42295	217.29962	194.47143	82.70085	0.31377	 	6.31154E42	 	2.34428E-43	 	-10136.28011	23.85766	 
25.0	1.0	0.0	8.31536	6.99409	-11.26566	 	10.48769	0.6965	1.43575	217.56323	194.55833	82.81016	0.31363	 	3.8596E43	 	3.77033E-44	 	-10255.23679	 	 
