T (C)	Fraction solid (wt)-TOTAL	Fraction liquid (wt)-LIQUID	Density (g/(cm)^3)-TOTAL	Molar volume (cm^3)-TOTAL	Volume change (%)-  	Average expansion coeff. (10e-6 1/K)-  	Thermal conductivity (W/(m*K))-TOTAL	Electrical resistivity (10e-6 Ohm*m)-TOTAL	Electrical conductivity (10e6 1/(Ohm*m))-TOTAL	Young's modulus (GPa)-TOTAL	Bulk modulus (GPa)-TOTAL	Shear modulus(GPa)-TOTAL	Poisson's ratio-TOTAL	Liquid viscosity (mPa s)-  	Total viscosity (mPa s)-  	Liquid diffusivity (10e-9 (m^2)/s)-  	Total diffusivity (10e-9 (m^2)/s)-  	Surface Tension (mN/m)-  	Enthalpy (J/mole)-TOTAL	Specific heat (J/(mole K))-TOTAL	Latent heat (J/mole)-TOTAL
1400.0	0.0	1.0	7.2681	7.96245	0.0	32.72109	29.20988	1.40337	0.71257	0.0	123.30013	0.0	0.5	7.16544	7.16544	1.13967	1.13967	1782.42908	45992.377	 	0.0
1395.0	0.0	1.0	7.27212	7.95805	-0.0552959	32.68782	29.12983	1.40302	0.71275	0.0	123.44591	0.0	0.5	7.24307	7.24307	1.12408	1.12408	1785.42006	45790.452	40.385	0.0
1390.0	0.0	1.0	7.27613	7.95366	-0.11043	32.65473	29.04979	1.40267	0.71293	0.0	123.59169	0.0	0.5	7.32202	7.32202	1.10863	1.10863	1788.43514	45588.983	40.2938	0.0
1385.0	0.0	1.0	7.28014	7.94928	-0.16541	32.62184	28.96974	1.40231	0.71311	0.0	123.73747	0.0	0.5	7.40231	7.40231	1.09331	1.09331	1791.47427	45387.967	40.2032	0.0
1380.0	0.0	1.0	7.28414	7.94492	-0.22023	32.58915	28.88969	1.40196	0.71329	0.0	123.88324	0.0	0.5	7.48397	7.48397	1.07812	1.07812	1794.5374	45187.402	40.113	0.0
1375.0	0.0	1.0	7.28813	7.94056	-0.2749	32.55666	28.80965	1.4016	0.71347	0.0	124.02902	0.0	0.5	7.56704	7.56704	1.06306	1.06306	1797.62445	44987.286	40.0232	0.0
1370.0	0.0	1.0	7.29212	7.93622	-0.3294	32.52438	28.7296	1.40124	0.71365	0.0	124.1748	0.0	0.5	7.65154	7.65154	1.04813	1.04813	1800.73532	44787.615	39.9342	0.0
1365.0	0.0	1.0	7.2961	7.9319	-0.38375	32.4923	28.64955	1.40088	0.71384	0.0	124.32058	0.0	0.5	7.73751	7.73751	1.03333	1.03333	1803.86991	44588.387	39.8456	0.0
1360.0	0.0	1.0	7.30007	7.92758	-0.43794	32.46043	28.56951	1.40052	0.71402	0.0	124.46636	0.0	0.5	7.82499	7.82499	1.01866	1.01866	1807.02809	44389.599	39.7576	0.0
1355.0	0.0	1.0	7.30403	7.92328	-0.49197	32.42877	28.48946	1.40016	0.71421	0.0	124.61214	0.0	0.5	7.914	7.914	1.00412	1.00412	1810.20973	44191.249	39.67	0.0
1350.0	0.0	1.0	7.30799	7.91899	-0.54584	32.39732	28.40941	1.39979	0.71439	0.0	124.75792	0.0	0.5	8.00458	8.00458	0.98971	0.98971	1813.41469	43993.334	39.583	0.0
1345.0	0.0	1.0	7.31194	7.91471	-0.59956	32.36608	28.32936	1.39942	0.71458	0.0	124.9037	0.0	0.5	8.09676	8.09676	0.97543	0.97543	1816.6428	43795.852	39.4964	0.0
1340.0	0.0	1.0	7.31588	7.91045	-0.65311	32.33507	28.24932	1.39905	0.71477	0.0	125.04948	0.0	0.5	8.19059	8.19059	0.96127	0.96127	1819.89389	43598.799	39.4106	0.0
1335.0	0.0	1.0	7.31981	7.9062	-0.70651	32.30427	28.16927	1.39868	0.71496	0.0	125.19526	0.0	0.5	8.2861	8.2861	0.94725	0.94725	1823.16776	43402.175	39.3248	0.0
1330.92	0.0	1.0	7.32301	7.90274	-0.74993	32.27932	28.10401	1.39837	0.71512	0.0	125.3141	0.0	0.5	8.36523	8.36523	0.93591	0.93591	1825.85349	43242.209	39.2441	0.0
1330.0	0.02227	0.97773	7.32984	7.89536	-0.84264	32.03341	28.16435	1.39457	0.71707	2.28504E-5	125.56874	7.63143E-6	0.49712	8.38736	8.64677	0.9329	0.90491	1825.81673	42877.524	394.75764	328.45
1325.0	0.13513	0.86487	7.36469	7.85802	-1.31159	30.79187	28.47175	1.37521	0.72716	0.0316667	126.86412	0.0106806	0.48245	8.50928	19.84796	0.91667	0.393	1825.67278	41025.92	370.3208	1984.278
1320.0	0.23058	0.76942	7.39476	7.82607	-1.71276	29.73878	28.72836	1.35866	0.73602	0.27368	128.00034	0.093097	0.46987	8.63425	98.55474	0.90057	0.078898	1825.58253	39439.76	317.232	3375.082
1315.0	0.312	0.688	7.42091	7.79848	-2.05938	28.83749	28.9438	1.34432	0.74387	0.93333	129.00974	0.31985	0.45902	8.76233	321.77188	0.88462	0.0240896	1825.54383	38067.287	274.4946	4552.617
1310.0	0.38203	0.61797	7.44388	7.77437	-2.36214	28.05831	29.12561	1.33172	0.75091	2.12991	129.91671	0.73466	0.44959	8.89361	750.02006	0.86882	0.0103023	1825.5545	36868.475	239.7624	5556.907
1305.0	0.4427	0.5573	7.4642	7.7532	-2.62798	27.38218	29.27898	1.32056	0.75725	3.89286	130.74227	1.35043	0.44134	9.02822	1422.83565	0.85317	0.00541353	1825.61134	35812.043	211.2864	6419.23
1300.0	0.4956	0.5044	7.4823	7.73443	-2.86375	26.78998	29.40805	1.3106	0.76301	6.19045	131.50003	2.15833	0.43408	9.1662	2363.18635	0.83766	0.00324907	1825.7117	34873.296	187.7494	7164.278
1295.0	0.54202	0.45798	7.49855	7.71766	-3.07437	26.26804	29.51615	1.30165	0.76826	8.95615	132.20197	3.13667	0.42765	9.30769	3583.36936	0.8223	0.00213591	1825.85263	34032.564	168.1464	7811.72
1290.0	0.58297	0.41703	7.51322	7.70252	-3.26449	25.80327	29.60589	1.29357	0.77306	12.11113	132.85666	4.2587	0.42193	9.45273	5090.45955	0.80711	0.00149875	1826.03159	33274.041	151.7046	8377.359
1285.0	0.61928	0.38072	7.52654	7.68881	-3.43662	25.38882	29.67944	1.28623	0.77746	15.57094	133.47191	5.49509	0.4168	9.60146	6887.70329	0.79206	0.00110413	1826.24512	32584.929	137.8224	8873.991
1280.0	0.65165	0.34835	7.53871	7.67632	-3.59347	25.01713	29.73865	1.27955	0.78152	19.26118	134.05419	6.81956	0.4122	9.75406	8980.01489	0.77717	8.44157E-4	1826.49016	31954.786	126.0286	9312.057
1275.0	0.6806	0.3194	7.54989	7.66488	-3.73717	24.68229	29.7852	1.27344	0.78527	23.11122	134.60802	8.20684	0.40805	9.91059	11371.40147	0.76243	6.64486E-4	1826.76379	31375.031	115.951	9700.133
1270.0	0.70661	0.29339	7.56022	7.65433	-3.86968	24.37875	29.82056	1.26782	0.78875	27.06622	135.1375	9.63705	0.40428	10.07117	14070.68344	0.74785	5.35278E-4	1827.06309	30838.569	107.2924	10045.314
1265.0	0.73008	0.26992	7.56978	7.64458	-3.99216	24.10337	29.84579	1.26265	0.79199	31.07519	135.64595	11.09153	0.40085	10.23603	17086.70555	0.73342	4.39367E-4	1827.38489	30339.497	99.8144	10353.499
1260.0	0.75132	0.24868	7.57868	7.63547	-4.10656	23.85049	29.86204	1.25786	0.795	35.09879	136.13515	12.55572	0.39772	10.40517	20431.85637	0.71915	3.66238E-4	1827.72734	29872.874	93.3246	10629.629
1255.0	0.7706	0.2294	7.58702	7.62698	-4.21321	23.61941	29.87038	1.2534	0.79783	39.10818	136.60892	14.01875	0.39485	10.57891	24124.22617	0.70504	3.09171E-4	1828.08663	29434.544	87.666	10877.856
1250.0	0.78817	0.21183	7.59483	7.61901	-4.31326	23.40683	29.87137	1.24926	0.80047	43.07304	137.06788	15.46924	0.39222	10.75733	28179.65805	0.69107	2.63811E-4	1828.46069	29020.991	82.7106	11101.695
1245.0	0.80421	0.19579	7.60219	7.61151	-4.40747	23.21062	29.86595	1.24539	0.80296	46.98003	137.51438	16.90193	0.38978	10.94058	32624.42601	0.67727	2.27122E-4	1828.84677	28629.227	78.3528	11304.131
1240.0	0.81892	0.18108	7.60915	7.6044	-4.49673	23.02819	29.85473	1.24175	0.80531	50.81224	137.94921	18.3103	0.38753	11.12893	37482.91773	0.66361	1.97031E-4	1829.24309	28256.701	74.5052	11487.713
1235.0	0.83241	0.16759	7.61574	7.59767	-4.58127	22.85903	29.83821	1.23833	0.80754	54.55838	138.3739	19.68985	0.38544	11.32249	42785.06838	0.65011	1.72044E-4	1829.64674	27901.228	71.0946	11654.624
1230.0	0.84483	0.15517	7.62201	7.59128	-4.66152	22.70192	29.81691	1.23511	0.80964	58.21101	138.78951	21.03754	0.3835	11.52156	48564.87957	0.63676	1.51066E-4	1830.05545	27560.924	68.0608	11806.746
1225.0	0.85629	0.14371	7.62799	7.58518	-4.73809	22.55511	29.79128	1.23206	0.81165	61.76499	139.19672	22.35117	0.38169	11.72628	54859.80914	0.62356	1.33287E-4	1830.46763	27234.163	65.3522	11945.703
1220.0	0.86687	0.13313	7.63371	7.57934	-4.81152	22.41701	29.76183	1.22916	0.81356	65.22161	139.59619	23.63099	0.38	11.93692	61715.71076	0.61052	1.18085E-4	1830.88169	26919.533	62.926	12072.905
1215.0	0.87669	0.12331	7.63918	7.57374	-4.88178	22.28782	29.72873	1.22641	0.81539	68.57401	139.98874	24.87418	0.37842	12.15375	69175.83421	0.59762	1.04998E-4	1831.29531	26615.806	60.7454	12189.578
1210.0	0.88579	0.11421	7.64444	7.56837	-4.94925	22.16648	29.69235	1.22379	0.81713	71.82037	140.37472	26.07986	0.37693	12.37697	77290.36845	0.58487	9.36583E-5	1831.70724	26321.908	58.7796	12296.794
1205.0	0.89425	0.10575	7.6495	7.56318	-5.01438	22.05157	29.65302	1.22128	0.81881	74.96683	140.75458	27.25012	0.37553	12.60688	86121.70696	0.57227	8.37708E-5	1832.11654	26036.899	57.0018	12395.489
1200.0	0.90212	0.0978751	7.65438	7.55818	-5.07726	21.94295	29.61103	1.21888	0.82043	78.01538	141.129	28.38548	0.37421	12.84378	95735.1442	0.55981	7.51039E-5	1832.52161	25759.954	55.389	12486.489
1195.0	0.90947	0.0905284	7.65909	7.55334	-5.13799	21.84036	29.56648	1.21657	0.82198	80.95992	141.49805	29.48353	0.37297	13.0879	106191.8386	0.5475	6.74786E-5	1832.92157	25490.344	53.922	12570.519
1190.0	0.91632	0.0836795	7.66365	7.54866	-5.19681	21.74308	29.51963	1.21435	0.82349	83.809	141.86231	30.54728	0.37179	13.33966	117576.1316	0.53534	6.07374E-5	1833.3156	25227.424	52.584	12648.222
1185.0	0.92272	0.0772759	7.66807	7.54411	-5.25392	21.65052	29.47067	1.21221	0.82494	86.56307	142.2218	31.57677	0.37068	13.59936	129969.9333	0.52332	5.47578E-5	1833.70346	24970.625	51.3598	12720.167
1180.0	0.92872	0.0712841	7.67236	7.5397	-5.30938	21.5626	29.41973	1.21015	0.82635	89.22396	142.57697	32.57255	0.36962	13.86738	143466.0265	0.51145	4.94365E-5	1834.0845	24719.438	50.2374	12786.859
1175.0	0.93433	0.0656726	7.67652	7.5354	-5.36333	21.47885	29.36698	1.20815	0.82771	91.79516	142.92804	33.5358	0.36861	14.14413	158168.255	0.49972	4.4687E-5	1834.45864	24473.412	49.2052	12848.748
1170.0	0.93959	0.0604136	7.68058	7.53121	-5.41597	21.39873	29.31255	1.20621	0.82904	94.27902	143.27491	34.46732	0.36766	14.42993	174187.3797	0.48813	4.04372E-5	1834.82658	24232.142	48.254	12906.235
1165.0	0.94452	0.0554795	7.68452	7.52712	-5.4673	21.32223	29.25657	1.20433	0.83033	96.678	143.61811	35.3679	0.36675	14.72517	191648.6949	0.47668	3.66256E-5	1835.18806	23995.268	47.3748	12959.682
1160.0	0.94915	0.0508487	7.68837	7.52313	-5.51741	21.24914	29.19913	1.20251	0.8316	98.99451	143.95772	36.23837	0.36588	15.03044	210687.6154	0.46538	3.32001E-5	1835.54371	23762.463	46.561	13009.41
1155.0	0.9535	0.0464996	7.69116	7.5189	-5.57053	21.16532	29.10259	1.20229	0.83175	101.305	144.33524	37.10815	0.365	15.3461	231455.193	0.45422	3.01157E-5	1838.21033	23495.00412	53.49178	13055.712
1150.0	0.95759	0.0424127	7.69904	7.51294	-5.64535	21.00779	28.81837	1.20989	0.82652	104.12917	144.89972	38.18257	0.36357	15.67269	258869.8548	0.44319	2.68322E-5	1840.88186	23077.38376	83.52407	13098.847
1145.0	0.96143	0.0385713	7.70652	7.50692	-5.72097	20.84613	28.54792	1.21707	0.82165	106.8578	145.45258	39.22201	0.36222	16.01061	289282.6079	0.43232	2.39269E-5	1843.55912	22670.20322	81.43611	13139.054
1140.0	0.96504	0.034959	7.71361	7.50087	-5.79696	20.68176	28.29018	1.22382	0.81711	109.49235	145.9944	40.22683	0.36094	16.36082	323010.2118	0.42157	2.1353E-5	1846.24181	22272.96623	79.4474	13176.548
1135.0	0.96844	0.0315613	7.72034	7.49481	-5.87313	20.5153	28.04428	1.23019	0.81289	112.03647	146.52598	41.19826	0.35972	16.72326	360409.962	0.41097	1.90695E-5	1848.93045	21885.20879	77.55149	13211.522
1130.0	0.97222	0.0277781	7.727	7.48847	-5.95265	20.33587	27.81364	1.23598	0.80907	114.7972	147.07797	42.25205	0.35848	17.06001	402787.9409	0.40143	1.70026E-5	1851.61674	21493.21937	78.39788	13257.438
1125.0	0.97602	0.0239814	7.73345	7.48204	-6.03351	20.15023	27.59424	1.24137	0.80556	117.58715	147.62885	43.31765	0.35727	17.40101	450214.4047	0.39216	1.51573E-5	1854.30684	21106.61935	77.32	13304.437
1120.0	0.97961	0.0203876	7.73959	7.47562	-6.11416	19.96359	27.38386	1.24643	0.80229	120.29544	148.16952	44.35314	0.35611	17.75766	502891.1611	0.38291	1.35211E-5	1857.00215	20729.41421	75.44103	13348.286
1115.0	0.98296	0.0170401	7.74543	7.46925	-6.19405	19.77785	27.18137	1.25121	0.79922	122.89662	148.6997	45.34876	0.35502	18.13194	561276.9674	0.37366	1.20711E-5	1859.70307	20361.45414	73.59201	13388.918
1110.0	0.98579	0.014214	7.75085	7.46319	-6.27017	19.60358	26.98233	1.2559	0.79624	125.24989	149.21935	46.25098	0.35402	18.54134	625311.7635	0.3641	1.07959E-5	1862.40725	20002.16724	71.85738	13426.703
1105.0	0.99019	0.00981291	7.75682	7.45633	-6.35631	19.3926	26.7958	1.26007	0.7936	128.07765	149.77155	47.33747	0.35281	18.96723	700904.3076	0.35463	9.59676E-6	1865.10858	19623.24939	75.78357	13489.744
1100.0	0.99539	0.00461431	7.76306	7.4489	-6.44969	19.15418	26.62205	1.2637	0.79133	131.32081	150.3349	48.58322	0.3515	19.4035	788052.8265	0.3454	8.50451E-6	1867.81079	19241.44283	76.36131	13561.112
1095.0	1.0	0.0	7.76895	7.44154	-6.54207	18.91702	26.45762	1.26692	0.78932	135.51206	150.87265	50.17843	0.3503	 	884161.5904	 	7.55247E-6	 	18879.85815	72.31694	13617.512
1090.0	1.0	0.0	7.77344	7.43724	-6.59606	18.81407	26.27619	1.27101	0.78678	136.32721	151.26864	50.4992	0.3498	 	978211.877	 	6.80139E-6	 	18557.97437	64.37676	 
1085.0	1.0	0.0	7.77786	7.43302	-6.64905	18.71368	26.10182	1.2748	0.78444	137.12011	151.65426	50.81134	0.34931	 	1083024.178	 	6.12063E-6	 	18267.65157	58.06456	 
1080.0	1.0	0.0	7.7822	7.42888	-6.70109	18.61576	25.93413	1.27832	0.78228	137.89184	152.03015	51.11525	0.34883	 	1199904.7	 	5.50409E-6	 	17981.96417	57.13748	 
1075.0	1.0	0.0	7.78646	7.42481	-6.75221	18.52022	25.77272	1.28158	0.78029	138.64346	152.39688	51.41133	0.34837	 	1330326.49	 	4.94614E-6	 	17700.7503	56.24278	 
1070.0	1.0	0.0	7.79066	7.42081	-6.80244	18.42696	25.61724	1.28457	0.77847	139.37597	152.755	51.69997	0.34793	 	1475951.915	 	4.4416E-6	 	17423.85154	55.37975	 
1065.0	1.0	0.0	7.79479	7.41688	-6.85183	18.33591	25.46734	1.28732	0.77681	140.09033	153.10502	51.98154	0.3475	 	1638658.336	 	3.98569E-6	 	17151.11256	54.5478	 
1060.0	1.0	0.0	7.79885	7.41301	-6.90039	18.24697	25.32268	1.28984	0.77529	140.78748	153.44742	52.25639	0.34708	 	1820567.484	 	3.57404E-6	 	16882.38157	53.7462	 
1055.0	1.0	0.0	7.80286	7.40921	-6.94817	18.16007	25.18296	1.29213	0.77392	141.46828	153.78265	52.52485	0.34668	 	2024079.106	 	3.20263E-6	 	16617.50953	52.97441	 
1050.0	1.0	0.0	7.8068	7.40546	-6.99518	18.07511	25.04788	1.29421	0.77267	142.1336	154.11113	52.78727	0.34629	 	2251909.533	 	2.86777E-6	 	16356.35025	52.23186	 
1045.0	1.0	0.0	7.81069	7.40178	-7.04148	17.99202	24.91716	1.29608	0.77156	142.78423	154.43327	53.04394	0.34591	 	2507135.691	 	2.5661E-6	 	16098.76162	51.51773	 
1040.0	1.0	0.0	7.81452	7.39815	-7.08707	17.91071	24.79052	1.29776	0.77056	143.42096	154.74943	53.29517	0.34553	 	2793246.03	 	2.29452E-6	 	15844.6039	50.83154	 
1035.0	1.0	0.0	7.8183	7.39457	-7.13199	17.83111	24.66771	1.29926	0.76967	144.04453	155.05997	53.54125	0.34517	 	3114198.494	 	2.05021E-6	 	15593.74167	50.17245	 
1030.0	1.0	0.0	7.82203	7.39105	-7.17626	17.75315	24.5485	1.30058	0.76889	144.65565	155.36523	53.78245	0.34482	 	3474487.652	 	1.83059E-6	 	15346.04253	49.53983	 
1025.0	1.0	0.0	7.82571	7.38757	-7.21992	17.67675	24.43267	1.30173	0.76821	145.25499	155.66553	54.01904	0.34448	 	3879221.499	 	1.6333E-6	 	15101.37835	48.93284	 
1020.0	1.0	0.0	7.82935	7.38414	-7.26298	17.60184	24.32	1.30272	0.76762	145.84319	155.96114	54.25125	0.34415	 	4334210.137	 	1.45622E-6	 	14859.62483	48.3507	 
1015.0	1.0	0.0	7.83294	7.38076	-7.30548	17.52834	24.21029	1.30356	0.76713	146.42086	156.25235	54.47934	0.34382	 	4846067.968	 	1.29737E-6	 	14620.66178	47.79261	 
1010.0	1.0	0.0	7.83648	7.37742	-7.34743	17.4562	24.10337	1.30426	0.76672	146.98858	156.53942	54.70352	0.3435	 	5422331.335	 	1.15499E-6	 	14384.37337	47.25768	 
1005.0	1.0	0.0	7.83999	7.37412	-7.38885	17.38534	23.99905	1.30483	0.76638	147.54689	156.82258	54.92401	0.34319	 	6071594.93	 	1.02746E-6	 	14150.64752	46.74517	 
1000.0	1.0	0.0	7.84345	7.37086	-7.42978	17.31571	23.89717	1.30527	0.76613	148.09632	157.10207	55.141	0.34289	 	6803668.452	 	9.1332E-7	 	13919.37697	46.25411	 
995.0	1.0	0.0	7.84688	7.36764	-7.47022	17.24723	23.79759	1.30558	0.76594	148.63734	157.3781	55.3547	0.34259	 	7629758.729	 	8.11235E-7	 	13690.45864	45.78367	 
990.0	1.0	0.0	7.85027	7.36446	-7.5102	17.17986	23.70016	1.30578	0.76583	149.17043	157.65085	55.56529	0.3423	 	8562679.912	 	7.19999E-7	 	13463.79403	45.33292	 
985.0	1.0	0.0	7.85363	7.36131	-7.54973	17.11353	23.60474	1.30587	0.76577	149.69601	157.92052	55.77292	0.34201	 	9617098.261	 	6.38521E-7	 	13239.28805	44.9012	 
980.0	1.0	0.0	7.85696	7.35819	-7.58884	17.0482	23.51123	1.30585	0.76578	150.21449	158.18727	55.97777	0.34173	 	1.080981382E7	 	5.65811E-7	 	13016.85068	44.48747	 
975.0	1.0	0.0	7.86025	7.35511	-7.62754	16.98381	23.41949	1.30574	0.76585	150.72625	158.45126	56.17997	0.34146	 	1.216008991E7	 	5.00976E-7	 	12796.39575	44.09099	 
970.0	1.0	0.0	7.86351	7.35206	-7.66585	16.92031	23.32943	1.30553	0.76597	151.23166	158.71264	56.37969	0.34119	 	1.369003461E7	 	4.43206E-7	 	12577.84113	43.71093	 
965.0	1.0	0.0	7.86674	7.34904	-7.70378	16.85766	23.24095	1.30523	0.76615	151.73104	158.97156	56.57703	0.34092	 	1.542504539E7	 	3.91772E-7	 	12361.10855	43.34652	 
960.0	1.0	0.0	7.86994	7.34605	-7.74134	16.7958	23.15394	1.30484	0.76638	152.22473	159.22812	56.77215	0.34066	 	1.739432638E7	 	3.46015E-7	 	12146.12359	42.99699	 
955.0	1.0	0.0	7.87312	7.34309	-7.77856	16.73471	23.06834	1.30437	0.76665	152.71302	159.48246	56.96514	0.34041	 	1.963149184E7	 	3.05341E-7	 	11932.81545	42.66163	 
950.0	1.0	0.0	7.87627	7.34015	-7.81544	16.67432	22.98405	1.30383	0.76697	153.19618	159.73468	57.15612	0.34016	 	2.217527053E7	 	2.69214E-7	 	11721.11686	42.33972	 
945.0	1.0	0.0	7.87939	7.33724	-7.852	16.61462	22.901	1.3032	0.76734	153.67448	159.98489	57.34519	0.33991	 	2.507032828E7	 	2.37152E-7	 	11510.96391	42.03059	 
940.0	1.0	0.0	7.88249	7.33435	-7.88824	16.55555	22.81912	1.30251	0.76775	154.14816	160.23317	57.53245	0.33966	 	2.836823031E7	 	2.08722E-7	 	11302.29593	41.7336	 
935.0	1.0	0.0	7.88557	7.33149	-7.92418	16.49709	22.73835	1.30175	0.7682	154.61746	160.47963	57.718	0.33942	 	3.212856814E7	 	1.83534E-7	 	11095.05531	41.44812	 
930.0	1.0	0.0	7.88862	7.32865	-7.95984	16.43919	22.65862	1.30093	0.76868	155.08258	160.72433	57.90191	0.33918	 	3.642028026E7	 	1.61236E-7	 	10889.1874	41.17358	 
925.0	1.0	0.0	7.89166	7.32584	-7.99521	16.38183	22.57988	1.30004	0.76921	155.54373	160.96736	58.08426	0.33895	 	4.132320185E7	 	1.41515E-7	 	10684.64033	40.90941	 
920.0	1.0	0.0	7.89467	7.32304	-8.03031	16.32498	22.50209	1.29909	0.76977	156.0011	161.20879	58.26514	0.33872	 	4.692988526E7	 	1.24089E-7	 	10481.36487	40.65509	 
915.0	1.0	0.0	7.89766	7.32027	-8.06515	16.2686	22.42518	1.29808	0.77037	156.45486	161.44868	58.4446	0.33849	 	5.334774191E7	 	1.08703E-7	 	10279.31433	40.41011	 
910.0	1.0	0.0	7.90063	7.31752	-8.09973	16.21268	22.34911	1.29702	0.771	156.90519	161.6871	58.62273	0.33826	 	6.070156185E7	 	9.5132E-8	 	10078.4444	40.17399	 
905.0	1.0	0.0	7.90359	7.31478	-8.13407	16.15717	22.27384	1.2959	0.77166	157.35224	161.92409	58.79957	0.33804	 	6.913648799E7	 	8.31725E-8	 	9878.71303	39.94627	 
900.0	1.0	0.0	7.90652	7.31207	-8.16817	16.10207	22.19933	1.29473	0.77236	157.79615	162.15972	58.97518	0.33782	 	7.882152087E7	 	7.26433E-8	 	9680.08031	39.72654	 
895.0	1.0	0.0	7.90944	7.30937	-8.20203	16.04733	22.12555	1.29351	0.77309	158.23706	162.39404	59.14963	0.3376	 	8.99536646E7	 	6.33821E-8	 	9482.50834	39.5144	 
890.0	1.0	0.0	7.91234	7.30669	-8.23568	15.99295	22.05246	1.29225	0.77385	158.6751	162.62709	59.32296	0.33738	 	1.027628282E8	 	5.52442E-8	 	9285.96115	39.30944	 
885.0	1.0	0.0	7.91522	7.30403	-8.2691	15.93889	21.98001	1.29093	0.77463	159.11039	162.85891	59.49522	0.33717	 	1.175176332E8	 	4.81004E-8	 	9090.40456	39.11132	 
880.0	1.0	0.0	7.91809	7.30138	-8.30231	15.88514	21.90783	1.28959	0.77544	159.54305	163.08955	59.66646	0.33696	 	1.345322908E8	 	4.18356E-8	 	8895.80624	38.91966	 
875.0	1.0	0.0	7.92094	7.29876	-8.33532	15.83167	21.83659	1.28819	0.77628	159.97318	163.31904	59.83671	0.33675	 	1.541748051E8	 	3.63473E-8	 	8702.13455	38.73434	 
870.0	1.0	0.0	7.92377	7.29614	-8.36812	15.77847	21.76593	1.28674	0.77716	160.40088	163.54742	60.00602	0.33654	 	1.768766532E8	 	3.15442E-8	 	8509.36094	38.55472	 
865.0	1.0	0.0	7.9266	7.29355	-8.40073	15.72553	21.69582	1.28526	0.77806	160.82625	163.77472	60.17443	0.33633	 	2.0314438E8	 	2.73452E-8	 	8317.45755	38.38068	 
860.0	1.0	0.0	7.9294	7.29097	-8.43315	15.67281	21.62622	1.28373	0.77898	161.24937	164.00098	60.34196	0.33613	 	2.335733791E8	 	2.36783E-8	 	8126.39789	38.21193	 
855.0	1.0	0.0	7.93219	7.2884	-8.46538	15.62031	21.55713	1.28216	0.77993	161.67034	164.22622	60.50866	0.33593	 	2.688643495E8	 	2.04795E-8	 	7936.15669	38.04824	 
850.0	1.0	0.0	7.93497	7.28585	-8.49743	15.56801	21.48851	1.28055	0.78091	162.08922	164.45047	60.67456	0.33573	 	3.098429555E8	 	1.76922E-8	 	7746.70996	37.88935	 
845.0	1.0	0.0	7.93721	7.28379	-8.52329	15.54365	21.42423	1.27868	0.78206	162.44605	164.67004	60.8146	0.33558	 	3.52708941E8	 	1.54728E-8	 	7587.60875	31.82024	 
840.0	1.0	0.0	7.93945	7.28174	-8.54908	15.51928	21.35994	1.27679	0.78321	162.80229	164.88867	60.95445	0.33544	 	4.01972976E8	 	1.35159E-8	 	7425.48807	32.42414	 
835.0	1.0	0.0	7.94169	7.27969	-8.57481	15.49491	21.29564	1.27489	0.78438	163.15794	165.10636	61.0941	0.3353	 	4.586586986E8	 	1.17922E-8	 	7263.59653	32.37831	 
830.0	1.0	0.0	7.94392	7.27764	-8.60047	15.47054	21.23134	1.27298	0.78556	163.513	165.32312	61.23357	0.33516	 	5.239643848E8	 	1.02759E-8	 	7101.93339	32.33263	 
825.0	1.0	0.0	7.94614	7.27561	-8.62607	15.44616	21.16703	1.27107	0.78674	163.86747	165.53895	61.37284	0.33502	 	5.992945823E8	 	8.94351E-9	 	6940.49795	32.28709	 
820.0	1.0	0.0	7.94836	7.27357	-8.65161	15.42178	21.10271	1.26913	0.78794	164.22136	165.75385	61.51192	0.33487	 	6.862978042E8	 	7.77417E-9	 	6779.28947	32.2417	 
815.0	1.0	0.0	7.95058	7.27154	-8.67708	15.3974	21.03838	1.26719	0.78915	164.57465	165.96783	61.65081	0.33473	 	7.869115104E8	 	6.74916E-9	 	6618.30719	32.19646	 
810.0	1.0	0.0	7.95279	7.26952	-8.70249	15.373	20.97404	1.26524	0.79036	164.92736	166.18089	61.7895	0.33459	 	9.034158579E8	 	5.85177E-9	 	6457.55032	32.15137	 
805.0	1.0	0.0	7.955	7.2675	-8.72784	15.34861	20.9097	1.26327	0.79159	165.27948	166.39303	61.928	0.33445	 	1.038498027E9	 	5.06711E-9	 	6297.01804	32.10646	 
800.0	1.0	0.0	7.95721	7.26549	-8.75312	15.32421	20.84534	1.2613	0.79283	165.63102	166.60425	62.06631	0.33431	 	1.195329315E9	 	4.38187E-9	 	6136.70954	32.0617	 
795.0	1.0	0.0	7.95941	7.26348	-8.77834	15.29981	20.78098	1.25931	0.79409	165.98196	166.81455	62.20443	0.33417	 	1.377657665E9	 	3.78423E-9	 	5976.62396	32.01712	 
790.0	1.0	0.0	7.9616	7.26148	-8.8035	15.2754	20.71661	1.25731	0.79535	166.33232	167.02395	62.34235	0.33402	 	1.589918895E9	 	3.26367E-9	 	5816.76041	31.97271	 
785.0	1.0	0.0	7.96379	7.25948	-8.82859	15.25098	20.65223	1.2553	0.79662	166.68209	167.23244	62.48008	0.33388	 	1.837370609E9	 	2.81085E-9	 	5657.11796	31.92849	 
780.0	1.0	0.0	7.96598	7.25749	-8.85362	15.22657	20.58783	1.25327	0.79791	167.03128	167.44002	62.61762	0.33374	 	2.126253652E9	 	2.41747E-9	 	5497.69569	31.88446	 
775.0	1.0	0.0	7.96816	7.2555	-8.87859	15.20214	20.52343	1.25124	0.79921	167.37988	167.64669	62.75497	0.3336	 	2.463987102E9	 	2.07621E-9	 	5338.49259	31.84062	 
770.0	1.0	0.0	7.97034	7.25352	-8.90349	15.17772	20.45902	1.24919	0.80052	167.72789	167.85247	62.89212	0.33346	 	2.859404116E9	 	1.78057E-9	 	5179.50765	31.79699	 
765.0	1.0	0.0	7.97252	7.25154	-8.92833	15.15329	20.3946	1.24713	0.80184	168.07532	168.05734	63.02909	0.33332	 	3.323037666E9	 	1.5248E-9	 	5020.73983	31.75356	 
760.0	1.0	0.0	7.97468	7.24957	-8.9531	15.12885	20.33017	1.24505	0.80318	168.42215	168.26133	63.16586	0.33317	 	3.867467277E9	 	1.30384E-9	 	4862.18802	31.71036	 
755.0	1.0	0.0	7.97685	7.2476	-8.97781	15.10441	20.26573	1.24297	0.80453	168.76841	168.46441	63.30243	0.33303	 	4.507740479E9	 	1.11323E-9	 	4703.85107	31.66739	 
750.0	1.0	0.0	7.97901	7.24564	-9.00246	15.07997	20.20128	1.24087	0.80589	169.11407	168.66661	63.43882	0.33289	 	5.261885951E9	 	9.4904E-10	 	4545.72783	31.62465	 
745.0	1.0	0.0	7.98117	7.24368	-9.02704	15.05552	20.13682	1.23876	0.80726	169.45916	168.86792	63.57501	0.33275	 	6.151539338E9	 	8.0782E-10	 	4387.81701	31.58216	 
740.0	1.0	0.0	7.98332	7.24173	-9.05156	15.03107	20.07235	1.23664	0.80865	169.80365	169.06834	63.71101	0.33261	 	7.202707835E9	 	6.86538E-10	 	4230.11737	31.53993	 
735.0	1.0	0.0	7.98547	7.23978	-9.07601	15.00661	20.00786	1.2345	0.81005	170.14756	169.26788	63.84681	0.33247	 	8.446705904E9	 	5.82538E-10	 	4072.62753	31.49797	 
730.0	1.0	0.0	7.98761	7.23784	-9.10041	14.98215	19.94337	1.23235	0.81146	170.49088	169.46654	63.98242	0.33233	 	9.921302486E9	 	4.93496E-10	 	3915.34611	31.45628	 
725.0	1.0	0.0	7.98975	7.2359	-9.12473	14.95768	19.87886	1.23018	0.81289	170.83362	169.66433	64.11785	0.33218	 	1.1672099999999998E10	 	4.17381E-10	 	3758.27162	31.4149	 
720.0	1.0	0.0	7.99188	7.23397	-9.149	14.93321	19.81435	1.22801	0.81433	171.17578	169.86123	64.25307	0.33204	 	1.3754399999999998E10	 	3.52419E-10	 	3601.40255	31.37381	 
715.0	1.0	0.0	7.99401	7.23204	-9.1732	14.90873	19.74982	1.22582	0.81578	171.51735	170.05726	64.38811	0.3319	 	1.6235099999999998E10	 	2.97067E-10	 	3444.73725	31.33306	 
710.0	1.0	0.0	7.99613	7.23012	-9.19733	14.88425	19.68528	1.22361	0.81725	171.85833	170.25243	64.52295	0.33176	 	1.91956E10	 	2.4998E-10	 	3288.27406	31.29264	 
705.0	1.0	0.0	7.99825	7.2282	-9.2214	14.85977	19.62072	1.2214	0.81874	172.19873	170.44672	64.6576	0.33162	 	2.27348E10	 	2.09991E-10	 	3132.01119	31.25257	 
700.0	1.0	0.0	8.00037	7.22629	-9.24541	14.83528	19.55616	1.21916	0.82023	172.53854	170.64015	64.79206	0.33148	 	2.6973499999999996E10	 	1.76088E-10	 	2975.94681	31.21288	 
695.0	1.0	0.0	8.00248	7.22438	-9.26936	14.81079	19.49158	1.21692	0.82175	172.87777	170.83271	64.92632	0.33134	 	3.2058899999999996E10	 	1.47394E-10	 	2820.07892	31.17358	 
690.0	1.0	0.0	8.00459	7.22248	-9.29324	14.78629	19.42699	1.21466	0.82328	173.21642	171.02442	65.06039	0.3312	 	3.81715E10	 	1.23152E-10	 	2664.40549	31.13469	 
685.0	1.0	0.0	8.00669	7.22059	-9.31705	14.76179	19.36239	1.21239	0.82482	173.55448	171.21526	65.19427	0.33106	 	4.55324E10	 	1.02707E-10	 	2508.92435	31.09623	 
680.0	1.0	0.0	8.00879	7.21869	-9.34081	14.73728	19.29777	1.2101	0.82638	173.89195	171.40525	65.32795	0.33092	 	5.441339999999999E10	 	8.54953E-11	 	2353.6332	31.05823	 
675.0	1.0	0.0	8.01088	7.21681	-9.36449	14.71277	19.23314	1.20779	0.82796	174.22885	171.59438	65.46144	0.33077	 	6.514889999999999E10	 	7.10324E-11	 	2198.52966	31.02071	 
670.0	1.0	0.0	8.01297	7.21493	-9.38812	14.68825	19.1685	1.20548	0.82955	174.56515	171.78267	65.59474	0.33063	 	7.81515E10	 	5.8902E-11	 	2043.61116	30.9837	 
665.0	1.0	0.0	8.01505	7.21305	-9.41168	14.66373	19.10384	1.20314	0.83116	174.90088	171.9701	65.72785	0.33049	 	9.393129999999998E10	 	4.87471E-11	 	1888.87503	30.94723	 
660.0	1.0	0.0	8.01713	7.21118	-9.43517	14.63921	19.03917	1.2008	0.83278	175.23602	172.15669	65.86076	0.33035	 	1.1312E11	 	4.02623E-11	 	1734.32548	30.90991	 
655.0	1.0	0.0	8.01921	7.20932	-9.45861	14.61468	18.97448	1.19843	0.83442	175.57058	172.34243	65.99348	0.33021	 	1.36502E11	 	3.31869E-11	 	1580.00167	30.86476	 
650.0	1.0	0.0	8.02128	7.20745	-9.48197	14.59014	18.90978	1.19606	0.83608	175.90455	172.52733	66.12601	0.33007	 	1.65052E11	 	2.72985E-11	 	1425.95557	30.80922	 
645.0	1.0	0.0	8.02334	7.2056	-9.50528	14.56561	18.84507	1.19366	0.83776	176.23794	172.71139	66.25834	0.32993	 	1.99987E11	 	2.24078E-11	 	1272.18621	30.75387	 
640.0	1.0	0.0	8.02541	7.20375	-9.52852	14.54106	18.78034	1.19126	0.83945	176.57075	172.89461	66.39048	0.32979	 	2.42826E11	 	1.83541E-11	 	1118.69258	30.69873	 
635.0	1.0	0.0	8.02746	7.2019	-9.55169	14.51652	18.71559	1.18883	0.84116	176.90297	173.077	66.52243	0.32965	 	2.95472E11	 	1.50012E-11	 	965.4737	30.64378	 
630.0	1.0	0.0	8.02951	7.20006	-9.57481	14.49197	18.65083	1.18639	0.84289	177.23461	173.25856	66.65418	0.32951	 	3.60315E11	 	1.22339E-11	 	812.52857	30.58903	 
625.0	1.0	0.0	8.03156	7.19823	-9.59785	14.46741	18.58605	1.18393	0.84464	177.56567	173.43928	66.78574	0.32937	 	4.4036E11	 	9.95469E-12	 	659.85592	30.53453	 
620.0	1.0	0.0	8.0336	7.1964	-9.62084	14.44285	18.52126	1.18146	0.84641	177.89614	173.61918	66.91711	0.32923	 	5.39397E11	 	8.0817E-12	 	507.45405	30.48037	 
615.0	1.0	0.0	8.03564	7.19457	-9.64375	14.41828	18.45645	1.17897	0.8482	178.22603	173.79825	67.04828	0.32909	 	6.62218E11	 	6.54594E-12	 	355.32235	30.42634	 
610.0	1.0	0.0	8.03767	7.19275	-9.66661	14.39372	18.39162	1.17647	0.85	178.55534	173.97649	67.17926	0.32895	 	8.14896E11	 	5.28955E-12	 	203.45986	30.3725	 
605.0	1.0	0.0	8.0397	7.19094	-9.6894	14.36914	18.32678	1.17395	0.85183	178.88407	174.15392	67.31005	0.32881	 	1.00515E12	 	4.26408E-12	 	51.86562	30.31885	 
600.0	1.0	0.0	8.04173	7.18913	-9.71213	14.34456	18.26192	1.17141	0.85367	179.21221	174.33052	67.44064	0.32867	 	1.2428E12	 	3.42906E-12	 	-99.46136	30.2654	 
595.0	1.0	0.0	8.04374	7.18732	-9.73479	14.31998	18.19704	1.16885	0.85554	179.53978	174.50631	67.57104	0.32853	 	1.5404E12	 	2.75073E-12	 	-250.52201	30.21213	 
590.0	1.0	0.0	8.04576	7.18553	-9.75738	14.29539	18.13214	1.16628	0.85743	179.86675	174.68129	67.70125	0.32839	 	1.91402E12	 	2.20103E-12	 	-401.31729	30.15906	 
585.0	1.0	0.0	8.04777	7.18373	-9.77992	14.2708	18.06723	1.16369	0.85933	180.19315	174.85545	67.83126	0.32825	 	2.38429E12	 	1.75668E-12	 	-551.84818	30.10618	 
580.0	1.0	0.0	8.04977	7.18194	-9.80239	14.24621	18.00229	1.16108	0.86126	180.51897	175.0288	67.96108	0.32811	 	2.97775E12	 	1.39837E-12	 	-702.11559	30.05348	 
575.0	1.0	0.0	8.05177	7.18016	-9.82479	14.22161	17.93734	1.15846	0.86322	180.8442	175.20134	68.09071	0.32797	 	3.7287E12	 	1.1102E-12	 	-852.12051	30.00098	 
570.0	1.0	0.0	8.05377	7.17838	-9.84713	14.197	17.87237	1.15582	0.86519	181.16885	175.37307	68.22014	0.32783	 	4.68149E12	 	8.79038E-13	 	-1001.86386	29.94867	 
565.0	1.0	0.0	8.05576	7.17661	-9.86941	14.17239	17.80738	1.15316	0.86719	181.49292	175.544	68.34938	0.32769	 	5.89372E12	 	6.94095E-13	 	-1151.3466	29.89655	 
560.0	1.0	0.0	8.05774	7.17484	-9.89162	14.14778	17.74237	1.15048	0.86921	181.81641	175.71413	68.47842	0.32755	 	7.44039E12	 	5.4653E-13	 	-1300.56965	29.84461	 
555.0	1.0	0.0	8.05973	7.17307	-9.91376	14.12316	17.67734	1.14778	0.87125	182.13931	175.88346	68.60727	0.32741	 	9.41942E12	 	4.29113E-13	 	-1449.53396	29.79286	 
550.0	1.0	0.0	8.0617	7.17132	-9.93585	14.09854	17.61228	1.14506	0.87331	182.46164	176.05199	68.73593	0.32727	 	1.19591E13	 	3.35946E-13	 	-1598.24047	29.7413	 
545.0	1.0	0.0	8.06367	7.16956	-9.95786	14.07391	17.54721	1.14233	0.87541	182.78352	176.21987	68.86444	0.32713	 	1.52278E13	 	2.6223E-13	 	-1746.6901	29.68993	 
540.0	1.0	0.0	8.06564	7.16781	-9.97982	14.04928	17.48211	1.13957	0.87752	183.10468	176.38681	68.99271	0.32699	 	1.94476E13	 	2.04075E-13	 	-1894.88378	29.63874	 
535.0	1.0	0.0	8.0676	7.16607	-10.00171	14.02464	17.417	1.1368	0.87966	183.42525	176.55296	69.12078	0.32685	 	2.49122E13	 	1.58331E-13	 	-2042.82244	29.58773	 
530.0	1.0	0.0	8.06956	7.16433	-10.02353	14.0	17.35186	1.13401	0.88183	183.74525	176.71831	69.24866	0.32671	 	3.20107E13	 	1.22458E-13	 	-2190.50699	29.53691	 
525.0	1.0	0.0	8.07151	7.1626	-10.04529	13.97536	17.28669	1.1312	0.88402	184.06466	176.88289	69.37635	0.32657	 	4.12614E13	 	9.44121E-14	 	-2337.93836	29.48627	 
520.0	1.0	0.0	8.07346	7.16087	-10.06699	13.95071	17.22151	1.12837	0.88624	184.38349	177.04667	69.50384	0.32643	 	5.33558E13	 	7.25538E-14	 	-2485.11745	29.43582	 
515.0	1.0	0.0	8.0754	7.15915	-10.08862	13.92605	17.1563	1.12552	0.88848	184.70174	177.20968	69.63114	0.32629	 	6.92207E13	 	5.55724E-14	 	-2632.04516	29.38554	 
510.0	1.0	0.0	8.07734	7.15743	-10.11018	13.90139	17.09106	1.12264	0.89075	185.01941	177.3719	69.75824	0.32615	 	9.0102E13	 	4.24226E-14	 	-2778.72243	29.33545	 
505.0	1.0	0.0	8.07927	7.15572	-10.13168	13.87673	17.02581	1.11975	0.89306	185.3365	177.53334	69.88515	0.32601	 	1.1768E14	 	3.22735E-14	 	-2925.15013	29.28554	 
500.0	1.0	0.0	8.0812	7.15401	-10.15312	13.85206	16.96052	1.11684	0.89538	185.65301	177.69401	70.01186	0.32587	 	1.54232E14	 	2.44668E-14	 	-3071.32917	29.23581	 
495.0	1.0	0.0	8.08312	7.15231	-10.17449	13.82739	16.89521	1.11391	0.89774	185.96893	177.8539	70.13838	0.32573	 	2.02849E14	 	1.84825E-14	 	-3217.26043	29.18625	 
490.0	1.0	0.0	8.08504	7.15062	-10.1958	13.80271	16.82988	1.11095	0.90013	186.28428	178.01302	70.26471	0.32559	 	2.6774999999999997E14	 	1.39113E-14	 	-3362.94482	29.13688	 
485.0	1.0	0.0	8.08695	7.14892	-10.21704	13.77803	16.76452	1.10798	0.90255	186.59904	178.17137	70.39084	0.32545	 	3.54714E14	 	1.04319E-14	 	-3508.3832	29.08768	 
480.0	1.0	0.0	8.08886	7.14724	-10.23822	13.75335	16.69913	1.10498	0.905	186.91323	178.32895	70.51677	0.32531	 	4.71681E14	 	7.79327E-15	 	-3653.57646	29.03865	 
475.0	1.0	0.0	8.09076	7.14556	-10.25933	13.72866	16.63371	1.10196	0.90747	187.22683	178.48576	70.64251	0.32517	 	6.29612E14	 	5.79966E-15	 	-3798.52547	28.9898	 
470.0	1.0	0.0	8.09266	7.14388	-10.28038	13.70396	16.56827	1.09892	0.90999	187.53986	178.64181	70.76806	0.32503	 	8.43694E14	 	4.29911E-15	 	-3943.2311	28.94112	 
465.0	1.0	0.0	8.09455	7.14221	-10.30137	13.67927	16.5028	1.09586	0.91253	187.8523	178.7971	70.89341	0.32489	 	1.13506E15	 	3.17404E-15	 	-4087.69421	28.89262	 
460.0	1.0	0.0	8.09644	7.14055	-10.32229	13.65456	16.43729	1.09277	0.91511	188.16417	178.95163	71.01857	0.32475	 	1.53324E15	 	2.33383E-15	 	-4231.91565	28.84429	 
455.0	1.0	0.0	8.09832	7.13888	-10.34314	13.62985	16.37176	1.08966	0.91772	188.47545	179.10539	71.14354	0.32461	 	2.07967E15	 	1.70888E-15	 	-4375.89629	28.79613	 
450.0	1.0	0.0	8.1002	7.13723	-10.36393	13.60514	16.3062	1.08653	0.92036	188.78615	179.2584	71.2683	0.32447	 	2.83277E15	 	1.24596E-15	 	-4519.63696	28.74813	 
445.0	1.0	0.0	8.10208	7.13558	-10.38465	13.58043	16.24061	1.08338	0.92304	189.09627	179.41066	71.39288	0.32434	 	3.87521E15	 	9.04496E-16	 	-4663.13852	28.70031	 
440.0	1.0	0.0	8.10394	7.13393	-10.40531	13.55571	16.17498	1.0802	0.92576	189.40582	179.56216	71.51726	0.3242	 	5.32461E15	 	6.53702E-16	 	-4806.40177	28.65265	 
435.0	1.0	0.0	8.10581	7.13229	-10.42591	13.53098	16.10932	1.077	0.92851	189.71478	179.71291	71.64144	0.32406	 	7.34902E15	 	4.70308E-16	 	-4949.42757	28.60516	 
430.0	1.0	0.0	8.10767	7.13066	-10.44644	13.50625	16.04363	1.07377	0.9313	190.02316	179.86292	71.76543	0.32392	 	1.01897E16	 	3.36801E-16	 	-5092.21671	28.55783	 
425.0	1.0	0.0	8.10952	7.12903	-10.4669	13.48152	15.97791	1.07052	0.93413	190.33097	180.01217	71.88922	0.32378	 	1.41947E16	 	2.40055E-16	 	-5234.76992	28.51064	 
420.0	1.0	0.0	8.11137	7.12741	-10.4873	13.45678	15.91215	1.06725	0.93699	190.63819	180.16068	72.01282	0.32364	 	1.98686E16	 	1.70274E-16	 	-5377.08817	28.46365	 
415.0	1.0	0.0	8.11321	7.12579	-10.50764	13.43203	15.84635	1.06395	0.9399	190.94483	180.30845	72.13623	0.3235	 	2.79467E16	 	1.20182E-16	 	-5519.17183	28.41673	 
410.0	1.0	0.0	8.11505	7.12417	-10.52791	13.40729	15.78052	1.06062	0.94284	191.2509	180.45548	72.25944	0.32336	 	3.9506E16	 	8.43995E-17	 	-5661.02111	28.36986	 
405.0	1.0	0.0	8.11688	7.12256	-10.54812	13.38253	15.71465	1.05727	0.94583	191.55638	180.60177	72.38245	0.32322	 	5.61322E16	 	5.89658E-17	 	-5802.63622	28.32302	 
400.0	1.0	0.0	8.11871	7.12096	-10.56826	13.35778	15.64875	1.0539	0.94886	191.86129	180.74732	72.50527	0.32309	 	8.01729E16	 	4.09799E-17	 	-5944.01733	28.27622	 
395.0	1.0	0.0	8.12053	7.11936	-10.58833	13.33302	15.5828	1.0505	0.95193	192.16561	180.89213	72.62789	0.32295	 	1.15123E17	 	2.8327E-17	 	-6085.16466	28.22947	 
390.0	1.0	0.0	8.12235	7.11777	-10.60834	13.30825	15.51682	1.04707	0.95505	192.46936	181.03621	72.75032	0.32281	 	1.66212E17	 	1.94731E-17	 	-6226.07835	28.18274	 
385.0	1.0	0.0	8.12416	7.11618	-10.62829	13.28348	15.4508	1.04361	0.95821	192.77253	181.17956	72.87255	0.32267	 	2.41317E17	 	1.33114E-17	 	-6366.75859	28.13605	 
380.0	1.0	0.0	8.12597	7.1146	-10.64817	13.25871	15.38473	1.04013	0.96142	193.07511	181.32218	72.99459	0.32253	 	3.52365E17	 	9.04705E-18	 	-6507.20553	28.08939	 
375.0	1.0	0.0	8.12777	7.11302	-10.66798	13.23393	15.31863	1.03663	0.96467	193.37712	181.46407	73.11643	0.32239	 	5.17528E17	 	6.11263E-18	 	-6647.41931	28.04276	 
370.0	1.0	0.0	8.12957	7.11145	-10.68773	13.20914	15.25248	1.03309	0.96797	193.67855	181.60523	73.23808	0.32225	 	7.64665E17	 	4.10514E-18	 	-6787.40008	27.99615	 
365.0	1.0	0.0	8.13136	7.10988	-10.70742	13.18435	15.18629	1.02953	0.97132	193.9794	181.74567	73.35953	0.32211	 	1.13675E18	 	2.73996E-18	 	-6927.14796	27.94958	 
360.0	1.0	0.0	8.13315	7.10832	-10.72704	13.15956	15.12005	1.02593	0.97472	194.27967	181.88539	73.48078	0.32198	 	1.7005E18	 	1.81725E-18	 	-7066.66306	27.90302	 
355.0	1.0	0.0	8.13493	7.10676	-10.74659	13.13477	15.05377	1.02231	0.97817	194.57936	182.02439	73.60184	0.32184	 	2.56021E18	 	1.1975E-18	 	-7205.94549	27.85649	 
350.0	1.0	0.0	8.13671	7.10521	-10.76608	13.10996	14.98743	1.01867	0.98168	194.87848	182.16266	73.7227	0.3217	 	3.87994E18	 	7.83888E-19	 	-7344.99533	27.80997	 
345.0	1.0	0.0	8.13848	7.10366	-10.78551	13.08516	14.92106	1.01499	0.98523	195.17701	182.30022	73.84337	0.32156	 	5.91964E18	 	5.09665E-19	 	-7483.81268	27.76347	 
340.0	1.0	0.0	8.14025	7.10212	-10.80487	13.06035	14.85463	1.01128	0.98885	195.47496	182.43707	73.96384	0.32142	 	9.09406E18	 	3.29075E-19	 	-7622.39758	27.71698	 
335.0	1.0	0.0	8.14201	7.10058	-10.82416	13.03553	14.78815	1.00754	0.99251	195.77234	182.5732	74.08412	0.32128	 	1.40698E19	 	2.10965E-19	 	-7760.7501	27.6705	 
330.0	1.0	0.0	8.14376	7.09905	-10.84339	13.01071	14.72162	1.00377	0.99624	196.06914	182.70862	74.2042	0.32115	 	2.19259E19	 	1.34262E-19	 	-7898.87027	27.62403	 
325.0	1.0	0.0	8.14551	7.09753	-10.86255	12.98589	14.65504	0.99998	1.00002	196.36536	182.84333	74.32408	0.32101	 	3.4423E19	 	8.48101E-20	 	-8036.75811	27.57757	 
320.0	1.0	0.0	8.14726	7.09601	-10.88165	12.96106	14.5884	0.99615	1.00387	196.661	182.97733	74.44377	0.32087	 	5.44558E19	 	5.31627E-20	 	-8174.41363	27.5311	 
315.0	1.0	0.0	8.149	7.09449	-10.90068	12.93623	14.52171	0.99229	1.00777	196.95606	183.11062	74.56326	0.32073	 	8.68211E19	 	3.30636E-20	 	-8311.83682	27.48464	 
310.0	1.0	0.0	8.15074	7.09298	-10.91965	12.91139	14.45496	0.98839	1.01174	197.25054	183.24321	74.68256	0.32059	 	1.3953399999999998E20	 	2.03979E-20	 	-8449.02767	27.43817	 
305.0	1.0	0.0	8.15246	7.09147	-10.93856	12.88655	14.38815	0.98447	1.01578	197.54444	183.3751	74.80165	0.32046	 	2.2609999999999997E20	 	1.24804E-20	 	-8585.98612	27.39169	 
300.0	1.0	0.0	8.15419	7.08998	-10.95739	12.86171	14.32128	0.98051	1.01988	197.83777	183.50629	74.92056	0.32032	 	3.69468E20	 	7.57144E-21	 	-8722.71212	27.3452	 
295.0	1.0	0.0	8.15591	7.08848	-10.97616	12.83686	14.25435	0.97652	1.02404	198.13052	183.63677	75.03926	0.32018	 	6.089859999999999E20	 	4.55347E-21	 	-8859.20558	27.29869	 
290.0	1.0	0.0	8.15762	7.08699	-10.99487	12.812	14.18736	0.9725	1.02828	198.42268	183.76656	75.15777	0.32004	 	1.01272E21	 	2.71406E-21	 	-8995.4664	27.25217	 
285.0	1.0	0.0	8.15933	7.08551	-11.01351	12.78714	14.12031	0.96844	1.03259	198.71427	183.89565	75.27609	0.3199	 	1.69955E21	 	1.60289E-21	 	-9131.49449	27.20562	 
280.0	1.0	0.0	8.16104	7.08403	-11.03209	12.76228	14.05318	0.96435	1.03697	199.00529	184.02405	75.3942	0.31977	 	2.87899E21	 	9.37756E-22	 	-9267.28968	27.15904	 
275.0	1.0	0.0	8.16273	7.08255	-11.0506	12.73741	13.98599	0.96022	1.04142	199.29572	184.15175	75.51212	0.31963	 	4.92405E21	 	5.4333E-22	 	-9402.8518	27.11242	 
270.0	1.0	0.0	8.16443	7.08108	-11.06904	12.71254	13.91873	0.95606	1.04596	199.58557	184.27877	75.62985	0.31949	 	8.50543E21	 	3.11681E-22	 	-9538.18068	27.06578	 
265.0	1.0	0.0	8.16611	7.07962	-11.08742	12.68766	13.8514	0.95187	1.05057	199.87485	184.40509	75.74738	0.31935	 	1.4841599999999998E22	 	1.76974E-22	 	-9673.2761	27.01908	 
260.0	1.0	0.0	8.1678	7.07816	-11.10573	12.66278	13.78399	0.94763	1.05526	200.16355	184.53073	75.86471	0.31921	 	2.61698E22	 	9.94341E-23	 	-9808.13783	26.97235	 
255.0	1.0	0.0	8.16947	7.07671	-11.12398	12.63789	13.71651	0.94336	1.06004	200.45167	184.65568	75.98184	0.31908	 	4.6642799999999994E22	 	5.52662E-23	 	-9942.7656	26.92555	 
250.0	1.0	0.0	8.17115	7.07526	-11.14217	12.613	13.64895	0.93906	1.0649	200.73921	184.77995	76.09878	0.31894	 	8.40554E22	 	3.03772E-23	 	-10077.15912	26.8787	 
245.0	1.0	0.0	8.17281	7.07382	-11.16028	12.58811	13.58131	0.93472	1.06984	201.02618	184.90354	76.21552	0.3188	 	1.53209E23	 	1.65066E-23	 	-10211.31807	26.83179	 
240.0	1.0	0.0	8.17447	7.07238	-11.17833	12.56321	13.51359	0.93034	1.07488	201.31256	185.02644	76.33206	0.31866	 	2.82541E23	 	8.8644E-24	 	-10345.24208	26.7848	 
235.0	1.0	0.0	8.17613	7.07095	-11.19632	12.5383	13.44579	0.92592	1.08001	201.59837	185.14866	76.4484	0.31853	 	5.27364E23	 	4.70292E-24	 	-10478.93079	26.73774	 
230.0	1.0	0.0	8.17778	7.06952	-11.21424	12.51339	13.3779	0.92146	1.08524	201.8836	185.27021	76.56455	0.31839	 	9.96613E23	 	2.4641E-24	 	-10612.38376	26.69059	 
225.0	1.0	0.0	8.17942	7.0681	-11.2321	12.48848	13.30991	0.91696	1.09056	202.16825	185.39108	76.6805	0.31825	 	1.90762E24	 	1.27455E-24	 	-10745.60053	26.64336	 
220.0	1.0	0.0	8.18106	7.06669	-11.24989	12.46356	13.24184	0.91242	1.09598	202.45233	185.51128	76.79626	0.31811	 	3.69976E24	 	6.50568E-25	 	-10878.58062	26.59602	 
215.0	1.0	0.0	8.1827	7.06527	-11.26761	12.43864	13.17367	0.90785	1.10151	202.73582	185.63081	76.91182	0.31798	 	7.273590000000001E24	 	3.2756E-25	 	-11011.32349	26.54857	 
210.0	1.0	0.0	8.18433	7.06387	-11.28527	12.41372	13.1054	0.90323	1.10714	203.01874	185.74966	77.02718	0.31784	 	1.45011E25	 	1.62618E-25	 	-11143.82858	26.50102	 
205.0	1.0	0.0	8.18595	7.06247	-11.30286	12.38878	13.03703	0.89857	1.11288	203.30108	185.86784	77.14234	0.3177	 	2.9330500000000004E25	 	7.95668E-26	 	-11276.09524	26.45333	 
200.0	1.0	0.0	8.18757	7.06107	-11.32039	12.36385	12.96856	0.89387	1.11873	203.58284	185.98536	77.2573	0.31756	 	6.0214800000000005E25	 	3.83515E-26	 	-11408.12282	26.40552	 
195.0	1.0	0.0	8.18918	7.05968	-11.33785	12.33891	12.89998	0.88912	1.1247	203.86403	186.10221	77.37207	0.31743	 	1.2553400000000001E26	 	1.82017E-26	 	-11539.91062	26.35756	 
190.0	1.0	0.0	8.19079	7.0583	-11.35524	12.31397	12.83129	0.88434	1.13079	204.14464	186.2184	77.48664	0.31729	 	2.6589200000000004E26	 	8.50163E-27	 	-11671.45786	26.30945	 
185.0	1.0	0.0	8.19239	7.05692	-11.37257	12.28902	12.76249	0.87951	1.137	204.42467	186.33392	77.60101	0.31715	 	5.7248800000000005E26	 	3.90596E-27	 	-11802.76372	26.26117	 
180.0	1.0	0.0	8.19398	7.05554	-11.38984	12.26406	12.69357	0.87463	1.14334	204.70412	186.44878	77.71519	0.31701	 	1.25365E27	 	1.76422E-27	 	-11933.82733	26.21272	 
175.0	1.0	0.0	8.19558	7.05417	-11.40703	12.23911	12.62453	0.86971	1.14981	204.98299	186.56298	77.82917	0.31688	 	2.79372E27	 	7.82939E-28	 	-12064.64775	26.16408	 
170.0	1.0	0.0	8.19716	7.05281	-11.42417	12.21414	12.55536	0.86474	1.15641	205.26129	186.67653	77.94294	0.31674	 	6.3393E27	 	3.4119E-28	 	-12195.22398	26.11525	 
165.0	1.0	0.0	8.19874	7.05145	-11.44123	12.18918	12.48606	0.85973	1.16315	205.53901	186.78941	78.05653	0.3166	 	1.4656200000000001E28	 	1.45911E-28	 	-12325.55495	26.0662	 
160.0	1.0	0.0	8.20031	7.0501	-11.45823	12.16421	12.41663	0.85467	1.17004	205.81615	186.90165	78.16991	0.31647	 	3.45467E28	 	6.11954E-29	 	-12455.63954	26.01692	 
155.0	1.0	0.0	8.20188	7.04875	-11.47517	12.13923	12.34705	0.84957	1.17707	206.09271	187.01322	78.28309	0.31633	 	8.30783E28	 	2.51533E-29	 	-12585.47651	25.96739	 
150.0	1.0	0.0	8.20345	7.0474	-11.49204	12.11425	12.27734	0.84442	1.18425	206.3687	187.12415	78.39608	0.31619	 	2.03974E29	 	1.01253E-29	 	-12715.06458	25.91761	 
145.0	1.0	0.0	8.205	7.04607	-11.50884	12.08927	12.20748	0.83921	1.19159	206.64411	187.23443	78.50887	0.31606	 	5.11672E29	 	3.98867E-30	 	-12844.40238	25.86756	 
140.0	1.0	0.0	8.20656	7.04473	-11.52558	12.06428	12.13746	0.83396	1.1991	206.91894	187.34405	78.62146	0.31592	 	1.31243E30	 	1.53645E-30	 	-12973.48843	25.81721	 
135.0	1.0	0.0	8.2081	7.04341	-11.54225	12.03929	12.06728	0.82866	1.20677	207.1932	187.45303	78.73385	0.31578	 	3.44494E30	 	5.78262E-31	 	-13102.32118	25.76655	 
130.0	1.0	0.0	8.20964	7.04208	-11.55885	12.01429	11.99694	0.82331	1.21461	207.46687	187.56137	78.84605	0.31565	 	9.26156E30	 	2.12456E-31	 	-13230.89896	25.71556	 
125.0	1.0	0.0	8.21118	7.04077	-11.57539	11.98929	11.92643	0.8179	1.22264	207.73997	187.66906	78.95805	0.31551	 	2.5525499999999997E31	 	7.61306E-32	 	-13359.22	25.66421	 
120.0	1.0	0.0	8.21271	7.03946	-11.59186	11.96428	11.85573	0.81245	1.23085	208.0125	187.77611	79.06984	0.31537	 	7.21877E31	 	2.65817E-32	 	-13487.28243	25.61249	 
115.0	1.0	0.0	8.21423	7.03815	-11.60827	11.93927	11.78486	0.80694	1.23925	208.28444	187.88251	79.18144	0.31524	 	2.09693E32	 	9.03447E-33	 	-13615.08423	25.56036	 
110.0	1.0	0.0	8.21575	7.03685	-11.62461	11.91425	11.71379	0.80138	1.24785	208.55581	187.98828	79.29284	0.3151	 	6.26313E32	 	2.98582E-33	 	-13742.62328	25.50781	 
105.0	1.0	0.0	8.21727	7.03555	-11.64089	11.88923	11.64252	0.79576	1.25666	208.8266	188.09341	79.40405	0.31496	 	1.9256000000000001E33	 	9.58483E-34	 	-13869.8973	25.4548	 
100.0	1.0	0.0	8.21877	7.03426	-11.6571	11.86421	11.57105	0.79009	1.26568	209.09681	188.1979	79.51505	0.31483	 	6.10116E33	 	2.98509E-34	 	-13996.90386	25.40131	 
95.0	1.0	0.0	8.22028	7.03298	-11.67324	11.83918	11.49935	0.78436	1.27492	209.36645	188.30176	79.62585	0.31469	 	1.9946400000000002E34	 	9.00841E-35	 	-14123.64041	25.34731	 
90.0	1.0	0.0	8.22177	7.0317	-11.68932	11.81415	11.42744	0.77858	1.28439	209.63551	188.40498	79.73646	0.31455	 	6.737220000000001E34	 	2.63083E-35	 	-14250.10421	25.29276	 
85.0	1.0	0.0	8.22326	7.03042	-11.70533	11.78911	11.35529	0.77274	1.2941	209.90399	188.50757	79.84687	0.31442	 	2.35428E35	 	7.42496E-36	 	-14376.29231	25.23762	 
80.0	1.0	0.0	8.22475	7.02915	-11.72127	11.76407	11.28289	0.76684	1.30405	210.1719	188.60953	79.95708	0.31428	 	8.52356E35	 	2.0222E-36	 	-14502.20161	25.18186	 
75.0	1.0	0.0	8.22623	7.02789	-11.73715	11.73902	11.21025	0.76088	1.31426	210.43923	188.71086	80.06709	0.31414	 	3.20209E36	 	5.30664E-37	 	-14627.8288	25.12544	 
70.0	1.0	0.0	8.2277	7.02663	-11.75296	11.71397	11.13733	0.75486	1.32474	210.70598	188.81157	80.1769	0.31401	 	1.25025E37	 	1.33959E-37	 	-14753.17033	25.06831	 
65.0	1.0	0.0	8.22917	7.02537	-11.76871	11.68891	11.06414	0.74879	1.3355	210.97215	188.91164	80.28651	0.31387	 	5.08225E37	 	3.24743E-38	 	-14878.22242	25.01042	 
60.0	1.0	0.0	8.23063	7.02413	-11.78439	11.66385	10.99066	0.74265	1.34654	211.23775	189.01109	80.39592	0.31373	 	2.1547399999999997E38	 	7.54624E-39	 	-15002.98106	24.95173	 
55.0	1.0	0.0	8.23209	7.02288	-11.8	11.63879	10.91688	0.73644	1.35788	211.50277	189.10992	80.50513	0.3136	 	9.5467E38	 	1.67767E-39	 	-15127.44193	24.89217	 
50.0	1.0	0.0	8.23354	7.02164	-11.81555	11.61372	10.84278	0.73018	1.36953	211.76721	189.20813	80.61415	0.31346	 	4.4291E39	 	3.56103E-40	 	-15251.60042	24.8317	 
45.0	1.0	0.0	8.23499	7.02041	-11.83103	11.58865	10.76834	0.72385	1.3815	212.03108	189.30572	80.72296	0.31333	 	2.15638E40	 	7.201E-41	 	-15375.45162	24.77024	 
40.0	1.0	0.0	8.23643	7.01918	-11.84645	11.56357	10.69356	0.71746	1.39381	212.29437	189.40268	80.83158	0.31319	 	1.1043E41	 	1.38405E-41	 	-15498.99027	24.70773	 
35.0	1.0	0.0	8.23786	7.01796	-11.8618	11.53849	10.61842	0.711	1.40647	212.55708	189.49903	80.93999	0.31305	 	5.9630600000000005E41	 	2.5222E-42	 	-15622.21073	24.64409	 
30.0	1.0	0.0	8.23929	7.01675	-11.87708	11.5134	10.54289	0.70447	1.4195	212.81922	189.59477	81.04821	0.31292	 	3.4041599999999995E42	 	4.34645E-43	 	-15745.10696	24.57925	 
25.0	1.0	0.0	8.24071	7.01553	-11.89229	 	10.46695	0.69788	1.43291	213.08078	189.68988	81.15623	0.31278	 	2.06028E43	 	7.06311E-44	 	-15867.6725	 	 
