T (C)	Fraction solid (wt)-TOTAL	Fraction liquid (wt)-LIQUID	Density (g/(cm)^3)-TOTAL	Molar volume (cm^3)-TOTAL	Volume change (%)-  	Average expansion coeff. (10e-6 1/K)-  	Thermal conductivity (W/(m*K))-TOTAL	Electrical resistivity (10e-6 Ohm*m)-TOTAL	Electrical conductivity (10e6 1/(Ohm*m))-TOTAL	Young's modulus (GPa)-TOTAL	Bulk modulus (GPa)-TOTAL	Shear modulus(GPa)-TOTAL	Poisson's ratio-TOTAL	Liquid viscosity (mPa s)-  	Total viscosity (mPa s)-  	Liquid diffusivity (10e-9 (m^2)/s)-  	Total diffusivity (10e-9 (m^2)/s)-  	Surface Tension (mN/m)-  	Enthalpy (J/mole)-TOTAL	Specific heat (J/(mole K))-TOTAL	Latent heat (J/mole)-TOTAL
1400.0	0.0	1.0	7.94773	7.88105	0.0	27.20396	28.0498	1.46141	0.68427	0.0	128.57177	0.0	0.5	9.38059	9.38059	0.87055	0.87055	1902.39571	59223.196	 	0.0
1395.0	0.0	1.0	7.95185	7.87696	-0.0517839	27.16311	27.98631	1.46035	0.68477	0.0	128.74211	0.0	0.5	9.48598	9.48598	0.8583	0.8583	1906.52804	59018.34	40.9712	0.0
1390.0	0.0	1.0	7.95596	7.8729	-0.10342	27.12236	27.92282	1.45928	0.68527	0.0	128.91246	0.0	0.5	9.59321	9.59321	0.84616	0.84616	1910.68164	58813.953	40.8774	0.0
1385.0	0.0	1.0	7.96006	7.86884	-0.15491	27.08172	27.85933	1.45821	0.68577	0.0	129.08281	0.0	0.5	9.7023	9.7023	0.83413	0.83413	1914.85624	58610.03	40.7846	0.0
1380.0	0.0	1.0	7.96416	7.86479	-0.20625	27.04118	27.79584	1.45713	0.68628	0.0	129.25316	0.0	0.5	9.81331	9.81331	0.82221	0.82221	1919.05158	58406.571	40.6918	0.0
1375.0	0.0	1.0	7.96824	7.86076	-0.25744	27.00074	27.73235	1.45605	0.68679	0.0	129.42351	0.0	0.5	9.92628	9.92628	0.8104	0.8104	1923.26739	58203.572	40.5998	0.0
1370.0	0.0	1.0	7.97232	7.85673	-0.30849	26.96041	27.66886	1.45496	0.6873	0.0	129.59386	0.0	0.5	10.04124	10.04124	0.79869	0.79869	1927.50341	58001.032	40.508	0.0
1365.0	0.0	1.0	7.9764	7.85272	-0.35939	26.92018	27.60536	1.45387	0.68782	0.0	129.7642	0.0	0.5	10.15825	10.15825	0.78709	0.78709	1931.75937	57798.947	40.417	0.0
1360.0	0.0	1.0	7.98046	7.84872	-0.41014	26.88007	27.54187	1.45278	0.68834	0.0	129.93455	0.0	0.5	10.27735	10.27735	0.77559	0.77559	1936.03499	57597.317	40.326	0.0
1355.0	0.0	1.0	7.98452	7.84473	-0.46075	26.84006	27.47838	1.45167	0.68886	0.0	130.1049	0.0	0.5	10.39859	10.39859	0.7642	0.7642	1940.33002	57396.138	40.2358	0.0
1350.0	0.0	1.0	7.98857	7.84076	-0.5112	26.80017	27.41489	1.45057	0.68938	0.0	130.27525	0.0	0.5	10.52202	10.52202	0.75292	0.75292	1944.64416	57195.409	40.1458	0.0
1345.0	0.0	1.0	7.99261	7.83679	-0.56151	26.76038	27.3514	1.44946	0.68991	0.0	130.4456	0.0	0.5	10.64769	10.64769	0.74174	0.74174	1948.97717	56995.128	40.0562	0.0
1340.0	0.0	1.0	7.99664	7.83284	-0.61167	26.72071	27.28791	1.44834	0.69045	0.0	130.61595	0.0	0.5	10.77566	10.77566	0.73066	0.73066	1953.32875	56795.291	39.9674	0.0
1335.0	0.0	1.0	8.00067	7.8289	-0.66169	26.68116	27.22442	1.44722	0.69098	0.0	130.7863	0.0	0.5	10.90598	10.90598	0.7197	0.7197	1957.69866	56595.898	39.8786	0.0
1330.0	0.0	1.0	8.00469	7.82497	-0.71155	26.64172	27.16092	1.44609	0.69152	0.0	130.95664	0.0	0.5	11.03869	11.03869	0.70883	0.70883	1962.0866	56396.946	39.7904	0.0
1325.0	0.0	1.0	8.0087	7.82105	-0.76127	26.60239	27.09743	1.44496	0.69206	0.0	131.12699	0.0	0.5	11.17387	11.17387	0.69807	0.69807	1966.49233	56198.433	39.7026	0.0
1320.0	0.0	1.0	8.0127	7.81714	-0.81085	26.56319	27.03394	1.44382	0.69261	0.0	131.29734	0.0	0.5	11.31157	11.31157	0.68742	0.68742	1970.91557	56000.356	39.6154	0.0
1319.41	0.0	1.0	8.01317	7.81668	-0.81667	26.55856	27.02649	1.44369	0.69267	0.0	131.31733	0.0	0.5	11.32791	11.32791	0.68617	0.68617	1971.43595	55977.137	39.56008	0.0
1315.0	0.0794707	0.92053	8.03173	7.79862	-1.04584	25.99079	27.25953	1.42738	0.70058	0.00466536	131.77186	0.00156765	0.48801	11.48112	16.05404	0.67514	0.48283	1973.86587	54558.578	321.44494	1244.137
1310.56	0.15011	0.84989	8.04855	7.78234	-1.25244	25.48477	27.46276	1.41285	0.70779	0.059927	132.18859	0.0202828	0.47728	11.63733	58.43876	0.66422	0.13227	1976.29309	53282.28	 	2345.244
1310.0	0.161	0.839	8.05113	7.77979	-1.28475	25.40262	27.49367	1.41077	0.70883	0.0773095	132.26624	0.0261945	0.47568	11.64106	72.60197	0.66377	0.10643	1975.96098	53085.369	294.6418	2520.138
1305.0	0.25216	0.74784	8.07307	7.75871	-1.55228	24.72699	27.75184	1.39323	0.71776	0.41891	132.85976	0.14325	0.46219	11.67698	367.35681	0.65964	0.0209675	1973.11118	51429.185	331.2368	3979.544
1302.13	0.2974	0.7026	8.08425	7.74794	-1.68893	24.38588	27.87712	1.38445	0.72231	0.79901	133.14945	0.27449	0.45544	11.69925	711.69741	0.65718	0.0108031	1971.54789	50594.422	 	4701.526
1300.0	0.33273	0.66727	8.0933	7.7393	-1.79856	24.10783	27.98268	1.37736	0.72603	1.24618	133.413	0.42971	0.45002	11.72348	1128.03094	0.65494	0.00680669	1970.05689	49933.206	299.1958	5279.173
1295.0	0.40814	0.59186	8.113	7.72055	-2.03647	23.50822	28.20591	1.36211	0.73415	2.84404	133.90867	0.98866	0.43833	11.78464	2679.91629	0.64947	0.00285597	1966.65868	48508.936	284.854	6507.52
1290.0	0.47229	0.52771	8.1303	7.70422	-2.24365	22.99398	28.39078	1.34893	0.74133	5.19391	134.2965	1.81826	0.42826	11.85123	5104.52058	0.64376	0.00149463	1963.38301	47274.54	246.8792	7546.419
1285.0	0.52727	0.47273	8.14567	7.68977	-2.42701	22.5457	28.54311	1.33744	0.7477	8.23584	134.60539	2.90089	0.41954	11.92322	8465.92804	0.63783	8.983E-4	1960.23258	46194.592	215.9896	8431.291
1280.0	0.5747	0.4253	8.15943	7.67694	-2.58986	22.15444	28.6674	1.32737	0.75337	11.85747	134.85887	4.19905	0.41192	12.00039	12792.03539	0.63169	5.92598E-4	1957.20344	45241.308	190.6568	9189.921
1275.0	0.61588	0.38412	8.17184	7.66543	-2.73592	21.80987	28.76839	1.31845	0.75847	15.92761	135.07264	5.66722	0.40524	12.08261	18091.20452	0.62537	4.17669E-4	1954.29451	44392.697	169.7222	9844.296
1270.0	0.65183	0.34817	8.18313	7.65503	-2.86784	21.50461	28.84897	1.31052	0.76306	20.31562	135.25852	7.25897	0.39935	12.16977	24366.10854	0.61889	3.09107E-4	1951.5032	43631.201	152.2992	10411.974
1265.0	0.68338	0.31662	8.19349	7.64556	-2.98806	21.23189	28.91198	1.30343	0.76721	24.9076	135.42521	8.93311	0.39412	12.2619	31627.12116	0.61225	2.3737E-4	1948.82735	42942.694	137.7014	10907.077
1260.0	0.71122	0.28878	8.20302	7.63685	-3.09847	20.98641	28.95971	1.29705	0.77098	29.60438	135.57855	10.65322	0.38946	12.35889	39884.14256	0.60547	1.87617E-4	1946.26466	42315.725	125.3938	11341.056
1256.58	0.72823	0.27177	8.2091	7.63133	-3.16856	20.83363	28.98404	1.29307	0.77335	32.80587	135.68127	11.82975	0.38658	12.42776	46073.51492	0.60077	1.62051E-4	1944.57198	41920.087	 	11605.08
1256.58	0.72823	0.27177	8.2091	7.63133	-3.16856	20.83363	28.98404	1.29307	0.77335	32.80587	135.68127	11.82975	0.38658	12.42776	46073.51492	0.60077	1.62051E-4	1944.57197	41920.087	 	11605.08
1255.0	0.73706	0.26294	8.21246	7.62846	-3.20504	20.75051	28.99771	1.29113	0.77452	34.5846	135.74327	12.48478	0.38507	12.46467	49512.98545	0.59837	1.50638E-4	1945.81666	41713.15305	120.51439	11749.42
1250.0	0.76269	0.23731	8.21843	7.62019	-3.30989	20.51787	29.03287	1.28534	0.778	40.11704	135.7404	14.52841	0.38064	12.58322	61290.03288	0.5908	1.21294E-4	1949.7469	41100.60965	122.50868	12165.638
1245.0	0.7851	0.2149	8.22415	7.61261	-3.40615	20.30946	29.05423	1.28018	0.78114	45.51849	135.79097	16.53119	0.37675	12.701	74287.64083	0.5834	9.97436E-5	1953.67337	40543.50822	111.42029	12526.933
1240.0	0.80719	0.19281	8.23052	7.60477	-3.50563	20.08947	29.06676	1.27541	0.78406	51.49151	136.06807	18.75286	0.3729	12.79555	89690.03192	0.57718	8.23426E-5	1957.57518	39988.47707	111.00623	12886.675
1235.0	0.82607	0.17393	8.23648	7.59762	-3.59631	19.89465	29.06742	1.27117	0.78668	57.09332	136.34812	20.8433	0.36958	12.89356	106266.6847	0.5709	6.92682E-5	1961.47596	39488.00843	100.09373	13192.368
1230.0	0.84233	0.15767	8.24212	7.59105	-3.67967	19.72072	29.05855	1.26734	0.78905	62.32032	136.63163	22.79942	0.36671	12.99507	124081.1039	0.56456	5.91267E-5	1965.37396	39031.66257	91.26917	13454.45
1225.0	0.85888	0.14112	8.24834	7.58431	-3.76524	19.53852	29.04885	1.26355	0.79142	68.03816	136.9604	24.94451	0.36379	13.09771	144942.3001	0.55827	5.04483E-5	1969.25572	38572.96072	91.74037	13719.395
1220.0	0.87418	0.12582	8.25464	7.57776	-3.84829	19.36264	29.03362	1.25999	0.79365	73.71294	137.30859	27.07881	0.36108	13.20341	168135.4173	0.55196	4.33442E-5	1973.12942	38136.43111	87.30592	13962.672
1215.0	0.88688	0.11312	8.26042	7.57182	-3.92368	19.2091	29.0094	1.25682	0.79566	78.73991	137.6441	28.97395	0.35881	13.31274	192512.2645	0.54559	3.7729E-5	1977.00501	37743.10392	78.66544	14163.247
1210.0	0.89992	0.10008	8.26706	7.56562	-4.00232	19.04413	28.98595	1.25361	0.79769	84.09406	137.93129	30.99709	0.35648	13.39657	220499.0199	0.54035	3.28296E-5	1980.92007	37348.86739	78.84731	14365.229
1205.0	0.91393	0.0860749	8.27499	7.55899	-4.08648	18.86041	28.96559	1.25027	0.79983	90.09879	138.19443	33.2714	0.354	13.45416	253446.3541	0.53623	2.84655E-5	1984.86532	36942.84568	81.20434	14579.488
1200.0	0.92647	0.0735317	8.2829	7.55268	-4.16647	18.68827	28.93993	1.24714	0.80183	95.81166	138.46882	35.44007	0.35174	13.50933	289364.3091	0.53223	2.48478E-5	1988.80807	36560.28197	76.51274	14770.778
1195.0	0.93776	0.0622402	8.29079	7.54668	-4.24268	18.52664	28.90986	1.2442	0.80373	101.24308	138.75216	37.50615	0.34969	13.56293	328521.6559	0.52833	2.18119E-5	1992.74622	36197.91446	72.4735	14942.358
1190.0	0.94796	0.0520361	8.29868	7.54092	-4.31574	18.37365	28.87578	1.24143	0.80552	106.40897	139.04185	39.47498	0.3478	13.61565	371233.8623	0.52449	1.92366E-5	1996.68248	35853.21129	68.94063	15096.758
1185.0	0.95721	0.0427902	8.30657	7.53539	-4.38586	18.22876	28.83831	1.23879	0.80724	111.31763	139.33605	41.34904	0.34607	13.66873	417826.8179	0.52067	1.70331E-5	2000.61454	35524.21665	65.79893	15235.927
1180.0	0.9655	0.0345007	8.31433	7.53012	-4.4528	18.09281	28.80086	1.23615	0.80896	115.91858	139.62392	43.10855	0.3445	13.717	468458.0032	0.51706	1.514E-5	2004.53724	35209.73971	62.89539	15361.053
1175.0	0.97361	0.0263926	8.32239	7.52465	-4.52219	17.94777	28.76506	1.23343	0.81075	120.45863	139.92166	44.8492	0.34293	13.82656	525157.7581	0.51119	1.34589E-5	2008.44886	34895.00464	62.94701	15486.908
1170.0	0.9813	0.0187027	8.33043	7.51913	-4.59229	17.79916	28.72943	1.2307	0.81255	124.83628	140.2281	46.53135	0.34142	13.99603	587942.1797	0.50326	1.19802E-5	2012.35615	34588.41959	61.31701	15605.083
1165.0	0.98741	0.0125935	8.33758	7.51419	-4.65495	17.67346	28.68518	1.22832	0.81412	128.51203	140.53129	47.94537	0.34019	14.16137	653869.9512	0.49566	1.07349E-5	2016.26333	34306.37274	56.40937	15699.183
1160.0	0.99238	0.00762054	8.34408	7.50967	-4.71221	17.56427	28.6359	1.22616	0.81555	131.68198	140.83197	49.16572	0.33916	14.32269	723876.1667	0.48838	9.66305E-6	2020.16841	34039.74327	53.32589	15778.328
1155.0	0.99651	0.00348891	8.3501	7.50548	-4.76548	17.46722	28.58262	1.22416	0.81689	134.59902	141.13036	50.28785	0.33829	14.48009	798811.2522	0.48138	8.72602E-6	2024.07235	33791.87836	49.57298	15839.165
1150.0	1.0	0.0	8.35576	7.50152	-4.8157	17.37937	28.52631	1.22228	0.81814	137.874	141.42694	51.5409	0.33752	 	879499.4431	 	7.89772E-6	 	33554.87521	47.40063	15889.595
1145.0	1.0	0.0	8.3585	7.49906	-4.84695	17.35349	28.45383	1.22109	0.81894	138.23636	141.67945	51.68164	0.33738	 	954532.1696	 	7.25134E-6	 	33374.75123	36.0248	 
1140.0	1.0	0.0	8.36124	7.4966	-4.87813	17.32765	28.38132	1.21989	0.81974	138.59824	141.93126	51.82222	0.33725	 	1036554.445	 	6.654E-6	 	33208.74824	33.2006	 
1135.0	1.0	0.0	8.36398	7.49415	-4.90922	17.30185	28.30878	1.21869	0.82055	138.95965	142.18237	51.96264	0.33711	 	1126271.165	 	6.10229E-6	 	33043.10125	33.1294	 
1130.0	1.0	0.0	8.3667	7.4917	-4.94023	17.2761	28.2362	1.21749	0.82136	139.32056	142.43277	52.1029	0.33698	 	1224463.692	 	5.593E-6	 	32877.808	33.05865	 
1125.0	1.0	0.0	8.36943	7.48927	-4.97116	17.25039	28.1636	1.21627	0.82218	139.68099	142.68246	52.243	0.33684	 	1331998.622	 	5.12315E-6	 	32712.86628	32.98834	 
1120.0	1.0	0.0	8.37214	7.48684	-5.002	17.22473	28.09097	1.21506	0.82301	140.04092	142.93142	52.38293	0.3367	 	1449837.833	 	4.68992E-6	 	32548.27386	32.91848	 
1115.0	1.0	0.0	8.37486	7.48441	-5.03277	17.1991	28.0183	1.21384	0.82383	140.40034	143.17965	52.52269	0.33657	 	1579049.632	 	4.29069E-6	 	32384.02853	32.84907	 
1110.0	1.0	0.0	8.37756	7.48199	-5.06345	17.17351	27.94561	1.21261	0.82467	140.75926	143.42714	52.66228	0.33643	 	1720821.309	 	3.92302E-6	 	32220.12812	32.78008	 
1105.0	1.0	0.0	8.38027	7.47958	-5.09406	17.14796	27.8729	1.21138	0.8255	141.11766	143.67389	52.80169	0.3363	 	1876473.404	 	3.5846E-6	 	32056.56999	32.71163	 
1100.0	1.0	0.0	8.38296	7.47718	-5.12458	17.12245	27.80015	1.21014	0.82635	141.47555	143.91988	52.94094	0.33616	 	2047475.504	 	3.2733E-6	 	31893.3529	32.64342	 
1095.0	1.0	0.0	8.38565	7.47478	-5.15502	17.09698	27.72737	1.2089	0.8272	141.83291	144.16511	53.08001	0.33603	 	2235464.4	 	2.98712E-6	 	31730.47426	32.57573	 
1090.0	1.0	0.0	8.38834	7.47238	-5.18539	17.07155	27.65457	1.20765	0.82805	142.18975	144.40958	53.2189	0.3359	 	2442264.359	 	2.72419E-6	 	31567.93194	32.50846	 
1085.0	1.0	0.0	8.39102	7.47	-5.21567	17.04615	27.58175	1.2064	0.82891	142.54605	144.65328	53.35761	0.33576	 	2669909.863	 	2.48278E-6	 	31405.72385	32.44162	 
1080.0	1.0	0.0	8.39369	7.46762	-5.24588	17.0208	27.50889	1.20514	0.82978	142.90182	144.8962	53.49614	0.33563	 	2920671.905	 	2.26126E-6	 	31243.8479	32.37519	 
1075.0	1.0	0.0	8.39636	7.46524	-5.27601	16.99547	27.43601	1.20388	0.83065	143.25706	145.13834	53.6345	0.33549	 	3197086.824	 	2.05812E-6	 	31082.30203	32.30917	 
1070.0	1.0	0.0	8.39903	7.46287	-5.30605	16.97019	27.36311	1.20261	0.83152	143.61175	145.37969	53.77267	0.33536	 	3501989.818	 	1.87196E-6	 	30921.08421	32.24356	 
1065.0	1.0	0.0	8.40169	7.46051	-5.33603	16.94493	27.29018	1.20134	0.83241	143.9659	145.62025	53.91065	0.33523	 	3838552.408	 	1.70147E-6	 	30760.19242	32.17836	 
1060.0	1.0	0.0	8.40434	7.45816	-5.36592	16.91972	27.21723	1.20006	0.8333	144.3195	145.86002	54.04846	0.33509	 	4210324.804	 	1.54543E-6	 	30599.62465	32.11355	 
1055.0	1.0	0.0	8.40699	7.45581	-5.39573	16.89453	27.14425	1.19877	0.83419	144.67255	146.09899	54.18608	0.33496	 	4621284.517	 	1.40272E-6	 	30439.37893	32.04914	 
1050.0	1.0	0.0	8.40963	7.45346	-5.42547	16.86938	27.07125	1.19748	0.83509	145.02505	146.33715	54.32351	0.33483	 	5075891.175	 	1.27228E-6	 	30279.45332	31.98512	 
1045.0	1.0	0.0	8.41227	7.45112	-5.45513	16.84426	26.99823	1.19618	0.836	145.377	146.57451	54.46076	0.33469	 	5579148.444	 	1.15314E-6	 	30119.84588	31.92149	 
1040.0	1.0	0.0	8.4149	7.44879	-5.48472	16.81918	26.92518	1.19487	0.83691	145.72838	146.81105	54.59781	0.33456	 	6136675.621	 	1.0444E-6	 	29960.55471	31.85823	 
1035.0	1.0	0.0	8.41753	7.44647	-5.51423	16.79413	26.85212	1.19356	0.83783	146.07921	147.04678	54.73468	0.33443	 	6754787.516	 	9.45219E-7	 	29801.57792	31.79536	 
1030.0	1.0	0.0	8.42015	7.44415	-5.54366	16.7691	26.77903	1.19225	0.83875	146.42948	147.2817	54.87137	0.3343	 	7440586.998	 	8.54819E-7	 	29642.91366	31.73285	 
1025.0	1.0	0.0	8.42277	7.44183	-5.57302	16.74411	26.70591	1.19092	0.83969	146.77918	147.51579	55.00786	0.33417	 	8202069.804	 	7.72482E-7	 	29484.56009	31.67071	 
1020.0	1.0	0.0	8.42538	7.43953	-5.6023	16.71915	26.63278	1.18959	0.84062	147.12832	147.74906	55.14416	0.33403	 	9048243.438	 	6.97544E-7	 	29326.51541	31.60894	 
1015.0	1.0	0.0	8.42799	7.43722	-5.6315	16.69422	26.55963	1.18826	0.84157	147.47689	147.98151	55.28027	0.3339	 	9989265.076	 	6.2939E-7	 	29168.77783	31.54751	 
1010.0	1.0	0.0	8.43059	7.43493	-5.66063	16.66932	26.48646	1.18692	0.84252	147.8249	148.21312	55.41619	0.33377	 	1.103659675E7	 	5.67452E-7	 	29011.34559	31.48645	 
1005.0	1.0	0.0	8.43319	7.43264	-5.68969	16.64445	26.41326	1.18557	0.84348	148.17233	148.44391	55.55192	0.33364	 	1.220318454E7	 	5.11205E-7	 	28854.21695	31.42573	 
1000.0	1.0	0.0	8.43578	7.43036	-5.71867	16.61961	26.34005	1.18421	0.84444	148.5192	148.67387	55.68746	0.33351	 	1.350366303E7	 	4.60166E-7	 	28697.39021	31.36535	 
995.0	1.0	0.0	8.43837	7.42808	-5.74758	16.5948	26.26682	1.18285	0.84542	148.8655	148.90299	55.8228	0.33338	 	1.495459113E7	 	4.13888E-7	 	28540.86367	31.30531	 
990.0	1.0	0.0	8.44095	7.4258	-5.77641	16.57001	26.19357	1.18148	0.8464	149.21122	149.13128	55.95796	0.33324	 	1.657472016E7	 	3.71959E-7	 	28384.63569	31.2456	 
985.0	1.0	0.0	8.44353	7.42354	-5.80517	16.54526	26.1203	1.1801	0.84738	149.55637	149.35873	56.09292	0.33311	 	1.838530391E7	 	3.34001E-7	 	28228.70462	31.18621	 
980.0	1.0	0.0	8.4461	7.42128	-5.83385	16.52053	26.04701	1.17872	0.84838	149.90095	149.58535	56.22768	0.33298	 	2.041045499E7	 	2.99666E-7	 	28073.06883	31.12716	 
975.0	1.0	0.0	8.44867	7.41902	-5.86246	16.49583	25.9737	1.17733	0.84938	150.24495	149.81113	56.36226	0.33285	 	2.267755274E7	 	2.68632E-7	 	27917.72676	31.06841	 
970.0	1.0	0.0	8.45123	7.41677	-5.891	16.47115	25.90038	1.17594	0.85039	150.58838	150.03607	56.49664	0.33272	 	2.521771715E7	 	2.40605E-7	 	27762.67684	31.00998	 
965.0	1.0	0.0	8.45379	7.41453	-5.91946	16.4465	25.82704	1.17453	0.8514	150.93124	150.26017	56.63083	0.33259	 	2.80663496E7	 	2.15315E-7	 	27607.91753	30.95186	 
960.0	1.0	0.0	8.45634	7.41229	-5.94785	16.42188	25.75368	1.17312	0.85243	151.27352	150.48343	56.76482	0.33246	 	3.126376439E7	 	1.92514E-7	 	27453.44731	30.89404	 
955.0	1.0	0.0	8.45889	7.41006	-5.97617	16.39728	25.68031	1.1717	0.85346	151.61523	150.70585	56.89863	0.33233	 	3.485591017E7	 	1.71974E-7	 	27299.26469	30.83652	 
950.0	1.0	0.0	8.46143	7.40784	-6.00441	16.37271	25.60691	1.17028	0.8545	151.95636	150.92743	57.03223	0.3322	 	3.889521115E7	 	1.53487E-7	 	27145.36821	30.7793	 
945.0	1.0	0.0	8.46397	7.40562	-6.03258	16.34817	25.5335	1.16884	0.85555	152.29691	151.14816	57.16565	0.33207	 	4.344153927E7	 	1.36862E-7	 	26991.75641	30.72236	 
940.0	1.0	0.0	8.4665	7.4034	-6.06068	16.32365	25.46008	1.1674	0.8566	152.63689	151.36806	57.29887	0.33194	 	4.856333652E7	 	1.21925E-7	 	26838.42788	30.66571	 
935.0	1.0	0.0	8.46902	7.40119	-6.08871	16.29916	25.38664	1.16595	0.85767	152.9763	151.58712	57.4319	0.33181	 	5.433892251E7	 	1.08517E-7	 	26685.38122	30.60933	 
930.0	1.0	0.0	8.47155	7.39899	-6.11667	16.27469	25.31318	1.1645	0.85874	153.31513	151.80533	57.56474	0.33168	 	6.085801325E7	 	9.64914E-8	 	26532.61505	30.55323	 
925.0	1.0	0.0	8.47406	7.39679	-6.14455	16.25024	25.23971	1.16304	0.85982	153.65338	152.02271	57.69738	0.33155	 	6.822348229E7	 	8.57164E-8	 	26380.12802	30.49741	 
920.0	1.0	0.0	8.47657	7.3946	-6.17236	16.22582	25.16622	1.16156	0.86091	153.99106	152.23925	57.82983	0.33142	 	7.655341426E7	 	7.60707E-8	 	26227.91879	30.44185	 
915.0	1.0	0.0	8.47908	7.39241	-6.2001	16.20143	25.09272	1.16008	0.86201	154.32817	152.45494	57.96209	0.33129	 	8.598349627E7	 	6.74439E-8	 	26075.98606	30.38655	 
911.93	1.0	0.0	8.48062	7.39107	-6.21712	16.18644	25.04752	1.15917	0.86269	154.53544	152.58743	58.04342	0.33121	 	9.239417089E7	 	6.2602E-8	 	25982.70972	 	 
910.0	1.0	0.0	8.4817	7.39013	-6.22911	16.17144	25.02102	1.15851	0.86318	154.68687	152.69279	58.10243	0.33116	 	9.66516622E7	 	5.97471E-8	 	25915.0051	32.19619	 
905.0	1.0	0.0	8.48451	7.38768	-6.26015	16.13256	24.95218	1.1568	0.86445	155.07915	152.96524	58.25532	0.33103	 	1.087186254E8	 	5.28912E-8	 	25739.59808	35.08141	 
900.0	1.0	0.0	8.48731	7.38524	-6.29106	16.09378	24.88329	1.15508	0.86574	155.47017	153.23613	58.40775	0.3309	 	1.22415023E8	 	4.67741E-8	 	25564.72793	34.97403	 
895.0	1.0	0.0	8.4901	7.38282	-6.32184	16.05509	24.8143	1.15335	0.86704	155.85992	153.50545	58.55974	0.33078	 	1.379771854E8	 	4.13217E-8	 	25390.39242	34.8671	 
890.0	1.0	0.0	8.49288	7.3804	-6.3525	16.01649	24.74526	1.15162	0.86834	156.24841	153.77322	58.71128	0.33065	 	1.556780396E8	 	3.64666E-8	 	25216.58941	34.7606	 
885.0	1.0	0.0	8.49565	7.378	-6.38303	15.97799	24.67617	1.14988	0.86965	156.63564	154.03943	58.86238	0.33052	 	1.758331728E8	 	3.21478E-8	 	25043.31672	34.65454	 
880.0	1.0	0.0	8.49841	7.3756	-6.41344	15.93958	24.60702	1.14813	0.87098	157.02162	154.30409	59.01302	0.3304	 	1.988078638E8	 	2.83099E-8	 	24870.57217	34.54891	 
875.0	1.0	0.0	8.50116	7.37321	-6.44372	15.90125	24.5378	1.14638	0.87231	157.40635	154.56721	59.16322	0.33027	 	2.250254556E8	 	2.49031E-8	 	24698.35372	34.44369	 
870.0	1.0	0.0	8.5039	7.37084	-6.47388	15.86302	24.46851	1.14462	0.87365	157.78983	154.82879	59.31298	0.33015	 	2.549771398E8	 	2.18821E-8	 	24526.65941	34.33886	 
865.0	1.0	0.0	8.50663	7.36847	-6.50392	15.82488	24.39916	1.14285	0.875	158.17206	155.08882	59.46229	0.33002	 	2.892334898E8	 	1.9206E-8	 	24355.48723	34.23444	 
860.0	1.0	0.0	8.50936	7.36611	-6.53383	15.78682	24.32973	1.14108	0.87636	158.55306	155.34733	59.61116	0.32989	 	3.284581289E8	 	1.68381E-8	 	24184.8352	34.13041	 
856.69	1.0	0.0	8.51116	7.36455	-6.55359	15.76164	24.28367	1.1399	0.87727	158.80492	155.51784	59.7096	0.32981	 	3.575703314E8	 	1.5422E-8	 	24071.99997	 	 
855.0	1.0	0.0	8.51228	7.36358	-6.56596	15.73842	24.25735	1.13943	0.87763	158.94192	155.60044	59.76364	0.32975	 	3.740413425E8	 	1.47209E-8	 	24005.71239	35.82456	 
850.0	1.0	0.0	8.5156	7.36071	-6.60232	15.67041	24.17947	1.13804	0.8787	159.3456	155.84371	59.92291	0.32959	 	4.277995535E8	 	1.2814E-8	 	23810.63594	39.01529	 
845.0	1.0	0.0	8.51803	7.35861	-6.629	15.64532	24.10571	1.13644	0.87994	159.67372	156.04716	60.0521	0.32946	 	4.877183135E8	 	1.11897E-8	 	23665.61117	29.00495	 
840.0	1.0	0.0	8.52046	7.35651	-6.65562	15.62023	24.03194	1.13483	0.88119	160.00127	156.24978	60.18109	0.32933	 	5.566846164E8	 	9.75958E-9	 	23517.87778	29.54668	 
835.0	1.0	0.0	8.52288	7.35442	-6.68217	15.59514	23.95815	1.13321	0.88245	160.32825	156.45155	60.3099	0.3292	 	6.361619937E8	 	8.50193E-9	 	23370.39736	29.49609	 
830.0	1.0	0.0	8.5253	7.35233	-6.70864	15.57007	23.88436	1.13158	0.88372	160.65466	156.65249	60.43851	0.32908	 	7.27866296E8	 	7.39724E-9	 	23223.16922	29.44563	 
825.0	1.0	0.0	8.52772	7.35025	-6.73505	15.54499	23.81055	1.12995	0.885	160.98049	156.85259	60.56693	0.32895	 	8.338118587E8	 	6.42807E-9	 	23076.19275	29.3953	 
820.0	1.0	0.0	8.53012	7.34818	-6.76139	15.51993	23.73673	1.1283	0.88629	161.30575	157.05185	60.69516	0.32882	 	9.563666E8	 	5.57882E-9	 	22929.46724	29.3451	 
815.0	1.0	0.0	8.53253	7.34611	-6.78766	15.49487	23.6629	1.12664	0.88759	161.63044	157.25028	60.82319	0.32869	 	1.098317872E9	 	4.83557E-9	 	22782.99206	29.29504	 
810.0	1.0	0.0	8.53493	7.34404	-6.81387	15.46982	23.58905	1.12498	0.88891	161.95456	157.44789	60.95104	0.32856	 	1.262951281E9	 	4.1859E-9	 	22636.76654	29.2451	 
805.0	1.0	0.0	8.53732	7.34198	-6.84	15.44477	23.51519	1.1233	0.89023	162.2781	157.64466	61.07869	0.32843	 	1.454145159E9	 	3.61875E-9	 	22490.79002	29.1953	 
800.0	1.0	0.0	8.53971	7.33993	-6.86606	15.41973	23.44132	1.12162	0.89157	162.60107	157.84061	61.20615	0.32831	 	1.676483976E9	 	3.12426E-9	 	22345.06182	29.14564	 
795.0	1.0	0.0	8.5421	7.33788	-6.89206	15.39469	23.36744	1.11992	0.89292	162.92346	158.03573	61.33341	0.32818	 	1.935394685E9	 	2.6937E-9	 	22199.58127	29.09611	 
790.0	1.0	0.0	8.54448	7.33584	-6.91799	15.36966	23.29354	1.11821	0.89428	163.24529	158.23003	61.46049	0.32805	 	2.237310884E9	 	2.31929E-9	 	22054.34769	29.04672	 
785.0	1.0	0.0	8.54685	7.3338	-6.94384	15.34464	23.21963	1.1165	0.89566	163.56654	158.4235	61.58737	0.32792	 	2.589870788E9	 	1.99414E-9	 	21909.36041	28.99746	 
780.0	1.0	0.0	8.54922	7.33177	-6.96963	15.31962	23.1457	1.11477	0.89704	163.88722	158.61616	61.71406	0.32779	 	3.002156331E9	 	1.71216E-9	 	21764.61875	28.94833	 
775.0	1.0	0.0	8.55158	7.32974	-6.99535	15.2946	23.07177	1.11303	0.89844	164.20732	158.80801	61.84056	0.32767	 	3.484982408E9	 	1.46794E-9	 	21620.12203	28.89934	 
770.0	1.0	0.0	8.55394	7.32772	-7.02101	15.2696	22.99781	1.11129	0.89986	164.52686	158.99903	61.96687	0.32754	 	4.051247338E9	 	1.25674E-9	 	21475.86954	28.8505	 
765.0	1.0	0.0	8.5563	7.3257	-7.04659	15.2446	22.92385	1.10953	0.90128	164.84582	159.18925	62.09298	0.32741	 	4.716358182E9	 	1.07434E-9	 	21331.8606	28.80179	 
760.0	1.0	0.0	8.55865	7.32369	-7.07211	15.2196	22.84987	1.10776	0.90272	165.1642	159.37865	62.2189	0.32728	 	5.498747768E9	 	9.17036E-10	 	21188.09452	28.75322	 
755.0	1.0	0.0	8.56099	7.32168	-7.09755	15.19461	22.77588	1.10598	0.90418	165.48202	159.56724	62.34463	0.32716	 	6.420504245E9	 	7.81581E-10	 	21044.57057	28.70479	 
750.0	1.0	0.0	8.56333	7.31968	-7.12293	15.16963	22.70187	1.10419	0.90564	165.79926	159.75503	62.47016	0.32703	 	7.508138943E9	 	6.6511E-10	 	20901.28806	28.6565	 
745.0	1.0	0.0	8.56566	7.31769	-7.14824	15.14465	22.62784	1.10239	0.90712	166.11593	159.942	62.59551	0.3269	 	8.793524554E9	 	5.65113E-10	 	20758.24627	28.60836	 
740.0	1.0	0.0	8.56799	7.3157	-7.17348	15.11968	22.55381	1.10058	0.90862	166.43203	160.12818	62.72065	0.32677	 	1.0315E10	 	4.7939E-10	 	20615.44448	28.56036	 
735.0	1.0	0.0	8.57032	7.31372	-7.19865	15.09472	22.47976	1.09875	0.91012	166.74755	160.31355	62.84561	0.32664	 	1.2118999999999998E10	 	4.06018E-10	 	20472.88197	28.5125	 
730.0	1.0	0.0	8.57264	7.31174	-7.22376	15.06976	22.40569	1.09692	0.91165	167.0625	160.49812	62.97037	0.32652	 	1.4261299999999998E10	 	3.43315E-10	 	20330.55798	28.4648	 
725.0	1.0	0.0	8.57495	7.30977	-7.24879	15.04481	22.33161	1.09507	0.91318	167.37688	160.6819	63.09494	0.32639	 	1.6809799999999998E10	 	2.89815E-10	 	20188.47178	28.41724	 
720.0	1.0	0.0	8.57726	7.3078	-7.27376	15.01986	22.25751	1.09321	0.91474	167.69068	160.86487	63.21932	0.32626	 	1.98464E10	 	2.44242E-10	 	20046.62262	28.36983	 
715.0	1.0	0.0	8.57956	7.30584	-7.29866	14.99492	22.18339	1.09134	0.9163	168.00391	161.04706	63.3435	0.32613	 	2.3470999999999996E10	 	2.05484E-10	 	19905.00972	28.32258	 
710.0	1.0	0.0	8.58186	7.30388	-7.32349	14.96998	22.10927	1.08946	0.91789	168.31657	161.22845	63.46749	0.32601	 	2.7804999999999996E10	 	1.72577E-10	 	19763.63234	28.27548	 
705.0	1.0	0.0	8.58415	7.30193	-7.34825	14.94505	22.03512	1.08757	0.91948	168.62866	161.40904	63.59129	0.32588	 	3.2996499999999996E10	 	1.44685E-10	 	19622.48966	28.22853	 
700.0	1.0	0.0	8.58644	7.29998	-7.37294	14.92013	21.96096	1.08566	0.9211	168.94017	161.58885	63.71489	0.32575	 	3.92261E10	 	1.21085E-10	 	19481.58093	28.18175	 
695.0	1.0	0.0	8.58873	7.29804	-7.39757	14.89521	21.88678	1.08374	0.92273	169.25111	161.76787	63.8383	0.32562	 	4.671519999999999E10	 	1.01151E-10	 	19340.9053	28.13513	 
690.0	1.0	0.0	8.591	7.2961	-7.42213	14.8703	21.81259	1.08181	0.92437	169.56147	161.94611	63.96152	0.3255	 	5.573519999999999E10	 	8.43434E-11	 	19200.46197	28.08867	 
685.0	1.0	0.0	8.59328	7.29417	-7.44661	14.8454	21.73838	1.07987	0.92604	169.87127	162.12356	64.08454	0.32537	 	6.661949999999999E10	 	7.01971E-11	 	19060.25011	28.04237	 
680.0	1.0	0.0	8.59555	7.29225	-7.47103	14.8205	21.66415	1.07792	0.92771	170.18049	162.30022	64.20737	0.32524	 	7.97784E10	 	5.83126E-11	 	18920.26887	27.99625	 
675.0	1.0	0.0	8.59781	7.29033	-7.49539	14.7956	21.5899	1.07595	0.92941	170.48913	162.47611	64.33001	0.32511	 	9.571839999999998E10	 	4.83469E-11	 	18780.51737	27.9503	 
670.0	1.0	0.0	8.60007	7.28842	-7.51967	14.77071	21.51564	1.07397	0.93112	170.79721	162.65122	64.45245	0.32499	 	1.15065E11	 	4.00058E-11	 	18640.99474	27.90453	 
665.0	1.0	0.0	8.60232	7.28651	-7.54389	14.74583	21.44136	1.07198	0.93285	171.10471	162.82555	64.57469	0.32486	 	1.38594E11	 	3.3038E-11	 	18501.70007	27.85893	 
660.0	1.0	0.0	8.60457	7.28461	-7.56803	14.72096	21.36706	1.06997	0.9346	171.41164	162.9991	64.69675	0.32473	 	1.67268E11	 	2.72287E-11	 	18362.63348	27.81332	 
655.0	1.0	0.0	8.60681	7.28271	-7.59211	14.69609	21.29275	1.06795	0.93637	171.71799	163.17189	64.8186	0.3246	 	2.02283E11	 	2.23948E-11	 	18223.80018	27.76666	 
650.0	1.0	0.0	8.60905	7.28082	-7.61613	14.67122	21.21841	1.06592	0.93815	172.02377	163.3439	64.94027	0.32448	 	2.45132E11	 	1.83806E-11	 	18085.20727	27.71858	 
645.0	1.0	0.0	8.61128	7.27893	-7.64007	14.64636	21.14406	1.06388	0.93996	172.32898	163.51514	65.06174	0.32435	 	2.9768E11	 	1.5054E-11	 	17946.85411	27.67063	 
640.0	1.0	0.0	8.6135	7.27705	-7.66395	14.62151	21.06969	1.06182	0.94178	172.63361	163.68561	65.18301	0.32422	 	3.62262E11	 	1.23029E-11	 	17808.74005	27.62281	 
635.0	1.0	0.0	8.61573	7.27517	-7.68775	14.59666	20.9953	1.05975	0.94362	172.93767	163.85531	65.3041	0.3241	 	4.41809E11	 	1.00325E-11	 	17670.86443	27.57512	 
630.0	1.0	0.0	8.61794	7.2733	-7.71149	14.57182	20.92089	1.05766	0.94548	173.24116	164.02425	65.42498	0.32397	 	5.4001E11	 	8.1629E-12	 	17533.22664	27.52756	 
625.0	1.0	0.0	8.62015	7.27143	-7.73516	14.54699	20.84646	1.05556	0.94736	173.54407	164.19242	65.54568	0.32384	 	6.61515E11	 	6.62668E-12	 	17395.82597	27.48013	 
620.0	1.0	0.0	8.62236	7.26957	-7.75877	14.52216	20.77201	1.05345	0.94927	173.84641	164.35984	65.66617	0.32371	 	8.12201E11	 	5.36719E-12	 	17258.66159	27.43288	 
615.0	1.0	0.0	8.62456	7.26772	-7.7823	14.49734	20.69754	1.05132	0.95119	174.14818	164.52649	65.78648	0.32359	 	9.9952E11	 	4.33692E-12	 	17121.73296	27.38573	 
610.0	1.0	0.0	8.62675	7.26587	-7.80577	14.47252	20.62305	1.04917	0.95313	174.44937	164.69239	65.90658	0.32346	 	1.23293E12	 	3.49608E-12	 	16985.03947	27.3387	 
605.0	1.0	0.0	8.62894	7.26403	-7.82917	14.44771	20.54854	1.04702	0.95509	174.74999	164.85752	66.0265	0.32333	 	1.5245E12	 	2.81144E-12	 	16848.58049	27.2918	 
600.0	1.0	0.0	8.63113	7.26219	-7.8525	14.42291	20.47401	1.04485	0.95708	175.05004	165.02191	66.14622	0.32321	 	1.88959E12	 	2.25532E-12	 	16712.3554	27.24502	 
595.0	1.0	0.0	8.63331	7.26035	-7.87577	14.39811	20.39946	1.04266	0.95909	175.34951	165.18554	66.26574	0.32308	 	2.34792E12	 	1.80467E-12	 	16576.36357	27.19837	 
590.0	1.0	0.0	8.63548	7.25852	-7.89896	14.37331	20.32489	1.04046	0.96112	175.64841	165.34841	66.38507	0.32295	 	2.92478E12	 	1.44039E-12	 	16440.60441	27.15183	 
585.0	1.0	0.0	8.63765	7.2567	-7.92209	14.34853	20.25029	1.03824	0.96317	175.94674	165.51054	66.5042	0.32282	 	3.6527E12	 	1.14666E-12	 	16305.07728	27.10543	 
580.0	1.0	0.0	8.63982	7.25488	-7.94515	14.32374	20.17568	1.03601	0.96524	176.24449	165.67192	66.62314	0.3227	 	4.57368E12	 	9.1043E-13	 	16169.78161	27.05914	 
575.0	1.0	0.0	8.64197	7.25307	-7.96815	14.29897	20.10104	1.03376	0.96734	176.54167	165.83255	66.74188	0.32257	 	5.74207E12	 	7.20926E-13	 	16034.71676	27.01297	 
570.0	1.0	0.0	8.64413	7.25127	-7.99107	14.2742	20.02638	1.0315	0.96946	176.83827	165.99244	66.86043	0.32244	 	7.22843E12	 	5.69309E-13	 	15899.88213	26.96693	 
565.0	1.0	0.0	8.64628	7.24946	-8.01393	14.24944	19.95169	1.02922	0.97161	177.1343	166.15158	66.97878	0.32232	 	9.12456E12	 	4.48329E-13	 	15765.27715	26.921	 
560.0	1.0	0.0	8.64842	7.24767	-8.03672	14.22468	19.87699	1.02693	0.97378	177.42976	166.30999	67.09694	0.32219	 	1.15503E13	 	3.52059E-13	 	15630.90121	26.87519	 
555.0	1.0	0.0	8.65056	7.24588	-8.05944	14.19993	19.80225	1.02461	0.97598	177.72464	166.46765	67.2149	0.32206	 	1.46626E13	 	2.75666E-13	 	15496.75372	26.8295	 
550.0	1.0	0.0	8.65269	7.24409	-8.0821	14.17518	19.7275	1.02229	0.9782	178.01895	166.62457	67.33266	0.32194	 	1.86677E13	 	2.15217E-13	 	15362.8341	26.78392	 
545.0	1.0	0.0	8.65482	7.24231	-8.10469	14.15044	19.65272	1.01994	0.98045	178.31268	166.78075	67.45023	0.32181	 	2.38368E13	 	1.67522E-13	 	15229.14175	26.73847	 
540.0	1.0	0.0	8.65694	7.24054	-8.12721	14.12571	19.57792	1.01758	0.98272	178.60584	166.9362	67.5676	0.32168	 	3.05291E13	 	1.3E-13	 	15095.67611	26.69313	 
535.0	1.0	0.0	8.65905	7.23877	-8.14966	14.10098	19.50309	1.01521	0.98502	178.89843	167.09092	67.68478	0.32156	 	3.922E13	 	1.00571E-13	 	14962.43661	26.6479	 
530.0	1.0	0.0	8.66116	7.237	-8.17204	14.07626	19.42824	1.01281	0.98735	179.19044	167.2449	67.80176	0.32143	 	5.05425E13	 	7.7558E-14	 	14829.42266	26.60279	 
525.0	1.0	0.0	8.66327	7.23524	-8.19436	14.05154	19.35336	1.0104	0.98971	179.48188	167.39815	67.91855	0.3213	 	6.53411E13	 	5.96191E-14	 	14696.63372	26.55779	 
520.0	1.0	0.0	8.66537	7.23349	-8.21661	14.02683	19.27846	1.00797	0.99209	179.77274	167.55068	68.03513	0.32118	 	8.47464E13	 	4.56794E-14	 	14564.0692	26.5129	 
515.0	1.0	0.0	8.66746	7.23174	-8.23879	14.00213	19.20353	1.00553	0.9945	180.06303	167.70247	68.15153	0.32105	 	1.10278E14	 	3.48824E-14	 	14431.72857	26.46813	 
510.0	1.0	0.0	8.66955	7.23	-8.26091	13.97743	19.12857	1.00306	0.99695	180.35275	167.85354	68.26772	0.32092	 	1.43985E14	 	2.65469E-14	 	14299.61128	26.42346	 
505.0	1.0	0.0	8.67164	7.22826	-8.28296	13.95274	19.05358	1.00058	0.99942	180.64189	168.00388	68.38372	0.3208	 	1.88641E14	 	2.01333E-14	 	14167.71677	26.3789	 
500.0	1.0	0.0	8.67372	7.22653	-8.30494	13.92805	18.97857	0.99808	1.00192	180.93045	168.15351	68.49953	0.32067	 	2.4801E14	 	1.52153E-14	 	14036.0445	26.33445	 
495.0	1.0	0.0	8.67579	7.2248	-8.32685	13.90337	18.90353	0.99556	1.00446	181.21844	168.30241	68.61513	0.32054	 	3.27228E14	 	1.14573E-14	 	13904.59395	26.29011	 
490.0	1.0	0.0	8.67786	7.22308	-8.3487	13.8787	18.82847	0.99303	1.00702	181.50586	168.45059	68.73054	0.32042	 	4.33321E14	 	8.59581E-15	 	13773.36459	26.24587	 
485.0	1.0	0.0	8.67992	7.22137	-8.37047	13.85403	18.75337	0.99047	1.00962	181.79271	168.59805	68.84576	0.32029	 	5.7594E14	 	6.42487E-15	 	13642.35588	26.20174	 
480.0	1.0	0.0	8.68198	7.21965	-8.39219	13.82936	18.67824	0.9879	1.01225	182.07897	168.74479	68.96077	0.32016	 	7.68397E14	 	4.78391E-15	 	13511.56731	26.15771	 
475.0	1.0	0.0	8.68403	7.21795	-8.41383	13.80471	18.60309	0.9853	1.01492	182.36467	168.89082	69.07559	0.32004	 	1.02912E15	 	3.5482E-15	 	13380.99838	26.11379	 
470.0	1.0	0.0	8.68608	7.21625	-8.43541	13.78006	18.5279	0.98269	1.01762	182.64979	169.03614	69.19022	0.31991	 	1.38375E15	 	2.62124E-15	 	13250.64857	26.06996	 
465.0	1.0	0.0	8.68812	7.21455	-8.45692	13.75541	18.45269	0.98006	1.02035	182.93433	169.18074	69.30464	0.31978	 	1.86805E15	 	1.92861E-15	 	13120.5174	26.02623	 
460.0	1.0	0.0	8.69015	7.21286	-8.47836	13.73077	18.37744	0.9774	1.02312	183.2183	169.32463	69.41887	0.31966	 	2.53219E15	 	1.41313E-15	 	12990.60436	25.98261	 
455.0	1.0	0.0	8.69218	7.21118	-8.49973	13.70614	18.30216	0.97473	1.02592	183.5017	169.46782	69.5329	0.31953	 	3.44683E15	 	1.03107E-15	 	12860.90897	25.93908	 
450.0	1.0	0.0	8.69421	7.2095	-8.52104	13.68151	18.22685	0.97204	1.02877	183.78452	169.61029	69.64674	0.31941	 	4.71189E15	 	7.49066E-16	 	12731.43076	25.89564	 
445.0	1.0	0.0	8.69623	7.20782	-8.54228	13.65689	18.15151	0.96932	1.03165	184.06676	169.75206	69.76037	0.31928	 	6.46935E15	 	5.41803E-16	 	12602.16926	25.8523	 
440.0	1.0	0.0	8.69824	7.20616	-8.56346	13.63228	18.07613	0.96659	1.03457	184.34844	169.89313	69.87381	0.31915	 	8.92188E15	 	3.90132E-16	 	12473.124	25.80905	 
435.0	1.0	0.0	8.70025	7.20449	-8.58456	13.60767	18.00072	0.96383	1.03752	184.62953	170.03349	69.98705	0.31903	 	1.23602E16	 	2.79633E-16	 	12344.29454	25.76589	 
430.0	1.0	0.0	8.70225	7.20283	-8.6056	13.58306	17.92528	0.96105	1.04052	184.91005	170.17315	70.1001	0.3189	 	1.7203000000000002E16	 	1.99494E-16	 	12215.68043	25.72282	 
425.0	1.0	0.0	8.70425	7.20118	-8.62658	13.55847	17.8498	0.95826	1.04356	185.19	170.31211	70.21295	0.31877	 	2.4057E16	 	1.41642E-16	 	12087.28124	25.67984	 
420.0	1.0	0.0	8.70624	7.19953	-8.64748	13.53387	17.77428	0.95544	1.04664	185.46937	170.45037	70.32559	0.31865	 	3.3805000000000004E16	 	1.00077E-16	 	11959.09651	25.63694	 
415.0	1.0	0.0	8.70823	7.19789	-8.66832	13.50929	17.69873	0.95259	1.04977	185.74817	170.58793	70.43805	0.31852	 	4.77382E16	 	7.03565E-17	 	11831.12591	25.59412	 
410.0	1.0	0.0	8.71021	7.19625	-8.68909	13.48471	17.62314	0.94973	1.05293	186.02639	170.7248	70.5503	0.3184	 	6.7755600000000008E16	 	4.92105E-17	 	11703.36911	25.55136	 
405.0	1.0	0.0	8.71218	7.19462	-8.7098	13.46013	17.54752	0.94684	1.05615	186.30404	170.86097	70.66235	0.31827	 	9.66645E16	 	3.42409E-17	 	11575.82577	25.50867	 
400.0	1.0	0.0	8.71415	7.193	-8.73044	13.43557	17.47186	0.94393	1.0594	186.58111	170.99645	70.77421	0.31814	 	1.38638E17	 	2.36983E-17	 	11448.49562	25.46603	 
395.0	1.0	0.0	8.71612	7.19138	-8.75101	13.411	17.39616	0.94099	1.06271	186.8576	171.13124	70.88587	0.31802	 	1.99912E17	 	1.63125E-17	 	11321.37834	25.42345	 
390.0	1.0	0.0	8.71808	7.18976	-8.77151	13.38645	17.32042	0.93804	1.06606	187.13352	171.26534	70.99733	0.31789	 	2.89865E17	 	1.11661E-17	 	11194.47367	25.38094	 
385.0	1.0	0.0	8.72003	7.18815	-8.79195	13.3619	17.24464	0.93505	1.06946	187.40887	171.39875	71.1086	0.31777	 	4.22671E17	 	7.59992E-18	 	11067.78132	25.33847	 
380.0	1.0	0.0	8.72198	7.18654	-8.81232	13.33735	17.16882	0.93205	1.07291	187.68364	171.53147	71.21966	0.31764	 	6.19894E17	 	5.14259E-18	 	10941.30105	25.29605	 
375.0	1.0	0.0	8.72392	7.18494	-8.83262	13.31282	17.09295	0.92902	1.0764	187.95784	171.66351	71.33053	0.31751	 	9.14531E17	 	3.45911E-18	 	10815.0326	25.25369	 
370.0	1.0	0.0	8.72586	7.18335	-8.85286	13.28828	17.01705	0.92596	1.07996	188.23146	171.79486	71.44119	0.31739	 	1.35739E18	 	2.31256E-18	 	10688.97574	25.21137	 
365.0	1.0	0.0	8.72779	7.18176	-8.87303	13.26376	16.9411	0.92288	1.08356	188.5045	171.92553	71.55166	0.31726	 	2.02721E18	 	1.53642E-18	 	10563.13025	25.1691	 
360.0	1.0	0.0	8.72971	7.18017	-8.89314	13.23924	16.86511	0.91978	1.08722	188.77697	172.05552	71.66193	0.31714	 	3.04681E18	 	1.01426E-18	 	10437.49593	25.12686	 
355.0	1.0	0.0	8.73164	7.17859	-8.91317	13.21472	16.78908	0.91665	1.09093	189.04886	172.18483	71.77201	0.31701	 	4.60901E18	 	6.65184E-19	 	10312.07258	25.08467	 
350.0	1.0	0.0	8.73355	7.17702	-8.93314	13.19021	16.713	0.91349	1.0947	189.32018	172.31346	71.88188	0.31688	 	7.01868E18	 	4.33335E-19	 	10186.86002	25.04251	 
345.0	1.0	0.0	8.73546	7.17545	-8.95305	13.16571	16.63687	0.91031	1.09853	189.59093	172.44142	71.99155	0.31676	 	1.07611E19	 	2.80365E-19	 	10061.85809	25.00039	 
340.0	1.0	0.0	8.73736	7.17389	-8.97288	13.14121	16.56069	0.9071	1.10242	189.86109	172.5687	72.10103	0.31663	 	1.66145E19	 	1.80122E-19	 	9937.06665	24.95829	 
335.0	1.0	0.0	8.73926	7.17233	-8.99266	13.11672	16.48447	0.90386	1.10636	190.13069	172.6953	72.2103	0.31651	 	2.58355E19	 	1.14889E-19	 	9812.48558	24.91622	 
330.0	1.0	0.0	8.74115	7.17078	-9.01236	13.09224	16.4082	0.9006	1.11037	190.3997	172.82123	72.31938	0.31638	 	4.04694E19	 	7.27419E-20	 	9688.11475	24.87417	 
325.0	1.0	0.0	8.74304	7.16923	-9.032	13.06776	16.33188	0.8973	1.11445	190.66814	172.94649	72.42826	0.31626	 	6.38698E19	 	4.5709E-20	 	9563.95408	24.83213	 
320.0	1.0	0.0	8.74492	7.16769	-9.05157	13.04329	16.2555	0.89398	1.11859	190.93601	173.07108	72.53694	0.31613	 	1.01579E20	 	2.85001E-20	 	9440.00349	24.79012	 
315.0	1.0	0.0	8.7468	7.16615	-9.07107	13.01882	16.17908	0.89064	1.12279	191.2033	173.195	72.64542	0.316	 	1.62832E20	 	1.76293E-20	 	9316.26293	24.74811	 
310.0	1.0	0.0	8.74867	7.16462	-9.09051	12.99436	16.1026	0.88726	1.12707	191.47002	173.31825	72.7537	0.31588	 	2.6314099999999997E20	 	1.08163E-20	 	9192.73237	24.70611	 
305.0	1.0	0.0	8.75053	7.16309	-9.10988	12.9699	16.02607	0.88385	1.13141	191.73616	173.44084	72.86178	0.31575	 	4.2878999999999993E20	 	6.58086E-21	 	9069.41179	24.66412	 
300.0	1.0	0.0	8.75239	7.16157	-9.12919	12.94545	15.94948	0.88042	1.13583	192.00172	173.56277	72.96966	0.31563	 	7.04692E20	 	3.96968E-21	 	8946.3012	24.62212	 
295.0	1.0	0.0	8.75425	7.16005	-9.14843	12.92101	15.87283	0.87695	1.14032	192.26671	173.68403	73.07735	0.3155	 	1.1682900000000001E21	 	2.37355E-21	 	8823.40064	24.58011	 
290.0	1.0	0.0	8.75609	7.15854	-9.1676	12.89657	15.79613	0.87345	1.14488	192.53112	173.80463	73.18483	0.31538	 	1.95435E21	 	1.4064E-21	 	8700.71017	24.53809	 
285.0	1.0	0.0	8.75794	7.15704	-9.18671	12.87214	15.71937	0.86993	1.14952	192.79496	173.92457	73.29211	0.31525	 	3.29957E21	 	8.25621E-22	 	8578.22988	24.49606	 
280.0	1.0	0.0	8.75977	7.15554	-9.20575	12.84771	15.64254	0.86637	1.15425	193.05822	174.04385	73.3992	0.31512	 	5.62371E21	 	4.80072E-22	 	8455.95986	24.454	 
275.0	1.0	0.0	8.7616	7.15404	-9.22472	12.82329	15.56566	0.86278	1.15905	193.32091	174.16247	73.50608	0.315	 	9.67864E21	 	2.76422E-22	 	8333.90027	24.41192	 
270.0	1.0	0.0	8.76343	7.15255	-9.24363	12.79888	15.48871	0.85915	1.16394	193.58302	174.28044	73.61276	0.31487	 	1.68247E22	 	1.57565E-22	 	8212.05127	24.3698	 
265.0	1.0	0.0	8.76525	7.15107	-9.26247	12.77447	15.4117	0.8555	1.16891	193.84456	174.39775	73.71925	0.31475	 	2.9548799999999996E22	 	8.88893E-23	 	8090.41306	24.32764	 
260.0	1.0	0.0	8.76706	7.14959	-9.28125	12.75007	15.33462	0.85181	1.17397	194.10552	174.51441	73.82553	0.31462	 	5.24472E22	 	4.96151E-23	 	7968.98587	24.28544	 
255.0	1.0	0.0	8.76887	7.14811	-9.29996	12.72568	15.25747	0.84809	1.17912	194.3659	174.63042	73.93162	0.3145	 	9.41071E22	 	2.73919E-23	 	7847.76995	24.24318	 
250.0	1.0	0.0	8.77067	7.14664	-9.3186	12.70129	15.18025	0.84433	1.18437	194.62571	174.74578	74.0375	0.31437	 	1.7075599999999997E23	 	1.49533E-23	 	7726.76563	24.20086	 
245.0	1.0	0.0	8.77247	7.14518	-9.33717	12.6769	15.10297	0.84054	1.18971	194.88495	174.86048	74.14319	0.31425	 	3.13417E23	 	8.06899E-24	 	7605.97321	24.15848	 
240.0	1.0	0.0	8.77426	7.14372	-9.35569	12.65252	15.0256	0.83672	1.19515	195.14361	174.97454	74.24867	0.31412	 	5.82116E23	 	4.3025E-24	 	7485.39309	24.11602	 
235.0	1.0	0.0	8.77605	7.14227	-9.37413	12.62815	14.94817	0.83286	1.20069	195.40169	175.08796	74.35395	0.314	 	1.09443E24	 	2.26616E-24	 	7365.02568	24.07348	 
230.0	1.0	0.0	8.77783	7.14082	-9.39251	12.60378	14.87066	0.82896	1.20633	195.6592	175.20073	74.45904	0.31387	 	2.08361E24	 	1.17861E-24	 	7244.87143	24.03085	 
225.0	1.0	0.0	8.7796	7.13937	-9.41082	12.57942	14.79307	0.82503	1.21208	195.91613	175.31285	74.56392	0.31375	 	4.01843E24	 	6.05049E-25	 	7124.93085	23.98812	 
220.0	1.0	0.0	8.78137	7.13794	-9.42907	12.55507	14.71539	0.82106	1.21794	196.17249	175.42434	74.6686	0.31362	 	7.85383E24	 	3.06467E-25	 	7005.20448	23.94527	 
215.0	1.0	0.0	8.78313	7.1365	-9.44725	12.53072	14.63764	0.81705	1.22392	196.42828	175.53518	74.77309	0.3135	 	1.5562100000000002E25	 	1.53099E-25	 	6885.69293	23.90231	 
210.0	1.0	0.0	8.78489	7.13508	-9.46536	12.50638	14.5598	0.813	1.23001	196.68348	175.64539	74.87737	0.31337	 	3.12753E25	 	7.53992E-26	 	6766.39683	23.85922	 
205.0	1.0	0.0	8.78664	7.13365	-9.48341	12.48204	14.48188	0.80892	1.23622	196.93812	175.75495	74.98145	0.31325	 	6.37786E25	 	3.65911E-26	 	6647.31689	23.81599	 
200.0	1.0	0.0	8.78839	7.13224	-9.50139	12.45771	14.40386	0.8048	1.24255	197.19218	175.86388	75.08533	0.31312	 	1.3203500000000002E26	 	1.74903E-26	 	6528.45389	23.7726	 
195.0	1.0	0.0	8.79013	7.13082	-9.51931	12.43338	14.32576	0.80063	1.24901	197.44566	175.97217	75.18902	0.313	 	2.7762200000000003E26	 	8.23035E-27	 	6409.80862	23.72905	 
190.0	1.0	0.0	8.79186	7.12942	-9.53716	12.40907	14.24755	0.79643	1.2556	197.69857	176.07984	75.2925	0.31287	 	5.9318000000000006E26	 	3.81085E-27	 	6291.38199	23.68533	 
185.0	1.0	0.0	8.79359	7.12802	-9.55494	12.38475	14.16926	0.79219	1.26233	197.95091	176.18686	75.39578	0.31275	 	1.2886E27	 	1.73531E-27	 	6173.17493	23.64141	 
180.0	1.0	0.0	8.79532	7.12662	-9.57266	12.36045	14.09086	0.7879	1.2692	198.20267	176.29326	75.49886	0.31262	 	2.84762E27	 	7.76688E-28	 	6055.18847	23.59729	 
175.0	1.0	0.0	8.79703	7.12523	-9.59032	12.33614	14.01236	0.78357	1.27621	198.45385	176.39903	75.60174	0.3125	 	6.40519E27	 	3.4149E-28	 	5937.42372	23.55295	 
170.0	1.0	0.0	8.79874	7.12384	-9.6079	12.31185	13.93375	0.7792	1.28337	198.70447	176.50417	75.70442	0.31237	 	1.4673200000000002E28	 	1.47405E-28	 	5819.88183	23.50838	 
165.0	1.0	0.0	8.80045	7.12246	-9.62543	12.28756	13.85504	0.77478	1.29068	198.95451	176.60868	75.8069	0.31225	 	3.4256000000000003E28	 	6.24271E-29	 	5702.56408	23.46355	 
160.0	1.0	0.0	8.80215	7.12109	-9.64288	12.26328	13.77621	0.77033	1.29815	199.20397	176.71257	75.90917	0.31212	 	8.15544E28	 	2.59226E-29	 	5585.4718	23.41846	 
155.0	1.0	0.0	8.80384	7.11972	-9.66027	12.239	13.69727	0.76582	1.30579	199.45286	176.81583	76.01125	0.312	 	1.9813300000000003E29	 	1.05469E-29	 	5468.60644	23.37307	 
150.0	1.0	0.0	8.80553	7.11835	-9.6776	12.21473	13.61821	0.76127	1.31359	199.70118	176.91847	76.11313	0.31187	 	4.9156E29	 	4.2015E-30	 	5351.96953	23.32738	 
145.0	1.0	0.0	8.80722	7.11699	-9.69486	12.19046	13.53903	0.75668	1.32157	199.94893	177.02049	76.2148	0.31175	 	1.2463299999999999E30	 	1.63751E-30	 	5235.56272	23.28136	 
140.0	1.0	0.0	8.80889	7.11563	-9.71205	12.1662	13.45971	0.75203	1.32973	200.1961	177.1219	76.31628	0.31162	 	3.2319999999999997E30	 	6.23912E-31	 	5119.38775	23.23499	 
135.0	1.0	0.0	8.81057	7.11429	-9.72918	12.14195	13.38027	0.74734	1.33807	200.4427	177.22268	76.41756	0.3115	 	8.57922E30	 	2.32198E-31	 	5003.4465	23.18825	 
130.0	1.0	0.0	8.81223	7.11294	-9.74624	12.1177	13.3007	0.74261	1.34661	200.68872	177.32285	76.51863	0.31137	 	2.33314E31	 	8.43359E-32	 	4887.74095	23.14111	 
125.0	1.0	0.0	8.81389	7.1116	-9.76324	12.09346	13.22098	0.73782	1.35535	200.93418	177.4224	76.61951	0.31125	 	6.50649E31	 	2.98667E-32	 	4772.27325	23.09354	 
120.0	1.0	0.0	8.81554	7.11027	-9.78017	12.06922	13.14112	0.73298	1.36429	201.17906	177.52133	76.72018	0.31112	 	1.86244E32	 	1.0303E-32	 	4657.04565	23.04552	 
115.0	1.0	0.0	8.81719	7.10894	-9.79703	12.04499	13.06111	0.72809	1.37346	201.42337	177.61966	76.82065	0.311	 	5.47752E32	 	3.45862E-33	 	4542.06058	22.99701	 
110.0	1.0	0.0	8.81884	7.10761	-9.81383	12.02077	12.98095	0.72315	1.38284	201.66711	177.71737	76.92093	0.31087	 	1.65697E33	 	1.1286E-33	 	4427.3206	22.948	 
105.0	1.0	0.0	8.82047	7.10629	-9.83057	11.99655	12.90063	0.71816	1.39245	201.91027	177.81448	77.021	0.31075	 	5.1612600000000004E33	 	3.57598E-34	 	4312.82847	22.89843	 
100.0	1.0	0.0	8.8221	7.10498	-9.84724	11.97234	12.82014	0.71311	1.40231	202.15287	177.91098	77.12087	0.31062	 	1.6573800000000001E34	 	1.09887E-34	 	4198.58712	22.84827	 
95.0	1.0	0.0	8.82373	7.10367	-9.86384	11.94813	12.73948	0.70801	1.41241	202.3949	178.00687	77.22055	0.3105	 	5.493520000000001E34	 	3.27085E-35	 	4084.59967	22.79749	 
90.0	1.0	0.0	8.82535	7.10237	-9.88038	11.92393	12.65864	0.70285	1.42277	202.63635	178.10216	77.32002	0.31037	 	1.8819599999999997E35	 	9.41809E-36	 	3970.86946	22.74604	 
85.0	1.0	0.0	8.82696	7.10107	-9.89685	11.89974	12.57761	0.69764	1.4334	202.87724	178.19684	77.41929	0.31025	 	6.672689999999999E35	 	2.6197E-36	 	3857.40002	22.69389	 
80.0	1.0	0.0	8.82857	7.09978	-9.91326	11.87555	12.4964	0.69237	1.44431	203.11755	178.29093	77.51837	0.31013	 	2.45221E36	 	7.02893E-37	 	3744.19516	22.64097	 
75.0	1.0	0.0	8.83017	7.09849	-9.9296	11.85136	12.41498	0.68705	1.4555	203.3573	178.38441	77.61724	0.31	 	9.355109999999999E36	 	1.81637E-37	 	3631.25891	22.58725	 
70.0	1.0	0.0	8.83177	7.09721	-9.94588	11.82719	12.33336	0.68166	1.467	203.59648	178.4773	77.71591	0.30988	 	3.71096E37	 	4.5132E-38	 	3518.5956	22.53266	 
65.0	1.0	0.0	8.83336	7.09593	-9.96209	11.80302	12.25152	0.67622	1.47882	203.8351	178.56959	77.81439	0.30975	 	1.53328E38	 	1.0764E-38	 	3406.20983	22.47715	 
60.0	1.0	0.0	8.83494	7.09466	-9.97823	11.77885	12.16946	0.67071	1.49096	204.07314	178.66129	77.91267	0.30963	 	6.61076E38	 	2.45966E-39	 	3294.10653	22.42066	 
55.0	1.0	0.0	8.83652	7.09339	-9.99432	11.75469	12.08716	0.66514	1.50344	204.31062	178.75239	78.01074	0.3095	 	2.98003E39	 	5.37451E-40	 	3182.29096	22.36312	 
50.0	1.0	0.0	8.83809	7.09213	-10.01033	11.73054	12.00462	0.65951	1.51628	204.54754	178.8429	78.10862	0.30938	 	1.40743E40	 	1.12064E-40	 	3070.76875	22.30444	 
45.0	1.0	0.0	8.83966	7.09087	-10.02628	11.70639	11.92183	0.65382	1.52948	204.78389	178.93283	78.2063	0.30925	 	6.9795E40	 	2.22482E-41	 	2959.54593	22.24456	 
40.0	1.0	0.0	8.84122	7.08962	-10.04217	11.68225	11.83876	0.64806	1.54308	205.01967	179.02216	78.30378	0.30913	 	3.64274E41	 	4.19576E-42	 	2848.62895	22.1834	 
35.0	1.0	0.0	8.84277	7.08837	-10.05799	11.65812	11.75542	0.64223	1.55708	205.25489	179.11091	78.40106	0.30901	 	2.00595E42	 	7.49771E-43	 	2738.0247	22.12085	 
30.0	1.0	0.0	8.84432	7.08713	-10.07374	11.63399	11.67179	0.63634	1.5715	205.48955	179.19908	78.49815	0.30888	 	1.16856E43	 	1.26617E-43	 	2627.74061	22.05682	 
25.0	1.0	0.0	8.84587	7.08589	-10.08943	 	11.58785	0.63037	1.58636	205.72365	179.28667	78.59504	0.30876	 	7.22192E43	 	2.01497E-44	 	2517.78461	 	 
