T (C)	Fraction solid (wt)-TOTAL	Fraction liquid (wt)-LIQUID	Density (g/(cm)^3)-TOTAL	Molar volume (cm^3)-TOTAL	Volume change (%)-  	Average expansion coeff. (10e-6 1/K)-  	Thermal conductivity (W/(m*K))-TOTAL	Electrical resistivity (10e-6 Ohm*m)-TOTAL	Electrical conductivity (10e6 1/(Ohm*m))-TOTAL	Young's modulus (GPa)-TOTAL	Bulk modulus (GPa)-TOTAL	Shear modulus(GPa)-TOTAL	Poisson's ratio-TOTAL	Liquid viscosity (mPa s)-  	Total viscosity (mPa s)-  	Liquid diffusivity (10e-9 (m^2)/s)-  	Total diffusivity (10e-9 (m^2)/s)-  	Surface Tension (mN/m)-  	Enthalpy (J/mole)-TOTAL	Specific heat (J/(mole K))-TOTAL	Latent heat (J/mole)-TOTAL
1400.0	0.0	1.0	7.77683	7.89985	0.0	28.23744	28.4787	1.4394	0.69474	0.0	130.16226	0.0	0.5	8.92533	8.92533	0.91495	0.91495	1862.24289	56921.519	 	0.0
1395.0	0.0	1.0	7.7809	7.89572	-0.0523581	28.19827	28.41122	1.4385	0.69517	0.0	130.32982	0.0	0.5	9.02556	9.02556	0.90209	0.90209	1865.72515	56717.543	40.7952	0.0
1390.0	0.0	1.0	7.78497	7.89159	-0.10457	28.15922	28.34373	1.43761	0.6956	0.0	130.49738	0.0	0.5	9.12752	9.12752	0.88933	0.88933	1869.22411	56514.036	40.7014	0.0
1385.0	0.0	1.0	7.78903	7.88748	-0.15663	28.12028	28.27624	1.43671	0.69604	0.0	130.66494	0.0	0.5	9.23127	9.23127	0.8767	0.8767	1872.73969	56310.993	40.6086	0.0
1380.0	0.0	1.0	7.79308	7.88338	-0.20854	28.08147	28.20875	1.4358	0.69648	0.0	130.8325	0.0	0.5	9.33683	9.33683	0.86417	0.86417	1876.27179	56108.412	40.5162	0.0
1375.0	0.0	1.0	7.79712	7.87929	-0.2603	28.04279	28.14127	1.43489	0.69692	0.0	131.00006	0.0	0.5	9.44424	9.44424	0.85176	0.85176	1879.82032	55906.291	40.4242	0.0
1370.0	0.0	1.0	7.80116	7.87521	-0.31191	28.00423	28.07378	1.43398	0.69736	0.0	131.16762	0.0	0.5	9.55356	9.55356	0.83946	0.83946	1883.38521	55704.627	40.3328	0.0
1365.0	0.0	1.0	7.80519	7.87115	-0.36337	27.96579	28.00629	1.43306	0.69781	0.0	131.33518	0.0	0.5	9.66483	9.66483	0.82727	0.82727	1886.96637	55503.419	40.2416	0.0
1360.0	0.0	1.0	7.80921	7.86709	-0.41468	27.92749	27.9388	1.43214	0.69826	0.0	131.50273	0.0	0.5	9.77808	9.77808	0.81519	0.81519	1890.56371	55302.663	40.1512	0.0
1355.0	0.0	1.0	7.81322	7.86305	-0.46585	27.88931	27.87131	1.43121	0.69871	0.0	131.67029	0.0	0.5	9.89337	9.89337	0.80322	0.80322	1894.17718	55102.356	40.0614	0.0
1350.0	0.0	1.0	7.81723	7.85902	-0.51686	27.85127	27.80383	1.43028	0.69917	0.0	131.83785	0.0	0.5	10.01074	10.01074	0.79137	0.79137	1897.8067	54902.498	39.9716	0.0
1345.0	0.0	1.0	7.82123	7.855	-0.56773	27.81336	27.73634	1.42934	0.69962	0.0	132.00541	0.0	0.5	10.13024	10.13024	0.77963	0.77963	1901.4522	54703.085	39.8826	0.0
1340.0	0.0	1.0	7.82522	7.851	-0.61844	27.77558	27.66885	1.4284	0.70008	0.0	132.17297	0.0	0.5	10.25192	10.25192	0.76799	0.76799	1905.11363	54504.114	39.7942	0.0
1335.56	0.0	1.0	7.82876	7.84745	-0.66336	27.74214	27.60891	1.42756	0.7005	0.0	132.32179	0.0	0.5	10.36187	10.36187	0.75775	0.75775	1908.37896	54327.764	39.71024	0.0
1335.0	0.01372	0.98628	7.83237	7.84378	-0.70982	27.622	27.64673	1.42511	0.7017	3.76352E-6	132.40275	1.25616E-6	0.49802	10.37729	10.57052	0.75636	0.74254	1908.47286	54094.847	416.60764	210.738
1330.0	0.1295	0.8705	7.86304	7.81322	-1.09661	26.62479	27.96664	1.40443	0.71203	0.0303743	133.0482	0.0102531	0.48123	10.51572	29.8827	0.74408	0.26184	1909.30628	52128.114	393.3466	1979.381
1325.0	0.22682	0.77318	7.88938	7.78717	-1.42635	25.78322	28.23178	1.3869	0.72103	0.29039	133.58918	0.0989773	0.46694	10.65591	189.11635	0.732	0.0412454	1910.13501	50453.293	334.9642	3456.546
1320.0	0.30935	0.69065	7.91227	7.76457	-1.71241	25.06068	28.45229	1.37185	0.72894	1.01867	134.05041	0.35013	0.45469	10.7979	661.22088	0.72012	0.0117597	1910.96838	49012.524	288.1538	4700.094
1315.0	0.37989	0.62011	7.93231	7.74497	-1.96061	24.44178	28.6359	1.35877	0.73596	2.3451	134.45559	0.81195	0.44412	10.94181	1583.40156	0.70842	0.00489539	1911.80896	47761.149	250.275	5754.679
1310.0	0.44062	0.55938	7.95004	7.72769	-2.17928	23.90357	28.78835	1.34732	0.74221	4.29131	134.81729	1.49531	0.43492	11.08773	3044.47645	0.69689	0.00253803	1912.66425	46664.353	219.3592	6655.114
1305.0	0.49326	0.50674	7.96582	7.71238	-2.37305	23.43355	28.91418	1.33722	0.74782	6.80679	135.14687	2.38519	0.42689	11.23568	5095.02865	0.68554	0.00151178	1913.53819	45694.734	193.9238	7428.8
1304.17	0.50111	0.49889	7.96823	7.71004	-2.40273	23.36243	28.932	1.33569	0.74867	7.26208	135.20013	2.54688	0.42568	11.26054	5486.02481	0.68367	0.00140329	1913.68511	45547.204	 	7543.788
1300.0	0.54814	0.45186	7.98266	7.69618	-2.57816	22.92675	29.05363	1.32659	0.75381	10.3572	135.55896	3.65053	0.41859	11.29272	8201.38777	0.67992	9.36202E-4	1910.54382	44675.741	203.7986	8252.283
1295.0	0.59743	0.40257	7.99832	7.68122	-2.76752	22.46211	29.17395	1.31692	0.75935	14.6417	135.92544	5.18814	0.41107	11.33386	12257.67121	0.6753	6.24405E-4	1906.88893	43743.011	186.546	8989.927
1290.0	0.63989	0.36011	8.01235	7.6679	-2.93612	22.05489	29.26882	1.30846	0.76426	19.36537	136.24356	6.89391	0.40453	11.37787	17148.57463	0.67054	4.44897E-4	1903.35022	42917.829	165.0364	9620.444
1289.61	0.64286	0.35714	8.01336	7.66693	-2.94842	22.02553	29.2749	1.30786	0.76461	19.73711	136.26765	7.02856	0.40406	11.38144	17555.64307	0.67016	4.34472E-4	1903.07691	42858.602	 	9664.431
1285.0	0.68509	0.31491	8.02783	7.6533	-3.12099	21.59635	29.37815	1.29942	0.76957	25.65404	136.54691	9.17984	0.3973	11.43383	24020.34217	0.66513	3.16604E-4	1899.23021	42038.895	175.7868	10305.132
1280.0	0.72478	0.27522	8.04195	7.64005	-3.28871	21.18505	29.46592	1.2914	0.77436	32.43719	136.80169	11.66079	0.39087	11.49286	32158.17043	0.65959	2.35727E-4	1895.13238	41247.577	158.2636	10902.619
1275.0	0.75891	0.24109	8.05463	7.62825	-3.438	20.8253	29.53121	1.28439	0.77858	39.35623	137.02432	14.2053	0.38527	11.55411	41383.87824	0.65398	1.82586E-4	1891.12022	40544.761	140.5632	11412.019
1270.0	0.78834	0.21166	8.06609	7.61767	-3.57197	20.50847	29.57711	1.27826	0.78231	46.23362	137.22545	16.74672	0.38038	11.6174	51647.95527	0.64831	1.45828E-4	1887.20456	39916.086	125.735	11847.69
1265.0	0.81379	0.18621	8.07649	7.60813	-3.69274	20.22872	29.60634	1.27286	0.78563	52.93791	137.41342	19.23473	0.3761	11.68256	62918.72004	0.64261	1.19318E-4	1883.39307	39349.751	113.267	12221.431
1260.0	0.83586	0.16414	8.08599	7.59947	-3.8024	19.98014	29.62125	1.26808	0.78859	59.37963	137.59448	21.63431	0.37235	11.74947	75186.5992	0.63687	9.95247E-5	1879.69434	38836.018	102.7466	12542.977
1255.0	0.85505	0.14495	8.09472	7.59154	-3.90272	19.75782	29.62382	1.26384	0.79124	65.4991	137.77252	23.92147	0.36904	11.81804	88456.43937	0.63111	8.43186E-5	1876.11566	38366.809	93.8418	12820.407
1250.0	0.87178	0.12822	8.10279	7.58426	-3.99486	19.55855	29.61581	1.26004	0.79362	71.26415	137.95101	26.08255	0.36613	11.88817	102754.6042	0.62534	7.23483E-5	1872.66105	37935.404	86.281	13060.437
1245.0	0.88642	0.11358	8.11027	7.57754	-4.07991	19.37926	29.59872	1.25663	0.79578	76.65762	138.13194	28.10967	0.36355	11.95969	118118.633	0.61956	6.27311E-5	1869.33467	37536.188	79.8432	13268.678
1240.0	0.89925	0.10075	8.11726	7.5713	-4.15895	19.21689	29.57378	1.25355	0.79774	81.68087	138.31648	30.0021	0.36125	12.0327	134608.7152	0.61377	5.4865E-5	1866.13984	37164.462	74.3452	13449.832
1235.0	0.91053	0.089472	8.12381	7.56546	-4.23282	19.0691	29.54213	1.25075	0.79952	86.34616	138.50567	31.76339	0.35921	12.10706	152305.3984	0.60798	4.83299E-5	1863.07809	36816.275	69.6374	13607.849
1230.0	0.92047	0.0795344	8.12998	7.55999	-4.30218	18.93402	29.50468	1.24818	0.80117	90.66672	138.69988	33.39761	0.35738	12.18259	171295.0956	0.60221	4.28296E-5	1866.1466	36488.29236	65.59653	13746.054
1225.0	0.92925	0.0707475	8.13323	7.55504	-4.36478	18.81878	29.46762	1.24559	0.80283	94.5873	138.77243	34.88453	0.35572	12.25948	191889.7074	0.59644	3.81057E-5	1869.21855	36174.46471	62.76553	13867.251
1220.0	0.93704	0.0629615	8.1368	7.5503	-4.42476	18.71072	29.42572	1.2432	0.80437	98.22139	138.8808	36.26476	0.35423	12.33761	214028.8416	0.59069	3.40501E-5	1872.29429	35875.75563	59.74182	13973.817
1215.0	0.94396	0.0560413	8.14065	7.54575	-4.48242	18.60901	29.37956	1.24099	0.80581	101.592	139.02106	37.54655	0.35288	12.41694	237852.7349	0.58495	3.05369E-5	1875.37303	35590.15121	57.12088	14067.764
1210.0	0.95015	0.0498453	8.14476	7.54133	-4.53828	18.5121	29.32973	1.23892	0.80715	104.73807	139.19131	38.74428	0.35166	12.49589	263553.2168	0.5793	2.74665E-5	1878.45524	35315.43557	54.94313	14151.305
1205.0	0.95731	0.042692	8.14983	7.53646	-4.60001	18.39586	29.28092	1.2368	0.80854	108.55411	139.49011	40.19729	0.35027	12.49914	293368.2174	0.5772	2.45919E-5	1881.52906	35024.75281	58.13655	14251.289
1200.0	0.96338	0.0366202	8.15487	7.53187	-4.65805	18.29029	29.22718	1.23488	0.80979	111.93866	139.79511	41.48757	0.34906	12.50557	325092.091	0.57495	2.21171E-5	1884.60702	34750.49605	54.85135	14335.322
1195.0	0.96858	0.0314223	8.15988	7.52753	-4.71306	18.19348	29.16945	1.23313	0.81095	114.96029	140.10463	42.64073	0.34801	12.51538	358990.6805	0.57255	1.99606E-5	1887.68904	34489.51846	52.19552	14406.545
1190.0	0.97306	0.0269363	8.16487	7.52338	-4.76553	18.10393	29.10841	1.23151	0.81201	117.67688	140.41772	43.67846	0.34708	12.52873	395348.2764	0.56999	1.80632E-5	1890.77446	34239.40018	50.02366	14467.376
1185.0	0.97697	0.0230345	8.16982	7.5194	-4.81594	18.02024	29.04454	1.23	0.81301	120.13513	140.7332	44.61833	0.34625	12.54573	434463.5133	0.56727	1.63808E-5	1893.86511	33998.25541	48.22895	14519.695
1180.0	0.98346	0.0165435	8.1771	7.51415	-4.88242	17.88405	28.98905	1.22812	0.81425	123.87072	141.09568	46.05008	0.34496	12.60018	483198.3579	0.56289	1.46782E-5	1896.94851	33714.69932	56.71122	14614.886
1175.0	0.99365	0.00634932	8.18774	7.50701	-4.97279	17.66937	28.94401	1.2258	0.81579	129.58171	141.52694	48.24382	0.34299	12.72771	546376.2965	0.55533	1.29363E-5	1900.02088	33371.86513	68.56684	14769.81
1170.0	1.0	0.0	8.19572	7.50151	-5.04245	17.52009	28.88486	1.22407	0.81694	134.78281	141.91029	50.22821	0.3417	 	607647.6686	 	1.15917E-5	 	33088.38907	56.69521	14865.828
1165.0	1.0	0.0	8.19844	7.49902	-5.07393	17.49417	28.80826	1.22308	0.81761	135.16326	142.18077	50.37543	0.34156	 	657887.2967	 	1.06694E-5	 	32895.29368	38.61908	 
1160.0	1.0	0.0	8.20115	7.49654	-5.10533	17.46828	28.73162	1.22207	0.81828	135.54304	142.4503	50.52242	0.34141	 	712667.2879	 	9.81503E-6	 	32721.29263	34.80021	 
1155.0	1.0	0.0	8.20386	7.49406	-5.13664	17.44244	28.65495	1.22107	0.81895	135.92215	142.71889	50.66918	0.34127	 	772432.2605	 	9.02402E-6	 	32547.64816	34.72889	 
1150.0	1.0	0.0	8.20656	7.4916	-5.16788	17.41663	28.57825	1.22006	0.81963	136.3006	142.98653	50.81571	0.34113	 	837673.6404	 	8.29206E-6	 	32374.35808	34.65802	 
1145.0	1.0	0.0	8.20926	7.48914	-5.19903	17.39087	28.50152	1.21905	0.82031	136.67838	143.25322	50.96202	0.34098	 	908935.0723	 	7.61511E-6	 	32201.42022	34.58757	 
1140.0	1.0	0.0	8.21195	7.48668	-5.23011	17.36513	28.42475	1.21803	0.821	137.05549	143.51897	51.1081	0.34084	 	986818.1451	 	6.98937E-6	 	32028.83243	34.51756	 
1135.0	1.0	0.0	8.21464	7.48423	-5.2611	17.33944	28.34795	1.21701	0.82169	137.43193	143.78376	51.25395	0.3407	 	1071989.15	 	6.41129E-6	 	31856.59258	34.44797	 
1130.0	1.0	0.0	8.21732	7.48179	-5.29202	17.31378	28.27111	1.21598	0.82238	137.8077	144.0476	51.39957	0.34055	 	1165186.444	 	5.87754E-6	 	31684.69856	34.3788	 
1125.0	1.0	0.0	8.22	7.47935	-5.32285	17.28815	28.19425	1.21495	0.82308	138.1828	144.31048	51.54496	0.34041	 	1267228.887	 	5.385E-6	 	31513.14827	34.31006	 
1120.0	1.0	0.0	8.22267	7.47692	-5.35361	17.26256	28.11735	1.21392	0.82378	138.55723	144.5724	51.69013	0.34027	 	1379025.048	 	4.93074E-6	 	31341.93965	34.24172	 
1115.0	1.0	0.0	8.22533	7.4745	-5.38429	17.237	28.04043	1.21288	0.82448	138.93099	144.83337	51.83507	0.34013	 	1501583.892	 	4.51205E-6	 	31171.07065	34.1738	 
1110.0	1.0	0.0	8.228	7.47208	-5.41489	17.21148	27.96348	1.21184	0.82519	139.30408	145.09337	51.97978	0.33998	 	1636026.482	 	4.12635E-6	 	31000.53924	34.10628	 
1105.0	1.0	0.0	8.23065	7.46967	-5.44541	17.18598	27.88649	1.21079	0.82591	139.6765	145.35242	52.12426	0.33984	 	1783599.412	 	3.77125E-6	 	30830.34343	34.03916	 
1100.0	1.0	0.0	8.2333	7.46727	-5.47585	17.16052	27.80948	1.20974	0.82663	140.04825	145.6105	52.26851	0.3397	 	1945689.822	 	3.44454E-6	 	30660.48122	33.97244	 
1095.0	1.0	0.0	8.23595	7.46487	-5.50622	17.13509	27.73244	1.20868	0.82735	140.41933	145.86762	52.41254	0.33956	 	2123842.096	 	3.14411E-6	 	30490.95065	33.90611	 
1090.0	1.0	0.0	8.23859	7.46248	-5.53651	17.10968	27.65538	1.20762	0.82808	140.78974	146.12378	52.55634	0.33942	 	2319777.316	 	2.86803E-6	 	30321.74979	33.84017	 
1085.0	1.0	0.0	8.24122	7.46009	-5.56673	17.08431	27.57829	1.20655	0.82881	141.15948	146.37897	52.69991	0.33928	 	2535414.51	 	2.61448E-6	 	30152.87672	33.77461	 
1080.0	1.0	0.0	8.24386	7.45771	-5.59686	17.05897	27.50117	1.20548	0.82954	141.52855	146.6332	52.84326	0.33914	 	2772895.102	 	2.38177E-6	 	29984.32953	33.70944	 
1075.0	1.0	0.0	8.24648	7.45533	-5.62692	17.03365	27.42402	1.20441	0.83028	141.89695	146.88647	52.98637	0.33899	 	3034610.288	 	2.16831E-6	 	29816.10636	33.64463	 
1070.0	1.0	0.0	8.2491	7.45296	-5.65691	17.00836	27.34685	1.20333	0.83103	142.26468	147.13877	53.12926	0.33885	 	3323232.58	 	1.97265E-6	 	29648.20536	33.5802	 
1065.0	1.0	0.0	8.25172	7.4506	-5.68682	16.9831	27.26966	1.20224	0.83178	142.63175	147.3901	53.27193	0.33871	 	3641750.616	 	1.79342E-6	 	29480.6247	33.51613	 
1060.0	1.0	0.0	8.25433	7.44824	-5.71665	16.95787	27.19244	1.20115	0.83254	142.99815	147.64047	53.41437	0.33857	 	3993509.085	 	1.62934E-6	 	29313.36258	33.45243	 
1055.0	1.0	0.0	8.25694	7.44589	-5.74641	16.93266	27.11519	1.20005	0.8333	143.36388	147.88987	53.55658	0.33843	 	4382254.781	 	1.47923E-6	 	29146.4172	33.38908	 
1050.0	1.0	0.0	8.25954	7.44355	-5.7761	16.90748	27.03793	1.19895	0.83406	143.72895	148.13831	53.69856	0.33829	 	4812187.051	 	1.342E-6	 	28979.78682	33.32608	 
1045.0	1.0	0.0	8.26213	7.44121	-5.80571	16.88232	26.96064	1.19785	0.83483	144.09335	148.38578	53.84032	0.33815	 	5288017.11	 	1.21663E-6	 	28813.46969	33.26343	 
1040.0	1.0	0.0	8.26473	7.43888	-5.83524	16.85719	26.88332	1.19673	0.83561	144.45709	148.63229	53.98186	0.33802	 	5815033.935	 	1.10217E-6	 	28647.4641	33.20112	 
1035.0	1.0	0.0	8.26731	7.43655	-5.86471	16.83208	26.80599	1.19562	0.83639	144.82016	148.87783	54.12317	0.33788	 	6399180.141	 	9.97746E-7	 	28481.76835	33.13915	 
1030.0	1.0	0.0	8.26989	7.43423	-5.89409	16.807	26.72863	1.19449	0.83717	145.18257	149.12241	54.26426	0.33774	 	7047138.176	 	9.02544E-7	 	28316.38079	33.07751	 
1025.0	1.0	0.0	8.27247	7.43191	-5.92341	16.78194	26.65125	1.19337	0.83797	145.54432	149.36602	54.40512	0.3376	 	7766428.716	 	8.15812E-7	 	28151.29976	33.01621	 
1020.0	1.0	0.0	8.27504	7.4296	-5.95265	16.7569	26.57386	1.19223	0.83876	145.90541	149.60867	54.54576	0.33746	 	8565522.237	 	7.36855E-7	 	27986.52363	32.95523	 
1015.0	1.0	0.0	8.27761	7.4273	-5.98182	16.73189	26.49644	1.19109	0.83957	146.26583	149.85036	54.68617	0.33732	 	9453967.527	 	6.65027E-7	 	27822.05082	32.89456	 
1010.0	1.0	0.0	8.28017	7.425	-6.01091	16.70689	26.419	1.18995	0.84037	146.6256	150.09109	54.82636	0.33718	 	1.044253763E7	 	5.99733E-7	 	27657.87971	32.83422	 
1005.0	1.0	0.0	8.28273	7.42271	-6.03993	16.68192	26.34154	1.18879	0.84119	146.98471	150.33086	54.96633	0.33704	 	1.15433979E7	 	5.40424E-7	 	27494.00878	32.77419	 
1000.0	1.0	0.0	8.28528	7.42042	-6.06888	16.65697	26.26406	1.18764	0.84201	147.34316	150.56966	55.10608	0.3369	 	1.277029616E7	 	4.86592E-7	 	27330.43646	32.71446	 
995.0	1.0	0.0	8.28783	7.41814	-6.09776	16.63204	26.18656	1.18647	0.84283	147.70096	150.80751	55.24561	0.33677	 	1.413878463E7	 	4.37769E-7	 	27167.16127	32.65504	 
990.0	1.0	0.0	8.29037	7.41586	-6.12656	16.60713	26.10904	1.1853	0.84366	148.0581	151.0444	55.38491	0.33663	 	1.56664693E7	 	3.93523E-7	 	27004.18169	32.59592	 
985.0	1.0	0.0	8.29291	7.41359	-6.15529	16.58224	26.03151	1.18413	0.8445	148.41458	151.28033	55.52399	0.33649	 	1.73733015E7	 	3.53457E-7	 	26841.49626	32.53709	 
980.0	1.0	0.0	8.29544	7.41133	-6.18395	16.55738	25.95395	1.18295	0.84535	148.77041	151.51531	55.66285	0.33635	 	1.928191035E7	 	3.17205E-7	 	26679.10352	32.47855	 
975.0	1.0	0.0	8.29797	7.40907	-6.21254	16.53253	25.87638	1.18176	0.8462	149.12559	151.74933	55.8015	0.33621	 	2.141798359E7	 	2.8443E-7	 	26517.00205	32.42029	 
970.0	1.0	0.0	8.3005	7.40682	-6.24106	16.5077	25.79879	1.18057	0.84705	149.48012	151.9824	55.93992	0.33608	 	2.381070999E7	 	2.54823E-7	 	26355.19043	32.36232	 
965.0	1.0	0.0	8.30302	7.40457	-6.2695	16.48289	25.72118	1.17937	0.84791	149.834	152.21452	56.07812	0.33594	 	2.649328699E7	 	2.28099E-7	 	26193.66729	32.30463	 
960.0	1.0	0.0	8.30553	7.40233	-6.29788	16.4581	25.64356	1.17816	0.84878	150.18723	152.44569	56.21611	0.3358	 	2.950350798E7	 	2.03999E-7	 	26032.43124	32.24721	 
955.0	1.0	0.0	8.30804	7.40009	-6.32618	16.43332	25.56592	1.17694	0.84966	150.53981	152.67591	56.35387	0.33567	 	3.288443629E7	 	1.82284E-7	 	25871.48093	32.19006	 
950.0	1.0	0.0	8.31054	7.39786	-6.35441	16.40857	25.48826	1.17572	0.85054	150.89174	152.90518	56.49142	0.33553	 	3.668519293E7	 	1.62733E-7	 	25710.81505	32.13318	 
945.0	1.0	0.0	8.31304	7.39564	-6.38257	16.38383	25.41059	1.1745	0.85143	151.24303	153.13351	56.62875	0.33539	 	4.09618587E7	 	1.45147E-7	 	25550.43228	32.07655	 
940.0	1.0	0.0	8.31554	7.39342	-6.41066	16.35911	25.3329	1.17326	0.85232	151.59367	153.36089	56.76586	0.33525	 	4.577852633E7	 	1.29342E-7	 	25390.33132	32.02019	 
935.0	1.0	0.0	8.31803	7.39121	-6.43868	16.33441	25.25519	1.17202	0.85323	151.94367	153.58733	56.90276	0.33512	 	5.120851653E7	 	1.1515E-7	 	25230.51091	31.96408	 
930.0	1.0	0.0	8.32052	7.389	-6.46663	16.30973	25.17747	1.17078	0.85413	152.29303	153.81283	57.03944	0.33498	 	5.73357985E7	 	1.02419E-7	 	25070.9698	31.90822	 
925.0	1.0	0.0	8.323	7.3868	-6.4945	16.28506	25.09973	1.16952	0.85505	152.64174	154.03739	57.1759	0.33484	 	6.425662378E7	 	9.10081E-8	 	24911.70673	31.85261	 
920.0	1.0	0.0	8.32547	7.3846	-6.52231	16.26041	25.02198	1.16826	0.85597	152.98982	154.26101	57.31215	0.33471	 	7.208144784E7	 	8.07901E-8	 	24752.72051	31.79724	 
915.0	1.0	0.0	8.32794	7.38241	-6.55005	16.23578	24.94421	1.16699	0.8569	153.33725	154.4837	57.44818	0.33457	 	8.093715622E7	 	7.1649E-8	 	24594.00992	31.74212	 
910.0	1.0	0.0	8.33041	7.38022	-6.57771	16.21116	24.86643	1.16572	0.85784	153.68405	154.70545	57.584	0.33443	 	9.096966468E7	 	6.3479E-8	 	24435.57378	31.68723	 
905.0	1.0	0.0	8.33287	7.37804	-6.60531	16.18656	24.78863	1.16443	0.85879	154.03021	154.92627	57.7196	0.3343	 	1.023469451E8	 	5.6184E-8	 	24277.41092	31.63257	 
900.0	1.0	0.0	8.33533	7.37587	-6.63284	16.16198	24.71082	1.16314	0.85974	154.37574	155.14617	57.85499	0.33416	 	1.152625909E8	 	4.96766E-8	 	24119.52019	31.57815	 
895.0	1.0	0.0	8.33778	7.3737	-6.66029	16.13741	24.63299	1.16184	0.8607	154.72062	155.36513	57.99016	0.33402	 	1.299399516E8	 	4.38776E-8	 	23961.90047	31.52394	 
890.0	1.0	0.0	8.34023	7.37153	-6.68768	16.11286	24.55515	1.16054	0.86167	155.06488	155.58317	58.12513	0.33389	 	1.466370107E8	 	3.8715E-8	 	23804.55061	31.46997	 
885.0	1.0	0.0	8.34267	7.36938	-6.715	16.08833	24.47729	1.15922	0.86265	155.4085	155.80029	58.25988	0.33375	 	1.656520753E8	 	3.41236E-8	 	23647.46953	31.41622	 
880.0	1.0	0.0	8.34511	7.36722	-6.74224	16.06381	24.39942	1.1579	0.86363	155.75149	156.01648	58.39441	0.33362	 	1.873304947E8	 	3.00444E-8	 	23490.65604	31.3627	 
875.0	1.0	0.0	8.34754	7.36508	-6.76942	16.03931	24.32154	1.15657	0.86462	156.09385	156.23176	58.52874	0.33348	 	2.120725388E8	 	2.64241E-8	 	23334.10908	31.30939	 
870.0	1.0	0.0	8.34997	7.36294	-6.79653	16.01482	24.24364	1.15524	0.86562	156.43558	156.44612	58.66285	0.33334	 	2.403426602E8	 	2.32145E-8	 	23177.82769	31.25628	 
866.22	1.0	0.0	8.3518	7.36132	-6.81696	15.99633	24.18479	1.15422	0.86638	156.69331	156.60744	58.76402	0.33324	 	2.643625987E8	 	2.10355E-8	 	23059.94788	 	 
865.0	1.0	0.0	8.35265	7.36057	-6.82643	15.97767	24.16327	1.15401	0.86654	156.79875	156.66665	58.80573	0.33319	 	2.731050834E8	 	2.03403E-8	 	23009.05443	33.75465	 
860.0	1.0	0.0	8.35609	7.35754	-6.86484	15.90218	24.0751	1.15315	0.86719	157.22523	156.90573	58.97447	0.33299	 	3.121478413E8	 	1.7718E-8	 	22802.45579	41.31973	 
855.0	1.0	0.0	8.35949	7.35454	-6.90275	15.82796	23.98818	1.15222	0.86789	157.64628	157.14175	59.14109	0.3328	 	3.571261312E8	 	1.54181E-8	 	22598.15309	40.86054	 
850.0	1.0	0.0	8.36286	7.35159	-6.94021	15.75495	23.90208	1.15125	0.86862	158.06197	157.37467	59.30561	0.33261	 	4.090007E8	 	1.3403E-8	 	22396.0571	40.4192	 
845.0	1.0	0.0	8.36526	7.34948	-6.96692	15.72978	23.82441	1.14986	0.86967	158.39984	157.58465	59.43838	0.33247	 	4.661721321E8	 	1.17069E-8	 	22244.37698	30.33602	 
840.0	1.0	0.0	8.36766	7.34737	-6.99356	15.70461	23.74673	1.14846	0.87073	158.7371	157.79372	59.57093	0.33234	 	5.319600618E8	 	1.02132E-8	 	22089.85245	30.90491	 
835.0	1.0	0.0	8.37005	7.34527	-7.02014	15.67945	23.66904	1.14705	0.8718	159.07374	158.00188	59.70328	0.3322	 	6.077558126E8	 	8.89931E-9	 	21935.58094	30.8543	 
830.0	1.0	0.0	8.37243	7.34318	-7.04664	15.65429	23.59133	1.14564	0.87287	159.40976	158.20912	59.83542	0.33207	 	6.951901703E8	 	7.74493E-9	 	21781.56186	30.80382	 
825.0	1.0	0.0	8.37482	7.34109	-7.07308	15.62913	23.51362	1.14422	0.87396	159.74517	158.41546	59.96736	0.33193	 	7.961771248E8	 	6.73192E-9	 	21627.79457	30.75346	 
820.0	1.0	0.0	8.37719	7.339	-7.09946	15.60398	23.4359	1.14278	0.87506	160.07996	158.62089	60.09909	0.3318	 	9.129660624E8	 	5.84402E-9	 	21474.27847	30.70322	 
815.0	1.0	0.0	8.37957	7.33693	-7.12576	15.57882	23.35816	1.14134	0.87616	160.41413	158.82542	60.23061	0.33167	 	1.048204128E9	 	5.06675E-9	 	21321.01293	30.65311	 
810.0	1.0	0.0	8.38193	7.33485	-7.15199	15.55367	23.28042	1.13989	0.87728	160.74768	159.02905	60.36192	0.33153	 	1.205010848E9	 	4.38717E-9	 	21167.99733	30.60312	 
805.0	1.0	0.0	8.3843	7.33279	-7.17816	15.52853	23.20266	1.13843	0.8784	161.08062	159.23178	60.49303	0.3314	 	1.387067551E9	 	3.79375E-9	 	21015.23104	30.55326	 
800.0	1.0	0.0	8.38666	7.33073	-7.20426	15.50338	23.12489	1.13696	0.87953	161.41295	159.43361	60.62393	0.33126	 	1.598724688E9	 	3.27622E-9	 	20862.71342	30.50352	 
795.0	1.0	0.0	8.38901	7.32867	-7.23029	15.47823	23.04711	1.13549	0.88068	161.74466	159.63455	60.75463	0.33113	 	1.845130811E9	 	2.82548E-9	 	20710.44383	30.45392	 
790.0	1.0	0.0	8.39136	7.32662	-7.25626	15.45309	22.96931	1.134	0.88183	162.07575	159.83459	60.88512	0.331	 	2.132387841E9	 	2.43341E-9	 	20558.42164	30.40444	 
785.0	1.0	0.0	8.3937	7.32457	-7.28215	15.42795	22.8915	1.1325	0.883	162.40622	160.03375	61.0154	0.33086	 	2.467738243E9	 	2.09283E-9	 	20406.64618	30.35509	 
780.0	1.0	0.0	8.39604	7.32253	-7.30798	15.40282	22.81368	1.131	0.88418	162.73608	160.23202	61.14548	0.33073	 	2.859791041E9	 	1.79739E-9	 	20255.11682	30.30587	 
775.0	1.0	0.0	8.39837	7.3205	-7.33374	15.37768	22.73585	1.12948	0.88536	163.06533	160.4294	61.27534	0.33059	 	3.31879515E9	 	1.54145E-9	 	20103.83286	30.25679	 
770.0	1.0	0.0	8.4007	7.31847	-7.35943	15.35255	22.65801	1.12795	0.88656	163.39395	160.6259	61.40501	0.33046	 	3.85697046E9	 	1.32004E-9	 	19952.79366	30.20784	 
765.0	1.0	0.0	8.40303	7.31644	-7.38505	15.32742	22.58015	1.12642	0.88777	163.72196	160.82152	61.53446	0.33033	 	4.488909536E9	 	1.12877E-9	 	19801.99852	30.15903	 
760.0	1.0	0.0	8.40535	7.31442	-7.41061	15.30229	22.50228	1.12487	0.88899	164.04936	161.01626	61.66371	0.33019	 	5.232065788E9	 	9.63778E-10	 	19651.44677	30.11035	 
755.0	1.0	0.0	8.40766	7.31241	-7.43609	15.27717	22.42439	1.12332	0.89022	164.37614	161.21013	61.79275	0.33006	 	6.10734771E9	 	8.21657E-10	 	19501.13771	30.06181	 
750.0	1.0	0.0	8.40997	7.3104	-7.46151	15.25204	22.34649	1.12175	0.89146	164.7023	161.40312	61.92158	0.32993	 	7.139843476E9	 	6.99419E-10	 	19351.07063	30.01342	 
745.0	1.0	0.0	8.41227	7.3084	-7.48686	15.22692	22.26858	1.12017	0.89272	165.02785	161.59525	62.0502	0.32979	 	8.359705984E9	 	5.94439E-10	 	19201.24481	29.96516	 
740.0	1.0	0.0	8.41457	7.3064	-7.51215	15.2018	22.19065	1.11859	0.89399	165.35279	161.7865	62.17862	0.32966	 	9.803235769E9	 	5.04418E-10	 	19051.65954	29.91706	 
735.0	1.0	0.0	8.41687	7.30441	-7.53736	15.17669	22.11271	1.11699	0.89526	165.67711	161.97688	62.30683	0.32953	 	1.15142E10	 	4.27344E-10	 	18902.31407	29.86909	 
730.0	1.0	0.0	8.41916	7.30242	-7.56251	15.15157	22.03476	1.11538	0.89655	166.00081	162.1664	62.43484	0.32939	 	1.3545499999999998E10	 	3.61458E-10	 	18753.20765	29.82128	 
725.0	1.0	0.0	8.42144	7.30044	-7.58759	15.12646	21.95679	1.11376	0.89786	166.3239	162.35506	62.56263	0.32926	 	1.5961099999999998E10	 	3.05224E-10	 	18604.33952	29.77363	 
720.0	1.0	0.0	8.42372	7.29847	-7.6126	15.10135	21.8788	1.11213	0.89917	166.64637	162.54286	62.69022	0.32913	 	1.88386E10	 	2.57308E-10	 	18455.70889	29.72612	 
715.0	1.0	0.0	8.426	7.2965	-7.63755	15.07625	21.8008	1.11049	0.9005	166.96822	162.7298	62.8176	0.32899	 	2.22722E10	 	2.16544E-10	 	18307.31499	29.67878	 
710.0	1.0	0.0	8.42827	7.29453	-7.66242	15.05114	21.72279	1.10884	0.90184	167.28946	162.91588	62.94477	0.32886	 	2.6376499999999996E10	 	1.81924E-10	 	18159.15699	29.6316	 
705.0	1.0	0.0	8.43053	7.29257	-7.68723	15.02604	21.64476	1.10718	0.90319	167.61009	163.10111	63.07174	0.32873	 	3.1291099999999996E10	 	1.52571E-10	 	18011.23406	29.58459	 
700.0	1.0	0.0	8.43279	7.29062	-7.71197	15.00094	21.56671	1.10551	0.90456	167.9301	163.28548	63.1985	0.32859	 	3.71868E10	 	1.27726E-10	 	17863.54536	29.53774	 
695.0	1.0	0.0	8.43505	7.28867	-7.73664	14.97584	21.48865	1.10382	0.90594	168.2495	163.46901	63.32505	0.32846	 	4.42721E10	 	1.06733E-10	 	17716.09002	29.49107	 
690.0	1.0	0.0	8.4373	7.28672	-7.76125	14.95075	21.41057	1.10213	0.90734	168.56828	163.65169	63.45139	0.32833	 	5.280289999999999E10	 	8.90272E-11	 	17568.86715	29.44457	 
685.0	1.0	0.0	8.43954	7.28479	-7.78578	14.92565	21.33247	1.10042	0.90874	168.88645	163.83353	63.57752	0.32819	 	6.309349999999999E10	 	7.41201E-11	 	17421.87585	29.39826	 
680.0	1.0	0.0	8.44178	7.28285	-7.81025	14.90056	21.25436	1.0987	0.91017	169.204	164.01452	63.70345	0.32806	 	7.55305E10	 	6.15922E-11	 	17275.11515	29.35214	 
675.0	1.0	0.0	8.44402	7.28093	-7.83465	14.87547	21.17623	1.09697	0.9116	169.52093	164.19467	63.82917	0.32793	 	9.05908E10	 	5.10834E-11	 	17128.58411	29.30621	 
670.0	1.0	0.0	8.44625	7.279	-7.85899	14.85039	21.09809	1.09523	0.91305	169.83726	164.37398	63.95468	0.32779	 	1.08864E11	 	4.22848E-11	 	16982.28172	29.26048	 
665.0	1.0	0.0	8.44847	7.27709	-7.88325	14.8253	21.01992	1.09347	0.91452	170.15296	164.55245	64.07998	0.32766	 	1.31079E11	 	3.49322E-11	 	16836.20697	29.21495	 
660.0	1.0	0.0	8.45069	7.27517	-7.90745	14.80022	20.94174	1.0917	0.916	170.46805	164.73009	64.20507	0.32753	 	1.58142E11	 	2.87999E-11	 	16690.3604	29.16931	 
655.0	1.0	0.0	8.45291	7.27327	-7.93158	14.77514	20.86354	1.08992	0.9175	170.78253	164.9069	64.32996	0.3274	 	1.91179E11	 	2.36955E-11	 	16544.75069	29.12194	 
650.0	1.0	0.0	8.45512	7.27137	-7.95564	14.75006	20.78533	1.08813	0.91901	171.09639	165.08288	64.45464	0.32726	 	2.31592E11	 	1.94552E-11	 	16399.38946	29.07225	 
645.0	1.0	0.0	8.45732	7.26947	-7.97963	14.72499	20.70709	1.08633	0.92053	171.40964	165.25802	64.57911	0.32713	 	2.81136E11	 	1.59398E-11	 	16254.27607	29.02268	 
640.0	1.0	0.0	8.45952	7.26758	-8.00356	14.69992	20.62883	1.08451	0.92208	171.72228	165.43234	64.70337	0.327	 	3.42003E11	 	1.30316E-11	 	16109.40991	28.97323	 
635.0	1.0	0.0	8.46172	7.2657	-8.02742	14.67485	20.55056	1.08268	0.92363	172.0343	165.60584	64.82742	0.32686	 	4.16947E11	 	1.06307E-11	 	15964.79034	28.92391	 
630.0	1.0	0.0	8.46391	7.26382	-8.05121	14.64978	20.47227	1.08084	0.92521	172.3457	165.77852	64.95126	0.32673	 	5.09431E11	 	8.65289E-12	 	15820.41674	28.87472	 
625.0	1.0	0.0	8.46609	7.26194	-8.07493	14.62471	20.39395	1.07898	0.9268	172.65649	165.95037	65.0749	0.3266	 	6.23818E11	 	7.02713E-12	 	15676.28842	28.82567	 
620.0	1.0	0.0	8.46827	7.26007	-8.09859	14.59965	20.31562	1.07711	0.92841	172.96667	166.1214	65.19832	0.32647	 	7.65624E11	 	5.69371E-12	 	15532.40454	28.77678	 
615.0	1.0	0.0	8.47044	7.25821	-8.12218	14.57459	20.23727	1.07523	0.93004	173.27623	166.29162	65.32154	0.32633	 	9.41835E11	 	4.60255E-12	 	15388.7646	28.72799	 
610.0	1.0	0.0	8.47261	7.25635	-8.1457	14.54953	20.15889	1.07333	0.93168	173.58518	166.46103	65.44455	0.3262	 	1.16132E12	 	3.71166E-12	 	15245.368	28.67932	 
605.0	1.0	0.0	8.47478	7.2545	-8.16915	14.52448	20.0805	1.07142	0.93334	173.89351	166.62962	65.56735	0.32607	 	1.43538E12	 	2.986E-12	 	15102.21412	28.63078	 
600.0	1.0	0.0	8.47693	7.25265	-8.19253	14.49942	20.00208	1.0695	0.93502	174.20123	166.7974	65.68994	0.32594	 	1.77842E12	 	2.3963E-12	 	14959.30237	28.58235	 
595.0	1.0	0.0	8.47909	7.25081	-8.21585	14.47437	19.92365	1.06756	0.93672	174.50833	166.96437	65.81233	0.3258	 	2.20889E12	 	1.91826E-12	 	14816.63216	28.53404	 
590.0	1.0	0.0	8.48124	7.24897	-8.2391	14.44932	19.84519	1.06561	0.93843	174.81482	167.13054	65.9345	0.32567	 	2.75045E12	 	1.53168E-12	 	14674.20287	28.48586	 
585.0	1.0	0.0	8.48338	7.24714	-8.26228	14.42427	19.7667	1.06364	0.94017	175.1207	167.2959	66.05646	0.32554	 	3.43355E12	 	1.21985E-12	 	14532.01393	28.43779	 
580.0	1.0	0.0	8.48552	7.24532	-8.2854	14.39923	19.6882	1.06166	0.94192	175.42596	167.46046	66.17822	0.32541	 	4.29747E12	 	9.68944E-13	 	14390.06474	28.38984	 
575.0	1.0	0.0	8.48765	7.2435	-8.30844	14.37419	19.60967	1.05966	0.94369	175.73061	167.62422	66.29977	0.32527	 	5.39302E12	 	7.67587E-13	 	14248.35472	28.342	 
570.0	1.0	0.0	8.48978	7.24168	-8.33142	14.34915	19.53112	1.05765	0.94549	176.03465	167.78719	66.4211	0.32514	 	6.78609E12	 	6.06417E-13	 	14106.88327	28.29429	 
565.0	1.0	0.0	8.4919	7.23987	-8.35433	14.32411	19.45254	1.05563	0.9473	176.33807	167.94935	66.54223	0.32501	 	8.56246E12	 	4.7776E-13	 	13965.64984	28.24669	 
560.0	1.0	0.0	8.49402	7.23807	-8.37718	14.29907	19.37395	1.05359	0.94914	176.64088	168.11072	66.66315	0.32488	 	1.0834E13	 	3.75336E-13	 	13824.65384	28.1992	 
555.0	1.0	0.0	8.49613	7.23627	-8.39995	14.27404	19.29532	1.05153	0.95099	176.94307	168.2713	66.78386	0.32474	 	1.37472E13	 	2.94023E-13	 	13683.89469	28.15183	 
550.0	1.0	0.0	8.49824	7.23447	-8.42266	14.24901	19.21667	1.04946	0.95287	177.24465	168.43108	66.90436	0.32461	 	1.74942E13	 	2.29652E-13	 	13543.37183	28.10457	 
545.0	1.0	0.0	8.50034	7.23269	-8.4453	14.22398	19.138	1.04738	0.95477	177.54561	168.59008	67.02465	0.32448	 	2.23283E13	 	1.7884E-13	 	13403.08469	28.05743	 
540.0	1.0	0.0	8.50243	7.2309	-8.46787	14.19895	19.0593	1.04527	0.95669	177.84597	168.74829	67.14473	0.32435	 	2.85838E13	 	1.38848E-13	 	13263.03272	28.01039	 
535.0	1.0	0.0	8.50452	7.22912	-8.49038	14.17393	18.98057	1.04315	0.95863	178.1457	168.90572	67.2646	0.32422	 	3.67037E13	 	1.07465E-13	 	13123.21536	27.96347	 
530.0	1.0	0.0	8.50661	7.22735	-8.51282	14.14891	18.90182	1.04102	0.9606	178.44483	169.06236	67.38426	0.32408	 	4.72774E13	 	8.29144E-14	 	12983.63205	27.91666	 
525.0	1.0	0.0	8.50869	7.22558	-8.53519	14.12389	18.82304	1.03887	0.96258	178.74334	169.21822	67.50372	0.32395	 	6.10905E13	 	6.37672E-14	 	12844.28225	27.86996	 
520.0	1.0	0.0	8.51077	7.22382	-8.55749	14.09887	18.74423	1.0367	0.9646	179.04124	169.3733	67.62296	0.32382	 	7.9195E13	 	4.88815E-14	 	12705.16541	27.82337	 
515.0	1.0	0.0	8.51284	7.22207	-8.57973	14.07386	18.66539	1.03452	0.96663	179.33852	169.5276	67.74199	0.32369	 	1.03004E14	 	3.7346E-14	 	12566.281	27.77688	 
510.0	1.0	0.0	8.5149	7.22031	-8.60189	14.04885	18.58653	1.03232	0.9687	179.63519	169.68113	67.86081	0.32356	 	1.3441999999999998E14	 	2.8436E-14	 	12427.62848	27.7305	 
505.0	1.0	0.0	8.51696	7.21857	-8.62399	14.02384	18.50763	1.0301	0.97078	179.93125	169.83389	67.97943	0.32342	 	1.7602E14	 	2.15769E-14	 	12289.20731	27.68423	 
500.0	1.0	0.0	8.51901	7.21683	-8.64603	13.99883	18.42871	1.02786	0.97289	180.22669	169.98587	68.09783	0.32329	 	2.31299E14	 	1.63146E-14	 	12151.01698	27.63807	 
495.0	1.0	0.0	8.52106	7.21509	-8.66799	13.97382	18.34975	1.02561	0.97503	180.52152	170.13708	68.21602	0.32316	 	3.05021E14	 	1.22914E-14	 	12013.05697	27.592	 
490.0	1.0	0.0	8.52311	7.21336	-8.68989	13.94882	18.27077	1.02334	0.97719	180.81574	170.28752	68.334	0.32303	 	4.03702E14	 	9.22648E-15	 	11875.32676	27.54604	 
485.0	1.0	0.0	8.52515	7.21164	-8.71172	13.92382	18.19175	1.02105	0.97938	181.10934	170.4372	68.45178	0.3229	 	5.3628699999999994E14	 	6.89993E-15	 	11737.82585	27.50018	 
480.0	1.0	0.0	8.52718	7.20992	-8.73348	13.89882	18.1127	1.01874	0.9816	181.40233	170.58611	68.56934	0.32277	 	7.15107E14	 	5.1404E-15	 	11600.55372	27.45443	 
475.0	1.0	0.0	8.52921	7.20821	-8.75518	13.87382	18.03362	1.01642	0.98385	181.69471	170.73426	68.68669	0.32263	 	9.57228E14	 	3.81469E-15	 	11463.50989	27.40877	 
470.0	1.0	0.0	8.53123	7.2065	-8.77681	13.84883	17.95451	1.01407	0.98612	181.98647	170.88165	68.80383	0.3225	 	1.28636E15	 	2.81967E-15	 	11326.69387	27.3632	 
465.0	1.0	0.0	8.53324	7.20479	-8.79837	13.82384	17.87536	1.01171	0.98843	182.27762	171.02828	68.92076	0.32237	 	1.73561E15	 	2.07577E-15	 	11190.10515	27.31774	 
460.0	1.0	0.0	8.53526	7.2031	-8.81986	13.79885	17.79618	1.00933	0.99076	182.56816	171.17415	69.03748	0.32224	 	2.35133E15	 	1.52183E-15	 	11053.74328	27.27237	 
455.0	1.0	0.0	8.53726	7.2014	-8.84129	13.77386	17.71697	1.00693	0.99312	182.85808	171.31927	69.15399	0.32211	 	3.19879E15	 	1.11102E-15	 	10917.60777	27.2271	 
450.0	1.0	0.0	8.53926	7.19972	-8.86265	13.74888	17.63771	1.00451	0.99551	183.14739	171.46363	69.27029	0.32198	 	4.37026E15	 	8.07622E-16	 	10781.69816	27.18192	 
445.0	1.0	0.0	8.54126	7.19803	-8.88394	13.72389	17.55842	1.00206	0.99794	183.43609	171.60724	69.38638	0.32185	 	5.99674E15	 	5.84503E-16	 	10646.01398	27.13683	 
440.0	1.0	0.0	8.54325	7.19636	-8.90516	13.69891	17.4791	0.9996	1.0004	183.72417	171.7501	69.50226	0.32171	 	8.26514E15	 	4.21131E-16	 	10510.5548	27.09184	 
435.0	1.0	0.0	8.54523	7.19469	-8.92632	13.67394	17.39974	0.99712	1.00289	184.01164	171.89222	69.61793	0.32158	 	1.14433E16	 	3.02036E-16	 	10375.32017	27.04693	 
430.0	1.0	0.0	8.54721	7.19302	-8.94741	13.64896	17.32033	0.99462	1.00541	184.2985	172.03358	69.73338	0.32145	 	1.59171E16	 	2.1561E-16	 	10240.30965	27.00211	 
425.0	1.0	0.0	8.54919	7.19136	-8.96843	13.62399	17.24089	0.9921	1.00796	184.58474	172.1742	69.84863	0.32132	 	2.22449E16	 	1.53181E-16	 	10105.52284	26.95736	 
420.0	1.0	0.0	8.55115	7.1897	-8.98938	13.59902	17.16141	0.98956	1.01055	184.87038	172.31408	69.96366	0.32119	 	3.12386E16	 	1.08298E-16	 	9970.95926	26.91272	 
415.0	1.0	0.0	8.55312	7.18805	-9.01027	13.57405	17.08189	0.98699	1.01318	185.15539	172.45321	70.07848	0.32106	 	4.40856E16	 	7.61856E-17	 	9836.61863	26.86813	 
410.0	1.0	0.0	8.55508	7.18641	-9.03109	13.54908	17.00233	0.9844	1.01584	185.4398	172.59161	70.1931	0.32093	 	6.25305E16	 	5.33225E-17	 	9702.50065	26.8236	 
405.0	1.0	0.0	8.55703	7.18477	-9.05184	13.52412	16.92272	0.9818	1.01854	185.72359	172.72927	70.3075	0.3208	 	8.91508E16	 	3.71268E-17	 	9568.60508	26.77911	 
400.0	1.0	0.0	8.55897	7.18314	-9.07253	13.49916	16.84308	0.97917	1.02128	186.00677	172.86619	70.42169	0.32066	 	1.27775E17	 	2.57129E-17	 	9434.93167	26.73468	 
395.0	1.0	0.0	8.56091	7.18151	-9.09314	13.4742	16.76338	0.97651	1.02405	186.28934	173.00237	70.53567	0.32053	 	1.84123E17	 	1.77114E-17	 	9301.48018	26.6903	 
390.0	1.0	0.0	8.56285	7.17988	-9.1137	13.44924	16.68365	0.97384	1.02686	186.5713	173.13783	70.64943	0.3204	 	2.66785E17	 	1.21321E-17	 	9168.25037	26.64596	 
385.0	1.0	0.0	8.56478	7.17826	-9.13418	13.42428	16.60386	0.97114	1.02972	186.85264	173.27255	70.76299	0.32027	 	3.88743E17	 	8.26322E-18	 	9035.24203	26.60167	 
380.0	1.0	0.0	8.56671	7.17665	-9.15459	13.39933	16.52403	0.96842	1.03261	187.13337	173.40654	70.87633	0.32014	 	5.69726E17	 	5.59543E-18	 	8902.45495	26.55741	 
375.0	1.0	0.0	8.56862	7.17504	-9.17494	13.37438	16.44415	0.96567	1.03555	187.41348	173.53981	70.98946	0.32001	 	8.39907E17	 	3.76644E-18	 	8769.88894	26.5132	 
370.0	1.0	0.0	8.57054	7.17344	-9.19522	13.34943	16.36423	0.9629	1.03853	187.69299	173.67235	71.10239	0.31988	 	1.24571E18	 	2.51989E-18	 	8637.5438	26.46903	 
365.0	1.0	0.0	8.57245	7.17185	-9.21544	13.32449	16.28425	0.96011	1.04155	187.97188	173.80416	71.21509	0.31975	 	1.85903E18	 	1.67542E-18	 	8505.41937	26.42489	 
360.0	1.0	0.0	8.57435	7.17025	-9.23559	13.29955	16.20422	0.95729	1.04461	188.25016	173.93525	71.32759	0.31962	 	2.79191E18	 	1.10686E-18	 	8373.51548	26.38078	 
355.0	1.0	0.0	8.57625	7.16867	-9.25566	13.27461	16.12414	0.95445	1.04772	188.52782	174.06562	71.43988	0.31949	 	4.22014E18	 	7.26479E-19	 	8241.832	26.3367	 
350.0	1.0	0.0	8.57814	7.16709	-9.27568	13.24967	16.04401	0.95158	1.05088	188.80487	174.19527	71.55195	0.31936	 	6.42145E18	 	4.73638E-19	 	8110.36878	26.29264	 
345.0	1.0	0.0	8.58003	7.16551	-9.29562	13.22473	15.96382	0.94869	1.05409	189.08131	174.32421	71.66381	0.31922	 	9.83757E18	 	3.06685E-19	 	7979.12571	26.24862	 
340.0	1.0	0.0	8.58191	7.16394	-9.3155	13.1998	15.88357	0.94577	1.05734	189.35714	174.45242	71.77546	0.31909	 	1.51762E19	 	1.97192E-19	 	7848.10268	26.2046	 
335.0	1.0	0.0	8.58378	7.16238	-9.33531	13.17486	15.80327	0.94282	1.06065	189.63236	174.57993	71.8869	0.31896	 	2.35796E19	 	1.25881E-19	 	7717.29961	26.16061	 
330.0	1.0	0.0	8.58565	7.16082	-9.35505	13.14994	15.72291	0.93985	1.064	189.90696	174.70672	71.99813	0.31883	 	3.69047E19	 	7.97683E-20	 	7586.71641	26.11664	 
325.0	1.0	0.0	8.58751	7.15926	-9.37473	13.12501	15.6425	0.93685	1.06741	190.18095	174.8328	72.10914	0.3187	 	5.81941E19	 	5.0167E-20	 	7456.35305	26.07267	 
320.0	1.0	0.0	8.58937	7.15771	-9.39434	13.10008	15.56202	0.93382	1.07087	190.45433	174.95817	72.21994	0.31857	 	9.24722E19	 	3.13069E-20	 	7326.20947	26.02872	 
315.0	1.0	0.0	8.59123	7.15617	-9.41388	13.07516	15.48147	0.93077	1.07438	190.72709	175.08283	72.33053	0.31844	 	1.48103E20	 	1.93826E-20	 	7196.28566	25.98476	 
310.0	1.0	0.0	8.59307	7.15463	-9.43336	13.05024	15.40087	0.92769	1.07795	190.99924	175.20678	72.44091	0.31831	 	2.3912399999999997E20	 	1.19027E-20	 	7066.58161	25.94081	 
305.0	1.0	0.0	8.59492	7.1531	-9.45277	13.02532	15.32019	0.92458	1.08158	191.27079	175.33003	72.55107	0.31818	 	3.8929699999999997E20	 	7.24846E-21	 	6937.09734	25.89685	 
300.0	1.0	0.0	8.59675	7.15157	-9.47211	13.00041	15.23946	0.92144	1.08526	191.54171	175.45258	72.66103	0.31805	 	6.391939999999999E20	 	4.37645E-21	 	6807.8329	25.85289	 
295.0	1.0	0.0	8.59858	7.15005	-9.49138	12.97549	15.15865	0.91827	1.08901	191.81203	175.57442	72.77077	0.31792	 	1.0587E21	 	2.61924E-21	 	6678.78834	25.80891	 
290.0	1.0	0.0	8.60041	7.14853	-9.51059	12.95058	15.07777	0.91507	1.09282	192.08173	175.69557	72.88029	0.31779	 	1.76932E21	 	1.55347E-21	 	6549.96374	25.76492	 
285.0	1.0	0.0	8.60223	7.14702	-9.52973	12.92568	14.99682	0.91184	1.09669	192.35082	175.81602	72.98961	0.31766	 	2.98426E21	 	9.12854E-22	 	6421.35921	25.72091	 
280.0	1.0	0.0	8.60404	7.14551	-9.5488	12.90077	14.9158	0.90858	1.10062	192.6193	175.93577	73.09871	0.31753	 	5.08124E21	 	5.31325E-22	 	6292.97488	25.67687	 
275.0	1.0	0.0	8.60585	7.14401	-9.5678	12.87586	14.8347	0.90529	1.10462	192.88717	176.05482	73.2076	0.3174	 	8.73614E21	 	3.06243E-22	 	6164.8109	25.6328	 
270.0	1.0	0.0	8.60765	7.14251	-9.58674	12.85096	14.75352	0.90197	1.10869	193.15442	176.17318	73.31627	0.31727	 	1.51706E22	 	1.74745E-22	 	6036.86746	25.58869	 
265.0	1.0	0.0	8.60945	7.14102	-9.60561	12.82606	14.67226	0.89861	1.11283	193.42106	176.29085	73.42474	0.31714	 	2.66158E22	 	9.8685E-23	 	5909.14476	25.54454	 
260.0	1.0	0.0	8.61124	7.13954	-9.62442	12.80117	14.59092	0.89523	1.11704	193.68709	176.40783	73.53299	0.31701	 	4.7190499999999995E22	 	5.51418E-23	 	5781.64304	25.50034	 
255.0	1.0	0.0	8.61303	7.13806	-9.64315	12.77627	14.5095	0.89181	1.12132	193.95251	176.52412	73.64102	0.31688	 	8.45824E22	 	3.04764E-23	 	5654.36257	25.45609	 
250.0	1.0	0.0	8.61481	7.13658	-9.66182	12.75138	14.42799	0.88835	1.12568	194.21732	176.63973	73.74885	0.31675	 	1.53303E23	 	1.66557E-23	 	5527.30365	25.41178	 
245.0	1.0	0.0	8.61658	7.13511	-9.68043	12.72649	14.3464	0.88487	1.13011	194.48151	176.75464	73.85646	0.31662	 	2.8106299999999998E23	 	8.99786E-24	 	5400.46662	25.36741	 
240.0	1.0	0.0	8.61835	7.13365	-9.69896	12.7016	14.26471	0.88135	1.13463	194.74509	176.86888	73.96385	0.31649	 	5.21419E23	 	4.80335E-24	 	5273.85184	25.32296	 
235.0	1.0	0.0	8.62011	7.13219	-9.71743	12.67672	14.18293	0.87779	1.13922	195.00806	176.98243	74.07104	0.31636	 	9.791569999999999E23	 	2.53295E-24	 	5147.45973	25.27842	 
230.0	1.0	0.0	8.62187	7.13073	-9.73583	12.65183	14.10105	0.8742	1.1439	195.27042	177.0953	74.17801	0.31623	 	1.8619E24	 	1.31895E-24	 	5021.29072	25.2338	 
225.0	1.0	0.0	8.62362	7.12929	-9.75417	12.62695	14.01907	0.87058	1.14866	195.53216	177.20748	74.28477	0.3161	 	3.58645E24	 	6.77926E-25	 	4895.34529	25.18909	 
220.0	1.0	0.0	8.62537	7.12784	-9.77244	12.60207	13.937	0.86691	1.15352	195.7933	177.319	74.39131	0.31597	 	7.000760000000001E24	 	3.43812E-25	 	4769.62397	25.14426	 
215.0	1.0	0.0	8.62711	7.12641	-9.79064	12.5772	13.85481	0.86321	1.15846	196.05382	177.42983	74.49764	0.31584	 	1.3854E25	 	1.71974E-25	 	4644.12734	25.09933	 
210.0	1.0	0.0	8.62884	7.12497	-9.80877	12.55232	13.77252	0.85948	1.1635	196.31373	177.53999	74.60376	0.31571	 	2.78063E25	 	8.48058E-26	 	4518.85602	25.05426	 
205.0	1.0	0.0	8.63057	7.12355	-9.82684	12.52745	13.69012	0.8557	1.16863	196.57303	177.64948	74.70966	0.31558	 	5.662880000000001E25	 	4.1211E-26	 	4393.81066	25.00907	 
200.0	1.0	0.0	8.63229	7.12212	-9.84484	12.50258	13.60761	0.85189	1.17386	196.83171	177.75829	74.81535	0.31545	 	1.1707400000000001E26	 	1.97254E-26	 	4268.99199	24.96373	 
195.0	1.0	0.0	8.63401	7.12071	-9.86277	12.47772	13.52498	0.84804	1.17919	197.08979	177.86643	74.92083	0.31532	 	2.4582200000000002E26	 	9.29503E-27	 	4144.40079	24.91824	 
190.0	1.0	0.0	8.63572	7.1193	-9.88064	12.45285	13.44223	0.84414	1.18463	197.34725	177.97391	75.02609	0.31519	 	5.2449000000000006E26	 	4.30994E-27	 	4020.03788	24.87258	 
185.0	1.0	0.0	8.63743	7.11789	-9.89844	12.42799	13.35935	0.84021	1.19018	197.6041	178.08072	75.13114	0.31506	 	1.13773E27	 	1.96543E-27	 	3895.90415	24.82675	 
180.0	1.0	0.0	8.63913	7.11649	-9.91617	12.40313	13.27635	0.83624	1.19583	197.86034	178.18686	75.23597	0.31493	 	2.51049E27	 	8.80987E-28	 	3772.00056	24.78072	 
175.0	1.0	0.0	8.64082	7.11509	-9.93384	12.37827	13.19321	0.83222	1.2016	198.11597	178.29233	75.34059	0.3148	 	5.63833E27	 	3.87936E-28	 	3648.32813	24.73448	 
170.0	1.0	0.0	8.64251	7.1137	-9.95143	12.35341	13.10994	0.82816	1.20749	198.37098	178.39715	75.445	0.31467	 	1.28965E28	 	1.67713E-28	 	3524.88796	24.68803	 
165.0	1.0	0.0	8.6442	7.11232	-9.96897	12.32856	13.02652	0.82406	1.2135	198.62539	178.5013	75.54919	0.31454	 	3.0060200000000003E28	 	7.11406E-29	 	3401.68121	24.64135	 
160.0	1.0	0.0	8.64587	7.11094	-9.98643	12.30371	12.94296	0.81992	1.21963	198.87918	178.60479	75.65317	0.31441	 	7.144940000000001E28	 	2.95887E-29	 	3278.70913	24.59442	 
155.0	1.0	0.0	8.64754	7.10956	-10.00383	12.27886	12.85925	0.81573	1.2259	199.13236	178.70762	75.75693	0.31428	 	1.7329500000000002E29	 	1.20586E-29	 	3155.97306	24.54721	 
150.0	1.0	0.0	8.64921	7.10819	-10.02116	12.25402	12.77538	0.8115	1.23229	199.38493	178.8098	75.86048	0.31416	 	4.29209E29	 	4.81185E-30	 	3033.47442	24.49973	 
145.0	1.0	0.0	8.65087	7.10683	-10.03842	12.22917	12.69136	0.80722	1.23882	199.63689	178.91132	75.96381	0.31403	 	1.08635E30	 	1.87866E-30	 	2911.21473	24.45194	 
140.0	1.0	0.0	8.65252	7.10547	-10.05562	12.20433	12.60716	0.80289	1.2455	199.88823	179.01218	76.06693	0.3139	 	2.81212E30	 	7.17069E-31	 	2789.19559	24.40383	 
135.0	1.0	0.0	8.65417	7.10412	-10.07275	12.17949	12.5228	0.79852	1.25232	200.13897	179.11239	76.16984	0.31377	 	7.45104E30	 	2.67356E-31	 	2667.41872	24.35537	 
130.0	1.0	0.0	8.65581	7.10277	-10.08982	12.15465	12.43825	0.7941	1.25929	200.38909	179.21196	76.27253	0.31364	 	2.02254E31	 	9.72872E-32	 	2545.88598	24.30655	 
125.0	1.0	0.0	8.65745	7.10143	-10.10681	12.12982	12.35352	0.78963	1.26642	200.63861	179.31087	76.37501	0.31351	 	5.62951E31	 	3.45194E-32	 	2424.5993	24.25734	 
120.0	1.0	0.0	8.65908	7.10009	-10.12374	12.10499	12.2686	0.78511	1.27371	200.88751	179.40913	76.47727	0.31338	 	1.6082399999999999E32	 	1.19315E-32	 	2303.56079	24.2077	 
115.0	1.0	0.0	8.66071	7.09876	-10.14061	12.08016	12.18348	0.78054	1.28117	201.1358	179.50675	76.57932	0.31325	 	4.7203799999999996E32	 	4.01337E-33	 	2182.77263	24.15763	 
110.0	1.0	0.0	8.66233	7.09743	-10.15741	12.05533	12.09816	0.77592	1.2888	201.38348	179.60372	76.68115	0.31312	 	1.42498E33	 	1.31234E-33	 	2062.23721	24.10708	 
105.0	1.0	0.0	8.66394	7.09611	-10.17414	12.0305	12.01262	0.77125	1.2966	201.63055	179.70004	76.78277	0.31299	 	4.42922E33	 	4.167E-34	 	1941.95704	24.05604	 
100.0	1.0	0.0	8.66555	7.09479	-10.1908	12.00568	11.92686	0.76652	1.3046	201.877	179.79572	76.88417	0.31286	 	1.41921E34	 	1.28329E-34	 	1821.93479	24.00445	 
95.0	1.0	0.0	8.66715	7.09348	-10.2074	11.98086	11.84087	0.76174	1.31278	202.12285	179.89077	76.98536	0.31274	 	4.6935400000000005E34	 	3.82834E-35	 	1702.17331	23.9523	 
90.0	1.0	0.0	8.66874	7.09218	-10.22393	11.95604	11.75464	0.75691	1.32117	202.36809	179.98517	77.08634	0.31261	 	1.6041999999999998E35	 	1.10487E-35	 	1582.67567	23.89953	 
85.0	1.0	0.0	8.67033	7.09088	-10.24039	11.93122	11.66816	0.75202	1.32975	202.61271	180.07893	77.1871	0.31248	 	5.67443E35	 	3.08056E-36	 	1463.44508	23.84612	 
80.0	1.0	0.0	8.67192	7.08958	-10.25678	11.90641	11.58142	0.74707	1.33856	202.85672	180.17206	77.28764	0.31235	 	2.0802799999999998E36	 	8.28562E-37	 	1344.48501	23.79201	 
75.0	1.0	0.0	8.6735	7.08829	-10.27311	11.8816	11.49441	0.74207	1.34758	203.10013	180.26455	77.38797	0.31222	 	7.916359999999999E36	 	2.14648E-37	 	1225.79915	23.73717	 
70.0	1.0	0.0	8.67507	7.08701	-10.28938	11.85679	11.40712	0.73701	1.35683	203.34292	180.35641	77.48808	0.31209	 	3.13216E37	 	5.3472E-38	 	1107.39143	23.68154	 
65.0	1.0	0.0	8.67664	7.08573	-10.30557	11.83198	11.31953	0.73189	1.36632	203.5851	180.44763	77.58798	0.31196	 	1.2907E38	 	1.2787E-38	 	989.26603	23.62508	 
60.0	1.0	0.0	8.6782	7.08445	-10.3217	11.80718	11.23164	0.72671	1.37606	203.82668	180.53822	77.68766	0.31183	 	5.54969E38	 	2.92993E-39	 	871.42746	23.56771	 
55.0	1.0	0.0	8.67975	7.08318	-10.33777	11.78237	11.14343	0.72147	1.38605	204.06764	180.62819	77.78713	0.31171	 	2.4946800000000002E39	 	6.42014E-40	 	753.88048	23.5094	 
50.0	1.0	0.0	8.6813	7.08192	-10.35376	11.75758	11.05488	0.71617	1.39632	204.30799	180.71752	77.88639	0.31158	 	1.17479E40	 	1.34255E-40	 	636.63023	23.45005	 
45.0	1.0	0.0	8.68284	7.08066	-10.36969	11.73278	10.96598	0.7108	1.40686	204.54773	180.80623	77.98542	0.31145	 	5.80841E40	 	2.67338E-41	 	519.68217	23.38961	 
40.0	1.0	0.0	8.68438	7.07941	-10.38556	11.70798	10.87672	0.70538	1.41768	204.78686	180.89431	78.08425	0.31132	 	3.02217E41	 	5.05731E-42	 	403.04216	23.328	 
35.0	1.0	0.0	8.68591	7.07816	-10.40135	11.68319	10.78707	0.69988	1.42881	205.02538	180.98177	78.18285	0.31119	 	1.6589199999999998E42	 	9.06616E-43	 	286.71646	23.26514	 
30.0	1.0	0.0	8.68744	7.07692	-10.41708	11.65839	10.69703	0.69432	1.44026	205.2633	181.06861	78.28124	0.31106	 	9.632199999999999E42	 	1.5361E-43	 	170.71182	23.20093	 
25.0	1.0	0.0	8.68896	7.07568	-10.43274	 	10.60656	0.68869	1.45202	205.5006	181.15482	78.37942	0.31093	 	5.93262E43	 	2.45287E-44	 	55.03541	 	 
