T (C)	Fraction solid (wt)-TOTAL	Fraction liquid (wt)-LIQUID	Density (g/(cm)^3)-TOTAL	Molar volume (cm^3)-TOTAL	Volume change (%)-  	Average expansion coeff. (10e-6 1/K)-  	Thermal conductivity (W/(m*K))-TOTAL	Electrical resistivity (10e-6 Ohm*m)-TOTAL	Electrical conductivity (10e6 1/(Ohm*m))-TOTAL	Young's modulus (GPa)-TOTAL	Bulk modulus (GPa)-TOTAL	Shear modulus(GPa)-TOTAL	Poisson's ratio-TOTAL	Liquid viscosity (mPa s)-  	Total viscosity (mPa s)-  	Liquid diffusivity (10e-9 (m^2)/s)-  	Total diffusivity (10e-9 (m^2)/s)-  	Surface Tension (mN/m)-  	Enthalpy (J/mole)-TOTAL	Specific heat (J/(mole K))-TOTAL	Latent heat (J/mole)-TOTAL
1400.0	0.0	1.0	8.27704	7.87331	0.0	28.1395	30.13962	1.36008	0.73525	0.0	132.3771	0.0	0.5	8.98587	8.98587	0.90879	0.90879	1959.59413	62646.468	 	0.0
1395.0	0.0	1.0	8.28135	7.86921	-0.052087	28.10075	30.05553	1.35981	0.7354	0.0	132.54255	0.0	0.5	9.08583	9.08583	0.8961	0.8961	1962.37277	62445.853	40.123	0.0
1390.0	0.0	1.0	8.28566	7.86512	-0.10403	28.06213	29.97143	1.35953	0.73555	0.0	132.70799	0.0	0.5	9.18752	9.18752	0.88353	0.88353	1965.15765	62245.671	40.0364	0.0
1385.0	0.0	1.0	8.28995	7.86105	-0.15582	28.02362	29.88734	1.35926	0.73569	0.0	132.87343	0.0	0.5	9.29096	9.29096	0.87106	0.87106	1967.94883	62045.921	39.95	0.0
1380.0	0.0	1.0	8.29424	7.85698	-0.20746	27.98523	29.80324	1.35899	0.73584	0.0	133.03888	0.0	0.5	9.39621	9.39621	0.85871	0.85871	1970.74639	61846.6	39.8642	0.0
1375.0	0.0	1.0	8.29853	7.85293	-0.25896	27.94697	29.71915	1.35871	0.73599	0.0	133.20432	0.0	0.5	9.50329	9.50329	0.84647	0.84647	1973.55038	61647.707	39.7786	0.0
1370.0	0.0	1.0	8.3028	7.84888	-0.31031	27.90883	29.63505	1.35843	0.73614	0.0	133.36976	0.0	0.5	9.61226	9.61226	0.83433	0.83433	1976.36089	61449.238	39.6938	0.0
1365.0	0.0	1.0	8.30707	7.84485	-0.36151	27.87081	29.55096	1.35815	0.73629	0.0	133.53521	0.0	0.5	9.72316	9.72316	0.8223	0.8223	1979.17797	61251.192	39.6092	0.0
1360.0	0.0	1.0	8.31133	7.84083	-0.41257	27.83292	29.46687	1.35787	0.73645	0.0	133.70065	0.0	0.5	9.83603	9.83603	0.81039	0.81039	1982.00169	61053.566	39.5252	0.0
1355.0	0.0	1.0	8.31558	7.83682	-0.46348	27.79516	29.38277	1.35759	0.7366	0.0	133.86609	0.0	0.5	9.95091	9.95091	0.79858	0.79858	1984.83214	60856.359	39.4414	0.0
1350.0	0.0	1.0	8.31982	7.83283	-0.51424	27.75752	29.29868	1.3573	0.73676	0.0	134.03153	0.0	0.5	10.06786	10.06786	0.78688	0.78688	1987.66937	60659.569	39.358	0.0
1345.0	0.0	1.0	8.32405	7.82884	-0.56485	27.72002	29.21458	1.35702	0.73691	0.0	134.19698	0.0	0.5	10.18691	10.18691	0.77529	0.77529	1990.51347	60463.193	39.2752	0.0
1343.62	0.0	1.0	8.32523	7.82774	-0.57884	27.70966	29.19129	1.35694	0.73695	0.0	134.2428	0.0	0.5	10.22026	10.22026	0.7721	0.7721	1991.30239	60408.877	39.22299	0.0010
1340.0	0.0807308	0.91927	8.34747	7.80683	-0.84441	27.03453	29.46854	1.34117	0.74562	0.00540332	135.35295	0.00181564	0.488	10.36581	14.22721	0.75955	0.5534	1996.30563	58831.191	436.40352	1436.038
1335.0	0.17722	0.82278	8.37443	7.78176	-1.16282	26.23346	29.79724	1.32226	0.75628	0.12706	136.70157	0.0431133	0.47354	10.56883	78.98531	0.74265	0.0993727	2003.11985	56927.616	380.715	3144.06
1330.0	0.25845	0.74155	8.39761	7.76028	-1.43568	25.5561	30.0692	1.30623	0.76556	0.58105	137.86698	0.19882	0.46126	10.77426	330.19705	0.72623	0.0236967	2009.82161	55302.968	324.9296	4573.563
1325.0	0.32751	0.67249	8.41773	7.74164	-1.67247	24.97677	30.29501	1.29245	0.77373	1.51311	138.88816	0.5215	0.45073	10.98233	880.27035	0.71025	0.00886111	2016.4111	53900.28	280.5376	5781.512
1324.57	0.33278	0.66722	8.41931	7.74018	-1.69101	24.93188	30.3118	1.29139	0.77436	1.61427	138.96888	0.55668	0.44992	11.00031	942.27466	0.7089	0.00827582	2016.96934	53791.636	 	5873.562
1320.0	0.41579	0.58421	8.44356	7.71792	-1.97375	24.20768	30.57094	1.27677	0.78322	3.70193	140.15265	1.28739	0.43777	11.00494	2287.24038	0.70657	0.00339963	2016.99788	52167.857	346.4846	7319.6
1315.0	0.49069	0.50931	8.46617	7.6973	-2.23557	23.54646	30.7975	1.2634	0.79151	7.04918	141.21653	2.47051	0.42667	11.01077	4571.10108	0.70398	0.00169573	2016.98278	50675.527	298.466	8618.0
1310.0	0.55246	0.44754	8.48554	7.6798	-2.45782	22.99462	30.96803	1.25249	0.79841	11.32721	142.10483	3.99578	0.4174	11.01746	7686.90221	0.70134	0.00100521	2016.91918	49417.103	251.6848	9682.894
1305.0	0.60398	0.39602	8.50239	7.66468	-2.64996	22.52601	31.10384	1.24308	0.80445	16.28954	142.86243	5.7782	0.40957	11.02505	11583.30678	0.69864	6.64971E-4	2016.80934	48340.977	215.2252	10565.887
1300.0	0.6474	0.3526	8.51723	7.65143	-2.81825	22.1233	31.20708	1.23505	0.80969	21.69308	143.52245	7.73155	0.40289	11.03371	16205.49823	0.69588	4.73799E-4	2016.65223	47408.711	186.4532	11305.418
1295.0	0.68432	0.31568	8.53046	7.63973	-2.9668	21.77525	31.28355	1.22811	0.81426	27.32842	144.10916	9.78003	0.39715	11.04334	21504.8736	0.69306	3.55908E-4	2016.44211	46591.3	163.4822	11930.487
1290.0	0.71598	0.28402	8.54238	7.62927	-3.09963	21.47067	31.33775	1.22208	0.81828	33.03588	144.63964	11.86481	0.39218	11.05398	27452.62999	0.69019	2.7791E-4	2016.1782	45866.589	144.9422	12463.251
1285.0	0.74332	0.25668	8.55323	7.61982	-3.21966	21.20149	31.37331	1.21679	0.82184	38.69755	145.12623	13.94173	0.38783	11.06571	34030.26243	0.68725	2.23476E-4	2015.85824	45217.453	129.8272	12920.83
1280.1	0.76668	0.23332	8.563	7.61136	-3.32711	20.96582	31.39296	1.2122	0.82495	44.12698	145.57034	15.94094	0.38408	11.0782	41093.33974	0.68432	1.84483E-4	2015.48821	44641.437	 	13309.344
1280.0	0.76728	0.23272	8.56325	7.61116	-3.32963	20.95995	31.39453	1.21206	0.82504	44.27546	145.58253	15.99574	0.38398	11.07885	41276.44972	0.68424	1.83653E-4	2015.50447	44627.239	118.0428	13319.876
1275.0	0.7978	0.2022	8.57576	7.60035	-3.46702	20.6349	31.46927	1.20529	0.82967	52.35532	146.15851	18.98583	0.3788	11.1145	51673.64001	0.67984	1.46228E-4	2016.43172	43908.441	143.7596	13847.893
1270.0	0.82385	0.17615	8.58703	7.59069	-3.58971	20.35114	31.52041	1.19945	0.83372	60.15569	146.66843	21.88555	0.37432	11.14972	63004.81708	0.67551	1.19542E-4	2017.35561	43270.187	127.6508	14295.753
1265.0	0.84617	0.15383	8.59728	7.58199	-3.70017	20.10181	31.5516	1.19438	0.83725	67.56841	147.12762	24.65206	0.37044	11.18408	75240.64425	0.67125	9.97776E-5	2018.27809	42698.852	114.267	14677.076
1260.0	0.86535	0.13465	8.60664	7.57408	-3.80059	19.88069	31.56587	1.18996	0.84036	74.5357	147.54752	27.26135	0.36706	11.21739	88380.61102	0.66708	8.4667E-5	2019.20448	42183.357	103.099	15002.945
1255.0	0.88191	0.11809	8.61528	7.56684	-3.89252	19.68345	31.56576	1.18609	0.84311	81.02621	147.93724	29.6995	0.3641	11.24919	102438.936	0.66303	7.28094E-5	2020.13662	41714.641	93.7432	15282.412
1250.0	0.89624	0.10376	8.6233	7.56017	-3.97734	19.50622	31.5535	1.18266	0.84555	87.04213	148.30388	31.96543	0.3615	11.27913	117461.9476	0.6591	6.32896E-5	2021.07641	41285.258	85.8766	15522.925
1245.0	0.9087	0.0913035	8.63078	7.55397	-4.05606	19.34611	31.53086	1.17963	0.84773	92.58927	148.65259	34.05977	0.35922	11.30687	133497.8205	0.65533	5.55044E-5	2022.02624	40889.064	79.2388	15730.625
1240.0	0.91955	0.0804534	8.63781	7.54819	-4.12949	19.20087	31.49939	1.17692	0.84968	97.68901	148.98805	35.98923	0.3572	11.33205	150618.8766	0.65172	4.90331E-5	2022.98557	40520.965	73.6198	15910.607
1235.0	0.92903	0.0709655	8.64447	7.54274	-4.19862	19.06768	31.46038	1.17448	0.85144	102.3742	149.31315	37.76518	0.3554	11.35443	168920.3736	0.64828	4.35762E-5	2023.959	40176.726	68.8478	16067.107
1230.0	0.93736	0.0626406	8.65078	7.5376	-4.26399	18.94499	31.41495	1.17228	0.85304	106.67501	149.63023	39.39816	0.35381	11.37359	188505.4019	0.64505	3.89193E-5	2024.94622	39852.815	64.7822	16203.653
1227.94	0.94044	0.0595607	8.65328	7.53558	-4.28968	18.89799	31.39436	1.17144	0.85365	108.31598	149.75997	40.02188	0.35321	11.38098	196927.883	0.64374	3.72037E-5	2025.35256	39725.425	 	16253.943
1227.94	0.94044	0.0595607	8.65328	7.53558	-4.28968	18.89799	31.39436	1.17144	0.85365	108.31598	149.75997	40.02188	0.35321	11.38098	196927.8543	0.64374	3.72037E-5	2025.35255	39725.426	 	16253.941
1225.0	0.94517	0.0548306	8.65701	7.53253	-4.32834	18.82441	31.36177	1.17036	0.85444	110.87559	149.9492	40.99511	0.3523	11.39482	209963.0556	0.6417	3.48256E-5	2026.4091	39535.986	63.3658	16333.49
1220.0	0.95226	0.0477381	8.66305	7.52763	-4.39065	18.70919	31.30114	1.16872	0.85564	114.84515	150.26461	42.50619	0.35092	11.41487	233215.736	0.63844	3.12487E-5	2028.22075	39231.091	60.979	16451.766
1215.0	0.95826	0.0417366	8.66873	7.52303	-4.44903	18.6053	31.23721	1.16719	0.85676	118.34698	150.57538	43.84096	0.34973	11.4319	257882.8063	0.63535	2.81651E-5	2030.03651	38945.857	57.0468	16550.75
1210.0	0.9634	0.036602	8.67415	7.51868	-4.5043	18.51028	31.16983	1.16578	0.85779	121.46435	150.8831	45.03056	0.34869	11.44592	284183.3451	0.63244	2.54726E-5	2031.84488	38676.173	53.9368	16634.553
1205.0	0.96784	0.03216	8.67933	7.51452	-4.55712	18.42218	31.09965	1.16447	0.85876	124.26464	151.18852	46.10026	0.34776	11.4572	312346.5615	0.62969	2.30977E-5	2033.63718	38418.922	51.4502	16706.289
1200.0	0.97172	0.0282801	8.68435	7.51052	-4.60785	18.33994	31.0272	1.16324	0.85967	126.80124	151.49261	47.07012	0.34694	11.46584	342610.9113	0.62709	2.09861E-5	2035.39928	38171.731	49.4382	16768.33
1196.95	0.97384	0.0261638	8.68731	7.50816	-4.6379	18.29226	30.98203	1.16253	0.86019	128.22766	151.67727	47.61589	0.34648	11.47017	362171.8425	0.62555	1.98116E-5	2036.45892	38025.461	 	16801.903
1195.0	0.97512	0.0248846	8.6892	7.50666	-4.65689	18.26241	30.95299	1.16207	0.86053	129.10497	151.79558	47.95172	0.3462	11.47195	375189.0154	0.62463	1.90988E-5	2037.10347	37933.246	47.697	16822.029
1190.0	0.97819	0.0218145	8.69396	7.50289	-4.70486	18.18759	30.87788	1.16093	0.86138	131.25659	152.09654	48.77581	0.34551	11.47306	410486.3294	0.62244	1.73971E-5	2038.69766	37700.772	46.4948	16870.077
1185.0	0.98095	0.0190521	8.69922	7.49919	-4.75179	18.11547	30.80226	1.15981	0.86221	133.27786	152.4055	49.55082	0.34486	11.47005	448730.9869	0.62047	1.586E-5	2041.58423	37471.25904	45.90259	16912.933
1180.0	0.98356	0.016442	8.7025	7.4956	-4.7974	18.04699	30.73017	1.15854	0.86315	135.18332	152.6502	50.28283	0.34423	11.45233	490831.3533	0.6193	1.44499E-5	2044.44779	37243.86965	45.47788	16953.303
1175.0	0.9865	0.0134994	8.70671	7.49178	-4.84596	17.96836	30.65636	1.15733	0.86405	137.32588	152.92064	51.10582	0.34354	11.37435	537851.7637	0.6214	1.31413E-5	2047.26108	37010.94141	46.58565	16999.656
1170.0	0.98907	0.0109293	8.71118	7.48802	-4.8937	17.89172	30.57915	1.15625	0.86486	139.28795	153.20687	51.85986	0.34293	11.29878	588717.1132	0.6234	1.19644E-5	2050.05941	36784.46311	45.29566	17040.0
1165.0	0.99132	0.00867879	8.71585	7.48432	-4.94066	17.81692	30.50044	1.15522	0.86564	141.09127	153.50616	52.55319	0.34237	11.22625	643826.8593	0.62525	1.09024E-5	2052.84206	36563.55449	44.18172	17075.213
1160.0	0.99329	0.00670757	8.72067	7.48068	-4.98688	17.74395	30.41981	1.15425	0.86636	142.75139	153.81626	53.19172	0.34186	11.15819	703603.6273	0.62688	9.94146E-6	2055.61316	36347.53726	43.20345	17105.97
1155.0	0.99502	0.00498174	8.7256	7.4771	-5.03234	17.67277	30.33755	1.15335	0.86704	144.2823	154.13465	53.78077	0.34139	11.09617	768516.7505	0.62818	9.07E-6	2058.37787	36135.87513	42.33243	17132.805
1150.0	0.99653	0.00346942	8.73059	7.47358	-5.07714	17.60317	30.2541	1.15248	0.8677	145.69944	154.45945	54.32627	0.34097	11.04138	839094.962	0.62909	8.27802E-6	2061.13154	35928.0468	41.56567	17156.235
1145.0	0.99785	0.00214617	8.73561	7.47011	-5.12119	17.53544	30.16953	1.15165	0.86832	147.01058	154.78893	54.83113	0.34058	10.99572	915896.6772	0.62948	7.55723E-6	2063.89401	35723.65493	40.87837	17176.659
1140.0	0.999	9.97162E-4	8.7406	7.46671	-5.16439	17.46992	30.08417	1.15084	0.86893	148.22116	155.12131	55.29743	0.34022	10.96026	999526.4097	0.62929	6.9005E-6	2066.67142	35522.45618	40.23975	17194.312
1135.0	1.0	0.0	8.74555	7.46337	-5.20676	17.40662	29.99814	1.15006	0.86952	149.34256	155.45536	55.72954	0.33989	 	1090691.409	 	6.30135E-6	 	35324.10322	39.67059	17209.542
1130.0	1.0	0.0	8.7485	7.46085	-5.23871	17.37782	29.91313	1.14923	0.87015	149.75694	155.75082	55.89	0.33975	 	1185702.718	 	5.77584E-6	 	35138.80597	37.05945	 
1125.0	1.0	0.0	8.75144	7.45835	-5.27057	17.34905	29.82809	1.1484	0.87077	150.1704	156.04509	56.05013	0.33961	 	1289744.384	 	5.29099E-6	 	34970.85649	33.5899	 
1120.0	1.0	0.0	8.75438	7.45584	-5.30234	17.32033	29.74301	1.14757	0.87141	150.58294	156.33817	56.20995	0.33947	 	1403745.021	 	4.84391E-6	 	34803.25523	33.52025	 
1115.0	1.0	0.0	8.75731	7.45335	-5.33402	17.29166	29.6579	1.14673	0.87204	150.99455	156.63006	56.36944	0.33933	 	1528735.858	 	4.43191E-6	 	34636.00029	33.45099	 
1110.0	1.0	0.0	8.76023	7.45086	-5.36561	17.26302	29.57275	1.14589	0.87268	151.40524	156.92074	56.5286	0.33919	 	1665862.786	 	4.05244E-6	 	34469.08966	33.38213	 
1105.0	1.0	0.0	8.76315	7.44838	-5.39711	17.23443	29.48756	1.14505	0.87333	151.81499	157.21022	56.68744	0.33905	 	1816400.161	 	3.70315E-6	 	34302.52157	33.31362	 
1100.0	1.0	0.0	8.76606	7.44591	-5.42853	17.20589	29.40234	1.1442	0.87397	152.22381	157.49849	56.84595	0.33892	 	1981765.953	 	3.38183E-6	 	34136.29403	33.24551	 
1095.0	1.0	0.0	8.76897	7.44344	-5.45985	17.17738	29.31709	1.14335	0.87462	152.63169	157.78555	57.00414	0.33878	 	2163539.241	 	3.08642E-6	 	33970.40506	33.17779	 
1090.0	1.0	0.0	8.77186	7.44098	-5.49109	17.14891	29.2318	1.14249	0.87528	153.03864	158.07141	57.16199	0.33864	 	2363479.718	 	2.815E-6	 	33804.85278	33.11046	 
1085.0	1.0	0.0	8.77476	7.43853	-5.52223	17.12049	29.14648	1.14164	0.87594	153.44464	158.35605	57.31952	0.3385	 	2583549.554	 	2.56577E-6	 	33639.63522	33.04351	 
1080.0	1.0	0.0	8.77764	7.43609	-5.55329	17.0921	29.06112	1.14077	0.8766	153.84971	158.63947	57.47672	0.33837	 	2825938.623	 	2.33706E-6	 	33474.75047	32.97695	 
1075.0	1.0	0.0	8.78052	7.43365	-5.58426	17.06376	28.97573	1.13991	0.87726	154.25383	158.92167	57.63359	0.33823	 	3093092.564	 	2.12732E-6	 	33310.1966	32.91077	 
1070.0	1.0	0.0	8.78339	7.43122	-5.61515	17.03545	28.89031	1.13904	0.87793	154.65702	159.20266	57.79012	0.33809	 	3387744.372	 	1.93509E-6	 	33145.97167	32.84499	 
1065.0	1.0	0.0	8.78626	7.42879	-5.64595	17.00718	28.80486	1.13816	0.87861	155.05931	159.48247	57.94635	0.33796	 	3712950.934	 	1.75903E-6	 	32982.07377	32.77958	 
1060.0	1.0	0.0	8.78912	7.42637	-5.67666	16.97895	28.71937	1.13729	0.87929	155.4606	159.76102	58.10223	0.33782	 	4072133.819	 	1.59788E-6	 	32818.50101	32.71455	 
1055.0	1.0	0.0	8.79198	7.42396	-5.70728	16.95075	28.63385	1.13641	0.87997	155.86096	160.03833	58.25778	0.33768	 	4469125.545	 	1.45048E-6	 	32655.25145	32.64991	 
1050.0	1.0	0.0	8.79482	7.42156	-5.73782	16.92259	28.5483	1.13552	0.88065	156.26037	160.31443	58.41299	0.33755	 	4908222.39	 	1.31574E-6	 	32492.32322	32.58565	 
1045.0	1.0	0.0	8.79767	7.41916	-5.76828	16.89447	28.46272	1.13463	0.88134	156.65883	160.5893	58.56788	0.33741	 	5394244.279	 	1.19267E-6	 	32329.71443	32.52176	 
1040.0	1.0	0.0	8.8005	7.41677	-5.79865	16.86639	28.37711	1.13374	0.88204	157.05636	160.86294	58.72244	0.33728	 	5932602.818	 	1.08033E-6	 	32167.42319	32.45825	 
1035.0	1.0	0.0	8.80333	7.41438	-5.82893	16.83834	28.29148	1.13284	0.88274	157.45294	161.13536	58.87666	0.33714	 	6529378.845	 	9.7785E-7	 	32005.44764	32.39511	 
1030.0	1.0	0.0	8.80616	7.41201	-5.85913	16.81032	28.20581	1.13194	0.88344	157.84857	161.40655	59.03056	0.33701	 	7191410.519	 	8.84437E-7	 	31843.78592	32.33234	 
1025.0	1.0	0.0	8.80897	7.40964	-5.88925	16.78234	28.12011	1.13103	0.88415	158.24327	161.67651	59.18413	0.33687	 	7926394.434	 	7.99348E-7	 	31682.4362	32.26994	 
1020.0	1.0	0.0	8.81179	7.40727	-5.91928	16.75439	28.03438	1.13012	0.88486	158.63702	161.94525	59.33736	0.33674	 	8743000.024	 	7.21897E-7	 	31521.39662	32.20792	 
1015.0	1.0	0.0	8.81459	7.40491	-5.94922	16.72647	27.94863	1.1292	0.88558	159.02983	162.21276	59.49027	0.3366	 	9651000.282	 	6.5145E-7	 	31360.66539	32.14625	 
1010.0	1.0	0.0	8.81739	7.40256	-5.97909	16.69859	27.86284	1.12828	0.8863	159.4217	162.47905	59.64285	0.33647	 	1.06614227E7	 	5.8742E-7	 	31200.2407	32.08494	 
1005.0	1.0	0.0	8.82019	7.40022	-6.00887	16.67073	27.77703	1.12736	0.88703	159.81264	162.74411	59.7951	0.33634	 	1.178672023E7	 	5.29268E-7	 	31040.12076	32.02399	 
1000.0	1.0	0.0	8.82297	7.39788	-6.03856	16.64291	27.6912	1.12643	0.88776	160.20264	163.00795	59.94703	0.3362	 	1.304096722E7	 	4.76493E-7	 	30880.30379	31.96339	 
995.0	1.0	0.0	8.82576	7.39555	-6.06818	16.61512	27.60533	1.1255	0.8885	160.5917	163.27056	60.09863	0.33607	 	1.444008517E7	 	4.28635E-7	 	30720.78804	31.90315	 
990.0	1.0	0.0	8.82853	7.39322	-6.09771	16.58736	27.51944	1.12456	0.88924	160.97982	163.53195	60.2499	0.33593	 	1.600210138E7	 	3.85269E-7	 	30561.57177	31.84325	 
985.0	1.0	0.0	8.8313	7.3909	-6.12716	16.55963	27.43353	1.12361	0.88999	161.36702	163.79212	60.40085	0.3358	 	1.774744423E7	 	3.46006E-7	 	30402.65325	31.7837	 
980.0	1.0	0.0	8.83406	7.38859	-6.15652	16.53192	27.34759	1.12266	0.89074	161.75328	164.05106	60.55147	0.33567	 	1.969928546E7	 	3.10484E-7	 	30244.03079	31.72449	 
975.0	1.0	0.0	8.83682	7.38629	-6.18581	16.50425	27.26162	1.12171	0.89149	162.13862	164.3088	60.70176	0.33553	 	2.188393178E7	 	2.78374E-7	 	30085.70238	31.66568	 
970.0	1.0	0.0	8.83957	7.38399	-6.21502	16.4766	27.17563	1.12075	0.89226	162.52303	164.56531	60.85174	0.3354	 	2.433127557E7	 	2.49371E-7	 	29927.66696	31.60708	 
965.0	1.0	0.0	8.84232	7.38169	-6.24414	16.44898	27.08962	1.11979	0.89302	162.90651	164.8206	61.00139	0.33527	 	2.707531856E7	 	2.23196E-7	 	29769.92257	31.54888	 
960.0	1.0	0.0	8.84506	7.37941	-6.27318	16.42139	27.00358	1.11882	0.8938	163.28906	165.07468	61.15072	0.33514	 	3.015477066E7	 	1.99594E-7	 	29612.46759	31.491	 
955.0	1.0	0.0	8.84779	7.37713	-6.30214	16.39383	26.91752	1.11785	0.89458	163.6707	165.32755	61.29972	0.335	 	3.361374384E7	 	1.78329E-7	 	29455.3004	31.43344	 
950.0	1.0	0.0	8.85052	7.37485	-6.33102	16.36629	26.83144	1.11687	0.89536	164.05141	165.57921	61.44841	0.33487	 	3.750255652E7	 	1.59186E-7	 	29298.41941	31.3762	 
945.0	1.0	0.0	8.85324	7.37259	-6.35982	16.33878	26.74533	1.11588	0.89615	164.43121	165.82966	61.59677	0.33474	 	4.187866292E7	 	1.41969E-7	 	29141.82302	31.31928	 
940.0	1.0	0.0	8.85596	7.37032	-6.38854	16.31129	26.6592	1.11489	0.89695	164.81009	166.0789	61.74482	0.33461	 	4.680772808E7	 	1.26498E-7	 	28985.50971	31.26266	 
935.0	1.0	0.0	8.85867	7.36807	-6.41718	16.28383	26.57305	1.1139	0.89775	165.18806	166.32694	61.89255	0.33447	 	5.23648778E7	 	1.12608E-7	 	28829.47791	31.20636	 
930.0	1.0	0.0	8.86137	7.36582	-6.44574	16.25639	26.48688	1.1129	0.89856	165.56512	166.57378	62.03996	0.33434	 	5.863615208E7	 	1.00148E-7	 	28673.72613	31.15036	 
925.0	1.0	0.0	8.86407	7.36358	-6.47422	16.22897	26.40069	1.11189	0.89937	165.94127	166.81942	62.18706	0.33421	 	6.572018268E7	 	8.89814E-8	 	28518.25287	31.09465	 
920.0	1.0	0.0	8.86677	7.36134	-6.50262	16.20158	26.31447	1.11088	0.90019	166.31651	167.06386	62.33384	0.33408	 	7.373016945E7	 	7.89835E-8	 	28363.05663	31.03925	 
915.0	1.0	0.0	8.86945	7.35911	-6.53095	16.17421	26.22824	1.10986	0.90101	166.69085	167.30711	62.4803	0.33395	 	8.279614794E7	 	7.00403E-8	 	28208.13598	30.98413	 
910.0	1.0	0.0	8.87213	7.35689	-6.55919	16.14687	26.14198	1.10884	0.90185	167.06429	167.54917	62.62645	0.33382	 	9.306767494E7	 	6.2048E-8	 	28053.48947	30.9293	 
905.0	1.0	0.0	8.87481	7.35467	-6.58735	16.11954	26.05571	1.10781	0.90268	167.43683	167.79003	62.77229	0.33368	 	1.047169317E8	 	5.49124E-8	 	27899.11568	30.87476	 
900.0	1.0	0.0	8.87748	7.35246	-6.61544	16.09224	25.96941	1.10677	0.90353	167.80847	168.02971	62.91782	0.33355	 	1.179423566E8	 	4.85479E-8	 	27745.01321	30.82049	 
895.0	1.0	0.0	8.88014	7.35026	-6.64345	16.06496	25.8831	1.10573	0.90438	168.17921	168.26821	63.06303	0.33342	 	1.329729166E8	 	4.28768E-8	 	27591.1807	30.7665	 
890.0	1.0	0.0	8.8828	7.34806	-6.67138	16.0377	25.79677	1.10468	0.90524	168.54906	168.50552	63.20794	0.33329	 	1.500731063E8	 	3.78285E-8	 	27437.61677	30.71278	 
885.0	1.0	0.0	8.88545	7.34586	-6.69923	16.01046	25.71042	1.10363	0.9061	168.91803	168.74166	63.35254	0.33316	 	1.695487708E8	 	3.33393E-8	 	27284.3201	30.65933	 
880.0	1.0	0.0	8.8881	7.34368	-6.727	15.98324	25.62405	1.10256	0.90698	169.2861	168.97662	63.49682	0.33303	 	1.917540221E8	 	2.93513E-8	 	27131.28935	30.60615	 
875.0	1.0	0.0	8.89074	7.3415	-6.7547	15.95604	25.53766	1.1015	0.90785	169.65329	169.21041	63.6408	0.3329	 	2.170992954E8	 	2.58123E-8	 	26978.52324	30.55322	 
870.0	1.0	0.0	8.89337	7.33932	-6.78232	15.92886	25.45125	1.10042	0.90874	170.01959	169.44303	63.78448	0.33277	 	2.460608987E8	 	2.2675E-8	 	26826.02047	30.50055	 
865.0	1.0	0.0	8.896	7.33715	-6.80986	15.9017	25.36483	1.09934	0.90963	170.38502	169.67449	63.92785	0.33264	 	2.791922224E8	 	1.98968E-8	 	26673.77977	30.44814	 
860.0	1.0	0.0	8.89862	7.33499	-6.83732	15.87455	25.27839	1.09826	0.91053	170.74957	169.90478	64.07091	0.3325	 	3.171369914E8	 	1.74392E-8	 	26521.79992	30.39597	 
855.0	1.0	0.0	8.90124	7.33283	-6.86471	15.84743	25.19193	1.09716	0.91144	171.11324	170.13391	64.21367	0.33237	 	3.606449412E8	 	1.52677E-8	 	26370.07968	30.34405	 
850.0	1.0	0.0	8.90385	7.33068	-6.89202	15.82032	25.10545	1.09606	0.91236	171.47603	170.36189	64.35612	0.33224	 	4.105903564E8	 	1.33511E-8	 	26218.61782	30.29237	 
845.0	1.0	0.0	8.90645	7.32854	-6.91922	15.79338	25.01873	1.09497	0.91327	171.8364	170.5879	64.49766	0.33211	 	4.679741246E8	 	1.16618E-8	 	26070.68157	29.58725	 
840.0	1.0	0.0	8.90905	7.32641	-6.94635	15.76645	24.93201	1.09386	0.91419	172.19594	170.81275	64.6389	0.33198	 	5.340049928E8	 	1.01741E-8	 	25919.96899	30.14252	 
835.0	1.0	0.0	8.91164	7.32428	-6.9734	15.73953	24.84527	1.09275	0.91512	172.55464	171.03647	64.77987	0.33185	 	6.100790119E8	 	8.86542E-9	 	25769.50099	30.0936	 
830.0	1.0	0.0	8.91422	7.32215	-7.00037	15.71262	24.75853	1.09163	0.91606	172.91252	171.25905	64.92055	0.33172	 	6.97832473E8	 	7.71561E-9	 	25619.27693	30.04481	 
825.0	1.0	0.0	8.9168	7.32004	-7.02727	15.68573	24.67177	1.0905	0.91701	173.26957	171.48048	65.06094	0.33159	 	7.991857864E8	 	6.70657E-9	 	25469.29614	29.99616	 
820.0	1.0	0.0	8.91937	7.31792	-7.0541	15.65884	24.585	1.08937	0.91796	173.62579	171.70079	65.20105	0.33146	 	9.163958337E8	 	5.82215E-9	 	25319.558	29.94763	 
815.0	1.0	0.0	8.92194	7.31582	-7.08085	15.63197	24.49822	1.08823	0.91892	173.98118	171.91996	65.34087	0.33134	 	1.052118522E9	 	5.0479E-9	 	25170.06183	29.89923	 
810.0	1.0	0.0	8.9245	7.31372	-7.10753	15.6051	24.41142	1.08708	0.9199	174.33574	172.138	65.4804	0.33121	 	1.209483634E9	 	4.37094E-9	 	25020.80699	29.85097	 
805.0	1.0	0.0	8.92706	7.31162	-7.13413	15.57825	24.32462	1.08592	0.92088	174.68947	172.35492	65.61966	0.33108	 	1.392184519E9	 	3.7798E-9	 	24871.79281	29.80284	 
800.0	1.0	0.0	8.92961	7.30953	-7.16066	15.55141	24.2378	1.08476	0.92186	175.04238	172.57072	65.75862	0.33095	 	1.604585733E9	 	3.26426E-9	 	24723.01863	29.75484	 
795.0	1.0	0.0	8.93216	7.30745	-7.18712	15.52458	24.15098	1.08359	0.92286	175.39445	172.78539	65.8973	0.33082	 	1.851852404E9	 	2.81522E-9	 	24574.48379	29.70697	 
790.0	1.0	0.0	8.9347	7.30537	-7.2135	15.49776	24.06414	1.08241	0.92387	175.7457	172.99895	66.0357	0.33069	 	2.140105954E9	 	2.42463E-9	 	24426.18762	29.65923	 
785.0	1.0	0.0	8.93723	7.3033	-7.2398	15.47095	23.97728	1.08122	0.92488	176.09612	173.21139	66.1738	0.33056	 	2.476611829E9	 	2.08534E-9	 	24278.12944	29.61164	 
780.0	1.0	0.0	8.93976	7.30124	-7.26603	15.44415	23.89042	1.08002	0.92591	176.4457	173.42272	66.31163	0.33043	 	2.870006162E9	 	1.79099E-9	 	24130.3086	29.56417	 
775.0	1.0	0.0	8.94228	7.29918	-7.29219	15.41737	23.80354	1.07882	0.92694	176.79447	173.63294	66.44916	0.3303	 	3.330569897E9	 	1.536E-9	 	23982.72441	29.51684	 
770.0	1.0	0.0	8.9448	7.29712	-7.31827	15.39059	23.71665	1.0776	0.92798	177.1424	173.84205	66.58641	0.33017	 	3.870560822E9	 	1.31541E-9	 	23835.37618	29.46965	 
765.0	1.0	0.0	8.94731	7.29508	-7.34428	15.36383	23.62974	1.07638	0.92904	177.4895	174.05006	66.72338	0.33004	 	4.504616401E9	 	1.12484E-9	 	23688.26323	29.42259	 
760.0	1.0	0.0	8.94981	7.29303	-7.37022	15.33708	23.54283	1.07515	0.9301	177.83578	174.25697	66.86006	0.32991	 	5.250243313E9	 	9.60441E-10	 	23541.38487	29.37567	 
755.0	1.0	0.0	8.95231	7.291	-7.39608	15.31033	23.4559	1.07392	0.93117	178.18123	174.46278	66.99645	0.32978	 	6.128413354E9	 	8.18833E-10	 	23394.7404	29.32889	 
750.0	1.0	0.0	8.95481	7.28897	-7.42186	15.2836	23.36895	1.07267	0.93225	178.52585	174.66749	67.13256	0.32965	 	7.164290022E9	 	6.97032E-10	 	23248.32912	29.28226	 
745.0	1.0	0.0	8.95729	7.28694	-7.44758	15.25688	23.28199	1.07141	0.93335	178.86964	174.87111	67.26838	0.32952	 	8.388115986E9	 	5.92426E-10	 	23102.15032	29.23576	 
740.0	1.0	0.0	8.95978	7.28493	-7.47321	15.23018	23.19502	1.07015	0.93445	179.21261	175.07364	67.40392	0.32939	 	9.836298926E9	 	5.02723E-10	 	22956.20329	29.18941	 
735.0	1.0	0.0	8.96225	7.28291	-7.49878	15.20348	23.10804	1.06888	0.93556	179.55475	175.27508	67.53917	0.32926	 	1.15527E10	 	4.25919E-10	 	22810.4873	29.1432	 
730.0	1.0	0.0	8.96472	7.28091	-7.52427	15.17679	23.02104	1.0676	0.93668	179.89606	175.47544	67.67413	0.32913	 	1.3590499999999998E10	 	3.60261E-10	 	22665.00163	29.09713	 
725.0	1.0	0.0	8.96719	7.2789	-7.54968	15.15012	22.93402	1.06631	0.93782	180.23654	175.67472	67.80881	0.32901	 	1.6013699999999998E10	 	3.04222E-10	 	22519.74554	29.05122	 
720.0	1.0	0.0	8.96965	7.27691	-7.57503	15.12346	22.84699	1.06501	0.93896	180.5762	175.87291	67.9432	0.32888	 	1.89002E10	 	2.5647E-10	 	22374.71828	29.00545	 
715.0	1.0	0.0	8.9721	7.27492	-7.6003	15.0968	22.75995	1.0637	0.94012	180.91503	176.07003	68.0773	0.32875	 	2.23443E10	 	2.15845E-10	 	22229.9191	28.95984	 
710.0	1.0	0.0	8.97455	7.27294	-7.62549	15.07016	22.67289	1.06238	0.94128	181.25303	176.26607	68.21112	0.32862	 	2.6461199999999996E10	 	1.81341E-10	 	22085.34722	28.91438	 
705.0	1.0	0.0	8.97699	7.27096	-7.65061	15.04353	22.58581	1.06105	0.94246	181.5902	176.46104	68.34465	0.32849	 	3.1390799999999996E10	 	1.52086E-10	 	21941.00188	28.86907	 
700.0	1.0	0.0	8.97942	7.26899	-7.67566	15.01691	22.49872	1.05971	0.94365	181.92655	176.65494	68.47789	0.32836	 	3.73042E10	 	1.27324E-10	 	21796.8823	28.82392	 
695.0	1.0	0.0	8.98185	7.26702	-7.70064	14.99031	22.41161	1.05837	0.94485	182.26207	176.84778	68.61085	0.32823	 	4.44106E10	 	1.064E-10	 	21652.98765	28.77893	 
690.0	1.0	0.0	8.98428	7.26506	-7.72554	14.96371	22.32449	1.05701	0.94607	182.59677	177.03955	68.74352	0.3281	 	5.296659999999999E10	 	8.87521E-11	 	21509.31713	28.7341	 
685.0	1.0	0.0	8.98669	7.2631	-7.75037	14.93712	22.23735	1.05564	0.94729	182.93064	177.23026	68.8759	0.32797	 	6.328729999999999E10	 	7.38931E-11	 	21365.86992	28.68944	 
680.0	1.0	0.0	8.98911	7.26116	-7.77512	14.91055	22.1502	1.05426	0.94853	183.26368	177.41991	69.008	0.32784	 	7.57603E10	 	6.14054E-11	 	21222.64517	28.64495	 
675.0	1.0	0.0	8.99151	7.25921	-7.7998	14.88399	22.06303	1.05288	0.94978	183.5959	177.6085	69.13981	0.32771	 	9.08638E10	 	5.09299E-11	 	21079.642	28.60063	 
670.0	1.0	0.0	8.99391	7.25727	-7.82441	14.85743	21.97584	1.05148	0.95104	183.92729	177.79604	69.27133	0.32759	 	1.09189E11	 	4.2159E-11	 	20936.85956	28.55649	 
665.0	1.0	0.0	8.99631	7.25534	-7.84894	14.83089	21.88863	1.05007	0.95231	184.25785	177.98252	69.40257	0.32746	 	1.31466E11	 	3.48293E-11	 	20794.29693	28.51253	 
660.0	1.0	0.0	8.9987	7.25342	-7.8734	14.80436	21.80141	1.04866	0.9536	184.58759	178.16796	69.53352	0.32733	 	1.58604E11	 	2.8716E-11	 	20651.95427	28.46853	 
655.0	1.0	0.0	9.00108	7.2515	-7.89779	14.77784	21.71417	1.04723	0.9549	184.9165	178.35235	69.66418	0.3272	 	1.91732E11	 	2.36271E-11	 	20509.83707	28.42344	 
650.0	1.0	0.0	9.00346	7.24958	-7.92211	14.75134	21.62691	1.04579	0.95622	185.24459	178.5357	69.79456	0.32707	 	2.32255E11	 	1.93996E-11	 	20367.95277	28.37686	 
645.0	1.0	0.0	9.00583	7.24767	-7.94635	14.72484	21.53963	1.04434	0.95754	185.57185	178.71801	69.92464	0.32694	 	2.81931E11	 	1.58949E-11	 	20226.30075	28.3304	 
640.0	1.0	0.0	9.00819	7.24577	-7.97052	14.69835	21.45234	1.04288	0.95888	185.89828	178.89927	70.05445	0.32681	 	3.4296E11	 	1.29953E-11	 	20084.88037	28.28408	 
635.0	1.0	0.0	9.01055	7.24387	-7.99461	14.67188	21.36502	1.04141	0.96024	186.22389	179.07951	70.18396	0.32668	 	4.18101E11	 	1.06014E-11	 	19943.691	28.23787	 
630.0	1.0	0.0	9.0129	7.24198	-8.01863	14.64542	21.27769	1.03992	0.96161	186.54868	179.2587	70.31318	0.32656	 	5.10824E11	 	8.6293E-12	 	19802.73203	28.19179	 
625.0	1.0	0.0	9.01525	7.2401	-8.04258	14.61897	21.19034	1.03843	0.96299	186.87263	179.43687	70.44212	0.32643	 	6.25503E11	 	7.0082E-12	 	19662.00284	28.14584	 
620.0	1.0	0.0	9.01759	7.23822	-8.06646	14.59252	21.10296	1.03692	0.96439	187.19577	179.614	70.57077	0.3263	 	7.67667E11	 	5.67856E-12	 	19521.5028	28.10001	 
615.0	1.0	0.0	9.01993	7.23634	-8.09026	14.5661	21.01557	1.03541	0.9658	187.51807	179.79011	70.69914	0.32617	 	9.44316E11	 	4.59045E-12	 	19381.23129	28.0543	 
610.0	1.0	0.0	9.02226	7.23447	-8.11399	14.53968	20.92816	1.03388	0.96723	187.83956	179.9652	70.82721	0.32604	 	1.16434E12	 	3.70204E-12	 	19241.18773	28.00871	 
605.0	1.0	0.0	9.02458	7.23261	-8.13765	14.51327	20.84073	1.03234	0.96868	188.16021	180.13926	70.955	0.32591	 	1.43906E12	 	2.97835E-12	 	19101.37148	27.96325	 
600.0	1.0	0.0	9.0269	7.23075	-8.16124	14.48687	20.75328	1.03079	0.97013	188.48005	180.3123	71.0825	0.32578	 	1.78292E12	 	2.39025E-12	 	18961.78195	27.91791	 
595.0	1.0	0.0	9.02921	7.2289	-8.18475	14.46049	20.6658	1.02922	0.97161	188.79905	180.48433	71.20971	0.32566	 	2.2144E12	 	1.91348E-12	 	18822.41855	27.87268	 
590.0	1.0	0.0	9.03152	7.22706	-8.20819	14.43411	20.57831	1.02764	0.9731	189.11724	180.65534	71.33664	0.32553	 	2.75722E12	 	1.52792E-12	 	18683.28067	27.82758	 
585.0	1.0	0.0	9.03382	7.22522	-8.23156	14.40775	20.49079	1.02605	0.97461	189.43459	180.82534	71.46328	0.3254	 	3.44188E12	 	1.2169E-12	 	18544.36771	27.78259	 
580.0	1.0	0.0	9.03611	7.22338	-8.25485	14.3814	20.40325	1.02445	0.97613	189.75113	180.99433	71.58962	0.32527	 	4.30774E12	 	9.66635E-13	 	18405.6791	27.73772	 
575.0	1.0	0.0	9.0384	7.22156	-8.27808	14.35506	20.31569	1.02284	0.97767	190.06683	181.16231	71.71569	0.32514	 	5.4057E12	 	7.65786E-13	 	18267.21424	27.69297	 
570.0	1.0	0.0	9.04068	7.21973	-8.30123	14.32873	20.22811	1.02121	0.97923	190.38172	181.32928	71.84146	0.32501	 	6.80181E12	 	6.05017E-13	 	18128.97255	27.64834	 
565.0	1.0	0.0	9.04296	7.21792	-8.3243	14.30241	20.1405	1.01957	0.9808	190.69578	181.49526	71.96694	0.32488	 	8.58196E12	 	4.76674E-13	 	17990.95347	27.60382	 
560.0	1.0	0.0	9.04523	7.2161	-8.34731	14.2761	20.05287	1.01792	0.9824	191.00901	181.66023	72.09214	0.32476	 	1.08583E13	 	3.74498E-13	 	17853.1564	27.55941	 
555.0	1.0	0.0	9.04749	7.2143	-8.37024	14.24981	19.96522	1.01625	0.98401	191.32142	181.8242	72.21705	0.32463	 	1.37774E13	 	2.93378E-13	 	17715.5808	27.51512	 
550.0	1.0	0.0	9.04975	7.2125	-8.3931	14.22352	19.87754	1.01457	0.98564	191.63301	181.98718	72.34167	0.3245	 	1.75321E13	 	2.29157E-13	 	17578.2261	27.47094	 
545.0	1.0	0.0	9.052	7.21071	-8.41589	14.19725	19.78984	1.01288	0.98729	191.94377	182.14917	72.466	0.32437	 	2.23757E13	 	1.78461E-13	 	17441.09173	27.42687	 
540.0	1.0	0.0	9.05425	7.20892	-8.43861	14.17099	19.70211	1.01117	0.98895	192.25371	182.31016	72.59004	0.32424	 	2.86433E13	 	1.38559E-13	 	17304.17713	27.38292	 
535.0	1.0	0.0	9.05648	7.20713	-8.46125	14.14473	19.61436	1.00945	0.99064	192.56282	182.47017	72.71379	0.32411	 	3.67787E13	 	1.07246E-13	 	17167.48178	27.33907	 
530.0	1.0	0.0	9.05872	7.20536	-8.48383	14.11849	19.52658	1.00771	0.99235	192.87111	182.62918	72.83726	0.32399	 	4.7372E13	 	8.27488E-14	 	17031.00512	27.29533	 
525.0	1.0	0.0	9.06095	7.20358	-8.50633	14.09227	19.43878	1.00596	0.99407	193.17857	182.78722	72.96044	0.32386	 	6.12103E13	 	6.36425E-14	 	16894.7466	27.2517	 
520.0	1.0	0.0	9.06317	7.20182	-8.52876	14.06605	19.35095	1.0042	0.99582	193.48522	182.94427	73.08332	0.32373	 	7.93469E13	 	4.87879E-14	 	16758.70571	27.20818	 
515.0	1.0	0.0	9.06538	7.20006	-8.55111	14.03984	19.26309	1.00242	0.99759	193.79103	183.10034	73.20592	0.3236	 	1.03197E14	 	3.7276E-14	 	16622.88191	27.16476	 
510.0	1.0	0.0	9.06759	7.1983	-8.5734	14.01364	19.17521	1.00062	0.99938	194.09603	183.25544	73.32823	0.32347	 	1.3466599999999998E14	 	2.83839E-14	 	16487.27468	27.12145	 
505.0	1.0	0.0	9.0698	7.19656	-8.59561	13.98746	19.0873	0.99881	1.00119	194.4002	183.40956	73.45025	0.32335	 	1.76335E14	 	2.15383E-14	 	16351.88351	27.07823	 
500.0	1.0	0.0	9.07199	7.19481	-8.61775	13.96129	18.99936	0.99699	1.00302	194.70355	183.5627	73.57199	0.32322	 	2.31703E14	 	1.62862E-14	 	16216.70788	27.03513	 
495.0	1.0	0.0	9.07419	7.19307	-8.63982	13.93512	18.91139	0.99515	1.00487	195.00607	183.71488	73.69343	0.32309	 	3.0554E14	 	1.22706E-14	 	16081.7473	26.99212	 
490.0	1.0	0.0	9.07637	7.19134	-8.66182	13.90897	18.8234	0.99329	1.00675	195.30777	183.86608	73.81458	0.32296	 	4.0437E14	 	9.21123E-15	 	15947.00126	26.94921	 
485.0	1.0	0.0	9.07855	7.18962	-8.68374	13.88283	18.73537	0.99142	1.00865	195.60865	184.01632	73.93545	0.32283	 	5.3714999999999994E14	 	6.88884E-15	 	15812.46929	26.90639	 
480.0	1.0	0.0	9.08072	7.1879	-8.7056	13.8567	18.64731	0.98954	1.01058	195.9087	184.1656	74.05602	0.32271	 	7.16225E14	 	5.13238E-15	 	15678.1509	26.86368	 
475.0	1.0	0.0	9.08289	7.18618	-8.72738	13.83058	18.55923	0.98763	1.01252	196.20793	184.31391	74.17631	0.32258	 	9.58679E14	 	3.80892E-15	 	15544.0456	26.82106	 
470.0	1.0	0.0	9.08505	7.18447	-8.74909	13.80448	18.47111	0.98571	1.0145	196.50633	184.46127	74.29631	0.32245	 	1.28825E15	 	2.81554E-15	 	15410.15295	26.77853	 
465.0	1.0	0.0	9.08721	7.18277	-8.77073	13.77838	18.38296	0.98377	1.01649	196.80392	184.60766	74.41601	0.32232	 	1.73807E15	 	2.07283E-15	 	15276.47247	26.7361	 
460.0	1.0	0.0	9.08936	7.18107	-8.7923	13.7523	18.29478	0.98182	1.01852	197.10068	184.7531	74.53543	0.32219	 	2.35455E15	 	1.51975E-15	 	15143.00372	26.69375	 
455.0	1.0	0.0	9.0915	7.17938	-8.81379	13.72622	18.20657	0.97985	1.02057	197.39662	184.89759	74.65456	0.32207	 	3.20302E15	 	1.10955E-15	 	15009.74625	26.65149	 
450.0	1.0	0.0	9.09364	7.17769	-8.83522	13.70016	18.11832	0.97786	1.02264	197.69173	185.04113	74.7734	0.32194	 	4.37581E15	 	8.06597E-16	 	14876.69963	26.60932	 
445.0	1.0	0.0	9.09577	7.17601	-8.85657	13.67411	18.03004	0.97585	1.02474	197.98602	185.18372	74.89195	0.32181	 	6.00406E15	 	5.83791E-16	 	14743.86344	26.56724	 
440.0	1.0	0.0	9.09789	7.17433	-8.87786	13.64807	17.94172	0.97383	1.02687	198.27949	185.32536	75.0102	0.32168	 	8.2748E15	 	4.2064E-16	 	14611.23725	26.52524	 
435.0	1.0	0.0	9.10001	7.17266	-8.89907	13.62204	17.85337	0.97179	1.02903	198.57214	185.46605	75.12817	0.32156	 	1.14561E16	 	3.017E-16	 	14478.82066	26.48332	 
430.0	1.0	0.0	9.10212	7.171	-8.92021	13.59602	17.76499	0.96973	1.03122	198.86396	185.60581	75.24585	0.32143	 	1.5934E16	 	2.15382E-16	 	14346.61328	26.44148	 
425.0	1.0	0.0	9.10423	7.16934	-8.94128	13.57002	17.67657	0.96765	1.03343	199.15496	185.74462	75.36324	0.3213	 	2.22673E16	 	1.53027E-16	 	14214.61472	26.39971	 
420.0	1.0	0.0	9.10633	7.16769	-8.96228	13.54402	17.58811	0.96555	1.03568	199.44514	185.8825	75.48034	0.32117	 	3.12684E16	 	1.08195E-16	 	14082.82461	26.35802	 
415.0	1.0	0.0	9.10842	7.16604	-8.9832	13.51804	17.49961	0.96343	1.03796	199.73449	186.01944	75.59715	0.32105	 	4.41252E16	 	7.61172E-17	 	13951.24261	26.3164	 
410.0	1.0	0.0	9.11051	7.1644	-9.00406	13.49206	17.41108	0.96129	1.04026	200.02302	186.15544	75.71367	0.32092	 	6.25831E16	 	5.32777E-17	 	13819.86849	26.27482	 
405.0	1.0	0.0	9.11259	7.16276	-9.02484	13.4661	17.32251	0.95914	1.0426	200.31073	186.29052	75.82989	0.32079	 	8.92207E16	 	3.70977E-17	 	13688.70198	26.2333	 
400.0	1.0	0.0	9.11467	7.16113	-9.04556	13.44015	17.23389	0.95696	1.04497	200.59762	186.42466	75.94583	0.32066	 	1.27868E17	 	2.56943E-17	 	13557.74283	26.19183	 
395.0	1.0	0.0	9.11673	7.1595	-9.0662	13.41421	17.14524	0.95476	1.04738	200.88369	186.55788	76.06148	0.32053	 	1.84246E17	 	1.76996E-17	 	13426.99083	26.1504	 
390.0	1.0	0.0	9.1188	7.15788	-9.08677	13.38828	17.05655	0.95255	1.04982	201.16893	186.69017	76.17684	0.32041	 	2.66947E17	 	1.21248E-17	 	13296.44576	26.10902	 
385.0	1.0	0.0	9.12085	7.15627	-9.10728	13.36237	16.96781	0.95031	1.05229	201.45335	186.82153	76.2919	0.32028	 	3.88955E17	 	8.25871E-18	 	13166.10741	26.06767	 
380.0	1.0	0.0	9.1229	7.15466	-9.12771	13.33646	16.87903	0.94805	1.0548	201.73695	186.95198	76.40668	0.32015	 	5.70002E17	 	5.59272E-18	 	13035.9756	26.02636	 
375.0	1.0	0.0	9.12495	7.15306	-9.14807	13.31056	16.79021	0.94577	1.05734	202.01973	187.0815	76.52116	0.32003	 	8.40262E17	 	3.76485E-18	 	12906.05015	25.98509	 
370.0	1.0	0.0	9.12699	7.15146	-9.16836	13.28468	16.70135	0.94347	1.05992	202.30168	187.21011	76.63536	0.3199	 	1.24616E18	 	2.51899E-18	 	12776.33091	25.94385	 
365.0	1.0	0.0	9.12902	7.14987	-9.18858	13.25881	16.61244	0.94114	1.06254	202.58281	187.3378	76.74926	0.31977	 	1.85958E18	 	1.67493E-18	 	12646.81774	25.90263	 
360.0	1.0	0.0	9.13105	7.14828	-9.20873	13.23294	16.52348	0.9388	1.06519	202.86312	187.46458	76.86287	0.31964	 	2.79254E18	 	1.10661E-18	 	12517.5105	25.86145	 
355.0	1.0	0.0	9.13307	7.1467	-9.2288	13.20709	16.43448	0.93643	1.06789	203.14261	187.59045	76.97619	0.31952	 	4.22083E18	 	7.26361E-19	 	12388.40908	25.82028	 
350.0	1.0	0.0	9.13508	7.14513	-9.24881	13.18125	16.34542	0.93403	1.07063	203.42128	187.71541	77.08922	0.31939	 	6.42205E18	 	4.73593E-19	 	12259.51341	25.77913	 
345.0	1.0	0.0	9.13709	7.14356	-9.26875	13.15543	16.25632	0.93162	1.0734	203.69912	187.83946	77.20196	0.31926	 	9.83782E18	 	3.06677E-19	 	12130.82341	25.738	 
340.0	1.0	0.0	9.13909	7.14199	-9.28861	13.12961	16.16717	0.92918	1.07622	203.97615	187.96261	77.31441	0.31913	 	1.51756E19	 	1.97201E-19	 	12002.33901	25.69688	 
335.0	1.0	0.0	9.14108	7.14043	-9.30841	13.1038	16.07797	0.92671	1.07908	204.25235	188.08485	77.42656	0.31901	 	2.35769E19	 	1.25896E-19	 	11874.06021	25.65576	 
330.0	1.0	0.0	9.14307	7.13888	-9.32814	13.07801	15.98872	0.92423	1.08199	204.52773	188.20619	77.53843	0.31888	 	3.68978E19	 	7.97833E-20	 	11745.98696	25.61465	 
325.0	1.0	0.0	9.14505	7.13733	-9.34779	13.05222	15.89941	0.92171	1.08494	204.80228	188.32664	77.65	0.31875	 	5.81789E19	 	5.01801E-20	 	11618.11929	25.57353	 
320.0	1.0	0.0	9.14703	7.13579	-9.36738	13.02645	15.81005	0.91917	1.08793	205.07602	188.44618	77.76128	0.31863	 	9.24412E19	 	3.13174E-20	 	11490.45723	25.53241	 
315.0	1.0	0.0	9.149	7.13426	-9.38689	13.00069	15.72064	0.91661	1.09098	205.34893	188.56483	77.87227	0.3185	 	1.48042E20	 	1.93906E-20	 	11363.00083	25.49128	 
310.0	1.0	0.0	9.15096	7.13272	-9.40634	12.97494	15.63117	0.91402	1.09407	205.62103	188.68259	77.98297	0.31837	 	2.3900699999999997E20	 	1.19085E-20	 	11235.75018	25.45013	 
305.0	1.0	0.0	9.15292	7.1312	-9.42572	12.9492	15.54164	0.9114	1.09721	205.8923	188.79945	78.09338	0.31824	 	3.89076E20	 	7.25258E-21	 	11108.70537	25.40896	 
300.0	1.0	0.0	9.15487	7.12968	-9.44502	12.92347	15.45205	0.90876	1.1004	206.16275	188.91543	78.20349	0.31812	 	6.3878E20	 	4.37929E-21	 	10981.86655	25.36776	 
295.0	1.0	0.0	9.15682	7.12816	-9.46426	12.89775	15.3624	0.90609	1.10365	206.43238	189.03052	78.31332	0.31799	 	1.0579300000000001E21	 	2.62115E-21	 	10855.23386	25.32654	 
290.0	1.0	0.0	9.15876	7.12666	-9.48342	12.87205	15.27269	0.90339	1.10694	206.70118	189.14472	78.42285	0.31786	 	1.76789E21	 	1.55473E-21	 	10728.80751	25.28527	 
285.0	1.0	0.0	9.16069	7.12515	-9.50252	12.84635	15.18292	0.90066	1.11029	206.96917	189.25804	78.53209	0.31774	 	2.98159E21	 	9.13672E-22	 	10602.5877	25.24396	 
280.0	1.0	0.0	9.16262	7.12365	-9.52154	12.82067	15.09308	0.89791	1.1137	207.23634	189.37047	78.64103	0.31761	 	5.07625E21	 	5.31847E-22	 	10476.5747	25.2026	 
275.0	1.0	0.0	9.16454	7.12216	-9.5405	12.795	15.00318	0.89512	1.11717	207.50268	189.48203	78.74969	0.31748	 	8.726800000000001E21	 	3.06571E-22	 	10350.76877	25.16119	 
270.0	1.0	0.0	9.16645	7.12067	-9.55939	12.76933	14.91321	0.89231	1.12069	207.7682	189.59271	78.85805	0.31736	 	1.5153E22	 	1.74947E-22	 	10225.17025	25.1197	 
265.0	1.0	0.0	9.16836	7.11919	-9.5782	12.74368	14.82317	0.88946	1.12427	208.0329	189.70251	78.96612	0.31723	 	2.65826E22	 	9.88083E-23	 	10099.77949	25.07815	 
260.0	1.0	0.0	9.17026	7.11772	-9.59695	12.71805	14.73306	0.88659	1.12792	208.29678	189.81144	79.0739	0.3171	 	4.71273E22	 	5.52158E-23	 	9974.59688	25.03652	 
255.0	1.0	0.0	9.17215	7.11625	-9.61563	12.69242	14.64288	0.88368	1.13163	208.55984	189.9195	79.18138	0.31698	 	8.44611E22	 	3.05202E-23	 	9849.62285	24.99481	 
250.0	1.0	0.0	9.17404	7.11478	-9.63424	12.6668	14.55263	0.88075	1.1354	208.82208	190.02669	79.28858	0.31685	 	1.53068E23	 	1.66812E-23	 	9724.85788	24.95299	 
245.0	1.0	0.0	9.17592	7.11332	-9.65277	12.64119	14.4623	0.87778	1.13924	209.0835	190.133	79.39548	0.31672	 	2.80605E23	 	9.01252E-24	 	9600.30249	24.91108	 
240.0	1.0	0.0	9.1778	7.11187	-9.67124	12.6156	14.37189	0.87478	1.14315	209.34409	190.23846	79.50208	0.3166	 	5.20519E23	 	4.81166E-24	 	9475.95724	24.86905	 
235.0	1.0	0.0	9.17967	7.11042	-9.68964	12.59002	14.2814	0.87174	1.14713	209.60387	190.34304	79.6084	0.31647	 	9.77367E23	 	2.53759E-24	 	9351.82275	24.8269	 
230.0	1.0	0.0	9.18153	7.10898	-9.70797	12.56444	14.19083	0.86867	1.15118	209.86282	190.44677	79.71442	0.31634	 	1.85831E24	 	1.3215E-24	 	9227.89966	24.78462	 
225.0	1.0	0.0	9.18339	7.10754	-9.72623	12.53888	14.10018	0.86557	1.15531	210.12096	190.54963	79.82015	0.31622	 	3.57914E24	 	6.7931E-25	 	9104.18871	24.74219	 
220.0	1.0	0.0	9.18524	7.10611	-9.74442	12.51333	14.00944	0.86243	1.15951	210.37827	190.65163	79.92558	0.31609	 	6.98574E24	 	3.44551E-25	 	8980.69066	24.69961	 
215.0	1.0	0.0	9.18709	7.10468	-9.76255	12.48779	13.91861	0.85926	1.1638	210.63476	190.75278	80.03073	0.31596	 	1.3822800000000002E25	 	1.72363E-25	 	8857.40634	24.65686	 
210.0	1.0	0.0	9.18892	7.10326	-9.7806	12.46227	13.82769	0.85605	1.16816	210.89043	190.85307	80.13558	0.31584	 	2.7740500000000002E25	 	8.5007E-26	 	8734.33664	24.61394	 
205.0	1.0	0.0	9.19076	7.10184	-9.79858	12.43675	13.73668	0.8528	1.1726	211.14528	190.95251	80.24013	0.31571	 	5.64883E25	 	4.13135E-26	 	8611.48252	24.57082	 
200.0	1.0	0.0	9.19258	7.10043	-9.8165	12.41124	13.64558	0.84952	1.17714	211.39931	191.0511	80.34439	0.31558	 	1.1677000000000001E26	 	1.97767E-26	 	8488.84499	24.52751	 
195.0	1.0	0.0	9.1944	7.09903	-9.83434	12.38575	13.55438	0.8462	1.18176	211.65252	191.14883	80.44836	0.31546	 	2.4515400000000002E26	 	9.32035E-27	 	8366.42516	24.48397	 
190.0	1.0	0.0	9.19621	7.09763	-9.85212	12.36027	13.46307	0.84284	1.18647	211.90491	191.24572	80.55204	0.31533	 	5.230010000000001E26	 	4.32221E-27	 	8244.22419	24.44019	 
185.0	1.0	0.0	9.19802	7.09623	-9.86983	12.33479	13.37166	0.83944	1.19127	212.15648	191.34176	80.65542	0.3152	 	1.13435E27	 	1.97127E-27	 	8122.24334	24.39617	 
180.0	1.0	0.0	9.19982	7.09484	-9.88747	12.30933	13.28015	0.836	1.19618	212.40723	191.43696	80.75851	0.31508	 	2.50273E27	 	8.83719E-28	 	8000.48393	24.35188	 
175.0	1.0	0.0	9.20162	7.09346	-9.90504	12.28388	13.18853	0.83252	1.20118	212.65715	191.53131	80.8613	0.31495	 	5.62017E27	 	3.89189E-28	 	7878.9474	24.30731	 
170.0	1.0	0.0	9.2034	7.09208	-9.92254	12.25844	13.09679	0.829	1.20628	212.90626	191.62483	80.96381	0.31482	 	1.28532E28	 	1.68277E-28	 	7757.63525	24.26243	 
165.0	1.0	0.0	9.20519	7.09071	-9.93997	12.23302	13.00494	0.82543	1.21149	213.15455	191.7175	81.06601	0.3147	 	2.9955300000000003E28	 	7.13897E-29	 	7636.5491	24.21723	 
160.0	1.0	0.0	9.20696	7.08934	-9.95733	12.2076	12.91297	0.82182	1.21681	213.40201	191.80934	81.16793	0.31457	 	7.1190200000000005E28	 	2.96965E-29	 	7515.69067	24.17169	 
155.0	1.0	0.0	9.20873	7.08798	-9.97463	12.18219	12.82087	0.81817	1.22224	213.64866	191.90034	81.26955	0.31444	 	1.72642E29	 	1.21042E-29	 	7395.0618	24.12577	 
150.0	1.0	0.0	9.21049	7.08662	-9.99185	12.1568	12.72865	0.81448	1.22778	213.89449	191.99051	81.37087	0.31432	 	4.2752800000000005E29	 	4.83077E-30	 	7274.66441	24.07948	 
145.0	1.0	0.0	9.21225	7.08527	-10.00901	12.13142	12.6363	0.81073	1.23345	214.13949	192.07984	81.4719	0.31419	 	1.08194E30	 	1.88633E-30	 	7154.5006	24.03276	 
140.0	1.0	0.0	9.214	7.08393	-10.0261	12.10604	12.54381	0.80695	1.23924	214.38368	192.16835	81.57264	0.31407	 	2.80026E30	 	7.20106E-31	 	7034.57256	23.98561	 
135.0	1.0	0.0	9.21574	7.08259	-10.04312	12.08068	12.45118	0.80311	1.24516	214.62704	192.25602	81.67308	0.31394	 	7.41845E30	 	2.6853E-31	 	6914.88263	23.93799	 
130.0	1.0	0.0	9.21748	7.08125	-10.06007	12.05533	12.35841	0.79923	1.25121	214.86958	192.34287	81.77323	0.31381	 	2.0133699999999998E31	 	9.77304E-32	 	6795.43331	23.88986	 
125.0	1.0	0.0	9.21921	7.07992	-10.07696	12.02999	12.26549	0.79529	1.2574	215.11131	192.4289	81.87308	0.31369	 	5.60305E31	 	3.46824E-32	 	6676.22725	23.84121	 
120.0	1.0	0.0	9.22093	7.0786	-10.09377	12.00467	12.17242	0.79131	1.26372	215.35221	192.5141	81.97264	0.31356	 	1.60041E32	 	1.19898E-32	 	6557.26725	23.792	 
115.0	1.0	0.0	9.22265	7.07728	-10.11052	11.97935	12.07919	0.78728	1.2702	215.5923	192.59848	82.0719	0.31344	 	4.69659E32	 	4.0337E-33	 	6438.55632	23.74219	 
110.0	1.0	0.0	9.22436	7.07597	-10.1272	11.95405	11.98579	0.78319	1.27683	215.83156	192.68204	82.17087	0.31331	 	1.41754E33	 	1.31923E-33	 	6320.09765	23.69173	 
105.0	1.0	0.0	9.22607	7.07466	-10.14381	11.92875	11.89222	0.77905	1.28361	216.07001	192.76478	82.26955	0.31318	 	4.4053000000000004E33	 	4.18962E-34	 	6201.8946	23.64061	 
100.0	1.0	0.0	9.22777	7.07336	-10.16035	11.90347	11.79848	0.77486	1.29055	216.30763	192.8467	82.36793	0.31306	 	1.41128E34	 	1.2905E-34	 	6083.95081	23.58876	 
95.0	1.0	0.0	9.22946	7.07206	-10.17682	11.8782	11.70455	0.77061	1.29767	216.54443	192.92781	82.46601	0.31293	 	4.66642E34	 	3.85059E-35	 	5966.27009	23.53614	 
90.0	1.0	0.0	9.23114	7.07077	-10.19323	11.85294	11.61043	0.76631	1.30496	216.78042	193.00811	82.5638	0.31281	 	1.59462E35	 	1.11152E-35	 	5848.85653	23.48271	 
85.0	1.0	0.0	9.23282	7.06948	-10.20956	11.82769	11.51612	0.76195	1.31243	217.01558	193.0876	82.6613	0.31268	 	5.639379999999999E35	 	3.09971E-36	 	5731.71447	23.42841	 
80.0	1.0	0.0	9.2345	7.0682	-10.22583	11.80245	11.4216	0.75753	1.32008	217.24993	193.16627	82.7585	0.31255	 	2.0669899999999997E36	 	8.33886E-37	 	5614.84855	23.37319	 
75.0	1.0	0.0	9.23616	7.06693	-10.24204	11.77722	11.32687	0.75305	1.32794	217.48345	193.24414	82.8554	0.31243	 	7.86412E36	 	2.16074E-37	 	5498.26368	23.31697	 
70.0	1.0	0.0	9.23782	7.06566	-10.25817	11.752	11.23192	0.74851	1.33599	217.71615	193.3212	82.95201	0.3123	 	3.1107999999999997E37	 	5.38392E-38	 	5381.96512	23.25971	 
65.0	1.0	0.0	9.23948	7.06439	-10.27423	11.7268	11.13674	0.7439	1.34426	217.94804	193.39746	83.04832	0.31218	 	1.28161E38	 	1.28778E-38	 	5265.95849	23.20133	 
60.0	1.0	0.0	9.24113	7.06313	-10.29023	11.70161	11.04132	0.73924	1.35274	218.1791	193.47291	83.14434	0.31205	 	5.5092899999999994E38	 	2.95142E-39	 	5150.24976	23.14175	 
55.0	1.0	0.0	9.24277	7.06188	-10.30616	11.67642	10.94565	0.73451	1.36145	218.40935	193.54756	83.24006	0.31192	 	2.4759200000000003E39	 	6.46879E-40	 	5034.84532	23.08089	 
50.0	1.0	0.0	9.2444	7.06063	-10.32202	11.65125	10.84972	0.72971	1.3704	218.63877	193.62142	83.33549	0.3118	 	1.16566E40	 	1.35306E-40	 	4919.75196	23.01867	 
45.0	1.0	0.0	9.24603	7.05939	-10.33782	11.62609	10.75353	0.72485	1.3796	218.86738	193.69447	83.43062	0.31167	 	5.7618E40	 	2.69501E-41	 	4804.977	22.95499	 
40.0	1.0	0.0	9.24765	7.05815	-10.35355	11.60094	10.65705	0.71992	1.38905	219.09517	193.76673	83.52545	0.31155	 	2.9971300000000002E41	 	5.09958E-42	 	4690.52822	22.88976	 
35.0	1.0	0.0	9.24927	7.05691	-10.36921	11.5758	10.56027	0.71491	1.39877	219.32213	193.83819	83.61999	0.31142	 	1.64472E42	 	9.14444E-43	 	4576.41395	22.82285	 
30.0	1.0	0.0	9.25088	7.05569	-10.3848	11.55067	10.46319	0.70984	1.40877	219.54828	193.90886	83.71423	0.3113	 	9.547039999999999E42	 	1.5498E-43	 	4462.64315	22.75416	 
25.0	1.0	0.0	9.25248	7.05446	-10.40032	 	10.36578	0.70469	1.41906	219.77361	193.97874	83.80818	0.31117	 	5.87845E43	 	2.47548E-44	 	4349.22537	 	 
