T (C)	Fraction solid (wt)-TOTAL	Fraction liquid (wt)-LIQUID	Density (g/(cm)^3)-TOTAL	Molar volume (cm^3)-TOTAL	Volume change (%)-  	Average expansion coeff. (10e-6 1/K)-  	Thermal conductivity (W/(m*K))-TOTAL	Electrical resistivity (10e-6 Ohm*m)-TOTAL	Electrical conductivity (10e6 1/(Ohm*m))-TOTAL	Young's modulus (GPa)-TOTAL	Bulk modulus (GPa)-TOTAL	Shear modulus(GPa)-TOTAL	Poisson's ratio-TOTAL	Liquid viscosity (mPa s)-  	Total viscosity (mPa s)-  	Liquid diffusivity (10e-9 (m^2)/s)-  	Total diffusivity (10e-9 (m^2)/s)-  	Surface Tension (mN/m)-  	Enthalpy (J/mole)-TOTAL	Specific heat (J/(mole K))-TOTAL	Latent heat (J/mole)-TOTAL
1400.0	0.0	1.0	7.45031	7.85881	0.0	30.2118	29.53963	1.3877	0.72062	0.0	124.98467	0.0	0.5	7.63215	7.63215	1.06998	1.06998	1808.44061	50125.846	 	0.0
1395.0	0.0	1.0	7.4544	7.85451	-0.054796	30.17212	29.46455	1.38708	0.72094	0.0	125.13674	0.0	0.5	7.71526	7.71526	1.05529	1.05529	1811.88064	49921.448	40.8796	0.0
1390.0	0.0	1.0	7.45848	7.85021	-0.10944	30.13259	29.38947	1.38645	0.72126	0.0	125.2888	0.0	0.5	7.79978	7.79978	1.04072	1.04072	1815.34866	49717.525	40.7846	0.0
1385.0	0.0	1.0	7.46255	7.84593	-0.16392	30.09319	29.31439	1.38583	0.72159	0.0	125.44087	0.0	0.5	7.88575	7.88575	1.02628	1.02628	1818.84456	49514.075	40.69	0.0
1380.0	0.0	1.0	7.46661	7.84166	-0.21825	30.05393	29.2393	1.3852	0.72192	0.0	125.59293	0.0	0.5	7.97319	7.97319	1.01197	1.01197	1822.36818	49311.094	40.5962	0.0
1375.0	0.0	1.0	7.47066	7.83741	-0.27242	30.01482	29.16422	1.38456	0.72225	0.0	125.745	0.0	0.5	8.06214	8.06214	0.99778	0.99778	1825.91936	49108.581	40.5026	0.0
1370.0	0.0	1.0	7.47471	7.83316	-0.32643	29.97585	29.08914	1.38392	0.72258	0.0	125.89706	0.0	0.5	8.15263	8.15263	0.98371	0.98371	1829.49796	48906.531	40.41	0.0
1365.0	0.0	1.0	7.47875	7.82893	-0.38029	29.93703	29.01406	1.38328	0.72292	0.0	126.04913	0.0	0.5	8.2447	8.2447	0.96976	0.96976	1833.1038	48704.943	40.3176	0.0
1360.0	0.0	1.0	7.48279	7.82471	-0.43399	29.89835	28.93897	1.38264	0.72325	0.0	126.20119	0.0	0.5	8.33838	8.33838	0.95594	0.95594	1836.7367	48503.814	40.2258	0.0
1355.0	0.0	1.0	7.48681	7.8205	-0.48754	29.85983	28.86389	1.38199	0.72359	0.0	126.35325	0.0	0.5	8.43371	8.43371	0.94224	0.94224	1840.39648	48303.141	40.1346	0.0
1353.62	0.0	1.0	7.48793	7.81934	-0.50233	29.8492	28.84312	1.38181	0.72369	0.0	126.39533	0.0	0.5	8.46039	8.46039	0.93847	0.93847	1841.41382	48247.697	40.0772	0.0
1350.0	0.0966318	0.90337	7.51524	7.7909	-0.86422	28.90678	29.11098	1.36605	0.73204	0.00846173	127.42267	0.00284495	0.48715	8.51117	12.22588	0.9308	0.64799	1840.40569	46689.231	430.92378	1413.689
1345.0	0.21108	0.78892	7.54821	7.75689	-1.29692	27.78742	29.4255	1.34729	0.74223	0.19669	128.6558	0.0668236	0.47175	8.58171	73.24462	0.9203	0.10783	1839.05238	44824.593	372.9276	3078.557
1340.0	0.30609	0.69391	7.57623	7.72822	-1.66172	26.85314	29.68239	1.3315	0.75103	0.88545	129.70864	0.30349	0.4588	8.6528	303.5068	0.90992	0.0259414	1837.76988	43252.773	314.364	4451.057
1335.0	0.38577	0.61423	7.60034	7.7037	-1.97375	26.0627	29.89294	1.31803	0.75871	2.26922	130.62007	0.78368	0.4478	8.72463	792.83145	0.89963	0.00989994	1836.56718	41911.877	268.1792	5593.078
1330.0	0.45321	0.54679	7.62127	7.6826	-2.24228	25.39117	30.06568	1.30638	0.76547	4.38304	131.42281	1.52358	0.4384	8.79722	1591.07862	0.88944	0.00491778	1835.44802	40755.073	231.3608	6551.449
1325.0	0.51077	0.48923	7.63963	7.66418	-2.47663	24.81306	30.20659	1.29623	0.77147	7.15967	132.1386	2.50288	0.43029	8.87076	2718.44914	0.87931	0.00286935	1834.41919	39746.495	201.7156	7362.038
1320.79	0.55268	0.44732	7.65335	7.65046	-2.65126	24.3884	30.30341	1.28869	0.77598	9.90816	132.68492	3.47819	0.42433	8.93333	3917.9854	0.87086	0.00198562	1833.62889	38995.03	 	7947.299
1320.0	0.56645	0.43355	7.65771	7.64615	-2.70605	24.24474	30.34056	1.28647	0.77732	10.96673	132.89292	3.85519	0.42233	8.95497	4366.83287	0.86832	0.00178064	1833.51213	38760.664	197.1662	8150.315
1315.0	0.64435	0.35565	7.68261	7.62144	-3.0205	23.42492	30.54887	1.27369	0.78512	18.71683	134.03104	6.63277	0.41094	9.09259	7803.62773	0.85249	9.93303E-4	1832.77644	37424.74	267.1848	9289.121
1310.0	0.70382	0.29618	7.70228	7.60202	-3.26766	22.79503	30.69572	1.2636	0.79139	27.07119	134.92169	9.6537	0.40212	9.23214	11863.24619	0.83696	6.51336E-4	1832.05785	36371.448	210.6584	10145.728
1305.0	0.75011	0.24989	7.7182	7.58639	-3.46647	22.3018	30.79644	1.25549	0.7965	35.39696	135.64574	12.68567	0.39516	9.37381	16353.42973	0.82171	4.71006E-4	1831.37089	35517.628	170.764	10803.294
1300.0	0.78681	0.21319	7.73138	7.57353	-3.63017	21.90795	30.86217	1.24885	0.80074	43.33261	136.25444	15.59213	0.38957	9.51771	21155.0731	0.80672	3.62946E-4	1830.72919	34807.881	141.9494	11317.216
1295.0	0.81634	0.18366	7.7425	7.56271	-3.76785	21.5878	30.90095	1.24332	0.8043	50.70302	136.78143	18.30424	0.38501	9.66391	26204.83116	0.79199	2.92074E-4	1830.14392	34204.376	120.701	11725.321
1290.0	0.84045	0.15955	7.75206	7.55342	-3.88602	21.32294	30.91877	1.23864	0.80734	57.44477	137.24921	20.79473	0.38123	9.81254	31475.94278	0.77751	2.42387E-4	1829.6246	33680.696	104.736	12054.024
1285.0	0.86039	0.13961	7.76041	7.54534	-3.98888	21.10154	30.92017	1.23462	0.80997	63.56485	137.67405	23.06299	0.37807	9.96377	36970.28369	0.76326	2.05704E-4	1829.17416	33218.019	92.5354	12322.146
1280.0	0.87705	0.12295	7.76782	7.53818	-4.07994	20.91359	30.90846	1.23112	0.81227	69.09864	138.06677	25.11974	0.37539	10.11794	42703.04255	0.74922	1.77518E-4	1828.79933	32802.683	83.0672	12543.345
1275.0	0.89112	0.10888	7.77448	7.53175	-4.16172	20.752	30.88626	1.22804	0.8143	74.10068	138.43505	26.98339	0.37308	10.27509	48702.39216	0.73538	1.55149E-4	1828.50332	32424.608	75.615	12727.7
1270.0	0.90312	0.0968817	7.78053	7.52594	-4.23566	20.6127	30.85545	1.2253	0.81613	78.61709	138.78467	28.66967	0.37108	10.43546	54995.94821	0.72174	1.36951E-4	1828.28464	32076.24	69.6736	12882.761
1265.0	0.91343	0.0865693	7.78609	7.5206	-4.30365	20.49026	30.81766	1.22283	0.81778	82.71111	139.1196	30.20116	0.36934	10.59937	61627.95771	0.70828	1.21817E-4	1828.14893	31751.839	64.8802	13014.268
1260.0	0.92236	0.0776401	7.79121	7.51564	-4.36671	20.38181	30.77396	1.22058	0.81928	86.43024	139.44467	31.59478	0.36779	10.76687	68637.6262	0.695	1.09021E-4	1831.70596	31445.7334	61.22112	13126.636
1255.0	0.93015	0.0698463	7.79528	7.51152	-4.4192	20.30469	30.72159	1.21868	0.82056	89.794	139.69811	32.85801	0.36639	10.93829	76180.37878	0.68187	9.79061E-5	1835.27951	31154.17593	58.31149	13223.307
1250.0	0.94046	0.0595402	7.80029	7.50653	-4.48263	20.19346	30.67135	1.21668	0.82191	94.31782	140.00071	34.55899	0.36459	11.08989	85500.3309	0.67035	8.69484E-5	1838.71617	30819.8283	66.86953	13363.229
1245.0	0.95109	0.0489134	7.80564	7.50127	-4.54956	20.07055	30.62012	1.21471	0.82324	99.17063	140.3227	36.3868	0.36273	11.22718	96098.26278	0.65998	7.71056E-5	1842.07046	30478.92387	68.18089	13510.167
1240.0	0.95982	0.0401837	7.81061	7.49642	-4.61128	19.96273	30.56425	1.21293	0.82445	103.36725	140.63755	37.97022	0.36116	11.36392	107123.6508	0.64989	6.89419E-5	1845.43007	30166.87093	62.41059	13628.712
1235.0	0.96706	0.0329422	7.81528	7.49189	-4.66893	19.86662	30.50474	1.21128	0.82558	107.01865	140.94811	39.35003	0.35983	11.50049	118664.9434	0.64005	6.2031E-5	1848.7939	29877.32484	57.90922	13725.206
1230.0	0.97312	0.0268796	7.81973	7.48761	-4.72345	19.77944	30.4423	1.20974	0.82663	110.21734	141.256	40.56038	0.35868	11.63714	130813.6153	0.63044	5.60836E-5	1852.165	29605.54791	54.35539	13804.386
1225.0	0.97824	0.0217604	7.82399	7.48352	-4.7755	19.69925	30.3775	1.20829	0.82762	113.03839	141.56231	41.6291	0.35768	11.77405	143663.1215	0.62104	5.08975E-5	1855.54512	29347.95746	51.51809	13869.829
1220.0	0.9826	0.0174035	7.8281	7.47959	-4.82548	19.62487	30.31076	1.2069	0.82857	115.54456	141.86758	42.57954	0.35681	11.91158	157312.9089	0.61182	4.63261E-5	1858.93073	29101.81481	49.22853	13924.272
1215.0	0.98646	0.0135395	7.83232	7.47578	-4.87392	19.55474	30.24264	1.20557	0.82948	117.83753	142.17768	43.44994	0.35602	12.00716	171924.4484	0.60491	4.2247E-5	1862.35048	28862.29329	47.9043	13972.539
1210.0	0.99	0.0100044	7.83668	7.47204	-4.92149	19.48677	30.17361	1.20427	0.83038	119.99671	142.49214	44.2702	0.35528	12.06994	187682.9127	0.59974	3.85698E-5	1865.79384	28627.4412	46.97042	14016.579
1205.0	0.99304	0.00695871	7.84097	7.46842	-4.96763	19.42276	30.10347	1.20301	0.83125	121.94359	142.80541	45.01047	0.35461	12.1348	204558.876	0.59453	3.52685E-5	1869.24202	28400.01487	45.48527	14053.633
1200.0	0.99568	0.00431925	7.8452	7.46489	-5.01256	19.36207	30.03132	1.20182	0.83207	123.71056	143.11777	45.68289	0.35401	12.20183	222676.7489	0.58926	3.22893E-5	1872.69617	28178.76962	44.24905	14084.942
1195.0	0.99798	0.00201752	7.84937	7.46144	-5.05644	19.3042	29.95837	1.20066	0.83288	125.32477	143.42932	46.29766	0.35347	12.27133	242170.8969	0.58394	2.95893E-5	1876.15493	27962.72575	43.20877	14111.483
1190.0	1.0	0.0	7.85349	7.45806	-5.09941	19.24877	29.88566	1.19948	0.8337	126.80796	143.74003	46.86295	0.35297	 	263184.5049	 	2.71341E-5	 	27751.0806	42.32903	14134.057
1185.0	1.0	0.0	7.85603	7.45565	-5.13005	19.23275	29.80449	1.19863	0.83428	127.19932	144.00652	47.01386	0.35279	 	283853.3791	 	2.50723E-5	 	27564.49731	37.31666	 
1180.0	1.0	0.0	7.85856	7.45325	-5.16062	19.21677	29.72332	1.19779	0.83487	127.58988	144.27158	47.16452	0.3526	 	306301.6814	 	2.31552E-5	 	27382.71397	36.35667	 
1175.0	1.0	0.0	7.86109	7.45085	-5.19114	19.20084	29.64214	1.19693	0.83547	127.97964	144.53522	47.31491	0.35242	 	330695.7475	 	2.13733E-5	 	27201.25379	36.29204	 
1170.0	1.0	0.0	7.86361	7.44846	-5.2216	19.18494	29.56096	1.19608	0.83607	128.3686	144.79745	47.46505	0.35224	 	357218.6771	 	1.97181E-5	 	27020.11565	36.22763	 
1168.76	1.0	0.0	7.86424	7.44786	-5.22916	19.18096	29.54083	1.19586	0.83622	128.4649	144.86221	47.50222	0.3522	 	364145.9639	 	1.93263E-5	 	26975.26032	 	 
1165.0	1.0	0.0	7.86633	7.44589	-5.25428	19.16162	29.48629	1.19495	0.83685	128.7449	145.00898	47.61183	0.35203	 	386007.3063	 	1.81842E-5	 	26834.4346	37.13621	 
1160.0	1.0	0.0	7.8691	7.44327	-5.28765	19.13584	29.41499	1.19368	0.83774	129.11711	145.20363	47.75756	0.3518	 	417313.1394	 	1.67616E-5	 	26647.47229	37.39246	 
1155.0	1.0	0.0	7.87187	7.44065	-5.32095	19.11004	29.34286	1.19244	0.83861	129.48922	145.39774	47.9033	0.35157	 	451398.3859	 	1.54419E-5	 	26460.8295	37.32856	 
1150.0	1.0	0.0	7.87463	7.43804	-5.35418	19.08423	29.27186	1.19115	0.83952	129.86122	145.59133	48.04904	0.35134	 	488530.7613	 	1.42182E-5	 	26274.50422	37.26506	 
1148.83	1.0	0.0	7.87528	7.43743	-5.36199	19.07811	29.25522	1.19084	0.83974	129.94856	145.63668	48.08326	0.35129	 	497722.2293	 	1.39441E-5	 	26230.80175	 	 
1145.0	1.0	0.0	7.87723	7.43558	-5.38548	19.06468	29.19459	1.19011	0.84026	130.24369	145.82565	48.19762	0.35114	 	529142.648	 	1.30809E-5	 	26092.0146	36.49792	 
1140.0	1.0	0.0	7.87979	7.43317	-5.41611	19.04719	29.11531	1.18914	0.84094	130.6288	146.07181	48.34688	0.35095	 	573491.7983	 	1.20267E-5	 	25910.98809	36.2053	 
1135.0	1.0	0.0	7.88233	7.43077	-5.44666	19.02981	29.03596	1.18817	0.84163	131.01323	146.31707	48.49592	0.35077	 	621902.6836	 	1.10513E-5	 	25730.35739	36.12614	 
1130.85	1.0	0.0	7.88444	7.42878	-5.47195	19.01545	28.97009	1.18737	0.8422	131.33157	146.5198	48.61935	0.35061	 	665424.1571	 	1.02981E-5	 	25580.83958	 	 
1130.0	1.0	0.0	7.88487	7.42838	-5.47711	19.01263	28.95654	1.1872	0.84232	131.39709	146.56163	48.64476	0.35058	 	674783.4195	 	1.01491E-5	 	25550.05334	36.06081	 
1125.0	1.0	0.0	7.88739	7.426	-5.50732	18.99607	28.87707	1.18622	0.84301	131.78082	146.80625	48.79356	0.35039	 	732604.2893	 	9.31475E-6	 	25369.80855	36.04896	 
1120.0	1.0	0.0	7.88991	7.42364	-5.53747	18.97959	28.79755	1.18525	0.84371	132.16383	147.04988	48.94213	0.35021	 	795834.7269	 	8.54401E-6	 	25189.96912	35.96789	 
1115.0	1.0	0.0	7.89242	7.42127	-5.56755	18.96319	28.71795	1.18427	0.84441	132.54611	147.29253	49.09044	0.35002	 	865022.9063	 	7.83241E-6	 	25010.53067	35.88769	 
1110.0	1.0	0.0	7.89493	7.41891	-5.59757	18.94687	28.6383	1.18328	0.84511	132.92765	147.53417	49.23852	0.34983	 	940776.7838	 	7.17578E-6	 	24831.48881	35.80837	 
1105.0	1.0	0.0	7.89744	7.41656	-5.62752	18.93063	28.55859	1.18229	0.84581	133.30847	147.77481	49.38634	0.34965	 	1023770.986	 	6.57023E-6	 	24652.83927	35.72991	 
1100.0	1.0	0.0	7.89994	7.41421	-5.65741	18.91447	28.47882	1.18131	0.84652	133.68854	148.01443	49.53392	0.34946	 	1114754.772	 	6.01209E-6	 	24474.5778	35.65229	 
1095.0	1.0	0.0	7.90244	7.41187	-5.68722	18.89838	28.39899	1.18031	0.84723	134.06787	148.25304	49.68125	0.34928	 	1214560.719	 	5.49796E-6	 	24296.70023	35.57552	 
1090.0	1.0	0.0	7.90493	7.40953	-5.71698	18.88238	28.31911	1.17932	0.84795	134.44646	148.49062	49.82833	0.3491	 	1324114.757	 	5.02464E-6	 	24119.20243	35.49956	 
1085.0	1.0	0.0	7.90742	7.4072	-5.74666	18.86646	28.23917	1.17832	0.84867	134.8243	148.72717	49.97516	0.34891	 	1444447.169	 	4.58916E-6	 	23942.08035	35.42442	 
1080.0	1.0	0.0	7.90991	7.40487	-5.77629	18.85062	28.15918	1.17731	0.84939	135.2014	148.96268	50.12174	0.34873	 	1576705.448	 	4.18873E-6	 	23765.33001	35.35007	 
1075.0	1.0	0.0	7.91239	7.40254	-5.80584	18.83485	28.07914	1.17631	0.85012	135.57774	149.19715	50.26806	0.34855	 	1722168.251	 	3.82076E-6	 	23588.94749	35.2765	 
1070.0	1.0	0.0	7.91487	7.40023	-5.83534	18.81918	27.99904	1.1753	0.85085	135.95333	149.43057	50.41414	0.34837	 	1882261.708	 	3.48282E-6	 	23412.92893	35.20371	 
1065.0	1.0	0.0	7.91734	7.39791	-5.86476	18.80358	27.91889	1.17428	0.85158	136.32817	149.66295	50.55996	0.34818	 	2058577.282	 	3.17267E-6	 	23237.27055	35.13168	 
1060.0	1.0	0.0	7.91981	7.39561	-5.89413	18.78807	27.8387	1.17327	0.85232	136.70225	149.89427	50.70553	0.348	 	2252892.483	 	2.88819E-6	 	23061.96863	35.06039	 
1055.0	1.0	0.0	7.92228	7.3933	-5.92342	18.77264	27.75846	1.17224	0.85307	137.07558	150.12454	50.85084	0.34782	 	2467194.12	 	2.62743E-6	 	22887.01952	34.98982	 
1050.0	1.0	0.0	7.92474	7.39101	-5.95266	18.75729	27.67817	1.17122	0.85381	137.44815	150.35374	50.9959	0.34764	 	2703704.451	 	2.38856E-6	 	22712.41963	34.91998	 
1045.0	1.0	0.0	7.9272	7.38871	-5.98183	18.74203	27.59784	1.17019	0.85456	137.81996	150.58188	51.14071	0.34746	 	2964911.038	 	2.1699E-6	 	22538.16546	34.85083	 
1040.0	1.0	0.0	7.92965	7.38643	-6.01094	18.72686	27.51746	1.16915	0.85532	138.19102	150.80896	51.28526	0.34728	 	3253600.796	 	1.96987E-6	 	22364.25357	34.78238	 
1035.0	1.0	0.0	7.93211	7.38414	-6.03998	18.71177	27.43704	1.16812	0.85608	138.56131	151.03497	51.42956	0.3471	 	3572898.163	 	1.787E-6	 	22190.68059	34.7146	 
1030.0	1.0	0.0	7.93455	7.38187	-6.06896	18.69676	27.35658	1.16707	0.85684	138.93085	151.2599	51.57361	0.34692	 	3926308.714	 	1.61993E-6	 	22017.44322	34.64747	 
1025.0	1.0	0.0	7.937	7.37959	-6.09788	18.68184	27.27608	1.16603	0.85761	139.29963	151.48377	51.7174	0.34674	 	4317769.27	 	1.46741E-6	 	21844.53823	34.581	 
1020.0	1.0	0.0	7.93944	7.37733	-6.12673	18.66701	27.19554	1.16498	0.85839	139.66765	151.70656	51.86093	0.34656	 	4751703.954	 	1.32827E-6	 	21671.96244	34.51516	 
1015.0	1.0	0.0	7.94187	7.37506	-6.15552	18.65227	27.11496	1.16392	0.85916	140.03492	151.92827	52.00421	0.34638	 	5233088.83	 	1.20142E-6	 	21499.71279	34.44993	 
1010.0	1.0	0.0	7.9443	7.37281	-6.18425	18.63761	27.03434	1.16286	0.85995	140.40142	152.14891	52.14724	0.3462	 	5767525.466	 	1.08586E-6	 	21327.78623	34.38531	 
1007.69	1.0	0.0	7.94543	7.37176	-6.19752	18.63086	26.99703	1.16237	0.86031	140.57072	152.25061	52.21333	0.34612	 	6034438.767	 	1.03596E-6	 	21248.35772	 	 
1005.0	1.0	0.0	7.94783	7.36953	-6.2259	18.57339	26.9113	1.16363	0.85938	140.95486	152.43382	52.36516	0.34588	 	6401969.259	 	9.7444E-7	 	21101.10276	45.33669	 
1000.0	1.0	0.0	7.95226	7.36543	-6.27807	18.46803	26.75516	1.16584	0.85775	141.65551	152.76706	52.6422	0.34546	 	7150336.7	 	8.6904E-7	 	20830.03422	54.21371	 
995.0	1.0	0.0	7.95662	7.3614	-6.32944	18.3647	26.6033	1.16789	0.85625	142.33847	153.09082	52.91239	0.34504	 	7991793.833	 	7.74485E-7	 	20562.69699	53.46745	 
990.0	1.0	0.0	7.96092	7.35742	-6.38003	18.26332	26.45538	1.16979	0.85486	143.00466	153.40565	53.17608	0.34463	 	8938636.939	 	6.89716E-7	 	20298.96038	52.74732	 
985.0	1.0	0.0	7.96516	7.3535	-6.42987	18.16382	26.31113	1.17155	0.85357	143.65492	153.7121	53.43358	0.34424	 	1.000488566E7	 	6.13772E-7	 	20038.69843	52.05239	 
980.0	1.0	0.0	7.96934	7.34964	-6.47899	18.06613	26.17035	1.17317	0.85239	144.29004	154.01062	53.68521	0.34385	 	1.120653778E7	 	5.45781E-7	 	19781.78972	51.38174	 
975.0	1.0	0.0	7.97347	7.34584	-6.5274	17.97018	26.03286	1.17466	0.85131	144.91077	154.30167	53.93125	0.34348	 	1.256186598E7	 	4.84953E-7	 	19528.1171	50.73452	 
970.0	1.0	0.0	7.97754	7.34209	-6.57513	17.87592	25.89849	1.17602	0.85032	145.51781	154.58564	54.17197	0.34311	 	1.409176154E7	 	4.30571E-7	 	19277.56755	50.10991	 
965.0	1.0	0.0	7.98156	7.33839	-6.6222	17.78328	25.76709	1.17726	0.84943	146.11183	154.86291	54.40762	0.34275	 	1.582012924E7	 	3.81988E-7	 	19030.03197	49.50712	 
960.0	1.0	0.0	7.98553	7.33474	-6.66864	17.6922	25.63849	1.17839	0.84861	146.69344	155.13384	54.63845	0.3424	 	1.777435093E7	 	3.38617E-7	 	18785.40505	48.92538	 
955.0	1.0	0.0	7.98946	7.33114	-6.71446	17.60262	25.51256	1.17941	0.84788	147.26324	155.39874	54.86468	0.34206	 	1.998582065E7	 	2.99927E-7	 	18543.58512	48.36398	 
950.0	1.0	0.0	7.99333	7.32758	-6.75968	17.51448	25.38917	1.18031	0.84723	147.82178	155.6579	55.08652	0.34172	 	2.249056664E7	 	2.6544E-7	 	18304.47408	47.82221	 
945.0	1.0	0.0	7.99716	7.32407	-6.80433	17.42773	25.26817	1.18112	0.84666	148.3696	155.91162	55.30419	0.3414	 	2.532997671E7	 	2.34721E-7	 	18067.97718	47.29938	 
940.0	1.0	0.0	8.00095	7.32061	-6.84843	17.34232	25.14946	1.18182	0.84615	148.90718	156.16015	55.51787	0.34107	 	2.855164451E7	 	2.07382E-7	 	17834.00304	46.79483	 
935.0	1.0	0.0	8.00469	7.31719	-6.89198	17.25817	25.03292	1.18243	0.84572	149.435	156.40372	55.72775	0.34076	 	3.221035358E7	 	1.83068E-7	 	17602.46346	46.30792	 
930.0	1.0	0.0	8.00839	7.3138	-6.93502	17.17526	24.91843	1.18295	0.84535	149.9535	156.64258	55.934	0.34045	 	3.636923148E7	 	1.61463E-7	 	17373.27336	45.83802	 
925.0	1.0	0.0	8.01205	7.31046	-6.97755	17.09352	24.8059	1.18337	0.84504	150.46311	156.87693	56.13678	0.34015	 	4.110109352E7	 	1.4228E-7	 	17146.35072	45.38453	 
920.0	1.0	0.0	8.01568	7.30716	-7.0196	17.0129	24.69521	1.18372	0.8448	150.96423	157.10696	56.33625	0.33985	 	4.6490018E7	 	1.25263E-7	 	16921.61642	44.94686	 
915.0	1.0	0.0	8.01926	7.30389	-7.06117	16.93336	24.58629	1.18398	0.84461	151.45723	157.33288	56.53256	0.33956	 	5.263319547E7	 	1.10179E-7	 	16698.99425	44.52443	 
910.0	1.0	0.0	8.02281	7.30066	-7.10229	16.85485	24.47904	1.18416	0.84448	151.94247	157.55484	56.72584	0.33927	 	5.964309278E7	 	9.68203E-8	 	16478.41074	44.1167	 
905.0	1.0	0.0	8.02633	7.29746	-7.14297	16.77732	24.37338	1.18427	0.8444	152.4203	157.77303	56.91624	0.33899	 	6.765000024E7	 	8.50001E-8	 	16259.79512	43.72312	 
900.0	1.0	0.0	8.02981	7.2943	-7.18323	16.70072	24.26923	1.18431	0.84438	152.89103	157.98758	57.10387	0.33871	 	7.680501682E7	 	7.45505E-8	 	16043.07925	43.34317	 
895.0	1.0	0.0	8.03326	7.29117	-7.22307	16.62502	24.16651	1.18427	0.8444	153.35497	158.19866	57.28885	0.33844	 	8.728358605E7	 	6.5321E-8	 	15828.19753	42.97634	 
890.0	1.0	0.0	8.03667	7.28807	-7.26252	16.55016	24.06515	1.18417	0.84448	153.8124	158.40639	57.47131	0.33817	 	9.928962984E7	 	5.71766E-8	 	15615.08679	42.62215	 
885.0	1.0	0.0	8.04006	7.285	-7.30158	16.47612	23.9651	1.184	0.84459	154.26361	158.6109	57.65134	0.3379	 	1.130604692E8	 	4.99966E-8	 	15403.68626	42.28011	 
880.0	1.0	0.0	8.04342	7.28196	-7.34027	16.40284	23.86628	1.18377	0.84476	154.70885	158.81233	57.82904	0.33764	 	1.288725988E8	 	4.36729E-8	 	15193.93747	41.94976	 
875.0	1.0	0.0	8.04674	7.27894	-7.3786	16.33028	23.76863	1.18348	0.84497	155.14838	159.01078	58.00452	0.33738	 	1.470485474E8	 	3.81087E-8	 	14985.78378	41.63074	 
870.0	1.0	0.0	8.05005	7.27596	-7.41658	16.25842	23.67211	1.18313	0.84522	155.58241	159.20636	58.17787	0.33713	 	1.679649933E8	 	3.32178E-8	 	14779.17162	41.32243	 
865.0	1.0	0.0	8.05332	7.273	-7.45422	16.1872	23.57665	1.18272	0.84551	156.01119	159.39919	58.34917	0.33688	 	1.920623923E8	 	2.8923E-8	 	14574.04898	41.02453	 
860.0	1.0	0.0	8.05657	7.27007	-7.49154	16.1166	23.4822	1.18226	0.84583	156.43491	159.58936	58.51851	0.33663	 	2.198564004E8	 	2.51556E-8	 	14370.3659	40.73662	 
855.0	1.0	0.0	8.05979	7.26716	-7.52854	16.04657	23.38873	1.18175	0.8462	156.85378	159.77696	58.68596	0.33638	 	2.519515018E8	 	2.18543E-8	 	14168.07432	40.45831	 
850.0	1.0	0.0	8.06299	7.26428	-7.56523	15.97709	23.29618	1.18119	0.84661	157.268	159.96208	58.8516	0.33614	 	2.890571562E8	 	1.89645E-8	 	13967.12806	40.18925	 
845.0	1.0	0.0	8.06528	7.26221	-7.59151	15.95436	23.22253	1.17966	0.8477	157.60377	160.15417	58.984	0.33599	 	3.289716157E8	 	1.65893E-8	 	13808.15166	31.79528	 
840.0	1.0	0.0	8.06757	7.26015	-7.61774	15.93161	23.14887	1.17812	0.84881	157.93894	160.34533	59.1162	0.33583	 	3.748329633E8	 	1.44945E-8	 	13646.17344	32.39564	 
835.0	1.0	0.0	8.06986	7.25809	-7.6439	15.90887	23.07521	1.17657	0.84993	158.27349	160.53557	59.2482	0.33568	 	4.275910458E8	 	1.2649E-8	 	13484.43967	32.34675	 
830.0	1.0	0.0	8.07214	7.25604	-7.67001	15.88611	23.00153	1.17502	0.85105	158.60744	160.72489	59.38	0.33553	 	4.883574977E8	 	1.10251E-8	 	13322.94976	32.29798	 
825.0	1.0	0.0	8.07442	7.254	-7.69605	15.86335	22.92784	1.17345	0.85219	158.94078	160.9133	59.5116	0.33538	 	5.584350012E8	 	9.59789E-9	 	13161.70307	32.24934	 
820.0	1.0	0.0	8.07669	7.25195	-7.72204	15.84058	22.85414	1.17187	0.85333	159.27351	161.10079	59.643	0.33522	 	6.393521449E8	 	8.345E-9	 	13000.69899	32.20082	 
815.0	1.0	0.0	8.07896	7.24992	-7.74797	15.8178	22.78043	1.17029	0.85449	159.60563	161.28736	59.7742	0.33507	 	7.329050092E8	 	7.24649E-9	 	12839.93684	32.15243	 
810.0	1.0	0.0	8.08123	7.24788	-7.77384	15.79502	22.70671	1.16869	0.85566	159.93714	161.47303	59.9052	0.33492	 	8.412068502E8	 	6.28453E-9	 	12679.41598	32.10417	 
805.0	1.0	0.0	8.08349	7.24585	-7.79965	15.77223	22.63297	1.16709	0.85683	160.26804	161.6578	60.036	0.33477	 	9.667475413E8	 	5.44318E-9	 	12519.13574	32.05605	 
800.0	1.0	0.0	8.08575	7.24383	-7.8254	15.74943	22.55923	1.16547	0.85802	160.59834	161.84166	60.1666	0.33461	 	1.112464796E9	 	4.70826E-9	 	12359.09544	32.00806	 
795.0	1.0	0.0	8.088	7.24181	-7.85109	15.72662	22.48547	1.16385	0.85922	160.92802	162.02462	60.297	0.33446	 	1.281829632E9	 	4.06714E-9	 	12199.29436	31.96022	 
790.0	1.0	0.0	8.09025	7.2398	-7.87672	15.70381	22.4117	1.16221	0.86043	161.2571	162.20669	60.42719	0.33431	 	1.478949078E9	 	3.50855E-9	 	12039.73178	31.91252	 
785.0	1.0	0.0	8.0925	7.23779	-7.90229	15.68099	22.33792	1.16057	0.86165	161.58557	162.38786	60.55719	0.33416	 	1.708689793E9	 	3.02253E-9	 	11880.40695	31.86496	 
780.0	1.0	0.0	8.09474	7.23578	-7.9278	15.65817	22.26412	1.15891	0.86288	161.91344	162.56814	60.68699	0.334	 	1.976827076E9	 	2.60021E-9	 	11721.31914	31.81756	 
775.0	1.0	0.0	8.09698	7.23378	-7.95325	15.63533	22.19032	1.15725	0.86412	162.24069	162.74752	60.81658	0.33385	 	2.290224783E9	 	2.23374E-9	 	11562.46753	31.77032	 
770.0	1.0	0.0	8.09922	7.23179	-7.97865	15.61249	22.1165	1.15557	0.86537	162.56734	162.92603	60.94598	0.3337	 	2.657052876E9	 	1.91617E-9	 	11403.85134	31.72324	 
765.0	1.0	0.0	8.10145	7.2298	-8.00398	15.58965	22.04266	1.15388	0.86664	162.89338	163.10365	61.07517	0.33355	 	3.087050929E9	 	1.64136E-9	 	11245.46974	31.67632	 
760.0	1.0	0.0	8.10367	7.22781	-8.02925	15.56679	21.96882	1.15219	0.86791	163.21881	163.28039	61.20417	0.3334	 	3.591847799E9	 	1.40389E-9	 	11087.32186	31.62957	 
755.0	1.0	0.0	8.10589	7.22583	-8.05447	15.54393	21.89496	1.15048	0.8692	163.54363	163.45625	61.33296	0.33324	 	4.185350075E9	 	1.19898E-9	 	10929.40683	31.58301	 
750.0	1.0	0.0	8.10811	7.22385	-8.07962	15.52106	21.82108	1.14876	0.8705	163.86785	163.63123	61.46155	0.33309	 	4.884214912E9	 	1.02242E-9	 	10771.72375	31.53662	 
745.0	1.0	0.0	8.11033	7.22188	-8.10472	15.49819	21.74719	1.14703	0.87182	164.19146	163.80534	61.58994	0.33294	 	5.708426528E9	 	8.70527E-10	 	10614.27166	31.49042	 
740.0	1.0	0.0	8.11254	7.21991	-8.12976	15.47531	21.67329	1.14529	0.87314	164.51446	163.97858	61.71813	0.33279	 	6.682000332E9	 	7.40038E-10	 	10457.04959	31.44441	 
735.0	1.0	0.0	8.11474	7.21795	-8.15473	15.45242	21.59937	1.14354	0.87448	164.83685	164.15095	61.84612	0.33264	 	7.833844418E9	 	6.28112E-10	 	10300.05654	31.39861	 
730.0	1.0	0.0	8.11695	7.21599	-8.17965	15.42952	21.52544	1.14177	0.87583	165.15864	164.32246	61.97391	0.33249	 	9.198815472E9	 	5.32256E-10	 	10143.29146	31.35302	 
725.0	1.0	0.0	8.11914	7.21404	-8.2045	15.40662	21.45149	1.14	0.87719	165.47982	164.49311	62.1015	0.33233	 	1.0819E10	 	4.50293E-10	 	9986.75326	31.30764	 
720.0	1.0	0.0	8.12134	7.21209	-8.2293	15.3837	21.37753	1.13821	0.87857	165.80039	164.66289	62.22888	0.33218	 	1.2745399999999998E10	 	3.80319E-10	 	9830.44081	31.26249	 
715.0	1.0	0.0	8.12353	7.21015	-8.25404	15.36079	21.30355	1.13641	0.87996	166.12036	164.83182	62.35607	0.33203	 	1.5039699999999998E10	 	3.20679E-10	 	9674.35292	31.21758	 
710.0	1.0	0.0	8.12571	7.20821	-8.27871	15.33786	21.22956	1.13461	0.88136	166.43972	164.99989	62.48305	0.33188	 	1.77769E10	 	2.6993E-10	 	9518.48839	31.17291	 
705.0	1.0	0.0	8.12789	7.20627	-8.30333	15.31493	21.15555	1.13278	0.88278	166.75847	165.16711	62.60983	0.33173	 	2.10482E10	 	2.26818E-10	 	9362.84591	31.1285	 
700.0	1.0	0.0	8.13007	7.20434	-8.32789	15.29199	21.08152	1.13095	0.88421	167.07662	165.33348	62.73641	0.33158	 	2.4964699999999996E10	 	1.90257E-10	 	9207.42418	31.08435	 
695.0	1.0	0.0	8.13224	7.20242	-8.35239	15.26905	21.00748	1.12911	0.88566	167.39415	165.49901	62.86279	0.33142	 	2.9662299999999996E10	 	1.59303E-10	 	9052.22178	31.04048	 
690.0	1.0	0.0	8.13441	7.2005	-8.37682	15.24609	20.93342	1.12725	0.88712	167.71109	165.66369	62.98897	0.33127	 	3.5307E10	 	1.33143E-10	 	8897.23727	30.9969	 
685.0	1.0	0.0	8.13658	7.19858	-8.4012	15.22313	20.85934	1.12538	0.88859	168.02741	165.82752	63.11494	0.33112	 	4.21023E10	 	1.11074E-10	 	8742.46912	30.95363	 
680.0	1.0	0.0	8.13874	7.19667	-8.42552	15.20017	20.78524	1.1235	0.89008	168.34313	165.99052	63.24072	0.33097	 	5.029829999999999E10	 	9.24899E-11	 	8587.91571	30.91068	 
675.0	1.0	0.0	8.14089	7.19476	-8.44977	15.17719	20.71113	1.1216	0.89158	168.65825	166.15268	63.36629	0.33082	 	6.020269999999999E10	 	7.68684E-11	 	8433.57537	30.86807	 
670.0	1.0	0.0	8.14305	7.19286	-8.47397	15.15421	20.637	1.1197	0.8931	168.97276	166.314	63.49166	0.33067	 	7.21947E10	 	6.3762E-11	 	8279.44636	30.8258	 
665.0	1.0	0.0	8.1452	7.19096	-8.49811	15.13122	20.56285	1.11778	0.89463	169.28666	166.47449	63.61683	0.33052	 	8.67434E10	 	5.27865E-11	 	8125.52678	30.78391	 
660.0	1.0	0.0	8.14734	7.18907	-8.52219	15.10823	20.48868	1.11584	0.89618	169.59995	166.63416	63.74179	0.33037	 	1.04429E11	 	4.36131E-11	 	7971.81921	30.74151	 
655.0	1.0	0.0	8.14948	7.18718	-8.5462	15.08522	20.41449	1.1139	0.89775	169.91264	166.79299	63.86656	0.33022	 	1.25972E11	 	3.59609E-11	 	7818.34838	30.69417	 
650.0	1.0	0.0	8.15161	7.1853	-8.57016	15.06221	20.34028	1.11194	0.89933	170.22473	166.951	63.99112	0.33007	 	1.52269E11	 	2.95902E-11	 	7665.1472	30.64024	 
645.0	1.0	0.0	8.15374	7.18342	-8.59405	15.0392	20.26605	1.10997	0.90093	170.53621	167.10819	64.11548	0.32991	 	1.84435E11	 	2.42973E-11	 	7512.21488	30.58646	 
640.0	1.0	0.0	8.15587	7.18155	-8.61789	15.01617	20.1918	1.10798	0.90254	170.84708	167.26455	64.23964	0.32976	 	2.23865E11	 	1.99087E-11	 	7359.55068	30.53284	 
635.0	1.0	0.0	8.15799	7.17968	-8.64167	14.99314	20.11753	1.10598	0.90417	171.15735	167.4201	64.3636	0.32961	 	2.72306E11	 	1.62775E-11	 	7207.1538	30.47938	 
630.0	1.0	0.0	8.16011	7.17782	-8.66538	14.97011	20.04324	1.10397	0.90582	171.46701	167.57483	64.48736	0.32946	 	3.31948E11	 	1.32794E-11	 	7055.02348	30.42606	 
625.0	1.0	0.0	8.16223	7.17596	-8.68904	14.94706	19.96893	1.10195	0.90749	171.77607	167.72875	64.61091	0.32931	 	4.05546E11	 	1.08093E-11	 	6903.15874	30.37295	 
620.0	1.0	0.0	8.16434	7.17411	-8.71263	14.92401	19.89459	1.09991	0.90917	172.08452	167.88186	64.73426	0.32916	 	4.96574E11	 	8.77864E-12	 	6751.55826	30.32009	 
615.0	1.0	0.0	8.16644	7.17226	-8.73617	14.90095	19.82024	1.09785	0.91087	172.39236	168.03416	64.85741	0.32901	 	6.09421E11	 	7.11304E-12	 	6600.22158	30.26734	 
610.0	1.0	0.0	8.16854	7.17041	-8.75964	14.87788	19.74586	1.09578	0.91259	172.6996	168.18566	64.98035	0.32886	 	7.4965E11	 	5.74993E-12	 	6449.14794	30.21473	 
605.0	1.0	0.0	8.17064	7.16857	-8.78305	14.85481	19.67145	1.0937	0.91433	173.00624	168.33635	65.1031	0.32871	 	9.24323E11	 	4.63694E-12	 	6298.33657	30.16227	 
600.0	1.0	0.0	8.17273	7.16674	-8.80641	14.83173	19.59703	1.0916	0.91608	173.31227	168.48624	65.22564	0.32856	 	1.14243E12	 	3.73031E-12	 	6147.78676	30.10996	 
595.0	1.0	0.0	8.17482	7.1649	-8.8297	14.80864	19.52258	1.08949	0.91786	173.61769	168.63533	65.34797	0.32841	 	1.41546E12	 	2.99353E-12	 	5997.49773	30.0578	 
590.0	1.0	0.0	8.1769	7.16308	-8.85293	14.78555	19.4481	1.08736	0.91965	173.92251	168.78362	65.47011	0.32826	 	1.7581E12	 	2.39624E-12	 	5847.46875	30.0058	 
585.0	1.0	0.0	8.17898	7.16126	-8.8761	14.76245	19.3736	1.08522	0.92147	174.22673	168.93112	65.59204	0.32811	 	2.1892E12	 	1.91322E-12	 	5697.6991	29.95393	 
580.0	1.0	0.0	8.18106	7.15944	-8.89921	14.73934	19.29908	1.08307	0.9233	174.53034	169.07782	65.71377	0.32796	 	2.73302E12	 	1.52359E-12	 	5548.18802	29.90222	 
575.0	1.0	0.0	8.18313	7.15763	-8.92227	14.71623	19.22453	1.08089	0.92516	174.83334	169.22374	65.8353	0.32781	 	3.42088E12	 	1.2101E-12	 	5398.93478	29.85065	 
570.0	1.0	0.0	8.18519	7.15582	-8.94526	14.6931	19.14995	1.07871	0.92704	175.13574	169.36887	65.95662	0.32766	 	4.29328E12	 	9.58523E-13	 	5249.93864	29.79923	 
565.0	1.0	0.0	8.18726	7.15402	-8.96818	14.66997	19.07534	1.0765	0.92893	175.43754	169.51321	66.07775	0.32751	 	5.40278E12	 	7.57167E-13	 	5101.19889	29.74795	 
560.0	1.0	0.0	8.18931	7.15222	-8.99105	14.64684	19.00071	1.07428	0.93085	175.73873	169.65677	66.19866	0.32736	 	6.81778E12	 	5.9644E-13	 	4952.7148	29.69682	 
555.0	1.0	0.0	8.19137	7.15043	-9.01386	14.62369	18.92605	1.07205	0.93279	176.03931	169.79955	66.31938	0.32721	 	8.62758E12	 	4.68497E-13	 	4804.48564	29.64583	 
550.0	1.0	0.0	8.19341	7.14864	-9.03661	14.60054	18.85136	1.0698	0.93475	176.3393	169.94154	66.43989	0.32706	 	1.09491E13	 	3.66934E-13	 	4656.51068	29.59499	 
545.0	1.0	0.0	8.19546	7.14686	-9.05929	14.57739	18.77665	1.06753	0.93674	176.63867	170.08277	66.5602	0.32691	 	1.39357E13	 	2.86543E-13	 	4508.78923	29.54429	 
540.0	1.0	0.0	8.1975	7.14508	-9.08192	14.55422	18.7019	1.06525	0.93875	176.93745	170.22321	66.68031	0.32676	 	1.77898E13	 	2.23093E-13	 	4361.32056	29.49374	 
535.0	1.0	0.0	8.19953	7.14331	-9.10448	14.53105	18.62712	1.06295	0.94078	177.23562	170.36289	66.80021	0.32661	 	2.27785E13	 	1.73162E-13	 	4214.10396	29.44332	 
530.0	1.0	0.0	8.20156	7.14154	-9.12699	14.50787	18.55231	1.06063	0.94283	177.53318	170.5018	66.91991	0.32646	 	2.9256E13	 	1.33989E-13	 	4067.13873	29.39305	 
525.0	1.0	0.0	8.20359	7.13978	-9.14943	14.48468	18.47748	1.0583	0.94491	177.83014	170.63993	67.03941	0.32631	 	3.76935E13	 	1.03349E-13	 	3920.42417	29.34291	 
520.0	1.0	0.0	8.20561	7.13802	-9.17181	14.46149	18.4026	1.05595	0.94702	178.1265	170.7773	67.1587	0.32616	 	4.87199E13	 	7.94576E-14	 	3773.95957	29.29292	 
515.0	1.0	0.0	8.20763	7.13626	-9.19413	14.43829	18.3277	1.05358	0.94915	178.42225	170.91391	67.27779	0.32601	 	6.31771E13	 	6.08886E-14	 	3627.74421	29.24307	 
510.0	1.0	0.0	8.20964	7.13452	-9.21639	14.41508	18.25276	1.05119	0.9513	178.7174	171.04976	67.39667	0.32586	 	8.21966E13	 	4.65026E-14	 	3481.77731	29.19338	 
505.0	1.0	0.0	8.21165	7.13277	-9.23859	14.39187	18.17779	1.04879	0.95348	179.01194	171.18485	67.51536	0.32571	 	1.07304E14	 	3.53943E-14	 	3336.05823	29.14382	 
500.0	1.0	0.0	8.21365	7.13103	-9.26073	14.36865	18.10278	1.04637	0.95569	179.30589	171.31918	67.63383	0.32556	 	1.4056499999999998E14	 	2.68456E-14	 	3190.58627	29.09439	 
495.0	1.0	0.0	8.21565	7.1293	-9.28281	14.34542	18.02774	1.04393	0.95792	179.59922	171.45275	67.75211	0.32541	 	1.84784E14	 	2.02893E-14	 	3045.36077	29.0451	 
490.0	1.0	0.0	8.21764	7.12757	-9.30482	14.32219	17.95267	1.04147	0.96018	179.89195	171.58557	67.87018	0.32527	 	2.43786E14	 	1.52788E-14	 	2900.38107	28.99594	 
485.0	1.0	0.0	8.21963	7.12584	-9.32678	14.29894	17.87755	1.03899	0.96247	180.18408	171.71764	67.98805	0.32512	 	3.22804E14	 	1.14631E-14	 	2755.64651	28.94691	 
480.0	1.0	0.0	8.22162	7.12412	-9.34867	14.27569	17.8024	1.0365	0.96479	180.47561	171.84897	68.10571	0.32497	 	4.29031E14	 	8.568E-15	 	2611.15643	28.89802	 
475.0	1.0	0.0	8.2236	7.1224	-9.3705	14.25244	17.72721	1.03399	0.96713	180.76653	171.97954	68.22317	0.32482	 	5.72387E14	 	6.37948E-15	 	2466.91017	28.84925	 
470.0	1.0	0.0	8.22558	7.12069	-9.39227	14.22917	17.65198	1.03145	0.96951	181.05685	172.10937	68.34042	0.32467	 	7.66612E14	 	4.73137E-15	 	2322.90709	28.80062	 
465.0	1.0	0.0	8.22755	7.11899	-9.41398	14.2059	17.57671	1.0289	0.97191	181.34656	172.23846	68.45747	0.32452	 	1.03082E15	 	3.49503E-15	 	2179.14655	28.75211	 
460.0	1.0	0.0	8.22951	7.11729	-9.43563	14.18263	17.5014	1.02633	0.97435	181.63568	172.36681	68.57432	0.32437	 	1.39168E15	 	2.57122E-15	 	2035.62792	28.70373	 
455.0	1.0	0.0	8.23148	7.11559	-9.45722	14.15934	17.42605	1.02374	0.97681	181.92418	172.49441	68.69096	0.32422	 	1.88664E15	 	1.88373E-15	 	1892.35056	28.65547	 
450.0	1.0	0.0	8.23343	7.1139	-9.47875	14.13605	17.35065	1.02112	0.97931	182.21209	172.62129	68.8074	0.32407	 	2.56842E15	 	1.3742E-15	 	1749.31384	28.60734	 
445.0	1.0	0.0	8.23539	7.11221	-9.50021	14.11275	17.27521	1.01849	0.98184	182.49939	172.74742	68.92363	0.32392	 	3.51163E15	 	9.98145E-16	 	1606.51716	28.55934	 
440.0	1.0	0.0	8.23733	7.11053	-9.52161	14.08945	17.19973	1.01584	0.98441	182.78609	172.87283	69.03966	0.32378	 	4.82231E15	 	7.21792E-16	 	1463.95989	28.51145	 
435.0	1.0	0.0	8.23928	7.10885	-9.54296	14.06613	17.1242	1.01317	0.987	183.07218	172.9975	69.15549	0.32363	 	6.65193E15	 	5.19594E-16	 	1321.64144	28.46369	 
430.0	1.0	0.0	8.24122	7.10718	-9.56424	14.04281	17.04862	1.01047	0.98964	183.35768	173.12145	69.27111	0.32348	 	9.21778E15	 	3.72313E-16	 	1179.56119	28.41605	 
425.0	1.0	0.0	8.24315	7.10551	-9.58546	14.01949	16.973	1.00776	0.9923	183.64256	173.24467	69.38652	0.32333	 	1.28332E16	 	2.65522E-16	 	1037.71863	28.36851	 
420.0	1.0	0.0	8.24508	7.10385	-9.60661	13.99615	16.89733	1.00502	0.995	183.92685	173.36716	69.50173	0.32318	 	1.7952100000000002E16	 	1.88451E-16	 	896.11307	28.32111	 
415.0	1.0	0.0	8.24701	7.10219	-9.62771	13.97281	16.82161	1.00226	0.99774	184.21053	173.48894	69.61674	0.32303	 	2.52358E16	 	1.33092E-16	 	754.74419	28.27378	 
410.0	1.0	0.0	8.24893	7.10054	-9.64874	13.94946	16.74583	0.99948	1.00052	184.49361	173.60999	69.73154	0.32288	 	3.5651800000000004E16	 	9.35236E-17	 	613.61179	28.22648	 
405.0	1.0	0.0	8.25084	7.09889	-9.66972	13.92611	16.67001	0.99668	1.00333	184.77609	173.73032	69.84613	0.32274	 	5.06243E16	 	6.53812E-17	 	472.71568	28.17922	 
400.0	1.0	0.0	8.25275	7.09725	-9.69063	13.90275	16.59413	0.99386	1.00618	185.05796	173.84994	69.96053	0.32259	 	7.22602E16	 	4.54673E-17	 	332.05568	28.132	 
395.0	1.0	0.0	8.25466	7.09561	-9.71148	13.87938	16.5182	0.99101	1.00907	185.33923	173.96884	70.07471	0.32244	 	1.03694E17	 	3.14491E-17	 	191.63161	28.08481	 
390.0	1.0	0.0	8.25656	7.09397	-9.73227	13.856	16.44221	0.98814	1.012	185.6199	174.08703	70.18869	0.32229	 	1.49613E17	 	2.16336E-17	 	51.4433	28.03766	 
385.0	1.0	0.0	8.25845	7.09235	-9.75299	13.83262	16.36617	0.98524	1.01498	185.89997	174.20451	70.30247	0.32214	 	2.17074E17	 	1.4798E-17	 	-88.50941	27.99054	 
380.0	1.0	0.0	8.26035	7.09072	-9.77366	13.80923	16.29007	0.98233	1.01799	186.17943	174.32128	70.41604	0.322	 	3.16753E17	 	1.00642E-17	 	-228.22666	27.94345	 
375.0	1.0	0.0	8.26223	7.0891	-9.79426	13.78583	16.21391	0.97939	1.02105	186.45829	174.43734	70.5294	0.32185	 	4.64905E17	 	6.80453E-18	 	-367.7086	27.89639	 
370.0	1.0	0.0	8.26411	7.08749	-9.8148	13.76242	16.13768	0.97642	1.02415	186.73655	174.5527	70.64256	0.3217	 	6.86435E17	 	4.57298E-18	 	-506.95535	27.84935	 
365.0	1.0	0.0	8.26599	7.08588	-9.83528	13.73901	16.0614	0.97343	1.02729	187.0142	174.66735	70.75552	0.32155	 	1.01973E18	 	3.05438E-18	 	-645.96704	27.80234	 
360.0	1.0	0.0	8.26786	7.08427	-9.8557	13.71559	15.98505	0.97042	1.03048	187.29125	174.7813	70.86827	0.3214	 	1.52436E18	 	2.02724E-18	 	-784.74377	27.75535	 
355.0	1.0	0.0	8.26973	7.08267	-9.87605	13.69217	15.90863	0.96738	1.03372	187.5677	174.89455	70.98081	0.32126	 	2.29335E18	 	1.33684E-18	 	-923.28564	27.70837	 
350.0	1.0	0.0	8.27159	7.08108	-9.89635	13.66873	15.83215	0.96431	1.03701	187.84355	175.00711	71.09315	0.32111	 	3.47295E18	 	8.75751E-19	 	-1061.59273	27.66142	 
345.0	1.0	0.0	8.27345	7.07949	-9.91658	13.64529	15.7556	0.96123	1.04034	188.1188	175.11897	71.20528	0.32096	 	5.29471E18	 	5.69821E-19	 	-1199.66512	27.61448	 
340.0	1.0	0.0	8.2753	7.0779	-9.93675	13.62185	15.67897	0.95811	1.04372	188.39344	175.23013	71.31721	0.32081	 	8.1278E18	 	3.68197E-19	 	-1337.50286	27.56755	 
335.0	1.0	0.0	8.27715	7.07632	-9.95686	13.59839	15.60228	0.95497	1.04716	188.66748	175.34061	71.42893	0.32067	 	1.25651E19	 	2.36229E-19	 	-1475.106	27.52063	 
330.0	1.0	0.0	8.27899	7.07475	-9.9769	13.57493	15.52551	0.9518	1.05064	188.94092	175.45039	71.54044	0.32052	 	1.95656E19	 	1.5046E-19	 	-1612.47458	27.47372	 
325.0	1.0	0.0	8.28083	7.07318	-9.99689	13.55146	15.44867	0.9486	1.05418	189.21375	175.55948	71.65175	0.32037	 	3.06927E19	 	9.51176E-20	 	-1749.60862	27.42681	 
320.0	1.0	0.0	8.28267	7.07161	-10.01681	13.52799	15.37174	0.94538	1.05777	189.48599	175.66789	71.76286	0.32022	 	4.8515E19	 	5.96727E-20	 	-1886.50811	27.3799	 
315.0	1.0	0.0	8.2845	7.07005	-10.03667	13.50451	15.29474	0.94213	1.06142	189.75762	175.77562	71.87375	0.32008	 	7.72853E19	 	3.71431E-20	 	-2023.17304	27.33299	 
310.0	1.0	0.0	8.28632	7.0685	-10.05647	13.48102	15.21766	0.93886	1.06513	190.02865	175.88266	71.98444	0.31993	 	1.2410399999999998E20	 	2.29341E-20	 	-2159.60338	27.28607	 
305.0	1.0	0.0	8.28814	7.06694	-10.0762	13.45752	15.14049	0.93555	1.06889	190.29907	175.98902	72.09493	0.31978	 	2.00924E20	 	1.40442E-20	 	-2295.79911	27.23914	 
300.0	1.0	0.0	8.28995	7.0654	-10.09588	13.43402	15.06323	0.93222	1.07271	190.5689	176.09469	72.20521	0.31963	 	3.2804099999999997E20	 	8.52759E-21	 	-2431.76012	27.1922	 
295.0	1.0	0.0	8.29176	7.06386	-10.11549	13.41051	14.98589	0.92885	1.0766	190.83812	176.1997	72.31528	0.31949	 	5.4022299999999997E20	 	5.13306E-21	 	-2567.48638	27.14525	 
290.0	1.0	0.0	8.29356	7.06232	-10.13504	13.38699	14.90845	0.92546	1.08054	191.10674	176.30402	72.42514	0.31934	 	8.975619999999999E20	 	3.06229E-21	 	-2702.97775	27.09827	 
285.0	1.0	0.0	8.29536	7.06079	-10.15452	13.36347	14.83093	0.92204	1.08455	191.37476	176.40767	72.5348	0.31919	 	1.50489E21	 	1.81022E-21	 	-2838.23413	27.05128	 
280.0	1.0	0.0	8.29716	7.05926	-10.17395	13.33993	14.7533	0.91859	1.08863	191.64218	176.51065	72.64425	0.31905	 	2.54686E21	 	1.06004E-21	 	-2973.25536	27.00425	 
275.0	1.0	0.0	8.29894	7.05774	-10.19331	13.3164	14.67558	0.9151	1.09277	191.90899	176.61296	72.7535	0.3189	 	4.35184E21	 	6.1477E-22	 	-3108.0413	26.95719	 
270.0	1.0	0.0	8.30073	7.05622	-10.21261	13.29285	14.59775	0.91159	1.09698	192.17521	176.7146	72.86254	0.31875	 	7.50974E21	 	3.53006E-22	 	-3242.59175	26.91009	 
265.0	1.0	0.0	8.30251	7.05471	-10.23185	13.2693	14.51982	0.90805	1.10126	192.44082	176.81558	72.97137	0.3186	 	1.30912E22	 	2.00637E-22	 	-3376.90649	26.86295	 
260.0	1.0	0.0	8.30428	7.05321	-10.25102	13.24574	14.44178	0.90447	1.10562	192.70583	176.91589	73.08	0.31846	 	2.30601E22	 	1.12843E-22	 	-3510.9853	26.81576	 
255.0	1.0	0.0	8.30605	7.0517	-10.27014	13.22217	14.36363	0.90086	1.11005	192.97024	177.01553	73.18841	0.31831	 	4.1057999999999995E22	 	6.27836E-23	 	-3644.82792	26.76852	 
250.0	1.0	0.0	8.30781	7.05021	-10.28919	13.1986	14.28537	0.89722	1.11455	193.23404	177.11451	73.29662	0.31816	 	7.391349999999999E22	 	3.45453E-23	 	-3778.43405	26.72123	 
245.0	1.0	0.0	8.30957	7.04871	-10.30817	13.17502	14.20699	0.89355	1.11913	193.49725	177.21284	73.40463	0.31802	 	1.3457899999999998E23	 	1.87916E-23	 	-3911.80338	26.67387	 
240.0	1.0	0.0	8.31133	7.04723	-10.3271	13.15143	14.12849	0.88985	1.12379	193.75985	177.3105	73.51243	0.31787	 	2.47915E23	 	1.01025E-23	 	-4044.93555	26.62643	 
235.0	1.0	0.0	8.31308	7.04574	-10.34596	13.12783	14.04987	0.88611	1.12853	194.02185	177.40751	73.62002	0.31772	 	4.6222099999999997E23	 	5.36573E-24	 	-4177.83019	26.57893	 
230.0	1.0	0.0	8.31482	7.04427	-10.36476	13.10423	13.97112	0.88233	1.13336	194.28325	177.50386	73.7274	0.31758	 	8.725159999999999E23	 	2.81456E-24	 	-4310.48688	26.53134	 
225.0	1.0	0.0	8.31656	7.04279	-10.3835	13.08062	13.89224	0.87852	1.13827	194.54405	177.59956	73.83457	0.31743	 	1.66815E24	 	1.45751E-24	 	-4442.90518	26.48366	 
220.0	1.0	0.0	8.31829	7.04133	-10.40218	13.05701	13.81322	0.87468	1.14327	194.80425	177.6946	73.94154	0.31729	 	3.23152E24	 	7.44834E-25	 	-4575.0846	26.43589	 
215.0	1.0	0.0	8.32002	7.03986	-10.42079	13.03338	13.73406	0.8708	1.14836	195.06384	177.789	74.0483	0.31714	 	6.34541E24	 	3.75475E-25	 	-4707.02462	26.388	 
210.0	1.0	0.0	8.32174	7.03841	-10.43934	13.00975	13.65476	0.86689	1.15355	195.32284	177.88275	74.15486	0.31699	 	1.2635100000000002E25	 	1.86634E-25	 	-4838.72468	26.34001	 
205.0	1.0	0.0	8.32346	7.03695	-10.45783	12.98611	13.5753	0.86294	1.15883	195.58123	177.97585	74.2612	0.31685	 	2.5524200000000004E25	 	9.14321E-26	 	-4970.18416	26.2919	 
200.0	1.0	0.0	8.32517	7.03551	-10.47625	12.96247	13.4957	0.85895	1.16421	195.83902	178.06831	74.36734	0.3167	 	5.23336E25	 	4.4127E-26	 	-5101.40242	26.24365	 
195.0	1.0	0.0	8.32688	7.03406	-10.49461	12.93882	13.41593	0.85493	1.16969	196.09621	178.16012	74.47327	0.31655	 	1.0896100000000001E26	 	2.09702E-26	 	-5232.37877	26.19527	 
190.0	1.0	0.0	8.32858	7.03262	-10.51291	12.91516	13.33601	0.85087	1.17527	196.3528	178.25129	74.57899	0.31641	 	2.30481E26	 	9.80782E-27	 	-5363.11245	26.14674	 
185.0	1.0	0.0	8.33028	7.03119	-10.53115	12.89149	13.25591	0.84677	1.18096	196.60879	178.34183	74.68451	0.31626	 	4.955680000000001E26	 	4.51223E-27	 	-5493.60266	26.09804	 
180.0	1.0	0.0	8.33197	7.02976	-10.54932	12.86782	13.17564	0.84263	1.18676	196.86417	178.43172	74.78981	0.31612	 	1.0836999999999999E27	 	2.0409E-27	 	-5623.84855	26.04918	 
175.0	1.0	0.0	8.33366	7.02834	-10.56743	12.84414	13.09518	0.83845	1.19268	197.11896	178.52097	74.89491	0.31597	 	2.41154E27	 	9.07018E-28	 	-5753.84922	26.00013	 
170.0	1.0	0.0	8.33534	7.02692	-10.58548	12.82046	13.01454	0.83423	1.1987	197.37314	178.60959	74.9998	0.31582	 	5.464119999999999E27	 	3.95838E-28	 	-5883.60367	25.95089	 
165.0	1.0	0.0	8.33702	7.02551	-10.60346	12.79676	12.93371	0.82998	1.20485	197.62672	178.69758	75.10448	0.31568	 	1.2614000000000001E28	 	1.69534E-28	 	-6013.11087	25.90144	 
160.0	1.0	0.0	8.33869	7.0241	-10.62138	12.77306	12.85268	0.82568	1.21113	197.87971	178.78494	75.20896	0.31553	 	2.96876E28	 	7.12116E-29	 	-6142.36973	25.85177	 
155.0	1.0	0.0	8.34036	7.0227	-10.63924	12.74935	12.77144	0.82134	1.21752	198.13209	178.87166	75.31322	0.31539	 	7.128170000000001E28	 	2.9316E-29	 	-6271.37905	25.80186	 
150.0	1.0	0.0	8.34202	7.0213	-10.65704	12.72564	12.68998	0.81696	1.22405	198.38386	178.95776	75.41728	0.31524	 	1.74731E29	 	1.18198E-29	 	-6400.13757	25.7517	 
145.0	1.0	0.0	8.34368	7.0199	-10.67477	12.70192	12.60831	0.81253	1.23072	198.63504	179.04322	75.52113	0.3151	 	4.37599E29	 	4.66383E-30	 	-6528.64396	25.70128	 
140.0	1.0	0.0	8.34533	7.01852	-10.69244	12.67819	12.5264	0.80807	1.23752	198.88562	179.12807	75.62477	0.31495	 	1.1205499999999999E30	 	1.79954E-30	 	-6656.89681	25.65057	 
135.0	1.0	0.0	8.34697	7.01713	-10.71005	12.65445	12.44425	0.80356	1.24447	199.13559	179.21229	75.7282	0.3148	 	2.93625E30	 	6.78443E-31	 	-6784.89456	25.59955	 
130.0	1.0	0.0	8.34861	7.01575	-10.72759	12.63071	12.36186	0.799	1.25156	199.38497	179.29588	75.83142	0.31466	 	7.88009E30	 	2.49702E-31	 	-6912.63564	25.54822	 
125.0	1.0	0.0	8.35025	7.01438	-10.74507	12.60696	12.27921	0.79441	1.2588	199.63374	179.37886	75.93444	0.31451	 	2.16789E31	 	8.96387E-32	 	-7040.11832	25.49654	 
120.0	1.0	0.0	8.35188	7.01301	-10.76249	12.5832	12.19629	0.78976	1.2662	199.88192	179.46121	76.03724	0.31437	 	6.1196E31	 	3.13561E-32	 	-7167.34077	25.44449	 
115.0	1.0	0.0	8.3535	7.01165	-10.77984	12.55943	12.11309	0.78507	1.27376	200.12949	179.54295	76.13984	0.31422	 	1.77427E32	 	1.06774E-32	 	-7294.30103	25.39205	 
110.0	1.0	0.0	8.35512	7.01029	-10.79713	12.53566	12.0296	0.78034	1.28149	200.37646	179.62407	76.24223	0.31408	 	5.28911E32	 	3.53568E-33	 	-7420.99706	25.3392	 
105.0	1.0	0.0	8.35673	7.00893	-10.81436	12.51188	11.94582	0.77556	1.28939	200.62283	179.70457	76.34441	0.31393	 	1.62289E33	 	1.13727E-33	 	-7547.42663	25.28592	 
100.0	1.0	0.0	8.35834	7.00759	-10.83152	12.4881	11.86172	0.77073	1.29747	200.8686	179.78447	76.44638	0.31379	 	5.1315E33	 	3.54916E-34	 	-7673.58742	25.23216	 
95.0	1.0	0.0	8.35995	7.00624	-10.84862	12.46431	11.77729	0.76585	1.30573	201.11377	179.86375	76.54814	0.31364	 	1.6740900000000001E34	 	1.07333E-34	 	-7799.47693	25.1779	 
90.0	1.0	0.0	8.36154	7.0049	-10.86566	12.44051	11.69253	0.76093	1.31418	201.35833	179.94242	76.64969	0.3135	 	5.6423E34	 	3.14135E-35	 	-7925.0925	25.12312	 
85.0	1.0	0.0	8.36314	7.00357	-10.88263	12.4167	11.60741	0.75595	1.32283	201.6023	180.02048	76.75103	0.31335	 	1.9672799999999997E35	 	8.88558E-36	 	-8050.4313	25.06776	 
80.0	1.0	0.0	8.36472	7.00224	-10.89954	12.39289	11.52193	0.75093	1.33168	201.84567	180.09793	76.85216	0.31321	 	7.10616E35	 	2.42555E-36	 	-8175.49032	25.0118	 
75.0	1.0	0.0	8.36631	7.00092	-10.91639	12.36907	11.43606	0.74586	1.34074	202.08843	180.17478	76.95308	0.31306	 	2.66333E36	 	6.38011E-37	 	-8300.26635	24.95521	 
70.0	1.0	0.0	8.36788	6.9996	-10.93317	12.34524	11.34979	0.74073	1.35001	202.3306	180.25102	77.0538	0.31292	 	1.0373799999999999E37	 	1.61449E-37	 	-8424.75596	24.89792	 
65.0	1.0	0.0	8.36945	6.99828	-10.9499	12.3214	11.26309	0.73556	1.35951	202.57216	180.32666	77.1543	0.31277	 	4.2064E37	 	3.92361E-38	 	-8548.95549	24.83991	 
60.0	1.0	0.0	8.37102	6.99697	-10.96655	12.29756	11.17596	0.73033	1.36924	202.81312	180.4017	77.2546	0.31263	 	1.77883E38	 	9.14097E-39	 	-8672.86106	24.78111	 
55.0	1.0	0.0	8.37258	6.99567	-10.98314	12.27371	11.08837	0.72505	1.37921	203.05349	180.47614	77.35468	0.31248	 	7.86034E38	 	2.0376E-39	 	-8796.4685	24.72149	 
50.0	1.0	0.0	8.37414	6.99437	-10.99967	12.24986	11.0003	0.71972	1.38942	203.29325	180.54998	77.45455	0.31234	 	3.63678E39	 	4.33684E-40	 	-8919.77335	24.66097	 
45.0	1.0	0.0	8.37568	6.99308	-11.01614	12.22599	10.91172	0.71434	1.39989	203.53241	180.62322	77.55422	0.31219	 	1.76565E40	 	8.79456E-41	 	-9042.77088	24.5995	 
40.0	1.0	0.0	8.37723	6.99179	-11.03254	12.20212	10.82262	0.7089	1.41063	203.77097	180.69587	77.65367	0.31205	 	9.01579E40	 	1.69526E-41	 	-9165.45597	24.53702	 
35.0	1.0	0.0	8.37877	6.9905	-11.04888	12.17824	10.73296	0.70341	1.42164	204.00893	180.76793	77.75292	0.31191	 	4.85381E41	 	3.09861E-42	 	-9287.8232	24.47345	 
30.0	1.0	0.0	8.3803	6.98922	-11.06516	12.15436	10.64271	0.69786	1.43294	204.24629	180.83939	77.85195	0.31176	 	2.76234E42	 	5.35633E-43	 	-9409.86673	24.40871	 
25.0	1.0	0.0	8.38183	6.98795	-11.08137	 	10.55186	0.69226	1.44453	204.48305	180.91026	77.95078	0.31162	 	1.66648E43	 	8.73214E-44	 	-9531.5803	 	 
