T (C)	Fraction solid (wt)-TOTAL	Fraction liquid (wt)-LIQUID	Density (g/(cm)^3)-TOTAL	Molar volume (cm^3)-TOTAL	Volume change (%)-  	Average expansion coeff. (10e-6 1/K)-  	Thermal conductivity (W/(m*K))-TOTAL	Electrical resistivity (10e-6 Ohm*m)-TOTAL	Electrical conductivity (10e6 1/(Ohm*m))-TOTAL	Young's modulus (GPa)-TOTAL	Bulk modulus (GPa)-TOTAL	Shear modulus(GPa)-TOTAL	Poisson's ratio-TOTAL	Liquid viscosity (mPa s)-  	Total viscosity (mPa s)-  	Liquid diffusivity (10e-9 (m^2)/s)-  	Total diffusivity (10e-9 (m^2)/s)-  	Surface Tension (mN/m)-  	Enthalpy (J/mole)-TOTAL	Specific heat (J/(mole K))-TOTAL	Latent heat (J/mole)-TOTAL
1400.0	0.0	1.0	7.37348	7.9621	0.0	31.04041	28.46536	1.44007	0.69441	0.0	124.17296	0.0	0.5	7.60858	7.60858	1.07329	1.07329	1800.52817	51521.551	 	0.0
1395.0	0.0	1.0	7.37751	7.95775	-0.0546407	31.00373	28.39118	1.43952	0.69468	0.0	124.32984	0.0	0.5	7.69091	7.69091	1.05863	1.05863	1803.79199	51319.497	40.4108	0.0
1390.0	0.0	1.0	7.38153	7.95342	-0.10913	30.96721	28.31701	1.43896	0.69494	0.0	124.48673	0.0	0.5	7.77464	7.77464	1.04409	1.04409	1807.08171	51117.892	40.321	0.0
1385.0	0.0	1.0	7.38555	7.94909	-0.16346	30.93084	28.24283	1.43841	0.69521	0.0	124.64361	0.0	0.5	7.8598	7.8598	1.02967	1.02967	1810.3972	50916.734	40.2316	0.0
1380.0	0.0	1.0	7.38956	7.94478	-0.21763	30.89464	28.16865	1.43785	0.69548	0.0	124.80049	0.0	0.5	7.94641	7.94641	1.01538	1.01538	1813.73831	50716.021	40.1426	0.0
1375.0	0.0	1.0	7.39356	7.94048	-0.27165	30.85861	28.09447	1.43728	0.69576	0.0	124.95737	0.0	0.5	8.03451	8.03451	1.00121	1.00121	1817.10489	50515.749	40.0544	0.0
1370.0	0.0	1.0	7.39756	7.93619	-0.32551	30.82274	28.02029	1.43671	0.69603	0.0	125.11425	0.0	0.5	8.12413	8.12413	0.98716	0.98716	1820.49677	50315.917	39.9664	0.0
1365.0	0.0	1.0	7.40155	7.93191	-0.37922	30.78704	27.94612	1.43614	0.69631	0.0	125.27113	0.0	0.5	8.21531	8.21531	0.97323	0.97323	1823.91376	50116.522	39.879	0.0
1360.0	0.0	1.0	7.40553	7.92765	-0.43278	30.75151	27.87194	1.43557	0.69659	0.0	125.42801	0.0	0.5	8.30807	8.30807	0.95943	0.95943	1827.35568	49917.561	39.7922	0.0
1355.0	0.0	1.0	7.4095	7.9234	-0.48618	30.71615	27.79776	1.435	0.69687	0.0	125.58489	0.0	0.5	8.40247	8.40247	0.94575	0.94575	1830.82233	49719.033	39.7056	0.0
1350.0	0.0	1.0	7.41347	7.91916	-0.53942	30.68096	27.72358	1.43442	0.69715	0.0	125.74177	0.0	0.5	8.49853	8.49853	0.93218	0.93218	1834.31349	49520.935	39.6196	0.0
1345.0	0.0	1.0	7.41743	7.91493	-0.59251	30.64595	27.64941	1.43383	0.69743	0.0	125.89865	0.0	0.5	8.59629	8.59629	0.91874	0.91874	1837.82895	49323.265	39.534	0.0
1340.0	0.0	1.0	7.42138	7.91071	-0.64544	30.61112	27.57523	1.43325	0.69772	0.0	126.05553	0.0	0.5	8.69579	8.69579	0.90542	0.90542	1841.36847	49126.02	39.449	0.0
1335.0	0.0	1.0	7.42532	7.90651	-0.69822	30.57647	27.50105	1.43266	0.698	0.0	126.21241	0.0	0.5	8.79708	8.79708	0.89223	0.89223	1844.93183	48929.198	39.3644	0.0
1330.0	0.0	1.0	7.42926	7.90232	-0.75084	30.542	27.42687	1.43207	0.69829	0.0	126.36929	0.0	0.5	8.90018	8.90018	0.87915	0.87915	1848.51877	48732.797	39.2802	0.0
1325.0	0.0	1.0	7.43319	7.89814	-0.8033	30.50772	27.35269	1.43147	0.69858	0.0	126.52617	0.0	0.5	9.00516	9.00516	0.86619	0.86619	1852.12904	48536.814	39.1966	0.0
1324.34	0.0	1.0	7.43371	7.89759	-0.81023	30.5032	27.34289	1.4314	0.69862	0.0	126.54691	0.0	0.5	9.01917	9.01917	0.86449	0.86449	1852.60797	48510.942	39.14721	0.0
1320.0	0.0954215	0.90458	7.46056	7.86916	-1.16736	29.56845	27.64516	1.4119	0.70827	0.00833708	127.37645	0.0028034	0.48696	9.1245	12.97494	0.85219	0.59929	1852.7726	46922.447	366.08775	1418.801
1315.0	0.19011	0.80989	7.4877	7.84064	-1.52556	28.63896	27.94349	1.39244	0.71816	0.13361	128.23862	0.0453254	0.47389	9.24736	55.49637	0.83822	0.13967	1852.99879	45326.606	319.1682	2819.49
1310.0	0.27098	0.72902	7.51139	7.81594	-1.83572	27.84281	28.19575	1.37564	0.72693	0.55981	129.01712	0.19137	0.46261	9.3721	203.87868	0.82446	0.0378998	1853.26989	43942.469	276.8274	4008.888
1305.0	0.34058	0.65942	7.53223	7.79428	-2.10784	27.15217	28.41022	1.36094	0.73478	1.4162	129.72676	0.4874	0.4528	9.49866	518.43757	0.81091	0.0148573	1853.59009	42730.743	242.3452	5026.284
1300.0	0.40093	0.59907	7.55073	7.7752	-2.34742	26.5521	28.59288	1.34796	0.74186	2.75289	130.38199	0.95307	0.44423	9.62722	1041.3906	0.79755	0.00737298	1853.96005	41660.648	214.019	5902.456
1296.59	0.43731	0.56269	7.56212	7.76344	-2.49508	26.18669	28.70023	1.34001	0.74626	3.92656	130.80036	1.36432	0.43902	9.71613	1528.05718	0.78853	0.00501389	1854.24442	41003.3	 	6427.723
1295.0	0.46447	0.53553	7.57048	7.75487	-2.60272	25.90077	28.78681	1.33463	0.74927	5.02232	131.17241	1.74987	0.43505	9.78378	1978.89468	0.78229	0.00386769	1855.11782	40525.773	226.975	6843.813
1290.0	0.54107	0.45893	7.59421	7.73053	-2.90852	25.09416	29.03116	1.31917	0.75805	9.40292	132.21466	3.30212	0.42377	9.9981	3864.92149	0.76308	0.001974	1857.81053	39167.504	271.6538	8008.968
1285.0	0.60273	0.39727	7.61378	7.71052	-3.15976	24.444	29.22169	1.30638	0.76547	14.69617	133.08507	5.19451	0.41459	10.21468	6328.54625	0.74451	0.00120169	1860.40278	38047.247	224.0514	8936.513
1280.0	0.65299	0.34701	7.63016	7.69381	-3.36963	23.91259	29.36891	1.29566	0.77181	20.51386	133.82951	7.28982	0.40702	10.43322	9284.77328	0.72658	8.16449E-4	1862.90057	37107.043	188.0408	9684.403
1275.0	0.69447	0.30553	7.64409	7.67962	-3.54782	23.4722	29.48093	1.28658	0.77725	26.54438	134.47984	9.4753	0.40071	10.65361	12659.85698	0.70926	5.96858E-4	1865.31157	36304.988	160.411	10294.543
1270.0	0.72907	0.27093	7.65609	7.66737	-3.70167	23.10181	29.56423	1.27881	0.78197	32.56667	135.05849	11.66931	0.3954	10.87576	16401.48113	0.69252	4.5921E-4	1867.64524	35610.315	138.9346	10797.695
1265.0	0.75821	0.24179	7.66655	7.65662	-3.83673	22.78544	29.62391	1.2721	0.7861	38.43426	135.58373	13.81662	0.39087	11.09962	20475.20145	0.67636	3.66655E-4	1871.05056	34998.39582	122.38384	11216.756
1260.0	0.78297	0.21703	7.67501	7.64801	-3.94487	22.54843	29.66099	1.26638	0.78965	44.04042	135.99468	15.87659	0.38696	11.32522	24868.6395	0.66073	3.00898E-4	1874.46573	34453.22547	109.03407	11568.998
1255.0	0.80421	0.19579	7.68244	7.64026	-4.04221	22.34251	29.68274	1.26133	0.79282	49.35154	136.37901	17.83477	0.38358	11.55262	29577.26713	0.64561	2.52171E-4	1877.89169	33962.141	98.21689	11867.592
1250.0	0.82255	0.17745	7.68904	7.63317	-4.1312	22.16056	29.69172	1.25682	0.79566	54.34597	136.74304	19.68167	0.38062	11.78201	34606.39102	0.63097	2.14819E-4	1881.32925	33514.9767	89.43286	12122.7
1245.0	0.84201	0.15799	7.69627	7.62562	-4.22608	21.95896	29.70383	1.25218	0.7986	59.93234	137.15119	21.75316	0.37755	11.92072	40520.15986	0.62158	1.82865E-4	1884.80053	33044.80687	94.03397	12401.248
1240.0	0.85915	0.14085	7.70303	7.61857	-4.31456	21.77548	29.70569	1.24798	0.80129	65.23804	137.54299	23.72595	0.37482	12.04533	46877.0232	0.61313	1.57546E-4	1888.28466	32608.64783	87.23181	12646.215
1235.0	0.87373	0.12627	7.7092	7.61215	-4.3953	21.61458	29.69619	1.24426	0.80369	70.07491	137.91494	25.52877	0.37247	12.1723	53577.12423	0.60473	1.37389E-4	1891.77684	32211.33186	79.46319	12852.768
1230.0	0.88624	0.11376	7.71492	7.60621	-4.46984	21.47166	29.67739	1.24092	0.80586	74.48674	138.27312	27.17664	0.37042	12.30188	60659.41917	0.59637	1.20946E-4	1895.27702	31845.33127	73.20012	13028.433
1225.0	0.89706	0.10294	7.72029	7.60067	-4.53942	21.34309	29.65089	1.23789	0.80782	78.51666	138.62147	28.68468	0.36862	12.43418	68167.5835	0.58806	1.07266E-4	1898.78574	31504.81436	68.10338	13179.037
1220.0	0.90648	0.093517	7.72538	7.59546	-4.60487	21.22645	29.618	1.23513	0.80963	82.20767	138.96308	30.06819	0.36702	12.56936	76152.6363	0.5798	9.56985E-5	1902.30174	31185.22742	63.91739	13309.133
1215.0	0.91476	0.0852444	7.73024	7.59053	-4.66684	21.11982	29.5797	1.23259	0.8113	85.59658	139.29992	31.34035	0.3656	12.70757	84667.67194	0.57157	8.57859E-5	1905.82437	30882.98478	60.44853	13422.303
1210.0	0.92206	0.0779404	7.73492	7.58582	-4.726	21.02123	29.53687	1.23023	0.81286	88.72164	139.63345	32.51505	0.36432	12.849	93775.98696	0.56338	7.71934E-5	1909.35368	30595.24073	57.54881	13521.391
1205.0	0.92855	0.0714519	7.73945	7.58129	-4.78282	20.92922	29.49017	1.22803	0.81432	91.61299	139.9644	33.60325	0.36316	12.99383	103541.2796	0.55522	6.96774E-5	1912.89006	30319.71858	55.10443	13608.67
1200.0	0.93435	0.0656537	7.74386	7.57693	-4.8376	20.84299	29.44016	1.22595	0.81569	94.29745	140.29363	34.61473	0.3621	13.14217	114034.3829	0.5471	6.30519E-5	1916.43201	30054.58163	53.02739	13685.975
1195.0	0.93955	0.060447	7.74816	7.57271	-4.89058	20.7618	29.38727	1.22399	0.817	96.79857	140.6216	35.55811	0.36113	13.29428	125331.4418	0.539	5.71738E-5	1919.97816	29798.33321	51.24968	13754.799
1190.0	0.94425	0.0557476	7.75238	7.56861	-4.94214	20.68447	29.33189	1.22212	0.81825	99.13761	140.9484	36.44122	0.36024	13.45019	137515.4473	0.53094	5.19307E-5	1923.53058	29549.75063	49.71652	13816.364
1185.0	0.94851	0.0514877	7.75652	7.56461	-4.99238	20.61079	29.27433	1.22034	0.81944	101.33236	141.2744	37.27061	0.35941	13.61024	150677.2884	0.52291	4.72325E-5	1927.08662	29307.81919	48.38629	13871.681
1180.0	0.95277	0.047232	7.76072	7.56053	-5.04358	20.53332	29.21591	1.21859	0.82062	103.59933	141.63365	38.12775	0.35858	13.74614	165177.2938	0.51596	4.29385E-5	1930.63217	29061.80322	49.20319	13931.482
1175.0	0.95677	0.0432345	7.7649	7.55648	-5.09439	20.45648	29.15606	1.21689	0.82177	105.80086	142.00047	38.96077	0.35779	13.87663	180965.7064	0.50935	3.90575E-5	1934.178	28818.75904	48.60884	13988.712
1170.0	0.96038	0.0396221	7.76898	7.55254	-5.14393	20.38312	29.09441	1.21526	0.82287	107.85815	142.36108	39.7399	0.35705	14.01283	198042.1988	0.50266	3.55664E-5	1937.72889	28582.23399	47.30501	14039.817
1165.0	0.96392	0.0360786	7.77312	7.54857	-5.19376	20.30815	29.03221	1.21364	0.82397	109.91438	142.72094	40.5192	0.35632	14.15113	216768.1282	0.49602	3.23814E-5	1941.28419	28347.66238	46.91432	14089.363
1160.0	0.97635	0.0236464	7.78237	7.54066	-5.29307	20.06861	29.007	1.21047	0.82612	116.4221	143.24932	42.98567	0.3542	14.17939	245961.8543	0.49331	2.84388E-5	1944.84645	27989.42254	71.64797	14262.967
1155.0	0.98623	0.0137657	7.79072	7.53366	-5.381	19.86482	28.97176	1.20772	0.82801	121.92351	143.74008	45.07489	0.35245	14.23141	276338.838	0.48979	2.52243E-5	1948.41115	27669.70381	63.94375	14398.439
1150.0	0.99399	0.00600644	7.79821	7.52745	-5.459	19.69242	28.92798	1.20531	0.82966	126.50254	144.19768	46.8168	0.35104	14.3082	307993.9152	0.48546	2.25525E-5	1951.97412	27381.64555	57.61165	14502.637
1145.0	1.0	0.0	7.80488	7.52193	-5.52841	19.5473	28.87701	1.20319	0.83112	130.25658	144.62578	48.24702	0.34989	 	341069.8433	 	2.02939E-5	 	27119.40707	52.4477	14581.399
1140.0	1.0	0.0	7.80749	7.51942	-5.55991	19.52873	28.7973	1.20227	0.83176	130.66813	144.91331	48.40576	0.34972	 	368989.0268	 	1.86922E-5	 	26938.58654	36.16411	 
1135.0	1.0	0.0	7.81009	7.51692	-5.59134	19.51023	28.71758	1.20134	0.8324	131.07885	145.19941	48.56421	0.34954	 	399414.1454	 	1.72073E-5	 	26763.8426	34.94879	 
1130.0	1.0	0.0	7.81268	7.51442	-5.6227	19.49179	28.63786	1.20041	0.83305	131.48873	145.48407	48.7224	0.34937	 	432589.4394	 	1.58312E-5	 	26589.40207	34.8881	 
1125.0	1.0	0.0	7.81527	7.51193	-5.65399	19.47343	28.55813	1.19947	0.8337	131.89779	145.76729	48.88031	0.34919	 	468784.8071	 	1.45568E-5	 	26415.26381	34.82765	 
1120.0	1.0	0.0	7.81786	7.50944	-5.68521	19.45513	28.4784	1.19853	0.83436	132.30601	146.04909	49.03795	0.34902	 	508298.6879	 	1.33772E-5	 	26241.42667	34.76743	 
1115.0	1.0	0.0	7.82044	7.50696	-5.71637	19.4369	28.39867	1.19758	0.83502	132.7134	146.32948	49.19532	0.34884	 	551461.2684	 	1.22859E-5	 	26067.88949	34.70743	 
1110.0	1.0	0.0	7.82302	7.50449	-5.74745	19.41875	28.31892	1.19663	0.83568	133.11996	146.60846	49.35241	0.34867	 	598638.1351	 	1.12769E-5	 	25894.65114	34.64767	 
1105.0	1.0	0.0	7.8256	7.50202	-5.77847	19.40067	28.23918	1.19567	0.83635	133.5257	146.88603	49.50923	0.34849	 	650234.3518	 	1.03446E-5	 	25721.71047	34.58813	 
1100.0	1.0	0.0	7.82817	7.49955	-5.80942	19.38266	28.15942	1.1947	0.83703	133.9306	147.1622	49.66578	0.34832	 	706698.9526	 	9.48353E-6	 	25549.06636	34.52882	 
1095.0	1.0	0.0	7.83074	7.49709	-5.84029	19.36472	28.07967	1.19373	0.83771	134.33469	147.43698	49.82206	0.34814	 	768530.1094	 	8.68879E-6	 	25376.71768	34.46974	 
1090.0	1.0	0.0	7.8333	7.49464	-5.8711	19.34686	27.9999	1.19276	0.83839	134.73794	147.71038	49.97807	0.34797	 	836280.8732	 	7.9557E-6	 	25204.6633	34.41088	 
1085.0	1.0	0.0	7.83586	7.49219	-5.90184	19.32908	27.92013	1.19178	0.83908	135.14038	147.9824	50.13381	0.3478	 	910565.6324	 	7.27986E-6	 	25032.9021	34.35224	 
1080.0	1.0	0.0	7.83841	7.48975	-5.93251	19.31137	27.84035	1.1908	0.83977	135.54199	148.25305	50.28928	0.34762	 	992067.4362	 	6.6572E-6	 	24861.43297	34.29383	 
1075.0	1.0	0.0	7.84096	7.48732	-5.96311	19.29374	27.76057	1.18981	0.84047	135.94279	148.52233	50.44448	0.34745	 	1081546.081	 	6.08387E-6	 	24690.2548	34.23563	 
1070.0	1.0	0.0	7.84351	7.48488	-5.99365	19.27619	27.68078	1.18881	0.84118	136.34276	148.79026	50.5994	0.34728	 	1179847.536	 	5.5563E-6	 	24519.3665	34.17766	 
1065.0	1.0	0.0	7.84605	7.48246	-6.02411	19.25872	27.60098	1.18781	0.84189	136.74192	149.05683	50.75406	0.3471	 	1287914.16	 	5.07113E-6	 	24348.76696	34.11991	 
1060.0	1.0	0.0	7.84859	7.48004	-6.05451	19.24133	27.52118	1.1868	0.8426	137.14025	149.32206	50.90845	0.34693	 	1406796.668	 	4.62524E-6	 	24178.45509	34.06237	 
1055.0	1.0	0.0	7.85113	7.47762	-6.08483	19.22403	27.44137	1.18579	0.84332	137.53778	149.58595	51.06257	0.34676	 	1537667.279	 	4.21572E-6	 	24008.42981	34.00506	 
1050.0	1.0	0.0	7.85366	7.47522	-6.11509	19.20681	27.36155	1.18477	0.84404	137.93449	149.8485	51.21642	0.34658	 	1681834.847	 	3.83983E-6	 	23838.69002	33.94796	 
1045.0	1.0	0.0	7.85618	7.47281	-6.14528	19.18967	27.28172	1.18375	0.84477	138.33038	150.10972	51.37001	0.34641	 	1840761.859	 	3.49505E-6	 	23669.23466	33.89107	 
1040.0	1.0	0.0	7.8587	7.47041	-6.1754	19.17262	27.20189	1.18272	0.84551	138.72547	150.36963	51.52332	0.34624	 	2016083.604	 	3.17901E-6	 	23500.06266	33.8344	 
1035.0	1.0	0.0	7.86122	7.46802	-6.20545	19.15566	27.12204	1.18168	0.84625	139.11974	150.62822	51.67637	0.34607	 	2209630.246	 	2.88951E-6	 	23331.17294	33.77794	 
1034.79	1.0	0.0	7.86133	7.46792	-6.20671	19.15495	27.1187	1.18164	0.84628	139.13625	150.63903	51.68278	0.34606	 	2218169.723	 	2.87793E-6	 	23324.1008	 	 
1031.23	1.0	0.0	7.8647	7.46472	-6.2469	19.07254	26.99605	1.18378	0.84475	139.65767	150.85947	51.89	0.34571	 	2392684.372	 	2.66076E-6	 	23120.61659	 	 
1030.0	1.0	0.0	7.86707	7.46247	-6.27517	18.9901	26.94178	1.18504	0.84385	139.97089	150.9598	52.01578	0.34547	 	2465835.219	 	2.57939E-6	 	23003.26693	65.5812	 
1029.42	1.0	0.0	7.86818	7.46142	-6.28834	18.9518	26.91623	1.18564	0.84343	140.11688	151.00674	52.07441	0.34535	 	2501222.474	 	2.54176E-6	 	22948.40922	 	 
1025.0	1.0	0.0	7.87227	7.45754	-6.33706	18.85235	26.77122	1.18802	0.84174	140.74174	151.2712	52.3229	0.34493	 	2750186.937	 	2.30382E-6	 	22700.83643	60.4861	 
1020.0	1.0	0.0	7.87682	7.45323	-6.3912	18.74249	26.61273	1.19049	0.83999	141.42954	151.56183	52.59655	0.34448	 	3064079.72	 	2.05985E-6	 	22425.34141	55.099	 
1015.0	1.0	0.0	7.88129	7.449	-6.44433	18.63534	26.45969	1.19275	0.8384	142.09804	151.84393	52.86265	0.34403	 	3416310.583	 	1.84033E-6	 	22154.60216	54.14785	 
1010.0	1.0	0.0	7.88569	7.44485	-6.4965	18.53077	26.31164	1.1948	0.83696	142.74849	152.11819	53.12168	0.3436	 	3811868.684	 	1.64296E-6	 	21888.38288	53.24386	 
1005.0	1.0	0.0	7.89002	7.44076	-6.54777	18.42862	26.16821	1.19667	0.83565	143.38204	152.3852	53.37409	0.34318	 	4256435.131	 	1.46562E-6	 	21626.45805	52.38497	 
1000.0	1.0	0.0	7.89427	7.43675	-6.59816	18.32877	26.02904	1.19836	0.83447	143.99978	152.64548	53.62029	0.34277	 	4756485.238	 	1.30641E-6	 	21368.61246	51.56912	 
995.0	1.0	0.0	7.89847	7.4328	-6.64774	18.23107	25.89385	1.19989	0.83341	144.60269	152.89952	53.86068	0.34238	 	5319406.737	 	1.16357E-6	 	21114.64107	50.79428	 
990.0	1.0	0.0	7.9026	7.42892	-6.69654	18.1354	25.76236	1.20126	0.83246	145.1917	153.14776	54.0956	0.34199	 	5953636.609	 	1.03552E-6	 	20864.34885	50.05844	 
985.0	1.0	0.0	7.90667	7.42509	-6.74459	18.04165	25.63431	1.20248	0.83162	145.76765	153.39057	54.3254	0.34162	 	6668819.207	 	9.2081E-7	 	20617.55056	49.35966	 
980.0	1.0	0.0	7.91069	7.42132	-6.79193	17.94969	25.50948	1.20356	0.83087	146.33132	153.62831	54.55037	0.34125	 	7475990.776	 	8.18128E-7	 	20374.07048	48.69602	 
975.0	1.0	0.0	7.91465	7.41761	-6.83861	17.85941	25.38765	1.20451	0.83021	146.88347	153.86129	54.77081	0.34089	 	8387792.083	 	7.26283E-7	 	20133.74207	48.06568	 
970.0	1.0	0.0	7.91856	7.41394	-6.88465	17.77072	25.26863	1.20534	0.82964	147.42474	154.08981	54.98697	0.34054	 	9418717.784	 	6.44197E-7	 	19896.40768	47.46688	 
965.0	1.0	0.0	7.92243	7.41032	-6.93008	17.68352	25.15223	1.20604	0.82916	147.95579	154.31412	55.19912	0.3402	 	1.058540417E7	 	5.7089E-7	 	19661.91815	46.89791	 
960.0	1.0	0.0	7.92625	7.40675	-6.97493	17.5977	25.03829	1.20664	0.82875	148.47718	154.53447	55.40747	0.33987	 	1.190696678E7	 	5.05477E-7	 	19430.13242	46.35714	 
955.0	1.0	0.0	7.93002	7.40323	-7.01924	17.51317	24.92665	1.20713	0.82841	148.98945	154.75106	55.61223	0.33954	 	1.340539173E7	 	4.47156E-7	 	19200.91722	45.84304	 
950.0	1.0	0.0	7.93376	7.39974	-7.06302	17.42986	24.81716	1.20752	0.82814	149.49312	154.96409	55.81361	0.33922	 	1.510599642E7	 	3.952E-7	 	18974.14658	45.35413	 
945.0	1.0	0.0	7.93746	7.39629	-7.10631	17.34768	24.70969	1.20781	0.82794	149.98864	155.17376	56.01179	0.3389	 	1.703796275E7	 	3.48955E-7	 	18749.70157	44.889	 
940.0	1.0	0.0	7.94112	7.39288	-7.14912	17.26655	24.60412	1.20802	0.8278	150.47645	155.38021	56.20694	0.33859	 	1.923496679E7	 	3.07829E-7	 	18527.46982	44.44635	 
935.0	1.0	0.0	7.94474	7.38951	-7.19147	17.1864	24.50034	1.20813	0.82772	150.95696	155.58361	56.39921	0.33829	 	2.173591323E7	 	2.71287E-7	 	18307.34526	44.02491	 
930.0	1.0	0.0	7.94833	7.38617	-7.2334	17.10716	24.39823	1.20817	0.8277	151.43053	155.78411	56.58877	0.33799	 	2.458579727E7	 	2.38848E-7	 	18089.2277	43.62351	 
925.0	1.0	0.0	7.95189	7.38287	-7.27491	17.02876	24.29771	1.20813	0.82773	151.89753	155.98182	56.77574	0.3377	 	2.783671871E7	 	2.10078E-7	 	17873.02253	43.24104	 
920.0	1.0	0.0	7.95542	7.37959	-7.31603	16.95113	24.19867	1.20801	0.82781	152.35827	156.17687	56.96026	0.33741	 	3.154907252E7	 	1.84584E-7	 	17658.64036	42.87643	 
915.0	1.0	0.0	7.95892	7.37635	-7.35678	16.87423	24.10105	1.20782	0.82794	152.81306	156.36938	57.14245	0.33712	 	3.579295241E7	 	1.62017E-7	 	17445.99681	42.52871	 
910.0	1.0	0.0	7.96239	7.37314	-7.39716	16.79798	24.00475	1.20756	0.82812	153.2622	156.55946	57.32242	0.33684	 	4.064980313E7	 	1.42059E-7	 	17235.01213	42.19694	 
905.0	1.0	0.0	7.96583	7.36995	-7.4372	16.72234	23.90971	1.20724	0.82834	153.70594	156.7472	57.50027	0.33657	 	4.621437317E7	 	1.24426E-7	 	17025.61096	41.88023	 
900.0	1.0	0.0	7.96925	7.36679	-7.47691	16.64725	23.81586	1.20685	0.8286	154.14454	156.93269	57.67611	0.33629	 	5.259702189E7	 	1.08863E-7	 	16817.72211	41.57777	 
895.0	1.0	0.0	7.97265	7.36365	-7.5163	16.57266	23.72315	1.2064	0.82891	154.57823	157.11604	57.85003	0.33603	 	5.992644755E7	 	9.51408E-8	 	16611.27826	41.28877	 
890.0	1.0	0.0	7.97602	7.36054	-7.5554	16.49853	23.63151	1.2059	0.82926	155.00724	157.29732	58.02212	0.33576	 	6.835292129E7	 	8.30549E-8	 	16406.21581	41.01249	 
885.0	1.0	0.0	7.97937	7.35745	-7.5942	16.4248	23.54089	1.20534	0.82964	155.43177	157.47661	58.19246	0.3355	 	7.805212489E7	 	7.24214E-8	 	16202.47459	40.74824	 
880.0	1.0	0.0	7.98269	7.35438	-7.63272	16.35144	23.45124	1.20472	0.83007	155.85202	157.654	58.36113	0.33524	 	8.922970603E7	 	6.30758E-8	 	15999.99771	40.49538	 
875.0	1.0	0.0	7.986	7.35133	-7.67097	16.27841	23.36252	1.20405	0.83053	156.26818	157.82955	58.52819	0.33498	 	1.021266937E8	 	5.48714E-8	 	15798.73123	40.2533	 
870.0	1.0	0.0	7.98929	7.34831	-7.70897	16.20565	23.27469	1.20333	0.83103	156.68042	158.00335	58.69373	0.33473	 	1.17025965E8	 	4.76769E-8	 	15598.62455	40.02134	 
865.0	1.0	0.0	7.99256	7.3453	-7.74671	16.13315	23.18771	1.20256	0.83156	157.0889	158.17546	58.8578	0.33448	 	1.342599251E8	 	4.13752E-8	 	15399.62963	39.79898	 
860.0	1.0	0.0	7.99581	7.34232	-7.78422	16.06086	23.10155	1.20175	0.83212	157.49379	158.34595	59.02047	0.33423	 	1.542197165E8	 	3.5862E-8	 	15201.701	39.58573	 
855.0	1.0	0.0	7.99904	7.33935	-7.82149	15.98874	23.01616	1.20088	0.83272	157.89523	158.51488	59.18179	0.33398	 	1.773662061E8	 	3.10444E-8	 	15004.79572	39.38106	 
850.0	1.0	0.0	8.00226	7.3364	-7.85855	15.91677	22.93153	1.19997	0.83335	158.29336	158.68233	59.34183	0.33374	 	2.042431262E8	 	2.68397E-8	 	14808.87319	39.18451	 
845.0	1.0	0.0	8.00459	7.33426	-7.88537	15.89084	22.86037	1.19835	0.83448	158.64726	158.90221	59.48079	0.3336	 	2.320813574E8	 	2.35151E-8	 	14653.32094	31.11045	 
840.0	1.0	0.0	8.00691	7.33213	-7.91212	15.86492	22.7892	1.19671	0.83562	159.00054	159.12117	59.61955	0.33346	 	2.640168122E8	 	2.05783E-8	 	14494.82994	31.6982	 
835.0	1.0	0.0	8.00923	7.33001	-7.9388	15.83899	22.71802	1.19507	0.83677	159.35321	159.3392	59.75811	0.33332	 	3.006963653E8	 	1.79869E-8	 	14336.57639	31.65071	 
830.0	1.0	0.0	8.01155	7.32789	-7.96541	15.81308	22.64682	1.19342	0.83793	159.70526	159.55631	59.89646	0.33318	 	3.428758624E8	 	1.57031E-8	 	14178.55953	31.60337	 
825.0	1.0	0.0	8.01386	7.32578	-7.99195	15.78717	22.57561	1.19176	0.8391	160.05671	159.77251	60.03461	0.33304	 	3.914396205E8	 	1.36925E-8	 	14020.77858	31.55619	 
820.0	1.0	0.0	8.01617	7.32367	-8.01842	15.76127	22.5044	1.19009	0.84028	160.40754	159.98779	60.17256	0.3329	 	4.474236209E8	 	1.19247E-8	 	13863.23274	31.50917	 
815.0	1.0	0.0	8.01847	7.32157	-8.04481	15.73537	22.43316	1.1884	0.84146	160.75776	160.20216	60.31031	0.33276	 	5.120431338E8	 	1.03722E-8	 	13705.92121	31.46231	 
810.0	1.0	0.0	8.02077	7.31947	-8.07114	15.70948	22.36192	1.18671	0.84266	161.10737	160.41563	60.44785	0.33261	 	5.867256652E8	 	9.01032E-9	 	13548.84317	31.41561	 
805.0	1.0	0.0	8.02306	7.31738	-8.0974	15.6836	22.29066	1.18501	0.84387	161.45637	160.62818	60.58519	0.33247	 	6.731503116E8	 	7.81725E-9	 	13391.99777	31.36908	 
800.0	1.0	0.0	8.02534	7.3153	-8.12359	15.65772	22.21939	1.1833	0.8451	161.80476	160.83984	60.72232	0.33233	 	7.73294832E8	 	6.77333E-9	 	13235.38414	31.32273	 
795.0	1.0	0.0	8.02763	7.31322	-8.14971	15.63184	22.1481	1.18158	0.84633	162.15253	161.05059	60.85925	0.33219	 	8.894920383E8	 	5.86107E-9	 	13079.0014	31.27655	 
790.0	1.0	0.0	8.0299	7.31114	-8.17576	15.60597	22.07681	1.17984	0.84757	162.4997	161.26045	60.99598	0.33205	 	1.024497444E9	 	5.06489E-9	 	12922.84864	31.23055	 
785.0	1.0	0.0	8.03218	7.30907	-8.20174	15.58011	22.00549	1.1781	0.84882	162.84625	161.46941	61.1325	0.33191	 	1.181570547E9	 	4.37093E-9	 	12766.92493	31.18474	 
780.0	1.0	0.0	8.03444	7.30701	-8.22765	15.55426	21.93417	1.17635	0.85009	163.19219	161.67748	61.26882	0.33177	 	1.364572636E9	 	3.76687E-9	 	12611.22931	31.13912	 
775.0	1.0	0.0	8.03671	7.30495	-8.25349	15.52841	21.86283	1.17458	0.85137	163.53753	161.88466	61.40494	0.33163	 	1.578084669E9	 	3.24175E-9	 	12455.76079	31.0937	 
770.0	1.0	0.0	8.03896	7.3029	-8.27926	15.50256	21.79147	1.17281	0.85266	163.88225	162.09095	61.54086	0.33149	 	1.827549567E9	 	2.78589E-9	 	12300.51837	31.04848	 
765.0	1.0	0.0	8.04122	7.30086	-8.30496	15.47672	21.7201	1.17102	0.85396	164.22636	162.29635	61.67657	0.33135	 	2.119444237E9	 	2.3907E-9	 	12145.50098	31.00348	 
760.0	1.0	0.0	8.04347	7.29881	-8.33059	15.45089	21.64871	1.16922	0.85527	164.56986	162.50088	61.81207	0.33121	 	2.461487895E9	 	2.04858E-9	 	11990.70756	30.95868	 
755.0	1.0	0.0	8.04571	7.29678	-8.35615	15.42506	21.57731	1.16741	0.85659	164.91275	162.70452	61.94737	0.33107	 	2.862894744E9	 	1.75282E-9	 	11836.137	30.91411	 
750.0	1.0	0.0	8.04795	7.29475	-8.38164	15.39924	21.50589	1.1656	0.85793	165.25503	162.90729	62.08247	0.33093	 	3.334680964E9	 	1.49752E-9	 	11681.78812	30.86977	 
745.0	1.0	0.0	8.05018	7.29273	-8.40706	15.37343	21.43446	1.16376	0.85928	165.5967	163.10918	62.21737	0.33079	 	3.890038314E9	 	1.27745E-9	 	11527.65975	30.82567	 
740.0	1.0	0.0	8.05241	7.29071	-8.43241	15.34762	21.36301	1.16192	0.86064	165.93776	163.3102	62.35206	0.33065	 	4.544789574E9	 	1.08804E-9	 	11373.75065	30.78182	 
735.0	1.0	0.0	8.05463	7.28869	-8.45769	15.32181	21.29154	1.16007	0.86202	166.27821	163.51035	62.48655	0.33051	 	5.31794472E9	 	9.25269E-10	 	11220.05955	30.73822	 
730.0	1.0	0.0	8.05685	7.28669	-8.4829	15.29602	21.22006	1.1582	0.86341	166.61805	163.70964	62.62083	0.33037	 	6.232381289E9	 	7.85595E-10	 	11066.5851	30.69489	 
725.0	1.0	0.0	8.05907	7.28469	-8.50804	15.27022	21.14856	1.15633	0.86481	166.95729	163.90806	62.75491	0.33023	 	7.31567815E9	 	6.65929E-10	 	10913.32593	30.65183	 
720.0	1.0	0.0	8.06128	7.28269	-8.53311	15.24444	21.07704	1.15444	0.86622	167.29591	164.10561	62.88879	0.33009	 	8.601139126E9	 	5.63567E-10	 	10760.28059	30.60907	 
715.0	1.0	0.0	8.06348	7.2807	-8.55811	15.21866	21.00551	1.15254	0.86765	167.63392	164.30231	63.02246	0.32995	 	1.01291E10	 	4.76147E-10	 	10607.4476	30.5666	 
710.0	1.0	0.0	8.06568	7.27871	-8.58304	15.19288	20.93395	1.15063	0.86909	167.97133	164.49815	63.15593	0.32981	 	1.1948199999999998E10	 	4.01608E-10	 	10454.8254	30.52444	 
705.0	1.0	0.0	8.06787	7.27673	-8.60791	15.16711	20.86238	1.1487	0.87055	168.30812	164.69314	63.28919	0.32968	 	1.4117999999999998E10	 	3.38158E-10	 	10302.41234	30.48261	 
700.0	1.0	0.0	8.07006	7.27476	-8.6327	15.14135	20.79079	1.14677	0.87202	168.64431	164.88727	63.42225	0.32954	 	1.6710399999999998E10	 	2.84237E-10	 	10150.20674	30.44112	 
695.0	1.0	0.0	8.07225	7.27279	-8.65742	15.11559	20.71918	1.14482	0.8735	168.97989	165.08055	63.55511	0.3294	 	1.98132E10	 	2.38492E-10	 	9998.20682	30.39998	 
690.0	1.0	0.0	8.07443	7.27083	-8.68208	15.08984	20.64755	1.14286	0.875	169.31485	165.27299	63.68776	0.32926	 	2.3533799999999996E10	 	1.99751E-10	 	9846.4107	30.35922	 
685.0	1.0	0.0	8.0766	7.26887	-8.70666	15.0641	20.5759	1.14088	0.87651	169.64922	165.46458	63.82021	0.32912	 	2.8003299999999996E10	 	1.66998E-10	 	9694.81643	30.31885	 
680.0	1.0	0.0	8.07877	7.26692	-8.73118	15.03836	20.50422	1.1389	0.87804	169.98297	165.65532	63.95245	0.32898	 	3.3382599999999996E10	 	1.39357E-10	 	9543.42199	30.27889	 
675.0	1.0	0.0	8.08093	7.26497	-8.75562	15.01263	20.43253	1.1369	0.87959	170.31611	165.84523	64.08449	0.32884	 	3.98689E10	 	1.16073E-10	 	9392.2252	30.23936	 
670.0	1.0	0.0	8.08309	7.26303	-8.78	14.9869	20.36082	1.13488	0.88115	170.64865	166.0343	64.21633	0.3287	 	4.770529999999999E10	 	9.64942E-11	 	9241.22381	30.20028	 
665.0	1.0	0.0	8.08525	7.2611	-8.80431	14.96118	20.28909	1.13286	0.88272	170.98057	166.22253	64.34796	0.32856	 	5.719119999999999E10	 	8.00626E-11	 	9090.41546	30.16167	 
660.0	1.0	0.0	8.0874	7.25917	-8.82854	14.93546	20.21733	1.13082	0.88431	171.31189	166.40993	64.47938	0.32842	 	6.869669999999999E10	 	6.62983E-11	 	8939.80344	30.1224	 
655.0	1.0	0.0	8.08954	7.25724	-8.85271	14.90975	20.14555	1.12877	0.88592	171.64261	166.5965	64.6106	0.32829	 	8.268E10	 	5.47904E-11	 	8789.4198	30.07673	 
650.0	1.0	0.0	8.09168	7.25532	-8.87681	14.88404	20.07375	1.1267	0.88754	171.97271	166.78223	64.74162	0.32815	 	9.970959999999998E10	 	4.51879E-11	 	8639.30715	30.02253	 
645.0	1.0	0.0	8.09381	7.25341	-8.90084	14.85835	20.00193	1.12463	0.88919	172.30221	166.96715	64.87243	0.32801	 	1.20492E11	 	3.71913E-11	 	8489.46448	29.96853	 
640.0	1.0	0.0	8.09594	7.2515	-8.9248	14.83265	19.93008	1.12253	0.89084	172.63109	167.15123	65.00304	0.32787	 	1.45909E11	 	3.05455E-11	 	8339.89084	29.91473	 
635.0	1.0	0.0	8.09807	7.2496	-8.94869	14.80697	19.85821	1.12043	0.89252	172.95937	167.3345	65.13344	0.32773	 	1.7706E11	 	2.50337E-11	 	8190.58524	29.86112	 
630.0	1.0	0.0	8.10019	7.2477	-8.97251	14.78129	19.78632	1.11831	0.89421	173.28705	167.51695	65.26364	0.32759	 	2.15322E11	 	2.04719E-11	 	8041.54672	29.8077	 
625.0	1.0	0.0	8.1023	7.24581	-8.99626	14.75561	19.7144	1.11617	0.89592	173.61411	167.69858	65.39364	0.32745	 	2.62423E11	 	1.67045E-11	 	7892.77416	29.75451	 
620.0	1.0	0.0	8.10441	7.24393	-9.01995	14.72994	19.64245	1.11402	0.89765	173.94057	167.87939	65.52343	0.32732	 	3.20537E11	 	1.35998E-11	 	7744.26627	29.70158	 
615.0	1.0	0.0	8.10652	7.24205	-9.04356	14.70428	19.57048	1.11186	0.89939	174.26642	168.05939	65.65301	0.32718	 	3.92403E11	 	1.10469E-11	 	7596.02225	29.6488	 
610.0	1.0	0.0	8.10861	7.24017	-9.0671	14.67862	19.49849	1.10968	0.90116	174.59167	168.23858	65.78239	0.32704	 	4.81484E11	 	8.95239E-12	 	7448.04115	29.59622	 
605.0	1.0	0.0	8.11071	7.2383	-9.09058	14.65297	19.42646	1.10749	0.90294	174.91631	168.41696	65.91156	0.3269	 	5.92165E11	 	7.2379E-12	 	7300.32203	29.54383	 
600.0	1.0	0.0	8.1128	7.23644	-9.11399	14.62732	19.35441	1.10529	0.90474	175.24034	168.59454	66.04053	0.32676	 	7.30017E11	 	5.83771E-12	 	7152.86392	29.49162	 
595.0	1.0	0.0	8.11488	7.23458	-9.13732	14.60168	19.28233	1.10307	0.90656	175.56376	168.77131	66.1693	0.32663	 	9.02132E11	 	4.6969E-12	 	7005.66587	29.43961	 
590.0	1.0	0.0	8.11696	7.23273	-9.16059	14.57605	19.21023	1.10083	0.90841	175.88658	168.94728	66.29785	0.32649	 	1.11756E12	 	3.76965E-12	 	6858.72695	29.38779	 
585.0	1.0	0.0	8.11903	7.23088	-9.18379	14.55042	19.13809	1.09858	0.91027	176.20879	169.12245	66.42621	0.32635	 	1.3879E12	 	3.01781E-12	 	6712.04621	29.33615	 
580.0	1.0	0.0	8.1211	7.22904	-9.20692	14.5248	19.06593	1.09631	0.91215	176.53039	169.29682	66.55436	0.32621	 	1.72801E12	 	2.40971E-12	 	6565.62273	29.2847	 
575.0	1.0	0.0	8.12316	7.2272	-9.22998	14.49918	18.99373	1.09403	0.91405	176.85139	169.47039	66.6823	0.32607	 	2.15704E12	 	1.91911E-12	 	6419.45554	29.23344	 
570.0	1.0	0.0	8.12522	7.22537	-9.25297	14.47357	18.92151	1.09173	0.91598	177.17178	169.64318	66.81004	0.32594	 	2.69968E12	 	1.52433E-12	 	6273.54374	29.18236	 
565.0	1.0	0.0	8.12728	7.22355	-9.2759	14.44796	18.84925	1.08942	0.91792	177.49157	169.81517	66.93757	0.3258	 	3.38788E12	 	1.20748E-12	 	6127.88639	29.13147	 
560.0	1.0	0.0	8.12932	7.22173	-9.29875	14.42236	18.77696	1.08709	0.91989	177.81074	169.98637	67.0649	0.32566	 	4.26312E12	 	9.53855E-13	 	5982.48257	29.08076	 
555.0	1.0	0.0	8.13137	7.21991	-9.32154	14.39677	18.70464	1.08474	0.92188	178.12932	170.15679	67.19202	0.32552	 	5.37939E12	 	7.51386E-13	 	5837.33135	29.03024	 
550.0	1.0	0.0	8.1334	7.21811	-9.34425	14.37118	18.63229	1.08238	0.92389	178.44728	170.32642	67.31894	0.32539	 	6.80714E12	 	5.90203E-13	 	5692.43183	28.9799	 
545.0	1.0	0.0	8.13544	7.2163	-9.3669	14.3456	18.55991	1.08	0.92593	178.76464	170.49527	67.44565	0.32525	 	8.63865E12	 	4.62246E-13	 	5547.78307	28.92975	 
540.0	1.0	0.0	8.13746	7.2145	-9.38948	14.32002	18.48749	1.0776	0.92799	179.0814	170.66334	67.57215	0.32511	 	1.09951E13	 	3.60958E-13	 	5403.38421	28.87977	 
535.0	1.0	0.0	8.13949	7.21271	-9.41199	14.29445	18.41503	1.07519	0.93007	179.39755	170.83063	67.69845	0.32498	 	1.40362E13	 	2.81014E-13	 	5259.23429	28.82998	 
530.0	1.0	0.0	8.1415	7.21093	-9.43443	14.26889	18.34254	1.07276	0.93217	179.71309	170.99714	67.82455	0.32484	 	1.7973E13	 	2.18103E-13	 	5115.33245	28.78037	 
525.0	1.0	0.0	8.14351	7.20914	-9.4568	14.24333	18.27001	1.07032	0.9343	180.02803	171.16288	67.95043	0.3247	 	2.30854E13	 	1.68746E-13	 	4971.67777	28.73094	 
520.0	1.0	0.0	8.14552	7.20737	-9.47911	14.21778	18.19745	1.06785	0.93646	180.34236	171.32785	68.07612	0.32456	 	2.97457E13	 	1.30142E-13	 	4828.26937	28.68168	 
515.0	1.0	0.0	8.14752	7.2056	-9.50134	14.19223	18.12485	1.06537	0.93864	180.65608	171.49204	68.20159	0.32443	 	3.8451E13	 	1.00043E-13	 	4685.10637	28.6326	 
510.0	1.0	0.0	8.14952	7.20383	-9.52351	14.16669	18.05221	1.06287	0.94085	180.9692	171.65547	68.32686	0.32429	 	4.98671E13	 	7.66509E-14	 	4542.18788	28.5837	 
505.0	1.0	0.0	8.15151	7.20207	-9.54561	14.14115	17.97953	1.06035	0.94308	181.28172	171.81814	68.45193	0.32415	 	6.48891E13	 	5.85299E-14	 	4399.51303	28.53497	 
500.0	1.0	0.0	8.15349	7.20032	-9.56764	14.11563	17.90681	1.05782	0.94534	181.59363	171.98003	68.57679	0.32402	 	8.47245E13	 	4.45391E-14	 	4257.08094	28.48642	 
495.0	1.0	0.0	8.15547	7.19857	-9.5896	14.0901	17.83405	1.05527	0.94763	181.90493	172.14117	68.70144	0.32388	 	1.11008E14	 	3.37737E-14	 	4114.89074	28.43804	 
490.0	1.0	0.0	8.15745	7.19683	-9.61149	14.06458	17.76124	1.0527	0.94994	182.21563	172.30155	68.82588	0.32374	 	1.45961E14	 	2.55188E-14	 	3972.94159	28.38983	 
485.0	1.0	0.0	8.15942	7.19509	-9.63331	14.03907	17.6884	1.0501	0.95229	182.52573	172.46117	68.95012	0.32361	 	1.92614E14	 	1.92112E-14	 	3831.23262	28.34179	 
480.0	1.0	0.0	8.16138	7.19336	-9.65507	14.01357	17.61551	1.0475	0.95466	182.83521	172.62003	69.07416	0.32347	 	2.5511599999999997E14	 	1.44089E-14	 	3689.76299	28.29393	 
475.0	1.0	0.0	8.16334	7.19163	-9.67675	13.98807	17.54258	1.04487	0.95706	183.1441	172.77814	69.19799	0.32333	 	3.39171E14	 	1.07661E-14	 	3548.53184	28.24623	 
470.0	1.0	0.0	8.1653	7.18991	-9.69837	13.96257	17.4696	1.04222	0.95949	183.45238	172.93549	69.32161	0.3232	 	4.52652E14	 	8.01306E-15	 	3407.53836	28.1987	 
465.0	1.0	0.0	8.16725	7.18819	-9.71992	13.93708	17.39658	1.03955	0.96195	183.76005	173.0921	69.44502	0.32306	 	6.06469E14	 	5.9405E-15	 	3266.78169	28.15133	 
460.0	1.0	0.0	8.16919	7.18648	-9.7414	13.9116	17.3235	1.03687	0.96444	184.06712	173.24796	69.56823	0.32293	 	8.15803E14	 	4.38626E-15	 	3126.26104	28.10413	 
455.0	1.0	0.0	8.17113	7.18478	-9.76281	13.88612	17.25038	1.03416	0.96697	184.37358	173.40307	69.69123	0.32279	 	1.10187E15	 	3.22535E-15	 	2985.97556	28.0571	 
450.0	1.0	0.0	8.17306	7.18308	-9.78416	13.86065	17.17721	1.03143	0.96952	184.67944	173.55743	69.81402	0.32265	 	1.49445E15	 	2.36175E-15	 	2845.92446	28.01022	 
445.0	1.0	0.0	8.17499	7.18139	-9.80543	13.83519	17.10399	1.02869	0.97211	184.9847	173.71106	69.93661	0.32252	 	2.03551E15	 	1.72198E-15	 	2706.10693	27.96351	 
440.0	1.0	0.0	8.17691	7.1797	-9.82664	13.80973	17.03072	1.02592	0.97473	185.28935	173.86394	70.05899	0.32238	 	2.78451E15	 	1.25002E-15	 	2566.52218	27.91695	 
435.0	1.0	0.0	8.17883	7.17801	-9.84778	13.78427	16.9574	1.02313	0.97739	185.5934	174.01609	70.18117	0.32224	 	3.82601E15	 	9.03371E-16	 	2427.16943	27.87055	 
430.0	1.0	0.0	8.18074	7.17634	-9.86885	13.75883	16.88402	1.02032	0.98008	185.89684	174.1675	70.30314	0.32211	 	5.28086E15	 	6.49875E-16	 	2288.04789	27.82431	 
425.0	1.0	0.0	8.18265	7.17466	-9.88985	13.73338	16.81059	1.01749	0.98281	186.19967	174.31817	70.4249	0.32197	 	7.32266E15	 	4.65336E-16	 	2149.15688	27.7782	 
420.0	1.0	0.0	8.18455	7.173	-9.91078	13.70795	16.7371	1.01464	0.98557	186.50191	174.46812	70.54645	0.32184	 	1.02019E16	 	3.31614E-16	 	2010.49549	27.73228	 
415.0	1.0	0.0	8.18645	7.17134	-9.93165	13.68252	16.66355	1.01177	0.98837	186.80354	174.61733	70.6678	0.3217	 	1.42819E16	 	2.35171E-16	 	1872.06333	27.68643	 
410.0	1.0	0.0	8.18834	7.16968	-9.95245	13.65709	16.58994	1.00887	0.9912	187.10456	174.76581	70.78894	0.32157	 	2.00923E16	 	1.65949E-16	 	1733.86014	27.64064	 
405.0	1.0	0.0	8.19022	7.16803	-9.97318	13.63168	16.51628	1.00596	0.99408	187.40498	174.91356	70.90987	0.32143	 	2.84091E16	 	1.16508E-16	 	1595.88564	27.5949	 
400.0	1.0	0.0	8.1921	7.16639	-9.99384	13.60626	16.44255	1.00302	0.99699	187.7048	175.06059	71.03059	0.3213	 	4.03759E16	 	8.13723E-17	 	1458.13961	27.54921	 
395.0	1.0	0.0	8.19398	7.16475	-10.01443	13.58086	16.36876	1.00006	0.99994	188.00401	175.2069	71.15111	0.32116	 	5.76861E16	 	5.65314E-17	 	1320.6218	27.50356	 
390.0	1.0	0.0	8.19585	7.16311	-10.03495	13.55546	16.29491	0.99707	1.00294	188.30262	175.35248	71.27142	0.32102	 	8.28622E16	 	3.90609E-17	 	1183.33199	27.45796	 
385.0	1.0	0.0	8.19771	7.16148	-10.05541	13.53006	16.22099	0.99406	1.00597	188.60062	175.49734	71.39153	0.32089	 	1.19683E17	 	2.68398E-17	 	1046.26997	27.4124	 
380.0	1.0	0.0	8.19957	7.15986	-10.0758	13.50467	16.147	0.99103	1.00905	188.89802	175.64149	71.51142	0.32075	 	1.73841E17	 	1.83378E-17	 	909.43553	27.36689	 
375.0	1.0	0.0	8.20142	7.15824	-10.09612	13.47929	16.07294	0.98798	1.01217	189.19481	175.78492	71.63111	0.32062	 	2.53965E17	 	1.24563E-17	 	772.82848	27.32141	 
370.0	1.0	0.0	8.20327	7.15663	-10.11637	13.45391	15.99881	0.9849	1.01534	189.49101	175.92764	71.75059	0.32048	 	3.73211E17	 	8.41094E-18	 	636.44865	27.27597	 
365.0	1.0	0.0	8.20511	7.15502	-10.13656	13.42854	15.92461	0.98179	1.01854	189.7866	176.06964	71.86986	0.32035	 	5.51766E17	 	5.64488E-18	 	500.29588	27.23055	 
360.0	1.0	0.0	8.20695	7.15342	-10.15667	13.40317	15.85034	0.97867	1.0218	190.08158	176.21093	71.98893	0.32021	 	8.208E17	 	3.76492E-18	 	364.37001	27.18517	 
355.0	1.0	0.0	8.20878	7.15182	-10.17672	13.37781	15.77599	0.97551	1.0251	190.37596	176.35152	72.10779	0.32008	 	1.22876E18	 	2.49508E-18	 	228.6709	27.13982	 
350.0	1.0	0.0	8.21061	7.15023	-10.1967	13.35246	15.70156	0.97234	1.02845	190.66974	176.49139	72.22644	0.31994	 	1.85143E18	 	1.64276E-18	 	93.19844	27.09449	 
345.0	1.0	0.0	8.21243	7.14865	-10.21661	13.32711	15.62705	0.96913	1.03185	190.96291	176.63056	72.34488	0.31981	 	2.80819E18	 	1.07437E-18	 	-42.04749	27.04919	 
340.0	1.0	0.0	8.21425	7.14707	-10.23646	13.30177	15.55246	0.9659	1.0353	191.25548	176.76903	72.46311	0.31967	 	4.28843E18	 	6.97839E-19	 	-177.06698	27.0039	 
335.0	1.0	0.0	8.21606	7.14549	-10.25624	13.27643	15.47778	0.96265	1.0388	191.54745	176.90679	72.58114	0.31954	 	6.59467E18	 	4.50095E-19	 	-311.86009	26.95862	 
330.0	1.0	0.0	8.21786	7.14392	-10.27594	13.2511	15.40302	0.95937	1.04235	191.83881	177.04386	72.69896	0.31941	 	1.02138E19	 	2.88221E-19	 	-446.4269	26.91336	 
325.0	1.0	0.0	8.21966	7.14236	-10.29559	13.22577	15.32818	0.95606	1.04596	192.12957	177.18023	72.81657	0.31927	 	1.59351E19	 	1.83206E-19	 	-580.76744	26.86811	 
320.0	1.0	0.0	8.22145	7.1408	-10.31516	13.20045	15.25324	0.95273	1.04962	192.41973	177.3159	72.93397	0.31914	 	2.50485E19	 	1.15576E-19	 	-714.88173	26.82286	 
315.0	1.0	0.0	8.22324	7.13925	-10.33466	13.17514	15.17821	0.94937	1.05333	192.70929	177.45087	73.05116	0.319	 	3.96779E19	 	7.23479E-20	 	-848.76978	26.77761	 
310.0	1.0	0.0	8.22503	7.1377	-10.3541	13.14983	15.10308	0.94598	1.05711	192.99824	177.58515	73.16815	0.31887	 	6.33491E19	 	4.4929E-20	 	-982.43157	26.73236	 
305.0	1.0	0.0	8.2268	7.13616	-10.37347	13.12453	15.02786	0.94256	1.06094	193.28658	177.71875	73.28492	0.31873	 	1.01964E20	 	2.76745E-20	 	-1115.86705	26.6871	 
300.0	1.0	0.0	8.22857	7.13462	-10.39277	13.09924	14.95253	0.93912	1.06483	193.57433	177.85165	73.40149	0.3186	 	1.65485E20	 	1.69042E-20	 	-1249.07618	26.64183	 
295.0	1.0	0.0	8.23034	7.13309	-10.41201	13.07395	14.8771	0.93564	1.06878	193.86147	177.98386	73.51785	0.31847	 	2.7087799999999997E20	 	1.02371E-20	 	-1382.05887	26.59654	 
290.0	1.0	0.0	8.2321	7.13156	-10.43118	13.04866	14.80157	0.93214	1.0728	194.14801	178.11539	73.634	0.31833	 	4.4728999999999993E20	 	6.145E-21	 	-1514.81501	26.55123	 
285.0	1.0	0.0	8.23386	7.13004	-10.45027	13.02338	14.72593	0.92861	1.07688	194.43394	178.24623	73.74994	0.3182	 	7.45257E20	 	3.65537E-21	 	-1647.34448	26.50589	 
280.0	1.0	0.0	8.23561	7.12853	-10.46931	12.99811	14.65018	0.92505	1.08102	194.71927	178.37639	73.86568	0.31806	 	1.25323E21	 	2.15426E-21	 	-1779.64712	26.46053	 
275.0	1.0	0.0	8.23735	7.12702	-10.48827	12.97284	14.57431	0.92146	1.08523	195.004	178.50587	73.9812	0.31793	 	2.12753E21	 	1.25751E-21	 	-1911.72273	26.41512	 
270.0	1.0	0.0	8.23909	7.12551	-10.50717	12.94758	14.49832	0.91784	1.08951	195.28813	178.63466	74.09652	0.3178	 	3.64712E21	 	7.26869E-22	 	-2043.57111	26.36968	 
265.0	1.0	0.0	8.24083	7.12401	-10.526	12.92233	14.42221	0.91419	1.09386	195.57165	178.76278	74.21162	0.31766	 	6.31502E21	 	4.15925E-22	 	-2175.19203	26.32418	 
260.0	1.0	0.0	8.24255	7.12252	-10.54476	12.89708	14.34598	0.91051	1.09828	195.85457	178.89023	74.32652	0.31753	 	1.10477E22	 	2.3554E-22	 	-2306.5852	26.27863	 
255.0	1.0	0.0	8.24428	7.12103	-10.56345	12.87183	14.26962	0.9068	1.10278	196.13689	179.017	74.44121	0.31739	 	1.95329E22	 	1.3197E-22	 	-2437.75033	26.23303	 
250.0	1.0	0.0	8.246	7.11955	-10.58208	12.8466	14.19313	0.90305	1.10735	196.41861	179.1431	74.55569	0.31726	 	3.4913599999999998E22	 	7.31339E-23	 	-2568.68707	26.18735	 
245.0	1.0	0.0	8.24771	7.11807	-10.60064	12.82136	14.1165	0.89928	1.112	196.69972	179.26852	74.66996	0.31713	 	6.3108599999999995E22	 	4.00731E-23	 	-2699.39504	26.1416	 
240.0	1.0	0.0	8.24941	7.1166	-10.61913	12.79614	14.03973	0.89547	1.11673	196.98023	179.39328	74.78402	0.31699	 	1.1539699999999998E23	 	2.17039E-23	 	-2829.87386	26.09576	 
235.0	1.0	0.0	8.25111	7.11513	-10.63755	12.77092	13.96282	0.89163	1.12154	197.26014	179.51736	74.89788	0.31686	 	2.13529E23	 	1.16151E-23	 	-2960.12304	26.04984	 
230.0	1.0	0.0	8.25281	7.11367	-10.65591	12.7457	13.88576	0.88776	1.12644	197.53944	179.64079	75.01152	0.31673	 	3.9997299999999996E23	 	6.13979E-24	 	-3090.14211	26.00382	 
225.0	1.0	0.0	8.2545	7.11221	-10.6742	12.7205	13.80855	0.88385	1.13141	197.81814	179.76354	75.12495	0.31659	 	7.587109999999999E23	 	3.20457E-24	 	-3219.93053	25.95768	 
220.0	1.0	0.0	8.25618	7.11076	-10.69242	12.69529	13.73118	0.87991	1.13648	198.09625	179.88564	75.23818	0.31646	 	1.45801E24	 	1.65084E-24	 	-3349.48773	25.91144	 
215.0	1.0	0.0	8.25786	7.10932	-10.71057	12.6701	13.65365	0.87593	1.14164	198.37374	180.00707	75.35119	0.31633	 	2.8396E24	 	8.39041E-25	 	-3478.81307	25.86507	 
210.0	1.0	0.0	8.25954	7.10788	-10.72866	12.64491	13.57594	0.87192	1.14689	198.65064	180.12784	75.464	0.31619	 	5.60718E24	 	4.20557E-25	 	-3607.90589	25.81856	 
205.0	1.0	0.0	8.2612	7.10644	-10.74668	12.61972	13.49807	0.86788	1.15224	198.92693	180.24795	75.57659	0.31606	 	1.12308E25	 	2.07797E-25	 	-3736.76543	25.77191	 
200.0	1.0	0.0	8.26286	7.10501	-10.76463	12.59454	13.42002	0.8638	1.15768	199.20262	180.36741	75.68898	0.31593	 	2.28273E25	 	1.01165E-25	 	-3865.39094	25.7251	 
195.0	1.0	0.0	8.26452	7.10359	-10.78252	12.56937	13.34178	0.85968	1.16322	199.47771	180.48621	75.80116	0.3158	 	4.71062E25	 	4.85058E-26	 	-3993.78155	25.67812	 
190.0	1.0	0.0	8.26617	7.10217	-10.80034	12.5442	13.26336	0.85553	1.16887	199.7522	180.60436	75.91312	0.31566	 	9.874020000000001E25	 	2.28936E-26	 	-4121.93637	25.63096	 
185.0	1.0	0.0	8.26782	7.10076	-10.81809	12.51904	13.18473	0.85134	1.17462	200.02608	180.72186	76.02488	0.31553	 	2.10342E26	 	1.06309E-26	 	-4249.85442	25.58361	 
180.0	1.0	0.0	8.26946	7.09935	-10.83577	12.49388	13.10591	0.84711	1.18048	200.29937	180.8387	76.13642	0.3154	 	4.5562300000000006E26	 	4.85426E-27	 	-4377.53467	25.53605	 
175.0	1.0	0.0	8.27109	7.09795	-10.85339	12.46873	13.02687	0.84285	1.18645	200.57205	180.9549	76.24776	0.31527	 	1.0041E27	 	2.17839E-27	 	-4504.97602	25.48827	 
170.0	1.0	0.0	8.27272	7.09655	-10.87094	12.44359	12.94762	0.83855	1.19254	200.84412	181.07045	76.35889	0.31513	 	2.25263E27	 	9.60171E-28	 	-4632.17727	25.44025	 
165.0	1.0	0.0	8.27434	7.09516	-10.88842	12.41845	12.86814	0.83421	1.19875	201.1156	181.18535	76.4698	0.315	 	5.14768E27	 	4.1543E-28	 	-4759.13716	25.39198	 
160.0	1.0	0.0	8.27596	7.09377	-10.90584	12.39332	12.78843	0.82983	1.20507	201.38648	181.29961	76.58051	0.31487	 	1.199E28	 	1.76321E-28	 	-4885.85434	25.34343	 
155.0	1.0	0.0	8.27757	7.09239	-10.92319	12.36819	12.70848	0.82541	1.21152	201.65675	181.41323	76.691	0.31474	 	2.8484400000000003E28	 	7.33628E-29	 	-5012.32736	25.2946	 
150.0	1.0	0.0	8.27918	7.09101	-10.94047	12.34307	12.62827	0.82095	1.2181	201.92642	181.5262	76.80129	0.3146	 	6.90674E28	 	2.99025E-29	 	-5138.55469	25.24547	 
145.0	1.0	0.0	8.28078	7.08964	-10.95768	12.31795	12.54781	0.81645	1.22481	202.19549	181.63854	76.91137	0.31447	 	1.71056E29	 	1.19311E-29	 	-5264.53471	25.196	 
140.0	1.0	0.0	8.28237	7.08828	-10.97483	12.29285	12.46709	0.81191	1.23166	202.46396	181.75024	77.02123	0.31434	 	4.33049E29	 	4.65647E-30	 	-5390.26564	25.14619	 
135.0	1.0	0.0	8.28396	7.08692	-10.99191	12.26774	12.38608	0.80733	1.23865	202.73183	181.8613	77.13088	0.31421	 	1.1215499999999999E30	 	1.77618E-30	 	-5515.74566	25.096	 
130.0	1.0	0.0	8.28555	7.08556	-11.00892	12.24264	12.30479	0.80271	1.24578	202.99909	181.97172	77.24033	0.31407	 	2.97409E30	 	6.61606E-31	 	-5640.97276	25.04542	 
125.0	1.0	0.0	8.28713	7.08421	-11.02587	12.21755	12.22319	0.79805	1.25306	203.26575	182.08152	77.34956	0.31394	 	8.08211E30	 	2.40441E-31	 	-5765.94486	24.99442	 
120.0	1.0	0.0	8.2887	7.08287	-11.04275	12.19247	12.14129	0.79334	1.26049	203.53182	182.19068	77.45858	0.31381	 	2.25289E31	 	8.51737E-32	 	-5890.6597	24.94297	 
115.0	1.0	0.0	8.29026	7.08153	-11.05956	12.16739	12.05906	0.78859	1.26808	203.79728	182.29921	77.56739	0.31368	 	6.44799E31	 	2.93807E-32	 	-6015.11491	24.89104	 
110.0	1.0	0.0	8.29183	7.0802	-11.07631	12.14231	11.97649	0.7838	1.27584	204.06214	182.40711	77.67599	0.31355	 	1.89683E32	 	9.85886E-33	 	-6139.30794	24.83861	 
105.0	1.0	0.0	8.29338	7.07887	-11.09299	12.11724	11.89358	0.77896	1.28376	204.3264	182.51438	77.78438	0.31342	 	5.7414899999999996E32	 	3.21459E-33	 	-6263.23607	24.78563	 
100.0	1.0	0.0	8.29493	7.07755	-11.1096	12.09218	11.8103	0.77408	1.29185	204.59005	182.62103	77.89256	0.31328	 	1.79024E33	 	1.01732E-33	 	-6386.89643	24.73207	 
95.0	1.0	0.0	8.29648	7.07623	-11.12615	12.06712	11.72664	0.76916	1.30012	204.85311	182.72705	78.00053	0.31315	 	5.75722E33	 	3.12104E-34	 	-6510.28597	24.67791	 
90.0	1.0	0.0	8.29801	7.07492	-11.14263	12.04207	11.64259	0.76419	1.30857	205.11556	182.83245	78.10829	0.31302	 	1.9119800000000002E34	 	9.2702E-35	 	-6633.40138	24.62308	 
85.0	1.0	0.0	8.29955	7.07361	-11.15904	12.01703	11.55812	0.75918	1.31721	205.37742	182.93723	78.21584	0.31289	 	6.566130000000001E34	 	2.66221E-35	 	-6756.23922	24.56757	 
80.0	1.0	0.0	8.30107	7.07231	-11.17539	11.99199	11.47323	0.75412	1.32605	205.63867	183.04139	78.32317	0.31276	 	2.3351099999999998E35	 	7.38139E-36	 	-6878.79575	24.51131	 
75.0	1.0	0.0	8.3026	7.07101	-11.19167	11.96696	11.38788	0.74901	1.33509	205.89933	183.14493	78.43029	0.31263	 	8.612569999999999E35	 	1.97297E-36	 	-7001.06701	24.45425	 
70.0	1.0	0.0	8.30411	7.06972	-11.20788	11.94193	11.30207	0.74386	1.34434	206.15938	183.24785	78.53721	0.31249	 	3.2997099999999996E36	 	5.07569E-37	 	-7123.04879	24.39636	 
65.0	1.0	0.0	8.30562	7.06844	-11.22402	11.91691	11.21577	0.73866	1.3538	206.41883	183.35016	78.64391	0.31236	 	1.31544E37	 	1.25466E-37	 	-7244.73659	24.33756	 
60.0	1.0	0.0	8.30713	7.06716	-11.2401	11.89189	11.12896	0.73342	1.36348	206.67768	183.45185	78.7504	0.31223	 	5.46628E37	 	2.97464E-38	 	-7366.12557	24.2778	 
55.0	1.0	0.0	8.30863	7.06588	-11.25612	11.86688	11.0416	0.72813	1.37339	206.93593	183.55293	78.85668	0.3121	 	2.3722799999999997E38	 	6.75139E-39	 	-7487.21061	24.21701	 
50.0	1.0	0.0	8.31012	7.06461	-11.27206	11.84188	10.95369	0.72279	1.38354	207.19358	183.6534	78.96275	0.31197	 	1.0773700000000001E39	 	1.46394E-39	 	-7607.98624	24.15512	 
45.0	1.0	0.0	8.31161	7.06335	-11.28794	11.81688	10.86519	0.7174	1.39392	207.45063	183.75326	79.0686	0.31184	 	5.13126E39	 	3.02618E-40	 	-7728.44654	24.09206	 
40.0	1.0	0.0	8.31309	7.06209	-11.30375	11.79189	10.77607	0.71196	1.40457	207.70708	183.85251	79.17425	0.31171	 	2.56879E40	 	5.94992E-41	 	-7848.58527	24.02775	 
35.0	1.0	0.0	8.31456	7.06083	-11.3195	11.7669	10.6863	0.70648	1.41547	207.96294	183.95116	79.27968	0.31158	 	1.35498E41	 	1.10998E-41	 	-7968.39567	23.96208	 
30.0	1.0	0.0	8.31604	7.05959	-11.33518	11.74192	10.59585	0.70095	1.42663	208.21819	184.04919	79.3849	0.31145	 	7.55022E41	 	1.95968E-42	 	-8087.87056	23.89498	 
25.0	1.0	0.0	8.3175	7.05834	-11.35079	 	10.50469	0.69537	1.43808	208.47284	184.14663	79.48992	0.31132	 	4.45665E42	 	3.26522E-43	 	-8207.00219	 	 
