T (C)	Fraction solid (wt)-TOTAL	Fraction liquid (wt)-LIQUID	Density (g/(cm)^3)-TOTAL	Molar volume (cm^3)-TOTAL	Volume change (%)-  	Average expansion coeff. (10e-6 1/K)-  	Thermal conductivity (W/(m*K))-TOTAL	Electrical resistivity (10e-6 Ohm*m)-TOTAL	Electrical conductivity (10e6 1/(Ohm*m))-TOTAL	Young's modulus (GPa)-TOTAL	Bulk modulus (GPa)-TOTAL	Shear modulus(GPa)-TOTAL	Poisson's ratio-TOTAL	Liquid viscosity (mPa s)-  	Total viscosity (mPa s)-  	Liquid diffusivity (10e-9 (m^2)/s)-  	Total diffusivity (10e-9 (m^2)/s)-  	Surface Tension (mN/m)-  	Enthalpy (J/mole)-TOTAL	Specific heat (J/(mole K))-TOTAL	Latent heat (J/mole)-TOTAL
1400.0	0.0	1.0	7.23098	7.67343	0.0	29.38485	30.6083	1.33925	0.74669	0.0	125.50955	0.0	0.5	6.74172	6.74172	1.2113	1.2113	1762.21981	52715.52	 	0.0
1395.0	0.0	1.0	7.23501	7.66915	-0.0557248	29.34008	30.53764	1.33834	0.7472	0.0	125.66306	0.0	0.5	6.81366	6.81366	1.19493	1.19493	1764.44407	52507.11	41.682	0.0
1390.0	0.0	1.0	7.23903	7.66489	-0.11129	29.29541	30.46697	1.33742	0.74771	0.0	125.81658	0.0	0.5	6.8868	6.8868	1.17869	1.17869	1766.67416	52299.206	41.5808	0.0
1385.0	0.0	1.0	7.24305	7.66063	-0.16669	29.25086	30.39631	1.3365	0.74822	0.0	125.97009	0.0	0.5	6.96118	6.96118	1.16259	1.16259	1768.90982	52091.802	41.4808	0.0
1380.0	0.0	1.0	7.24706	7.6564	-0.22194	29.20643	30.32565	1.33557	0.74874	0.0	126.12361	0.0	0.5	7.03681	7.03681	1.14663	1.14663	1771.15077	51884.898	41.3808	0.0
1375.0	0.0	1.0	7.25106	7.65217	-0.27702	29.16211	30.25499	1.33465	0.74926	0.0	126.27712	0.0	0.5	7.11374	7.11374	1.1308	1.1308	1773.39674	51678.49	41.2816	0.0
1370.0	0.0	1.0	7.25506	7.64795	-0.33194	29.1179	30.18432	1.33371	0.74979	0.0	126.43064	0.0	0.5	7.19198	7.19198	1.1151	1.1151	1775.64744	51472.575	41.183	0.0
1365.0	0.0	1.0	7.25905	7.64375	-0.38671	29.07381	30.11366	1.33277	0.75032	0.0	126.58415	0.0	0.5	7.27157	7.27157	1.09954	1.09954	1777.90258	51267.151	41.0848	0.0
1361.46	0.0	1.0	7.26187	7.64078	-0.42539	29.04266	30.06363	1.33211	0.75069	0.0	126.69285	0.0	0.5	7.32875	7.32875	1.08861	1.08861	1779.50195	51122.001	40.99808	0.0
1360.0	0.0590902	0.94091	7.27699	7.62489	-0.63249	28.49463	30.21238	1.32436	0.75508	0.00102393	125.99085	3.43168E-4	0.49188	7.34073	8.46142	1.08586	0.94204	1778.90328	50164.716	655.85884	897.498
1355.0	0.2356	0.7644	7.32298	7.57701	-1.25647	26.84833	30.65574	1.30121	0.76851	0.26682	123.91752	0.0909173	0.46736	7.38111	152.08061	1.07661	0.0522525	1776.84455	47296.181	573.707	3561.581
1350.0	0.36913	0.63087	7.35888	7.54008	-1.73774	25.59214	30.984	1.28347	0.77913	1.64693	122.43082	0.56848	0.44853	7.42124	923.0622	1.0675	0.00858251	1774.84829	45095.445	440.1472	5558.35
1345.0	0.47242	0.52758	7.38759	7.51084	-2.1188	24.61016	31.22903	1.26948	0.78772	4.50657	121.36622	1.57157	0.43378	7.46123	2615.83399	1.05851	0.00301922	1772.92563	43364.69	346.151	7085.616
1340.0	0.55382	0.44618	7.41102	7.48713	-2.42786	23.82536	31.41156	1.2582	0.79478	8.65708	120.61217	3.04396	0.42201	7.50108	5249.94869	1.04963	0.00149971	1771.08564	41972.728	278.3924	8274.568
1335.0	0.61904	0.38096	7.43049	7.46761	-2.68213	23.19087	31.54588	1.24896	0.80066	13.71122	120.09302	4.85357	0.41249	7.54095	8722.82404	1.04085	8.99821E-4	1769.33273	40830.186	228.5084	9214.573
1330.0	0.67201	0.32799	7.44695	7.45123	-2.89559	22.6684	31.64247	1.24128	0.80562	19.28888	119.75228	6.86597	0.40467	7.58081	12906.04314	1.03216	6.06272E-4	1767.67154	39874.728	191.0916	9967.968
1325.0	0.71556	0.28444	7.46106	7.43727	-3.07762	22.23227	31.70912	1.23481	0.80984	25.08129	119.54989	8.96923	0.39818	7.62073	17684.19158	1.02355	4.41082E-4	1766.1049	39061.945	162.5566	10579.157
1320.0	0.75174	0.24826	7.47333	7.42521	-3.23471	21.86474	31.75198	1.22928	0.81348	30.87328	119.45652	11.08365	0.39274	7.66069	22974.90363	1.01502	3.38446E-4	1764.63364	38359.605	140.468	11080.37
1315.0	0.78211	0.21789	7.48411	7.41469	-3.37186	21.55214	31.77557	1.22452	0.81665	36.5169	119.44984	13.15329	0.38813	7.70076	28719.77042	1.00657	2.69897E-4	1763.2582	37743.911	123.1388	11495.402
1313.65	0.78928	0.21072	7.48676	7.41212	-3.40535	21.47757	31.77863	1.22336	0.81742	37.96767	119.46311	13.68667	0.38703	7.71161	30316.71886	1.0043	2.55462E-4	1762.90708	37592.533	 	11592.734
1310.0	0.84716	0.15284	7.5048	7.39448	-3.63523	20.87001	31.89995	1.2159	0.82244	51.28254	119.29978	18.60686	0.37805	7.80481	42392.07041	0.99003	1.82274E-4	1762.22517	36612.804	226.2214	12426.308
1305.0	0.89603	0.10397	7.52103	7.37874	-3.84034	20.35264	31.97536	1.2092	0.82699	65.24205	119.29748	23.80461	0.37037	7.92728	56899.64325	0.97165	1.35371E-4	1761.11146	35721.884	178.184	13117.489
1300.0	0.92545	0.0745465	7.53183	7.36834	-3.97584	20.03527	31.99042	1.2048	0.83001	75.10371	119.454	27.49735	0.36565	8.04624	69367.4302	0.95425	1.10688E-4	1759.9559	35114.666	121.4436	13525.424
1295.0	0.94471	0.0552936	7.5398	7.36073	-4.07508	19.8221	31.97316	1.20162	0.83221	82.29104	119.69839	30.19844	0.3625	8.16309	80662.74102	0.93761	9.48858E-5	1758.8224	34654.029	92.1274	13787.231
1290.0	0.9581	0.0418962	7.54613	7.35471	-4.15345	19.6689	31.93695	1.19915	0.83392	87.72429	119.99546	32.24541	0.36026	8.27887	91380.35516	0.92154	8.349E-5	1757.74457	34277.127	75.3804	13965.758
1285.0	0.96787	0.0321266	7.55145	7.3497	-4.21878	19.55318	31.88884	1.19712	0.83534	91.97415	120.32634	33.84942	0.35858	8.39438	101915.6323	0.90596	7.462E-5	1756.73974	33951.816	65.0622	14093.142
1280.0	0.97526	0.0247369	7.55611	7.34535	-4.27551	19.46215	31.83279	1.19538	0.83656	95.40007	120.67975	35.14423	0.35726	8.5103	112540.713	0.89075	6.73582E-5	1755.81677	33660.228	58.3176	14187.252
1275.0	0.98102	0.01898	7.56031	7.34145	-4.32626	19.38825	31.77124	1.19384	0.83764	98.23476	121.04864	36.21675	0.35621	8.62708	123454.9864	0.87586	6.12056E-5	1754.97926	33391.752	53.6952	14258.694
1270.0	0.98561	0.0143861	7.56418	7.33789	-4.37275	19.32656	31.70573	1.19244	0.83862	100.63446	121.42848	37.12548	0.35533	8.7451	134815.7389	0.86125	5.58669E-5	1754.22983	33139.745	50.4014	14314.111
1267.34	0.98768	0.0123238	7.56613	7.33609	-4.39612	19.29771	31.66952	1.19174	0.83911	101.76499	121.63458	37.55384	0.35492	8.80852	141085.2288	0.85357	5.32921E-5	1753.86901	33010.882	 	14338.401
1265.0	0.9923	0.00769969	7.5684	7.33387	-4.42509	19.24672	31.64833	1.19073	0.83982	104.02067	121.80354	38.40939	0.3541	8.86595	148609.1529	0.84676	5.05173E-5	1753.98833	32857.951	56.3588	14399.756
1260.0	1.0	0.0	7.57281	7.32955	-4.4814	19.15426	31.59646	1.18881	0.84118	107.97489	122.17486	39.91075	0.3527	 	164595.8364	 	4.54624E-5	 	32562.138	59.1626	14499.857
1255.0	1.0	0.0	7.57541	7.32703	-4.51416	19.13256	31.51543	1.18798	0.84177	108.4626	122.59363	40.09576	0.35254	 	176554.0555	 	4.2245E-5	 	32354.97887	41.43183	 
1250.0	1.0	0.0	7.57799	7.32454	-4.54667	19.11148	31.43432	1.18715	0.84236	108.94904	123.01013	40.28034	0.35238	 	189469.6278	 	3.92365E-5	 	32166.88252	37.61927	 
1245.0	1.0	0.0	7.58057	7.32205	-4.57911	19.09041	31.35322	1.18631	0.84295	109.43476	123.42496	40.4647	0.35222	 	203424.5974	 	3.64249E-5	 	31979.10281	37.55594	 
1240.0	1.0	0.0	7.58314	7.31957	-4.6115	19.06935	31.27212	1.18547	0.84355	109.91975	123.8381	40.64883	0.35207	 	218509.9861	 	3.37985E-5	 	31791.63805	37.49295	 
1235.0	1.0	0.0	7.58571	7.31708	-4.64383	19.0483	31.19102	1.18463	0.84415	110.40402	124.24957	40.83274	0.35191	 	234825.423	 	3.13463E-5	 	31604.48713	37.43019	 
1230.0	1.0	0.0	7.58828	7.31461	-4.6761	19.02725	31.10991	1.18378	0.84475	110.88756	124.65937	41.01642	0.35175	 	252480.0063	 	2.90578E-5	 	31417.64949	37.36753	 
1225.0	1.0	0.0	7.59084	7.31214	-4.70831	19.00621	31.02881	1.18292	0.84536	111.37038	125.06752	41.19988	0.35159	 	271593.2673	 	2.6923E-5	 	31231.12465	37.30497	 
1220.0	1.0	0.0	7.5934	7.30967	-4.74046	18.98518	30.94771	1.18206	0.84598	111.85247	125.47401	41.38311	0.35143	 	292296.2654	 	2.49326E-5	 	31044.91206	37.24252	 
1215.0	1.0	0.0	7.59596	7.30721	-4.77255	18.96416	30.86661	1.1812	0.8466	112.33384	125.87885	41.56611	0.35127	 	314732.7251	 	2.30776E-5	 	30859.01122	37.18017	 
1210.0	1.0	0.0	7.59852	7.30475	-4.80459	18.94315	30.7855	1.18033	0.84722	112.81448	126.28204	41.74888	0.35111	 	339060.4269	 	2.13498E-5	 	30673.4216	37.11792	 
1205.0	1.0	0.0	7.60107	7.3023	-4.83656	18.92215	30.7044	1.17946	0.84784	113.2944	126.6836	41.93143	0.35095	 	365452.596	 	1.97412E-5	 	30488.14269	37.05578	 
1200.0	1.0	0.0	7.60362	7.29985	-4.86847	18.90116	30.6233	1.17859	0.84847	113.77359	127.08353	42.11376	0.35079	 	394099.5965	 	1.82443E-5	 	30303.17398	36.99374	 
1195.0	1.0	0.0	7.60617	7.2974	-4.90033	18.88017	30.54219	1.1777	0.84911	114.25206	127.48183	42.29585	0.35063	 	425210.6745	 	1.68521E-5	 	30118.51493	36.93181	 
1190.0	1.0	0.0	7.60871	7.29496	-4.93212	18.8592	30.46109	1.17682	0.84975	114.7298	127.87851	42.47772	0.35047	 	459016.0329	 	1.55578E-5	 	29934.16503	36.86998	 
1185.0	1.0	0.0	7.61125	7.29253	-4.96386	18.83824	30.37998	1.17593	0.85039	115.20682	128.27358	42.65936	0.35031	 	495769.0259	 	1.43552E-5	 	29750.12378	36.80825	 
1180.0	1.0	0.0	7.61379	7.2901	-4.99554	18.81729	30.29888	1.17503	0.85104	115.68311	128.66704	42.84078	0.35015	 	535748.7113	 	1.32384E-5	 	29566.39065	36.74663	 
1175.0	1.0	0.0	7.61633	7.28767	-5.02715	18.79635	30.21777	1.17413	0.85169	116.15868	129.05889	43.02197	0.34999	 	579262.5675	 	1.22018E-5	 	29382.96511	36.68511	 
1170.0	1.0	0.0	7.61886	7.28525	-5.05871	18.77543	30.13666	1.17323	0.85235	116.63353	129.44914	43.20293	0.34983	 	626649.6283	 	1.12402E-5	 	29199.84665	36.62369	 
1165.0	1.0	0.0	7.62139	7.28283	-5.09021	18.75451	30.05556	1.17232	0.85301	117.10765	129.83781	43.38367	0.34967	 	678283.9982	 	1.03485E-5	 	29017.03476	36.56238	 
1160.0	1.0	0.0	7.62391	7.28042	-5.12165	18.73361	29.97445	1.1714	0.85368	117.58105	130.22488	43.56417	0.34952	 	734578.621	 	9.52226E-6	 	28834.52891	36.50117	 
1155.0	1.0	0.0	7.62643	7.27801	-5.15303	18.71272	29.89334	1.17048	0.85435	118.05372	130.61038	43.74446	0.34936	 	795989.715	 	8.75695E-6	 	28652.3286	36.44006	 
1150.0	1.0	0.0	7.62895	7.27561	-5.18435	18.69184	29.81223	1.16956	0.85502	118.52567	130.99429	43.92451	0.3492	 	863021.5739	 	8.04851E-6	 	28470.43328	36.37906	 
1145.0	1.0	0.0	7.63147	7.27321	-5.21561	18.67098	29.73112	1.16863	0.8557	118.99689	131.37664	44.10434	0.34904	 	936231.9195	 	7.39308E-6	 	28288.84246	36.31816	 
1142.86	1.0	0.0	7.63254	7.27219	-5.22895	18.66204	29.69648	1.16823	0.85599	119.1979	131.53942	44.18106	0.34897	 	969527.0716	 	7.12844E-6	 	28211.39054	 	 
1140.0	1.0	0.0	7.63398	7.27082	-5.24676	18.65029	29.65015	1.16769	0.85639	119.47407	131.7632	44.28647	0.34888	 	1016713.603	 	6.78385E-6	 	28105.70249	36.628	 
1135.0	1.0	0.0	7.63648	7.26844	-5.27783	18.62969	29.56926	1.16674	0.85709	119.95535	132.15236	44.47021	0.34872	 	1105131.25	 	6.21902E-6	 	27921.53893	36.83271	 
1130.0	1.0	0.0	7.63898	7.26606	-5.30884	18.6091	29.48837	1.16579	0.85779	120.43573	132.53981	44.65366	0.34855	 	1201932.545	 	5.69785E-6	 	27737.7433	36.75913	 
1125.0	1.0	0.0	7.64148	7.26368	-5.33979	18.58852	29.40747	1.16483	0.85849	120.91523	132.92554	44.83681	0.34839	 	1307977.005	 	5.21723E-6	 	27554.31437	36.68579	 
1120.0	1.0	0.0	7.64398	7.26131	-5.37068	18.56795	29.32656	1.16387	0.85921	121.39383	133.30956	45.01968	0.34823	 	1424218.759	 	4.77428E-6	 	27371.25088	36.6127	 
1115.0	1.0	0.0	7.64647	7.25894	-5.40152	18.5474	29.24565	1.1629	0.85992	121.87155	133.69189	45.20226	0.34807	 	1551717.698	 	4.36627E-6	 	27188.55163	36.53985	 
1110.0	1.0	0.0	7.64896	7.25658	-5.43229	18.52687	29.16473	1.16192	0.86064	122.34837	134.07252	45.38455	0.34791	 	1691652.077	 	3.99066E-6	 	27006.21538	36.46725	 
1105.0	1.0	0.0	7.65144	7.25423	-5.46301	18.50634	29.0838	1.16094	0.86137	122.8243	134.45146	45.56654	0.34775	 	1845332.423	 	3.64509E-6	 	26824.24092	36.39489	 
1100.0	1.0	0.0	7.65392	7.25187	-5.49367	18.48583	29.00287	1.15996	0.8621	123.29933	134.82872	45.74825	0.34759	 	2014217.711	 	3.32735E-6	 	26642.62698	36.32279	 
1095.0	1.0	0.0	7.6564	7.24952	-5.52427	18.46534	28.92193	1.15897	0.86283	123.77348	135.2043	45.92967	0.34742	 	2199932.865	 	3.03537E-6	 	26461.37233	36.25093	 
1090.0	1.0	0.0	7.65888	7.24718	-5.55481	18.44486	28.84099	1.15798	0.86358	124.24674	135.57821	46.11079	0.34726	 	2404289.442	 	2.76722E-6	 	26280.4757	36.17932	 
1085.0	1.0	0.0	7.66135	7.24484	-5.58529	18.4244	28.76004	1.15698	0.86432	124.71911	135.95046	46.29163	0.3471	 	2629308.128	 	2.52112E-6	 	26099.93587	36.10797	 
1081.72	1.0	0.0	7.66297	7.24331	-5.60526	18.41095	28.70692	1.15632	0.86481	125.02855	136.19377	46.41011	0.347	 	2789237.804	 	2.37082E-6	 	25981.68082	 	 
1080.0	1.0	0.0	7.66385	7.24248	-5.61602	18.40284	28.68021	1.15593	0.86511	125.1941	136.32328	46.47353	0.34694	 	2877416.026	 	2.29525E-6	 	25918.42018	36.30314	 
1075.0	1.0	0.0	7.66639	7.24008	-5.64737	18.37888	28.60239	1.15479	0.86596	125.67457	136.69827	46.65764	0.34677	 	3151320.431	 	2.08801E-6	 	25734.75855	36.73233	 
1070.0	1.0	0.0	7.66895	7.23767	-5.67882	18.35435	28.52475	1.15364	0.86682	126.15375	137.07091	46.84132	0.34661	 	3453517.784	 	1.89823E-6	 	25551.47955	36.6558	 
1065.0	1.0	0.0	7.67152	7.23524	-5.71042	18.32905	28.44736	1.15247	0.8677	126.63189	137.44131	47.02466	0.34644	 	3787166.948	 	1.72456E-6	 	25368.46651	36.60261	 
1060.0	1.0	0.0	7.67411	7.2328	-5.74224	18.30266	28.37039	1.15128	0.8686	127.10931	137.80956	47.20781	0.34627	 	4155807.278	 	1.56571E-6	 	25185.56334	36.58063	 
1055.0	1.0	0.0	7.67673	7.23033	-5.77442	18.27477	28.29407	1.15005	0.86953	127.58645	138.17577	47.39093	0.34611	 	4563408.05	 	1.42051E-6	 	25002.5524	36.60219	 
1050.0	1.0	0.0	7.67939	7.22782	-5.8071	18.24473	28.21878	1.14878	0.87049	128.0639	138.54004	47.57428	0.34594	 	5014425.917	 	1.28788E-6	 	24819.12511	36.68546	 
1045.54	1.0	0.0	7.68182	7.22553	-5.83691	18.21537	28.15284	1.14759	0.87139	128.4911	138.86375	47.73842	0.34578	 	5457896.11	 	1.17924E-6	 	24654.65769	 	 
1045.0	1.0	0.0	7.68209	7.22528	-5.84021	18.21285	28.14437	1.14746	0.87149	128.54159	138.90251	47.75781	0.34577	 	5513960.502	 	1.16678E-6	 	24635.36102	36.75282	 
1040.0	1.0	0.0	7.6846	7.22292	-5.87094	18.18942	28.06522	1.14634	0.87234	129.01243	139.26347	47.93857	0.3456	 	6068365.446	 	1.05616E-6	 	24455.43548	35.98511	 
1035.0	1.0	0.0	7.6871	7.22057	-5.90158	18.16608	27.986	1.1452	0.87321	129.48204	139.62257	48.11892	0.34544	 	6683208.556	 	9.55343E-7	 	24275.96014	35.89507	 
1030.0	1.0	0.0	7.6896	7.21823	-5.93214	18.14282	27.90671	1.14407	0.87407	129.95043	139.97983	48.29884	0.34527	 	7365585.515	 	8.63523E-7	 	24096.93134	35.80576	 
1025.0	1.0	0.0	7.69209	7.21589	-5.96261	18.11964	27.82735	1.14293	0.87495	130.41763	140.33525	48.47836	0.34511	 	8123483.293	 	7.79955E-7	 	23918.34554	35.71716	 
1020.0	1.0	0.0	7.69458	7.21356	-5.993	18.09657	27.74792	1.14179	0.87582	130.88362	140.68886	48.65746	0.34495	 	8965901.762	 	7.0395E-7	 	23740.19891	35.62933	 
1015.0	1.0	0.0	7.69706	7.21123	-6.0233	18.07358	27.66842	1.14064	0.8767	131.34844	141.04067	48.83617	0.34479	 	9902988.436	 	6.34873E-7	 	23562.48771	35.54224	 
1010.0	1.0	0.0	7.69953	7.20891	-6.05351	18.05069	27.58886	1.13949	0.87759	131.81208	141.39069	49.01446	0.34462	 	1.094619562E7	 	5.72138E-7	 	23385.20802	35.45594	 
1005.0	1.0	0.0	7.702	7.2066	-6.08364	18.0279	27.50923	1.13833	0.87848	132.27456	141.73895	49.19237	0.34446	 	1.210845904E7	 	5.15205E-7	 	23208.35613	35.37038	 
1000.0	1.0	0.0	7.70447	7.2043	-6.11367	18.00521	27.42953	1.13717	0.87937	132.73588	142.08544	49.36987	0.3443	 	1.340440264E7	 	4.63574E-7	 	23031.92804	35.28562	 
995.0	1.0	0.0	7.70693	7.202	-6.14363	17.98261	27.34977	1.13601	0.88027	133.19606	142.4302	49.54699	0.34414	 	1.48505722E7	 	4.16787E-7	 	22855.91968	35.20167	 
990.0	1.0	0.0	7.70938	7.19971	-6.1735	17.9601	27.26995	1.13485	0.88118	133.65511	142.77322	49.72372	0.34398	 	1.646570645E7	 	3.74422E-7	 	22680.32703	35.11853	 
985.0	1.0	0.0	7.71183	7.19742	-6.20328	17.9377	27.19006	1.13367	0.88209	134.11304	143.11453	49.90007	0.34382	 	1.827104485E7	 	3.3609E-7	 	22505.14629	35.03615	 
980.0	1.0	0.0	7.71427	7.19514	-6.23298	17.91538	27.11012	1.1325	0.883	134.56986	143.45414	50.07604	0.34366	 	2.02906843E7	 	3.01435E-7	 	22330.37318	34.95462	 
975.0	1.0	0.0	7.71671	7.19287	-6.26259	17.89317	27.03011	1.13132	0.88392	135.02558	143.79205	50.25163	0.34349	 	2.255198676E7	 	2.70127E-7	 	22156.00399	34.87384	 
970.0	1.0	0.0	7.71914	7.1906	-6.29213	17.87104	26.95005	1.13013	0.88485	135.4802	144.1283	50.42686	0.34333	 	2.508605186E7	 	2.41868E-7	 	21982.03454	34.79389	 
965.0	1.0	0.0	7.72157	7.18834	-6.32158	17.84901	26.86993	1.12894	0.88578	135.93376	144.46288	50.60172	0.34317	 	2.792826195E7	 	2.16379E-7	 	21808.46082	34.71474	 
960.0	1.0	0.0	7.72399	7.18609	-6.35094	17.82707	26.78976	1.12775	0.88672	136.38624	144.79581	50.77621	0.34301	 	3.111890494E7	 	1.9341E-7	 	21635.27896	34.63637	 
955.0	1.0	0.0	7.72641	7.18384	-6.38023	17.80523	26.70954	1.12655	0.88766	136.83767	145.1271	50.95035	0.34285	 	3.470390326E7	 	1.72727E-7	 	21462.48513	34.55877	 
950.0	1.0	0.0	7.72882	7.1816	-6.40943	17.78347	26.62926	1.12535	0.88861	137.28805	145.45678	51.12413	0.34269	 	3.873565127E7	 	1.54119E-7	 	21290.07531	34.48196	 
945.0	1.0	0.0	7.73122	7.17937	-6.43856	17.7618	26.54893	1.12414	0.88957	137.73739	145.78484	51.29756	0.34253	 	4.327398338E7	 	1.37392E-7	 	21118.04585	34.40589	 
940.0	1.0	0.0	7.73362	7.17714	-6.4676	17.74022	26.46856	1.12292	0.89053	138.18571	146.1113	51.47065	0.34237	 	4.838730182E7	 	1.22369E-7	 	20946.39265	34.33064	 
935.0	1.0	0.0	7.73602	7.17492	-6.49657	17.71873	26.38813	1.1217	0.8915	138.63301	146.43618	51.64339	0.34221	 	5.415387988E7	 	1.08887E-7	 	20775.11222	34.25609	 
930.9	1.0	0.0	7.73798	7.1731	-6.52024	17.70119	26.32223	1.1207	0.8923	138.99866	146.70112	51.78463	0.34208	 	5.942627649E7	 	9.88904E-8	 	20635.08764	 	 
930.0	1.0	0.0	7.73863	7.1725	-6.5281	17.68643	26.30063	1.12078	0.89224	139.12133	146.783	51.83231	0.34203	 	6.07686894E7	 	9.66333E-8	 	20590.98157	36.82613	 
925.0	1.0	0.0	7.74221	7.16918	-6.57129	17.60532	26.18146	1.1212	0.8919	139.79326	147.23123	52.09351	0.34175	 	6.878741685E7	 	8.50137E-8	 	20348.41963	48.51239	 
920.0	1.0	0.0	7.74575	7.1659	-6.61407	17.52505	26.06456	1.12153	0.89164	140.45485	147.67217	52.35075	0.34148	 	7.792684583E7	 	7.47299E-8	 	20107.97266	48.08939	 
915.0	1.0	0.0	7.74927	7.16265	-6.65643	17.44559	25.94959	1.12178	0.89144	141.10644	148.10606	52.60415	0.34121	 	8.835271264E7	 	6.56354E-8	 	19869.59266	47.676	 
910.0	1.0	0.0	7.75275	7.15943	-6.6984	17.36693	25.83641	1.12195	0.8913	141.74836	148.53311	52.85385	0.34095	 	1.002566607E8	 	5.75988E-8	 	19633.23386	47.27176	 
905.0	1.0	0.0	7.75621	7.15624	-6.73998	17.28904	25.72494	1.12205	0.89123	142.38092	148.95353	53.09996	0.34069	 	1.138605272E8	 	5.05026E-8	 	19398.85195	46.87638	 
900.0	1.0	0.0	7.75964	7.15308	-6.78117	17.21189	25.6151	1.12208	0.8912	143.00443	149.36752	53.34261	0.34043	 	1.294213564E8	 	4.4242E-8	 	19166.40471	46.48945	 
895.0	1.0	0.0	7.76304	7.14995	-6.82198	17.13547	25.50689	1.12204	0.89124	143.61916	149.77526	53.58189	0.34018	 	1.472373058E8	 	3.87229E-8	 	18935.85159	46.11062	 
890.0	1.0	0.0	7.76641	7.14684	-6.86243	17.05975	25.40012	1.12193	0.89132	144.22541	150.17694	53.81793	0.33994	 	1.676545885E8	 	3.38616E-8	 	18707.15337	45.73964	 
885.0	1.0	0.0	7.76975	7.14377	-6.90252	16.98471	25.29478	1.12176	0.89146	144.82344	150.57273	54.05081	0.3397	 	1.910756776E8	 	2.95833E-8	 	18480.27234	45.37621	 
880.0	1.0	0.0	7.77307	7.14072	-6.94226	16.91035	25.19083	1.12153	0.89164	145.4135	150.96279	54.28065	0.33946	 	2.179689072E8	 	2.58213E-8	 	18255.17221	45.02003	 
875.0	1.0	0.0	7.77636	7.13769	-6.98165	16.83663	25.08822	1.12123	0.89188	145.99585	151.34728	54.50753	0.33923	 	2.488799577E8	 	2.25162E-8	 	18031.81697	44.67105	 
870.0	1.0	0.0	7.77963	7.1347	-7.0207	16.76355	24.98688	1.12088	0.89216	146.57073	151.72635	54.73155	0.339	 	2.844452507E8	 	1.96151E-8	 	17810.17334	44.32873	 
865.0	1.0	0.0	7.78287	7.13173	-7.05941	16.69107	24.88677	1.12046	0.89249	147.13837	152.10015	54.95281	0.33877	 	3.254079575E8	 	1.7071E-8	 	17590.20829	43.99301	 
860.0	1.0	0.0	7.78608	7.12878	-7.0978	16.6192	24.78783	1.11999	0.89286	147.69899	152.46882	55.17138	0.33855	 	3.726369079E8	 	1.48419E-8	 	17371.88977	43.6637	 
855.0	1.0	0.0	7.78927	7.12586	-7.13586	16.54791	24.69003	1.11947	0.89328	148.25282	152.8325	55.38735	0.33833	 	4.271490071E8	 	1.28906E-8	 	17155.18667	43.34062	 
850.0	1.0	0.0	7.79244	7.12296	-7.17361	16.47719	24.59331	1.11889	0.89374	148.80007	153.19132	55.6008	0.33811	 	4.901360125E8	 	1.11843E-8	 	16940.06867	43.0236	 
845.0	1.0	0.0	7.79474	7.12086	-7.20098	16.45294	24.51555	1.11744	0.8949	149.22257	153.48368	55.76494	0.33796	 	5.590884679E8	 	9.76127E-9	 	16779.06336	32.20106	 
840.0	1.0	0.0	7.79703	7.11877	-7.22828	16.42867	24.43778	1.11598	0.89607	149.64437	153.77481	55.92885	0.33781	 	6.384957171E8	 	8.50908E-9	 	16615.04059	32.80455	 
835.0	1.0	0.0	7.79932	7.11668	-7.25552	16.40439	24.36001	1.11452	0.89725	150.06547	154.0647	56.09254	0.33766	 	7.300555833E8	 	7.40848E-9	 	16451.28831	32.75045	 
830.0	1.0	0.0	7.80161	7.11459	-7.2827	16.3801	24.28224	1.11304	0.89844	150.48587	154.35337	56.25601	0.33751	 	8.357597011E8	 	6.44228E-9	 	16287.80597	32.69647	 
825.0	1.0	0.0	7.80389	7.11251	-7.30982	16.3558	24.20446	1.11156	0.89964	150.90558	154.64081	56.41925	0.33736	 	9.579474675E8	 	5.59508E-9	 	16124.593	32.6426	 
820.0	1.0	0.0	7.80617	7.11044	-7.33687	16.33149	24.12668	1.11006	0.90085	151.32458	154.92703	56.58226	0.33721	 	1.099370468E9	 	4.85314E-9	 	15961.6488	32.58884	 
815.0	1.0	0.0	7.80845	7.10836	-7.36386	16.30716	24.0489	1.10856	0.90207	151.74289	155.21204	56.74505	0.33706	 	1.26326952E9	 	4.20416E-9	 	15798.9728	32.5352	 
810.0	1.0	0.0	7.81072	7.1063	-7.39079	16.28283	23.97111	1.10705	0.9033	152.1605	155.49583	56.90761	0.33691	 	1.45346694E9	 	3.63722E-9	 	15636.56442	32.48168	 
805.0	1.0	0.0	7.81298	7.10424	-7.41766	16.25848	23.89332	1.10553	0.90455	152.57741	155.77841	57.06994	0.33676	 	1.674477204E9	 	3.14258E-9	 	15474.42306	32.42827	 
800.0	1.0	0.0	7.81525	7.10218	-7.44446	16.23412	23.81552	1.10399	0.9058	152.99363	156.05979	57.23205	0.33661	 	1.931639862E9	 	2.71157E-9	 	15312.54811	32.37499	 
795.0	1.0	0.0	7.8175	7.10013	-7.4712	16.20975	23.73772	1.10245	0.90707	153.40914	156.33996	57.39394	0.33646	 	2.231279424E9	 	2.3365E-9	 	15150.93898	32.32183	 
790.0	1.0	0.0	7.81976	7.09808	-7.49787	16.18536	23.65991	1.1009	0.90835	153.82396	156.61893	57.5556	0.33631	 	2.580897992E9	 	2.01053E-9	 	14989.59504	32.26879	 
785.0	1.0	0.0	7.82201	7.09604	-7.52449	16.16097	23.5821	1.09934	0.90964	154.23809	156.89671	57.71703	0.33616	 	2.989407689E9	 	1.72762E-9	 	14828.51568	32.21587	 
780.0	1.0	0.0	7.82426	7.094	-7.55104	16.13656	23.50428	1.09776	0.91094	154.65151	157.1733	57.87824	0.33601	 	3.467411556E9	 	1.48242E-9	 	14667.70027	32.16308	 
775.0	1.0	0.0	7.8265	7.09197	-7.57753	16.11214	23.42646	1.09618	0.91226	155.06424	157.4487	58.03922	0.33586	 	4.027543561E9	 	1.27019E-9	 	14507.14817	32.11042	 
770.0	1.0	0.0	7.82874	7.08994	-7.60395	16.08771	23.34864	1.09459	0.91358	155.47628	157.72291	58.19998	0.33571	 	4.68488082E9	 	1.08676E-9	 	14346.85874	32.05788	 
765.0	1.0	0.0	7.83097	7.08792	-7.63032	16.06327	23.27081	1.09299	0.91492	155.88761	157.99595	58.36051	0.33556	 	5.457444188E9	 	9.28448E-10	 	14186.83133	32.00548	 
760.0	1.0	0.0	7.8332	7.0859	-7.65661	16.03882	23.19298	1.09137	0.91628	156.29825	158.2678	58.52081	0.33541	 	6.36680716E9	 	7.92006E-10	 	14027.06526	31.95321	 
755.0	1.0	0.0	7.83543	7.08389	-7.68285	16.01435	23.11514	1.08975	0.91764	156.70819	158.53849	58.68089	0.33526	 	7.438837768E9	 	6.74587E-10	 	13867.55987	31.90108	 
750.0	1.0	0.0	7.83765	7.08188	-7.70902	15.98988	23.03729	1.08811	0.91902	157.11744	158.808	58.84074	0.33511	 	8.704604052E9	 	5.7369E-10	 	13708.31446	31.84908	 
745.0	1.0	0.0	7.83987	7.07988	-7.73513	15.96539	22.95944	1.08647	0.92041	157.52599	159.07634	59.00037	0.33496	 	1.02015E10	 	4.87119E-10	 	13549.32834	31.79722	 
740.0	1.0	0.0	7.84208	7.07788	-7.76118	15.94089	22.88159	1.08481	0.92182	157.93385	159.34352	59.15977	0.33481	 	1.1974499999999998E10	 	4.12955E-10	 	13390.60081	31.74551	 
735.0	1.0	0.0	7.84429	7.07588	-7.78716	15.91638	22.80372	1.08314	0.92324	158.34101	159.60955	59.31895	0.33466	 	1.4077999999999998E10	 	3.49518E-10	 	13232.13111	31.69394	 
730.0	1.0	0.0	7.8465	7.07389	-7.81308	15.89186	22.72586	1.08146	0.92467	158.74747	159.87441	59.4779	0.33451	 	1.6577799999999998E10	 	2.95342E-10	 	13073.91853	31.64252	 
725.0	1.0	0.0	7.8487	7.07191	-7.83894	15.86732	22.64799	1.07977	0.92612	159.15324	160.13812	59.63662	0.33436	 	1.95535E10	 	2.49148E-10	 	12915.96229	31.59125	 
720.0	1.0	0.0	7.85089	7.06993	-7.86473	15.84278	22.57011	1.07807	0.92758	159.55832	160.40068	59.79512	0.33421	 	2.31016E10	 	2.09826E-10	 	12758.26164	31.54013	 
715.0	1.0	0.0	7.85309	7.06796	-7.89046	15.81822	22.49222	1.07636	0.92906	159.9627	160.6621	59.95339	0.33406	 	2.7339699999999996E10	 	1.76407E-10	 	12600.81577	31.48917	 
710.0	1.0	0.0	7.85528	7.06599	-7.91612	15.79365	22.41433	1.07463	0.93055	160.36638	160.92237	60.11143	0.33391	 	3.2410799999999996E10	 	1.48053E-10	 	12443.62386	31.43838	 
705.0	1.0	0.0	7.85746	7.06402	-7.94172	15.76907	22.33644	1.0729	0.93206	160.76937	161.1815	60.26925	0.33376	 	3.84893E10	 	1.24037E-10	 	12286.6851	31.38775	 
700.0	1.0	0.0	7.85964	7.06206	-7.96726	15.74448	22.25853	1.07115	0.93358	161.17167	161.4395	60.42684	0.33361	 	4.57887E10	 	1.03731E-10	 	12129.99863	31.33729	 
695.0	1.0	0.0	7.86182	7.06011	-7.99274	15.71987	22.18062	1.06939	0.93511	161.57327	161.69636	60.58421	0.33346	 	5.457009999999999E10	 	8.65913E-11	 	11973.56355	31.28702	 
690.0	1.0	0.0	7.86399	7.05816	-8.01815	15.69526	22.10271	1.06761	0.93667	161.97418	161.95209	60.74135	0.33331	 	6.515429999999999E10	 	7.21502E-11	 	11817.37898	31.23691	 
685.0	1.0	0.0	7.86616	7.05621	-8.04349	15.67063	22.02479	1.06583	0.93824	162.37439	162.2067	60.89827	0.33316	 	7.79354E10	 	6.00047E-11	 	11661.44398	31.187	 
680.0	1.0	0.0	7.86832	7.05427	-8.06878	15.64599	21.94686	1.06403	0.93982	162.77391	162.46018	61.05495	0.33301	 	9.339899999999998E10	 	4.98087E-11	 	11505.75758	31.13728	 
675.0	1.0	0.0	7.87048	7.05234	-8.094	15.62134	21.86892	1.06222	0.94142	163.17273	162.71254	61.21141	0.33286	 	1.12145E11	 	4.12653E-11	 	11350.31878	31.08776	 
670.0	1.0	0.0	7.87263	7.05041	-8.11915	15.59668	21.79098	1.0604	0.94304	163.57086	162.96379	61.36765	0.33271	 	1.34914E11	 	3.412E-11	 	11195.12656	31.03844	 
665.0	1.0	0.0	7.87478	7.04848	-8.14424	15.57201	21.71302	1.05857	0.94467	163.9683	163.21392	61.52366	0.33256	 	1.62627E11	 	2.81557E-11	 	11040.17987	30.98934	 
660.0	1.0	0.0	7.87693	7.04656	-8.16927	15.54732	21.63507	1.05672	0.94633	164.36504	163.46294	61.67944	0.33241	 	1.96425E11	 	2.31868E-11	 	10885.47943	30.94009	 
655.0	1.0	0.0	7.87907	7.04465	-8.19423	15.52262	21.5571	1.05486	0.948	164.76109	163.71086	61.835	0.33226	 	2.3773E11	 	1.90555E-11	 	10731.03515	30.88886	 
650.0	1.0	0.0	7.88121	7.04274	-8.21913	15.49791	21.47913	1.05298	0.94968	165.15645	163.95767	61.99032	0.33211	 	2.88317E11	 	1.56275E-11	 	10576.86024	30.83498	 
645.0	1.0	0.0	7.88334	7.04083	-8.24397	15.47319	21.40114	1.0511	0.95139	165.55112	164.20338	62.14543	0.33197	 	3.50404E11	 	1.27889E-11	 	10422.9541	30.78123	 
640.0	1.0	0.0	7.88547	7.03893	-8.26874	15.44846	21.32315	1.0492	0.95311	165.94509	164.44799	62.3003	0.33182	 	4.2677E11	 	1.04432E-11	 	10269.31612	30.7276	 
635.0	1.0	0.0	7.8876	7.03703	-8.29344	15.42372	21.24516	1.04728	0.95485	166.33836	164.69151	62.45495	0.33167	 	5.2091E11	 	8.50906E-12	 	10115.94568	30.67409	 
630.0	1.0	0.0	7.88972	7.03514	-8.31808	15.39896	21.16715	1.04535	0.95661	166.73095	164.93394	62.60937	0.33152	 	6.37221E11	 	6.91762E-12	 	9962.84218	30.6207	 
625.0	1.0	0.0	7.89183	7.03326	-8.34266	15.3742	21.08913	1.04341	0.95839	167.12284	165.17528	62.76357	0.33137	 	7.81252E11	 	5.61105E-12	 	9810.00472	30.56749	 
620.0	1.0	0.0	7.89394	7.03138	-8.36717	15.34942	21.01111	1.04146	0.96019	167.51404	165.41553	62.91754	0.33122	 	9.60028E11	 	4.54075E-12	 	9657.43205	30.51453	 
615.0	1.0	0.0	7.89605	7.0295	-8.39162	15.32463	20.93308	1.03949	0.96201	167.90455	165.6547	63.07128	0.33107	 	1.18245E12	 	3.66597E-12	 	9505.1239	30.46163	 
610.0	1.0	0.0	7.89815	7.02763	-8.41601	15.29983	20.85504	1.0375	0.96385	168.29437	165.8928	63.2248	0.33092	 	1.45985E12	 	2.95265E-12	 	9353.07969	30.40884	 
605.0	1.0	0.0	7.90025	7.02576	-8.44033	15.27501	20.77699	1.03551	0.96571	168.68349	166.12981	63.37809	0.33077	 	1.80666E12	 	2.37235E-12	 	9201.29881	30.35617	 
600.0	1.0	0.0	7.90234	7.0239	-8.46458	15.25019	20.69892	1.03349	0.96759	169.07192	166.36576	63.53115	0.33062	 	2.24132E12	 	1.9014E-12	 	9049.78069	30.30362	 
595.0	1.0	0.0	7.90443	7.02205	-8.48877	15.22535	20.62085	1.03146	0.9695	169.45966	166.60064	63.68398	0.33047	 	2.78746E12	 	1.5201E-12	 	8898.52473	30.25119	 
590.0	1.0	0.0	7.90652	7.02019	-8.5129	15.2005	20.54277	1.02942	0.97142	169.84671	166.83444	63.83659	0.33032	 	3.47546E12	 	1.21216E-12	 	8747.53035	30.19888	 
585.0	1.0	0.0	7.9086	7.01835	-8.53696	15.17564	20.46468	1.02736	0.97337	170.23306	167.06719	63.98897	0.33018	 	4.34441E12	 	9.64093E-13	 	8596.79697	30.14668	 
580.0	1.0	0.0	7.91067	7.01651	-8.56095	15.15077	20.38658	1.02529	0.97533	170.61873	167.29887	64.14112	0.33003	 	5.44486E12	 	7.64761E-13	 	8446.324	30.09459	 
575.0	1.0	0.0	7.91274	7.01467	-8.58488	15.12589	20.30847	1.0232	0.97732	171.0037	167.5295	64.29305	0.32988	 	6.84223E12	 	6.05008E-13	 	8296.11088	30.04262	 
570.0	1.0	0.0	7.91481	7.01284	-8.60875	15.101	20.23035	1.0211	0.97934	171.38798	167.75907	64.44475	0.32973	 	8.62156E12	 	4.77315E-13	 	8146.15702	29.99077	 
565.0	1.0	0.0	7.91687	7.01101	-8.63255	15.07609	20.15222	1.01898	0.98138	171.77157	167.9876	64.59622	0.32958	 	1.08936E13	 	3.75523E-13	 	7996.46186	29.93903	 
560.0	1.0	0.0	7.91893	7.00919	-8.65629	15.05117	20.07407	1.01684	0.98344	172.15447	168.21507	64.74746	0.32943	 	1.38031E13	 	2.946E-13	 	7847.02482	29.88741	 
555.0	1.0	0.0	7.92098	7.00738	-8.67996	15.02624	19.99592	1.01469	0.98552	172.53667	168.44149	64.89848	0.32928	 	1.75398E13	 	2.30448E-13	 	7697.84535	29.83589	 
550.0	1.0	0.0	7.92303	7.00556	-8.70357	15.0013	19.91775	1.01252	0.98763	172.91819	168.66688	65.04927	0.32913	 	2.23529E13	 	1.79735E-13	 	7548.92286	29.7845	 
545.0	1.0	0.0	7.92507	7.00376	-8.72711	14.97635	19.83957	1.01034	0.98977	173.29902	168.89122	65.19983	0.32898	 	2.85714E13	 	1.39762E-13	 	7400.25682	29.73321	 
540.0	1.0	0.0	7.92711	7.00196	-8.75058	14.95138	19.76138	1.00814	0.99193	173.67915	169.11453	65.35017	0.32883	 	3.66303E13	 	1.08347E-13	 	7251.84665	29.68203	 
535.0	1.0	0.0	7.92915	7.00016	-8.77399	14.92641	19.68318	1.00592	0.99412	174.05859	169.3368	65.50027	0.32869	 	4.71069E13	 	8.37325E-14	 	7103.69181	29.63097	 
530.0	1.0	0.0	7.93118	6.99837	-8.79734	14.90142	19.60496	1.00368	0.99633	174.43735	169.55805	65.65015	0.32854	 	6.07699E13	 	6.45052E-14	 	6955.79173	29.58002	 
525.0	1.0	0.0	7.9332	6.99658	-8.82062	14.87642	19.52673	1.00143	0.99857	174.81541	169.77826	65.79981	0.32839	 	7.86463E13	 	4.95328E-14	 	6808.14589	29.52917	 
520.0	1.0	0.0	7.93522	6.9948	-8.84383	14.85141	19.44849	0.99916	1.00084	175.19278	169.99745	65.94923	0.32824	 	1.02113E14	 	3.79107E-14	 	6660.75373	29.47843	 
515.0	1.0	0.0	7.93724	6.99302	-8.86698	14.82639	19.37023	0.99687	1.00314	175.56947	170.21562	66.09843	0.32809	 	1.3302099999999998E14	 	2.89184E-14	 	6513.61471	29.4278	 
510.0	1.0	0.0	7.93925	6.99125	-8.89007	14.80135	19.29196	0.99457	1.00546	175.94546	170.43276	66.2474	0.32794	 	1.73871E14	 	2.19839E-14	 	6366.7283	29.37728	 
505.0	1.0	0.0	7.94125	6.98949	-8.91309	14.77631	19.21368	0.99224	1.00782	176.32076	170.64889	66.39614	0.32779	 	2.2805E14	 	1.66541E-14	 	6220.09396	29.32687	 
500.0	1.0	0.0	7.94326	6.98772	-8.93604	14.75125	19.13538	0.9899	1.0102	176.69537	170.86401	66.54465	0.32765	 	3.00161E14	 	1.25717E-14	 	6073.71116	29.27656	 
495.0	1.0	0.0	7.94525	6.98597	-8.95893	14.72618	19.05707	0.98754	1.01261	177.06929	171.07811	66.69293	0.3275	 	3.96491E14	 	9.45582E-15	 	5927.57938	29.22636	 
490.0	1.0	0.0	7.94724	6.98422	-8.98175	14.7011	18.97874	0.98516	1.01506	177.44253	171.29121	66.84099	0.32735	 	5.2564999999999994E14	 	7.08598E-15	 	5781.69811	29.17625	 
485.0	1.0	0.0	7.94923	6.98247	-9.0045	14.67601	18.90039	0.98277	1.01754	177.81507	171.5033	66.98882	0.3272	 	6.99479E14	 	5.29014E-15	 	5636.06681	29.12626	 
480.0	1.0	0.0	7.95121	6.98073	-9.02719	14.65091	18.82203	0.98035	1.02004	178.18692	171.71439	67.13642	0.32705	 	9.34329E14	 	3.93431E-15	 	5490.68499	29.07636	 
475.0	1.0	0.0	7.95319	6.97899	-9.04982	14.62579	18.74366	0.97791	1.02259	178.55808	171.92448	67.28379	0.3269	 	1.25287E15	 	2.91454E-15	 	5345.55214	29.02657	 
470.0	1.0	0.0	7.95517	6.97726	-9.07238	14.60066	18.66526	0.97546	1.02516	178.92856	172.13357	67.43094	0.32675	 	1.68665E15	 	2.15049E-15	 	5200.66774	28.97688	 
465.0	1.0	0.0	7.95713	6.97554	-9.09487	14.57552	18.58686	0.97298	1.02777	179.29834	172.34166	67.57786	0.32661	 	2.27979E15	 	1.58029E-15	 	5056.03131	28.92729	 
460.0	1.0	0.0	7.9591	6.97382	-9.1173	14.55037	18.50843	0.97049	1.03041	179.66744	172.54877	67.72454	0.32646	 	3.09421E15	 	1.15646E-15	 	4911.64236	28.87779	 
455.0	1.0	0.0	7.96106	6.9721	-9.13966	14.52521	18.42998	0.96797	1.03309	180.03584	172.75488	67.871	0.32631	 	4.21723E15	 	8.42715E-16	 	4767.5004	28.82839	 
450.0	1.0	0.0	7.96301	6.97039	-9.16195	14.50004	18.35152	0.96543	1.0358	180.40356	172.96001	68.01724	0.32616	 	5.77249E15	 	6.11438E-16	 	4623.60494	28.77909	 
445.0	1.0	0.0	7.96496	6.96868	-9.18418	14.47485	18.27304	0.96288	1.03856	180.77059	173.16416	68.16324	0.32601	 	7.93592E15	 	4.41677E-16	 	4479.95553	28.72988	 
440.0	1.0	0.0	7.9669	6.96698	-9.20634	14.44966	18.19454	0.9603	1.04134	181.13693	173.36732	68.30901	0.32586	 	1.0959E16	 	3.17612E-16	 	4336.55167	28.68077	 
435.0	1.0	0.0	7.96884	6.96529	-9.22844	14.42445	18.11602	0.9577	1.04417	181.50258	173.56951	68.45456	0.32572	 	1.52028E16	 	2.27347E-16	 	4193.39292	28.63175	 
430.0	1.0	0.0	7.97078	6.9636	-9.25047	14.39923	18.03748	0.95508	1.04704	181.86754	173.77072	68.59988	0.32557	 	2.11883E16	 	1.61971E-16	 	4050.4788	28.58282	 
425.0	1.0	0.0	7.97271	6.96191	-9.27244	14.374	17.95892	0.95243	1.04994	182.23181	173.97095	68.74497	0.32542	 	2.96712E16	 	1.14842E-16	 	3907.80892	28.53398	 
420.0	1.0	0.0	7.97463	6.96023	-9.29433	14.34875	17.88034	0.94977	1.05289	182.5954	174.17022	68.88983	0.32527	 	4.17526E16	 	8.1027E-17	 	3765.38276	28.48523	 
415.0	1.0	0.0	7.97655	6.95856	-9.31617	14.3235	17.80174	0.94708	1.05588	182.95829	174.36852	69.03446	0.32512	 	5.90457E16	 	5.68829E-17	 	3623.20001	28.43655	 
410.0	1.0	0.0	7.97847	6.95689	-9.33793	14.29823	17.72312	0.94437	1.05891	183.3205	174.56585	69.17886	0.32497	 	8.39259E16	 	3.97289E-17	 	3481.26039	28.38792	 
405.0	1.0	0.0	7.98038	6.95522	-9.35963	14.27295	17.64447	0.94164	1.06198	183.68202	174.76222	69.32303	0.32483	 	1.1991E17	 	2.7603E-17	 	3339.56365	28.33935	 
400.0	1.0	0.0	7.98228	6.95356	-9.38126	14.24766	17.5658	0.93888	1.0651	184.04285	174.95763	69.46698	0.32468	 	1.72233E17	 	1.90758E-17	 	3198.10949	28.29083	 
395.0	1.0	0.0	7.98418	6.95191	-9.40283	14.22236	17.48711	0.9361	1.06826	184.40299	175.15209	69.6107	0.32453	 	2.48732E17	 	1.31108E-17	 	3056.89769	28.24236	 
390.0	1.0	0.0	7.98608	6.95026	-9.42433	14.19705	17.4084	0.9333	1.07147	184.76245	175.34559	69.75418	0.32438	 	3.61205E17	 	8.96075E-18	 	2915.92799	28.19394	 
385.0	1.0	0.0	7.98797	6.94861	-9.44576	14.17172	17.32966	0.93047	1.07473	185.12121	175.53813	69.89744	0.32423	 	5.27519E17	 	6.08939E-18	 	2775.20016	28.14557	 
380.0	1.0	0.0	7.98985	6.94697	-9.46713	14.14639	17.25089	0.92761	1.07803	185.47929	175.72973	70.04047	0.32409	 	7.7489E17	 	4.11396E-18	 	2634.71397	28.09724	 
375.0	1.0	0.0	7.99173	6.94534	-9.48843	14.12104	17.1721	0.92474	1.08139	185.83668	175.92038	70.18327	0.32394	 	1.14503E18	 	2.76276E-18	 	2494.4692	28.04895	 
370.0	1.0	0.0	7.99361	6.94371	-9.50966	14.09568	17.09328	0.92183	1.08479	186.19338	176.11009	70.32584	0.32379	 	1.70229E18	 	1.84402E-18	 	2354.46565	28.00071	 
365.0	1.0	0.0	7.99548	6.94208	-9.53082	14.07031	17.01444	0.91891	1.08825	186.5494	176.29885	70.46818	0.32364	 	2.54653E18	 	1.2231E-18	 	2214.70313	27.9525	 
360.0	1.0	0.0	7.99734	6.94047	-9.55192	14.04493	16.93556	0.91595	1.09176	186.90473	176.48668	70.61029	0.32349	 	3.83376E18	 	8.06062E-19	 	2075.18142	27.90434	 
355.0	1.0	0.0	7.9992	6.93885	-9.57296	14.01953	16.85666	0.91297	1.09532	187.25937	176.67356	70.75217	0.32335	 	5.80939E18	 	5.2774E-19	 	1935.90038	27.85621	 
350.0	1.0	0.0	8.00106	6.93724	-9.59392	13.99413	16.77773	0.90997	1.09894	187.61332	176.85952	70.89383	0.3232	 	8.86201E18	 	3.432E-19	 	1796.85984	27.80811	 
345.0	1.0	0.0	8.00291	6.93564	-9.61482	13.96871	16.69877	0.90693	1.10262	187.96658	177.04454	71.03525	0.32305	 	1.36113E19	 	2.21656E-19	 	1658.05963	27.76004	 
340.0	1.0	0.0	8.00475	6.93404	-9.63565	13.94328	16.61978	0.90387	1.10635	188.31916	177.22863	71.17644	0.3229	 	2.10528E19	 	1.42149E-19	 	1519.49962	27.712	 
335.0	1.0	0.0	8.00659	6.93245	-9.65641	13.91784	16.54075	0.90079	1.11014	188.67105	177.4118	71.31741	0.32276	 	3.27969E19	 	9.05034E-20	 	1381.1797	27.66399	 
330.0	1.0	0.0	8.00843	6.93086	-9.67711	13.89238	16.4617	0.89767	1.11399	189.02226	177.59404	71.45814	0.32261	 	5.14692E19	 	5.71959E-20	 	1243.09973	27.61599	 
325.0	1.0	0.0	8.01026	6.92928	-9.69774	13.86692	16.38261	0.89453	1.11791	189.37277	177.77535	71.59864	0.32246	 	8.13831E19	 	3.58726E-20	 	1105.25963	27.56802	 
320.0	1.0	0.0	8.01208	6.9277	-9.7183	13.84144	16.30349	0.89135	1.12189	189.7226	177.95575	71.73892	0.32231	 	1.2968099999999998E20	 	2.23242E-20	 	967.6593	27.52007	 
315.0	1.0	0.0	8.0139	6.92613	-9.7388	13.81596	16.22433	0.88815	1.12593	190.07174	178.13523	71.87896	0.32217	 	2.08285E20	 	1.37822E-20	 	830.29869	27.47212	 
310.0	1.0	0.0	8.01571	6.92456	-9.75923	13.79046	16.14513	0.88492	1.13004	190.4202	178.3138	72.01878	0.32202	 	3.3726299999999997E20	 	8.43915E-21	 	693.17772	27.42419	 
305.0	1.0	0.0	8.01752	6.923	-9.77959	13.76495	16.0659	0.88166	1.13422	190.76797	178.49146	72.15836	0.32187	 	5.5067999999999993E20	 	5.12422E-21	 	556.2964	27.37627	 
300.0	1.0	0.0	8.01933	6.92144	-9.79988	13.73942	15.98663	0.87837	1.13847	191.11505	178.6682	72.29772	0.32172	 	9.068709999999999E20	 	3.08468E-21	 	419.65466	27.32835	 
295.0	1.0	0.0	8.02113	6.91989	-9.82011	13.71389	15.90732	0.87505	1.14279	191.46144	178.84404	72.43684	0.32158	 	1.5066200000000001E21	 	1.84054E-21	 	283.25252	27.28043	 
290.0	1.0	0.0	8.02292	6.91834	-9.84026	13.68835	15.82797	0.8717	1.14719	191.80715	179.01897	72.57573	0.32143	 	2.52568E21	 	1.08826E-21	 	147.09001	27.2325	 
285.0	1.0	0.0	8.02471	6.9168	-9.86036	13.66279	15.74858	0.86831	1.15166	192.15217	179.193	72.7144	0.32128	 	4.2733900000000003E21	 	6.37477E-22	 	11.16715	27.18457	 
280.0	1.0	0.0	8.02649	6.91526	-9.88038	13.63722	15.66914	0.8649	1.15621	192.4965	179.36612	72.85283	0.32113	 	7.29955E21	 	3.69857E-22	 	-124.516	27.13663	 
275.0	1.0	0.0	8.02827	6.91373	-9.90033	13.61164	15.58966	0.86145	1.16084	192.84015	179.53836	72.99104	0.32099	 	1.2590999999999998E22	 	2.12483E-22	 	-259.95934	27.08867	 
270.0	1.0	0.0	8.03004	6.9122	-9.92022	13.58605	15.51014	0.85797	1.16555	193.18311	179.70969	73.12901	0.32084	 	2.19374E22	 	1.20843E-22	 	-395.16279	27.04069	 
265.0	1.0	0.0	8.03181	6.91068	-9.94004	13.56044	15.43057	0.85445	1.17034	193.52539	179.88013	73.26675	0.32069	 	3.8618E22	 	6.80143E-23	 	-530.12623	26.99269	 
260.0	1.0	0.0	8.03357	6.90917	-9.95979	13.53483	15.35095	0.8509	1.17522	193.86698	180.04968	73.40426	0.32054	 	6.8707E22	 	3.78734E-23	 	-664.84948	26.94465	 
255.0	1.0	0.0	8.03533	6.90766	-9.97948	13.5092	15.27128	0.84732	1.18019	194.20788	180.21834	73.54154	0.3204	 	1.2358099999999999E23	 	2.0859E-23	 	-799.33238	26.89658	 
250.0	1.0	0.0	8.03708	6.90615	-9.9991	13.48356	15.19156	0.8437	1.18525	194.5481	180.38612	73.67859	0.32025	 	2.2478799999999997E23	 	1.1359E-23	 	-933.57472	26.84847	 
245.0	1.0	0.0	8.03882	6.90465	-10.01864	13.45791	15.11179	0.84005	1.1904	194.88763	180.55301	73.81541	0.3201	 	4.1362699999999997E23	 	6.11411E-24	 	-1067.57627	26.80031	 
240.0	1.0	0.0	8.04056	6.90316	-10.03812	13.43225	15.03196	0.83636	1.19565	195.22647	180.71902	73.952	0.31995	 	7.70206E23	 	3.2518E-24	 	-1201.33678	26.7521	 
235.0	1.0	0.0	8.0423	6.90167	-10.05754	13.40658	14.95208	0.83264	1.201	195.56463	180.88415	74.08836	0.31981	 	1.45184E24	 	1.70829E-24	 	-1334.85593	26.70383	 
230.0	1.0	0.0	8.04403	6.90018	-10.07688	13.38089	14.87214	0.82888	1.20645	195.90211	181.0484	74.22449	0.31966	 	2.77141E24	 	8.86102E-25	 	-1468.13341	26.6555	 
225.0	1.0	0.0	8.04575	6.8987	-10.09616	13.3552	14.79214	0.82508	1.21201	196.23889	181.21178	74.36038	0.31951	 	5.35944E24	 	4.53656E-25	 	-1601.16887	26.60709	 
220.0	1.0	0.0	8.04747	6.89723	-10.11537	13.32949	14.71208	0.82124	1.21767	196.57499	181.37428	74.49605	0.31937	 	1.05038E25	 	2.29149E-25	 	-1733.96189	26.5586	 
215.0	1.0	0.0	8.04919	6.89576	-10.13451	13.30377	14.63196	0.81737	1.22344	196.91041	181.53592	74.63148	0.31922	 	2.08718E25	 	1.14151E-25	 	-1866.51204	26.51003	 
210.0	1.0	0.0	8.0509	6.8943	-10.15358	13.27804	14.55177	0.81345	1.22933	197.24514	181.69668	74.76668	0.31907	 	4.206750000000001E25	 	5.6056E-26	 	-1998.81885	26.46136	 
205.0	1.0	0.0	8.0526	6.89284	-10.17258	13.25229	14.47151	0.8095	1.23533	197.57918	181.85658	74.90166	0.31892	 	8.603960000000001E25	 	2.71239E-26	 	-2130.88179	26.41259	 
200.0	1.0	0.0	8.0543	6.89139	-10.19152	13.22654	14.39118	0.80551	1.24146	197.91254	182.01562	75.0364	0.31878	 	1.78656E26	 	1.29261E-26	 	-2262.70032	26.36371	 
195.0	1.0	0.0	8.05599	6.88994	-10.21039	13.20077	14.31078	0.80147	1.24771	198.24521	182.17379	75.1709	0.31863	 	3.7680400000000005E26	 	6.06396E-27	 	-2394.27381	26.3147	 
190.0	1.0	0.0	8.05768	6.8885	-10.22918	13.17499	14.23031	0.79739	1.25408	198.5772	182.33111	75.30518	0.31848	 	8.07627E26	 	2.79896E-27	 	-2525.6016	26.26556	 
185.0	1.0	0.0	8.05936	6.88706	-10.24791	13.1492	14.14976	0.79328	1.26059	198.9085	182.48757	75.43923	0.31834	 	1.76008E27	 	1.27046E-27	 	-2656.683	26.21628	 
180.0	1.0	0.0	8.06103	6.88563	-10.26658	13.1234	14.06913	0.78912	1.26724	199.23912	182.64317	75.57304	0.31819	 	3.90231E27	 	5.6677E-28	 	-2787.51722	26.16685	 
175.0	1.0	0.0	8.06271	6.8842	-10.28517	13.09759	13.98842	0.78491	1.27403	199.56905	182.79792	75.70662	0.31804	 	8.80695E27	 	2.48362E-28	 	-2918.10346	26.11725	 
170.0	1.0	0.0	8.06437	6.88278	-10.30369	13.07176	13.90762	0.78066	1.28096	199.8983	182.95182	75.83997	0.3179	 	2.0244500000000003E28	 	1.06839E-28	 	-3048.44082	26.06747	 
165.0	1.0	0.0	8.06603	6.88136	-10.32215	13.04593	13.82673	0.77637	1.28804	200.22686	183.10487	75.97309	0.31775	 	4.74284E28	 	4.50891E-29	 	-3178.52836	26.01751	 
160.0	1.0	0.0	8.06768	6.87995	-10.34054	13.02008	13.74576	0.77203	1.29528	200.55473	183.25708	76.10598	0.3176	 	1.1332000000000001E29	 	1.86561E-29	 	-3308.36505	25.96734	 
155.0	1.0	0.0	8.06933	6.87855	-10.35885	12.99422	13.66468	0.76765	1.30268	200.88192	183.40844	76.23864	0.31745	 	2.7631700000000003E29	 	7.56267E-30	 	-3437.9498	25.91695	 
150.0	1.0	0.0	8.07098	6.87715	-10.3771	12.96835	13.58351	0.76322	1.31024	201.20843	183.55896	76.37106	0.31731	 	6.881100000000001E29	 	3.0014E-30	 	-3567.28146	25.86633	 
145.0	1.0	0.0	8.07261	6.87575	-10.39528	12.94247	13.50224	0.75874	1.31798	201.53425	183.70864	76.50325	0.31716	 	1.7514E30	 	1.16529E-30	 	-3696.35876	25.81546	 
140.0	1.0	0.0	8.07425	6.87436	-10.4134	12.91657	13.42086	0.75421	1.32589	201.85938	183.85748	76.63521	0.31701	 	4.55965E30	 	4.42245E-31	 	-3825.18038	25.76432	 
135.0	1.0	0.0	8.07587	6.87298	-10.43144	12.89067	13.33937	0.74964	1.33398	202.18384	184.00549	76.76694	0.31687	 	1.21523E31	 	1.63926E-31	 	-3953.74489	25.7129	 
130.0	1.0	0.0	8.07749	6.8716	-10.44941	12.86475	13.25776	0.74501	1.34226	202.5076	184.15266	76.89843	0.31672	 	3.31854E31	 	5.92934E-32	 	-4082.05076	25.66118	 
125.0	1.0	0.0	8.07911	6.87022	-10.46732	12.83882	13.17604	0.74033	1.35074	202.83068	184.29901	77.02969	0.31657	 	9.2938E31	 	2.09093E-32	 	-4210.09637	25.60912	 
120.0	1.0	0.0	8.08072	6.86885	-10.48515	12.81288	13.0942	0.73561	1.35942	203.15308	184.44452	77.16072	0.31643	 	2.6718699999999998E32	 	7.18174E-33	 	-4337.88	25.55672	 
115.0	1.0	0.0	8.08232	6.86749	-10.50292	12.78693	13.01222	0.73083	1.36831	203.47479	184.58921	77.29152	0.31628	 	7.893189999999999E32	 	2.40012E-33	 	-4465.39977	25.50395	 
110.0	1.0	0.0	8.08392	6.86613	-10.52062	12.76096	12.93011	0.72599	1.37742	203.79582	184.73307	77.42209	0.31613	 	2.39866E33	 	7.79627E-34	 	-4592.6537	25.45079	 
105.0	1.0	0.0	8.08551	6.86478	-10.53824	12.73499	12.84787	0.72111	1.38676	204.11616	184.87611	77.55242	0.31599	 	7.5067E33	 	2.45868E-34	 	-4719.63971	25.3972	 
100.0	1.0	0.0	8.0871	6.86343	-10.5558	12.709	12.76547	0.71616	1.39633	204.43582	185.01832	77.68252	0.31584	 	2.42219E34	 	7.51903E-35	 	-4846.35552	25.34316	 
95.0	1.0	0.0	8.08868	6.86209	-10.57329	12.683	12.68293	0.71117	1.40614	204.75479	185.15972	77.81239	0.3157	 	8.068390000000001E34	 	2.22702E-35	 	-4972.79875	25.28864	 
90.0	1.0	0.0	8.09026	6.86075	-10.59071	12.65699	12.60023	0.70611	1.41621	205.07308	185.3003	77.94202	0.31555	 	2.77815E35	 	6.37995E-36	 	-5098.96681	25.23361	 
85.0	1.0	0.0	8.09183	6.85942	-10.60806	12.63097	12.51737	0.701	1.42653	205.39068	185.44007	78.07142	0.3154	 	9.90187E35	 	1.76536E-36	 	-5224.85698	25.17803	 
80.0	1.0	0.0	8.09339	6.8581	-10.62534	12.60494	12.43433	0.69583	1.43713	205.70761	185.57902	78.20059	0.31526	 	3.6585499999999994E36	 	4.71126E-37	 	-5350.46632	25.12187	 
75.0	1.0	0.0	8.09495	6.85678	-10.64256	12.57889	12.35112	0.6906	1.44802	206.02384	185.71717	78.32953	0.31511	 	1.40347E37	 	1.21074E-37	 	-5475.79173	25.06508	 
70.0	1.0	0.0	8.09651	6.85546	-10.6597	12.55283	12.26772	0.68531	1.4592	206.33939	185.8545	78.45823	0.31496	 	5.5990299999999995E37	 	2.99129E-38	 	-5600.82987	25.00763	 
65.0	1.0	0.0	8.09805	6.85415	-10.67677	12.52676	12.18412	0.67996	1.47068	206.65426	185.99103	78.5867	0.31482	 	2.32698E38	 	7.09255E-39	 	-5725.57717	24.94946	 
60.0	1.0	0.0	8.0996	6.85285	-10.69377	12.50068	12.10032	0.67454	1.48249	206.96844	186.12675	78.71494	0.31467	 	1.0093600000000001E39	 	1.61095E-39	 	-5850.02983	24.89053	 
55.0	1.0	0.0	8.10113	6.85155	-10.71071	12.47459	12.0163	0.66906	1.49463	207.28194	186.26168	78.84294	0.31452	 	4.57842E39	 	3.49819E-40	 	-5974.18376	24.83079	 
50.0	1.0	0.0	8.10266	6.85025	-10.72757	12.44849	11.93207	0.66352	1.50711	207.59476	186.3958	78.97071	0.31438	 	2.17624E40	 	7.24743E-41	 	-6098.03463	24.77017	 
45.0	1.0	0.0	8.10419	6.84896	-10.74437	12.42237	11.84759	0.65791	1.51996	207.90689	186.52912	79.09825	0.31423	 	1.0863700000000002E41	 	1.42936E-41	 	-6221.57775	24.70862	 
40.0	1.0	0.0	8.1057	6.84768	-10.76109	12.39625	11.76287	0.65224	1.53319	208.21834	186.66164	79.22555	0.31409	 	5.708820000000001E41	 	2.67727E-42	 	-6344.80813	24.64608	 
35.0	1.0	0.0	8.10722	6.8464	-10.77774	12.37011	11.67789	0.64649	1.54681	208.5291	186.79337	79.35262	0.31394	 	3.16591E42	 	4.75062E-43	 	-6467.72041	24.58246	 
30.0	1.0	0.0	8.10873	6.84513	-10.79433	12.34396	11.59265	0.64068	1.56084	208.83918	186.92431	79.47946	0.31379	 	1.85777E43	 	7.96438E-44	 	-6590.30886	24.51769	 
25.0	1.0	0.0	8.11023	6.84386	-10.81084	 	11.50711	0.6348	1.57531	209.14857	187.05446	79.60606	0.31365	 	1.1568100000000001E44	 	1.25794E-44	 	-6712.56732	 	 
