T (C)	Fraction solid (wt)-TOTAL	Fraction liquid (wt)-LIQUID	Density (g/(cm)^3)-TOTAL	Molar volume (cm^3)-TOTAL	Volume change (%)-  	Average expansion coeff. (10e-6 1/K)-  	Thermal conductivity (W/(m*K))-TOTAL	Electrical resistivity (10e-6 Ohm*m)-TOTAL	Electrical conductivity (10e6 1/(Ohm*m))-TOTAL	Young's modulus (GPa)-TOTAL	Bulk modulus (GPa)-TOTAL	Shear modulus(GPa)-TOTAL	Poisson's ratio-TOTAL	Liquid viscosity (mPa s)-  	Total viscosity (mPa s)-  	Liquid diffusivity (10e-9 (m^2)/s)-  	Total diffusivity (10e-9 (m^2)/s)-  	Surface Tension (mN/m)-  	Enthalpy (J/mole)-TOTAL	Specific heat (J/(mole K))-TOTAL	Latent heat (J/mole)-TOTAL
1400.0	0.0	1.0	7.42994	7.8857	0.0	30.32385	29.09866	1.40873	0.70986	0.0	125.80615	0.0	0.5	7.52137	7.52137	1.08574	1.08574	1807.81037	53002.246	 	0.0
1395.0	0.0	1.0	7.43402	7.88138	-0.0548464	30.28438	29.02376	1.40815	0.71015	0.0	125.96339	0.0	0.5	7.60275	7.60275	1.07091	1.07091	1811.04236	52799.092	40.6308	0.0
1390.0	0.0	1.0	7.43809	7.87707	-0.10954	30.24505	28.94885	1.40756	0.71045	0.0	126.12062	0.0	0.5	7.68551	7.68551	1.0562	1.0562	1814.29581	52596.395	40.5394	0.0
1385.0	0.0	1.0	7.44215	7.87276	-0.16407	30.20586	28.87395	1.40697	0.71075	0.0	126.27786	0.0	0.5	7.76968	7.76968	1.04161	1.04161	1817.57053	52394.155	40.448	0.0
1380.0	0.0	1.0	7.44621	7.86848	-0.21845	30.16682	28.79904	1.40637	0.71105	0.0	126.4351	0.0	0.5	7.85529	7.85529	1.02716	1.02716	1820.86633	52192.367	40.3576	0.0
1375.0	0.0	1.0	7.45025	7.8642	-0.27267	30.12791	28.72414	1.40577	0.71135	0.0	126.59234	0.0	0.5	7.94237	7.94237	1.01282	1.01282	1824.183	51991.03	40.2674	0.0
1370.0	0.0	1.0	7.4543	7.85994	-0.32674	30.08915	28.64924	1.40517	0.71166	0.0	126.74958	0.0	0.5	8.03096	8.03096	0.99861	0.99861	1827.52034	51790.142	40.1776	0.0
1365.0	0.0	1.0	7.45833	7.85569	-0.38065	30.05054	28.57433	1.40457	0.71196	0.0	126.90682	0.0	0.5	8.12108	8.12108	0.98452	0.98452	1830.87811	51589.699	40.0886	0.0
1360.0	0.0	1.0	7.46236	7.85145	-0.43441	30.01208	28.49943	1.40396	0.71227	0.0	127.06405	0.0	0.5	8.21277	8.21277	0.97056	0.97056	1834.25611	51389.699	40.0	0.0
1355.0	0.0	1.0	7.46638	7.84722	-0.48801	29.97377	28.42452	1.40335	0.71258	0.0	127.22129	0.0	0.5	8.30608	8.30608	0.95672	0.95672	1837.65412	51190.141	39.9116	0.0
1350.0	0.0	1.0	7.47039	7.84301	-0.54145	29.93561	28.34962	1.40274	0.71289	0.0	127.37853	0.0	0.5	8.40102	8.40102	0.943	0.943	1841.07189	50991.02	39.8242	0.0
1345.0	0.0	1.0	7.47439	7.8388	-0.59474	29.8976	28.27472	1.40212	0.7132	0.0	127.53577	0.0	0.5	8.49765	8.49765	0.92941	0.92941	1844.50921	50792.336	39.7368	0.0
1343.56	0.0	1.0	7.47554	7.8376	-0.61005	29.8867	28.25316	1.40195	0.71329	0.0	127.58101	0.0	0.5	8.52577	8.52577	0.92552	0.92552	1845.50186	50735.247	39.68069	0.0
1340.0	0.10193	0.89807	7.50391	7.808	-0.98535	28.89731	28.57679	1.38302	0.72306	0.0107739	128.39282	0.00362496	0.48607	8.59651	13.1515	0.91588	0.59867	1845.14663	49038.808	476.3552	1555.279
1335.0	0.22334	0.77666	7.53832	7.77237	-1.43723	27.71393	28.96343	1.36032	0.73512	0.25372	129.38468	0.0863421	0.46927	8.69618	92.59226	0.90258	0.0847693	1844.67121	46998.801	408.0014	3397.467
1330.0	0.32272	0.67728	7.56716	7.74275	-1.81275	26.74095	29.27921	1.34147	0.74545	1.12639	130.23814	0.38698	0.45534	8.79659	387.24007	0.8895	0.020206	1844.2389	45303.755	339.0092	4895.124
1325.0	0.40501	0.59499	7.59164	7.71777	-2.12965	25.92961	29.53854	1.32555	0.75441	2.83826	130.98621	0.983	0.44367	8.89784	998.33751	0.87664	0.00781316	1843.85854	43876.145	285.522	6125.77
1320.0	0.47384	0.52616	7.61267	7.69643	-2.40015	25.24637	29.75188	1.31192	0.76224	5.39268	131.65417	1.88056	0.4338	9.00005	1971.9818	0.86397	0.00394312	1843.53572	42658.443	243.5404	7146.934
1315.0	0.53199	0.46801	7.63094	7.67797	-2.63424	24.66368	29.92675	1.30016	0.76913	8.67381	132.25925	3.04265	0.42537	9.10337	3317.25948	0.85148	0.00233668	1843.27663	41607.372	210.2142	8001.888
1310.0	0.5815	0.4185	7.64695	7.66189	-2.83826	24.1642	30.06929	1.28993	0.77524	12.52053	132.81575	4.41447	0.41812	9.20782	5024.85355	0.83917	0.00153775	1843.08322	40689.966	183.4812	8723.599
1305.0	0.624	0.376	7.66114	7.64771	-3.01809	23.73172	30.18445	1.28095	0.78067	16.7703	133.33388	5.93915	0.41184	9.31355	7079.19033	0.82703	0.00108806	1842.95927	39880.818	161.8296	9337.469
1300.73	0.65555	0.34445	7.672	7.63685	-3.15573	23.40656	30.26338	1.27415	0.78484	20.59086	133.75067	7.31658	0.40714	9.40503	9088.86742	0.81677	8.45178E-4	1842.91146	39262.11	 	9789.666
1300.0	0.66442	0.33558	7.67491	7.63396	-3.19237	23.31214	30.29024	1.27243	0.7859	21.77732	133.87884	7.74556	0.40579	9.43242	9679.58734	0.81402	7.93232E-4	1843.23374	39099.074	156.3488	9924.351
1295.0	0.7204	0.2796	7.69333	7.61554	-3.42593	22.71422	30.45596	1.26148	0.79272	30.54605	134.67119	10.9308	0.39725	9.62248	14267.08636	0.7954	5.36462E-4	1845.51157	38060.728	207.6692	10768.248
1290.0	0.76453	0.23547	7.70839	7.60056	-3.616	22.24052	30.57349	1.25263	0.79832	39.23658	135.33495	14.10961	0.39042	9.8158	19319.58368	0.77725	3.94902E-4	1847.8105	37209.412	170.2632	11425.526
1285.0	0.79981	0.20019	7.72092	7.58807	-3.77436	21.85743	30.65344	1.24536	0.80298	47.50523	135.90707	17.15127	0.38489	10.01213	24719.8703	0.75957	3.07645E-4	1850.13263	36496.436	142.5952	11944.873
1280.0	0.82839	0.17161	7.73154	7.57746	-3.90888	21.54252	30.70393	1.23933	0.80689	55.17816	136.41338	19.98702	0.38035	10.21133	30402.3831	0.74237	2.4934E-4	1852.478	35887.511	121.785	12360.576
1275.0	0.85179	0.14821	7.74069	7.56831	-4.02489	21.28064	30.73124	1.23424	0.81022	62.19283	136.87217	22.5896	0.37658	10.41327	36341.05492	0.72563	2.07923E-4	1854.84468	35358.068	105.8886	12697.203
1270.0	0.87118	0.12882	7.7487	7.56027	-4.12682	21.05907	30.74007	1.2299	0.81307	68.54981	137.29544	24.95598	0.37341	10.61779	42534.00059	0.70935	1.77076E-4	1857.23471	34890.181	93.5774	12972.676
1265.0	0.88739	0.11261	7.75582	7.55312	-4.21749	20.86976	30.73413	1.22615	0.81556	74.28732	137.69255	27.09778	0.37073	10.82488	48999.59164	0.69353	1.53212E-4	1859.64566	34470.589	83.9184	13200.255
1260.0	0.90105	0.0989513	7.76222	7.54669	-4.29914	20.70629	30.71618	1.22288	0.81774	79.45153	138.06953	29.03025	0.36843	11.03446	55761.81128	0.67814	1.34194E-4	1862.0776	34089.331	76.2516	13389.899
1258.95	0.90356	0.0964381	7.76347	7.54543	-4.31505	20.67553	30.71087	1.22226	0.81816	80.44241	138.14678	29.40152	0.368	11.07881	57202.485	0.67497	1.30725E-4	1862.58466	34014.582	 	13424.562
1255.6	0.91162	0.0883764	7.7676	7.54138	-4.36647	20.57518	30.69466	1.22022	0.81952	83.6477	138.38741	30.60401	0.36661	11.1934	62030.03835	0.66659	1.20287E-4	1862.79956	33774.357	 	13536.486
1255.6	0.91162	0.0883764	7.7676	7.54138	-4.36647	20.57518	30.69466	1.22022	0.81952	83.6477	138.38741	30.60401	0.36661	11.1934	62030.03835	0.66659	1.20287E-4	1862.79957	33774.358	 	13536.485
1255.0	0.91332	0.0866828	7.76844	7.54059	-4.37646	20.55474	30.69234	1.21984	0.81978	84.31793	138.43607	30.85555	0.36633	11.20304	62991.00673	0.66576	1.18406E-4	1862.50111	33727.46	72.3742	13560.551
1250.0	0.92668	0.0733212	7.77524	7.53424	-4.45702	20.39198	30.66901	1.21677	0.82185	89.77777	138.82572	32.90718	0.36411	11.28329	71393.91082	0.65886	1.04128E-4	1860.10964	33347.678	75.9564	13749.51
1245.0	0.93777	0.0622254	7.78144	7.52849	-4.52987	20.25164	30.6354	1.21411	0.82365	94.58343	139.19268	34.71674	0.36222	11.36418	80147.74927	0.65202	9.24507E-5	1857.82967	33001.904	69.1548	13904.854
1240.0	0.94706	0.0529436	7.78715	7.52323	-4.59655	20.12914	30.59351	1.21177	0.82524	98.81874	139.54311	36.31442	0.3606	11.44564	89308.01709	0.64525	8.26948E-5	1855.66274	32683.309	63.719	14033.41
1235.0	0.95487	0.0451269	7.79245	7.51837	-4.65823	20.02114	30.54496	1.20968	0.82666	102.56216	139.88126	37.72878	0.3592	11.52761	98937.51223	0.63855	7.43995E-5	1853.60796	32386.601	59.3416	14140.47
1230.0	0.9615	0.0384987	7.79743	7.51382	-4.71592	19.92468	30.49099	1.20781	0.82795	105.88295	140.21031	38.98524	0.35799	11.60999	109103.3525	0.63191	6.72436E-5	1851.66656	32107.645	55.7912	14230.168
1225.0	0.96716	0.032843	7.80214	7.50953	-4.77027	19.83785	30.43263	1.2061	0.82912	108.84222	140.53261	40.10634	0.35692	11.69278	119878.4165	0.62535	6.0996E-5	1849.83563	31843.187	52.8916	14305.754
1220.0	0.97201	0.0279861	7.80662	7.50547	-4.82182	19.75907	30.37067	1.20452	0.8302	111.49215	140.84987	41.11138	0.35598	11.77617	131339.934	0.61885	5.54873E-5	1848.11179	31590.654	50.5066	14369.802
1215.0	0.97621	0.0237905	7.81092	7.50158	-4.8711	19.68678	30.30574	1.20306	0.83121	113.87757	141.16325	42.01707	0.35513	11.86004	143569.8645	0.61242	5.05906E-5	1846.49394	31347.994	48.532	14424.359
1210.0	0.97986	0.0201449	7.81505	7.49785	-4.91844	19.62003	30.23837	1.20169	0.83216	116.03741	141.4736	42.83789	0.35438	11.94468	156657.6652	0.60603	4.62083E-5	1844.97735	31113.565	46.8858	14471.066
1205.0	0.98304	0.0169585	7.819	7.49422	-4.96445	19.55693	30.16883	1.2004	0.83306	118.00681	141.78375	43.58707	0.35369	12.03	170696.0944	0.59971	4.22651E-5	1848.01742	30884.38739	45.83552	14511.244
1200.0	0.98584	0.0141597	7.82202	7.49105	-5.00472	19.51161	30.09845	1.19914	0.83393	119.77788	142.03686	44.26233	0.35305	12.11614	185983.9514	0.59343	3.86597E-5	1851.07086	30660.23517	44.83044	14545.96
1195.0	0.98831	0.0116892	7.82527	7.48783	-5.04544	19.46448	30.02652	1.19793	0.83477	121.41722	142.31135	44.88755	0.35246	12.20319	202428.5154	0.5872	3.53985E-5	1854.13871	30441.10027	43.82698	14576.088
1190.0	0.9905	0.00949632	7.82874	7.4846	-5.08651	19.41581	29.95321	1.19677	0.83558	122.94369	142.60444	45.46986	0.35193	12.29124	220148.2147	0.581	3.24385E-5	1857.22021	30226.273	42.96545	14602.336
1185.0	0.99276	0.00723628	7.83254	7.48121	-5.1294	19.36083	29.87829	1.19567	0.83635	124.55653	142.93756	46.08485	0.35138	12.32452	239566.3639	0.57746	2.97073E-5	1860.3082	30009.18168	43.41826	14631.273
1180.0	1.0	0.0	7.83976	7.47518	-5.20591	19.19621	29.82287	1.19379	0.83767	129.0441	143.40459	47.79329	0.35002	 	266145.7415	 	2.66488E-5	 	29713.90865	59.05461	 
1175.0	1.0	0.0	7.84242	7.47264	-5.23806	19.17484	29.74139	1.19294	0.83827	129.46431	143.70932	47.95493	0.34985	 	287204.1795	 	2.46099E-5	 	29532.82965	36.2158	 
1170.53	1.0	0.0	7.84479	7.47039	-5.26672	19.15577	29.66861	1.19218	0.8388	129.83894	143.98025	48.09908	0.3497	 	307554.0405	 	2.29106E-5	 	29371.36514	 	 
1170.0	1.0	0.0	7.84513	7.47007	-5.27076	19.15148	29.66091	1.19205	0.83889	129.88718	144.01371	48.1177	0.34968	 	310090.8868	 	2.27148E-5	 	29350.93584	36.37876	 
1166.54	1.0	0.0	7.8473	7.468	-5.29693	19.12356	29.61106	1.19119	0.8395	130.19971	144.23013	48.23832	0.34955	 	327098.8232	 	2.14821E-5	 	29218.53217	 	 
1165.0	1.0	0.0	7.84813	7.46721	-5.30699	19.11629	29.58632	1.19091	0.83969	130.33041	144.32389	48.28865	0.34949	 	335003.7159	 	2.09528E-5	 	29162.35566	37.71604	 
1160.0	1.0	0.0	7.85083	7.46464	-5.33959	19.09277	29.50595	1.19	0.84033	130.75411	144.62726	48.45183	0.34932	 	362138.2946	 	1.93154E-5	 	28980.20409	36.43031	 
1155.0	1.0	0.0	7.85353	7.46207	-5.3721	19.06936	29.42554	1.18909	0.84098	131.17667	144.92897	48.61462	0.34915	 	391675.6917	 	1.77965E-5	 	28798.47315	36.34619	 
1150.0	1.0	0.0	7.85622	7.45952	-5.40451	19.04606	29.34509	1.18818	0.84163	131.59809	145.22903	48.77702	0.34898	 	423846.6786	 	1.63881E-5	 	28617.1588	36.26287	 
1145.0	1.0	0.0	7.85891	7.45697	-5.43683	19.02288	29.26459	1.18726	0.84228	132.01839	145.52745	48.93903	0.3488	 	458905.9052	 	1.50829E-5	 	28436.25704	36.18035	 
1140.0	1.0	0.0	7.86159	7.45443	-5.46905	18.99981	29.18398	1.18634	0.84293	132.43758	145.82424	49.10066	0.34863	 	497134.5217	 	1.3874E-5	 	28255.76392	36.09862	 
1135.0	1.0	0.0	7.86426	7.4519	-5.50118	18.97685	29.10341	1.18542	0.84358	132.85565	146.11942	49.26191	0.34846	 	538843.1634	 	1.27548E-5	 	28075.67553	36.01768	 
1130.0	1.0	0.0	7.86692	7.44937	-5.53321	18.95399	29.02279	1.18449	0.84425	133.27263	146.41299	49.42278	0.34829	 	584375.2229	 	1.17192E-5	 	27895.98803	35.9375	 
1125.0	1.0	0.0	7.86959	7.44685	-5.56515	18.93125	28.94214	1.18356	0.84491	133.68852	146.70496	49.58328	0.34812	 	634110.6071	 	1.07616E-5	 	27716.6976	35.85809	 
1120.0	1.0	0.0	7.87224	7.44434	-5.597	18.90861	28.86146	1.18262	0.84558	134.10332	146.99535	49.74341	0.34795	 	688469.8006	 	9.87642E-6	 	27537.80052	35.77942	 
1115.0	1.0	0.0	7.87489	7.44184	-5.62876	18.88607	28.78074	1.18168	0.84625	134.51705	147.28417	49.90317	0.34778	 	747918.63	 	9.05876E-6	 	27359.29307	35.70149	 
1110.0	1.0	0.0	7.87753	7.43934	-5.66043	18.86364	28.69998	1.18074	0.84693	134.92971	147.57142	50.06256	0.34761	 	812973.3406	 	8.30385E-6	 	27181.17161	35.62429	 
1105.0	1.0	0.0	7.88017	7.43685	-5.69201	18.84131	28.61919	1.17979	0.84761	135.34131	147.85712	50.22159	0.34744	 	884206.6107	 	7.60728E-6	 	27003.43255	35.54781	 
1100.0	1.0	0.0	7.8828	7.43436	-5.7235	18.81908	28.53837	1.17884	0.84829	135.75185	148.14128	50.38027	0.34727	 	962253.9541	 	6.9649E-6	 	26826.07233	35.47204	 
1095.0	1.0	0.0	7.88543	7.43189	-5.75491	18.79695	28.45752	1.17788	0.84898	136.16136	148.4239	50.53858	0.3471	 	1047821.277	 	6.37284E-6	 	26649.08748	35.39697	 
1090.0	1.0	0.0	7.88805	7.42942	-5.78623	18.77491	28.37663	1.17693	0.84967	136.56982	148.705	50.69654	0.34693	 	1141693.133	 	5.82748E-6	 	26472.47455	35.32259	 
1085.0	1.0	0.0	7.89067	7.42696	-5.81746	18.75298	28.29571	1.17596	0.85037	136.97726	148.98459	50.85415	0.34677	 	1244742.072	 	5.32543E-6	 	26296.23014	35.24888	 
1080.0	1.0	0.0	7.89328	7.4245	-5.8486	18.73115	28.21476	1.17499	0.85107	137.38368	149.26268	51.01141	0.3466	 	1357939.217	 	4.86354E-6	 	26120.35093	35.17584	 
1075.0	1.0	0.0	7.89588	7.42205	-5.87966	18.70941	28.13379	1.17402	0.85177	137.78908	149.53928	51.16833	0.34643	 	1482366.167	 	4.43884E-6	 	25944.83361	35.10346	 
1070.0	1.0	0.0	7.89848	7.41961	-5.91064	18.68776	28.05278	1.17305	0.85248	138.19348	149.8144	51.3249	0.34626	 	1619228.474	 	4.04858E-6	 	25769.67496	35.03173	 
1065.0	1.0	0.0	7.90108	7.41717	-5.94153	18.66621	27.97174	1.17206	0.8532	138.59687	150.08804	51.48113	0.34609	 	1769870.75	 	3.6902E-6	 	25594.87178	34.96064	 
1060.0	1.0	0.0	7.90366	7.41474	-5.97233	18.64476	27.89068	1.17108	0.85391	138.99928	150.36023	51.63703	0.34593	 	1935793.933	 	3.36129E-6	 	25420.42095	34.89017	 
1055.0	1.0	0.0	7.90625	7.41232	-6.00306	18.62339	27.80958	1.17009	0.85464	139.40069	150.63096	51.79259	0.34576	 	2118674.486	 	3.05963E-6	 	25246.31938	34.82031	 
1050.0	1.0	0.0	7.90883	7.4099	-6.0337	18.60213	27.72846	1.16909	0.85536	139.80113	150.90024	51.94781	0.34559	 	2320386.661	 	2.78314E-6	 	25072.56403	34.75107	 
1045.0	1.0	0.0	7.9114	7.40749	-6.06426	18.58095	27.64732	1.16809	0.8561	140.2006	151.1681	52.10271	0.34543	 	2543027.04	 	2.52988E-6	 	24899.15194	34.68242	 
1040.0	1.0	0.0	7.91397	7.40509	-6.09474	18.55986	27.56614	1.16709	0.85683	140.5991	151.43453	52.25727	0.34526	 	2788942.964	 	2.29806E-6	 	24726.08016	34.61436	 
1035.0	1.0	0.0	7.91653	7.40269	-6.12514	18.53886	27.48494	1.16608	0.85757	140.99664	151.69954	52.41151	0.34509	 	3060764.649	 	2.086E-6	 	24553.34581	34.54687	 
1030.0	1.0	0.0	7.91909	7.4003	-6.15546	18.51796	27.40372	1.16507	0.85832	141.39323	151.96315	52.56543	0.34493	 	3361441.316	 	1.89215E-6	 	24380.94608	34.47995	 
1025.0	1.0	0.0	7.92164	7.39792	-6.1857	18.49714	27.32247	1.16405	0.85907	141.78887	152.22537	52.71903	0.34476	 	3694282.688	 	1.71507E-6	 	24208.87815	34.41359	 
1020.0	1.0	0.0	7.92419	7.39554	-6.21586	18.47642	27.2412	1.16302	0.85983	142.18358	152.48619	52.87231	0.34459	 	4063005.929	 	1.55342E-6	 	24037.13933	34.34776	 
1015.0	1.0	0.0	7.92673	7.39317	-6.24594	18.45578	27.1599	1.162	0.86059	142.57735	152.74564	53.02527	0.34443	 	4471789.525	 	1.40596E-6	 	23865.72691	34.28248	 
1010.0	1.0	0.0	7.92927	7.3908	-6.27594	18.43523	27.07858	1.16096	0.86136	142.97019	153.00372	53.17791	0.34426	 	4925333.602	 	1.27154E-6	 	23694.63827	34.21773	 
1005.0	1.0	0.0	7.9318	7.38844	-6.30587	18.41477	26.99723	1.15992	0.86213	143.36211	153.26044	53.33025	0.3441	 	5428930.516	 	1.14909E-6	 	23523.87083	34.15349	 
1000.0	1.0	0.0	7.93433	7.38609	-6.33572	18.3944	26.91586	1.15888	0.8629	143.75311	153.5158	53.48227	0.34393	 	5988543.904	 	1.03764E-6	 	23353.42206	34.08976	 
995.0	1.0	0.0	7.93685	7.38374	-6.36549	18.37412	26.83447	1.15783	0.86369	144.14321	153.76982	53.63399	0.34377	 	6610898.926	 	9.36261E-7	 	23183.28946	34.02652	 
990.0	1.0	0.0	7.93937	7.3814	-6.39518	18.35392	26.75306	1.15677	0.86448	144.53239	154.0225	53.7854	0.3436	 	7303587.722	 	8.44122E-7	 	23013.4706	33.96377	 
987.42	1.0	0.0	7.94067	7.38019	-6.41048	18.34353	26.71103	1.15622	0.86488	144.73294	154.15241	53.86344	0.34352	 	7691440.329	 	7.99918E-7	 	22925.93379	 	 
985.0	1.0	0.0	7.94268	7.37832	-6.43426	18.29684	26.64326	1.15694	0.86435	145.03525	154.29625	53.9832	0.34334	 	8122265.541	 	7.56035E-7	 	22802.574	42.17932	 
980.0	1.0	0.0	7.94681	7.37448	-6.48289	18.20166	26.50574	1.15832	0.86332	145.65009	154.58813	54.22687	0.34297	 	9096193.229	 	6.72404E-7	 	22550.09941	50.49492	 
975.0	1.0	0.0	7.95089	7.3707	-6.53083	18.10822	26.3716	1.15957	0.86239	146.252	154.87305	54.46552	0.34261	 	1.019521565E7	 	5.97526E-7	 	22300.88097	49.84369	 
970.0	1.0	0.0	7.95491	7.36697	-6.5781	18.01642	26.24066	1.16069	0.86156	146.84164	155.15136	54.69941	0.34226	 	1.143649289E7	 	5.30539E-7	 	22054.78503	49.21919	 
965.0	1.0	0.0	7.95889	7.3633	-6.62474	17.92619	26.11259	1.16169	0.86082	147.4196	155.42341	54.92877	0.34192	 	1.283969604E7	 	4.70658E-7	 	21811.68324	48.62036	 
960.0	1.0	0.0	7.96281	7.35967	-6.67076	17.83746	25.98717	1.16258	0.86016	147.98647	155.68952	55.15382	0.34158	 	1.442739614E7	 	4.17172E-7	 	21571.45235	48.04618	 
955.0	1.0	0.0	7.96669	7.35608	-6.7162	17.75013	25.86424	1.16337	0.85957	148.54276	155.94995	55.37477	0.34125	 	1.622551982E7	 	3.69436E-7	 	21333.97402	47.49567	 
950.0	1.0	0.0	7.97052	7.35254	-6.76107	17.66415	25.74362	1.16406	0.85906	149.089	156.20499	55.59181	0.34093	 	1.826388019E7	 	3.26869E-7	 	21099.13477	46.96785	 
945.0	1.0	0.0	7.97432	7.34905	-6.8054	17.57943	25.6252	1.16466	0.85862	149.62564	156.45486	55.80513	0.34061	 	2.05767958E7	 	2.88941E-7	 	20866.82573	46.46181	 
940.0	1.0	0.0	7.97807	7.34559	-6.84922	17.49592	25.50884	1.16517	0.85824	150.15313	156.69979	56.0149	0.3403	 	2.320381566E7	 	2.55177E-7	 	20636.94247	45.97665	 
935.0	1.0	0.0	7.98178	7.34218	-6.89253	17.41353	25.39443	1.1656	0.85793	150.67189	156.93998	56.22128	0.33999	 	2.619056402E7	 	2.25145E-7	 	20409.38495	45.51151	 
930.0	1.0	0.0	7.98545	7.3388	-6.93537	17.33222	25.28186	1.16594	0.85768	151.1823	157.17564	56.42442	0.33969	 	2.958973807E7	 	1.98457E-7	 	20184.05725	45.06554	 
925.0	1.0	0.0	7.98909	7.33546	-6.97775	17.25191	25.17104	1.16621	0.85748	151.68474	157.40693	56.62447	0.33939	 	3.346226712E7	 	1.7476E-7	 	19960.86748	44.63795	 
920.0	1.0	0.0	7.99269	7.33215	-7.01969	17.17255	25.06186	1.1664	0.85734	152.17955	157.63402	56.82156	0.3391	 	3.787868389E7	 	1.5374E-7	 	19739.72764	44.22797	 
915.0	1.0	0.0	7.99626	7.32888	-7.06121	17.09408	24.95423	1.16652	0.85725	152.66706	157.85706	57.01583	0.33881	 	4.292073557E7	 	1.35111E-7	 	19520.55345	43.83484	 
910.0	1.0	0.0	7.9998	7.32563	-7.10232	17.01643	24.84809	1.16658	0.85721	153.14757	158.0762	57.20738	0.33853	 	4.868327008E7	 	1.18617E-7	 	19303.2642	43.45785	 
905.0	1.0	0.0	8.00331	7.32242	-7.14305	16.93956	24.74334	1.16656	0.85722	153.62137	158.29157	57.39634	0.33825	 	5.527647629E7	 	1.04027E-7	 	19087.78266	43.09631	 
900.0	1.0	0.0	8.00679	7.31924	-7.1834	16.86341	24.63992	1.16649	0.85727	154.08874	158.5033	57.58281	0.33798	 	6.282851559E7	 	9.11346E-8	 	18874.03491	42.74955	 
895.0	1.0	0.0	8.01024	7.31609	-7.22339	16.78793	24.53775	1.16635	0.85737	154.54994	158.71151	57.76689	0.3377	 	7.148863879E7	 	7.97532E-8	 	18661.95023	42.41694	 
890.0	1.0	0.0	8.01367	7.31296	-7.26304	16.71307	24.43678	1.16616	0.85752	155.0052	158.91631	57.94868	0.33744	 	8.143086834E7	 	6.97161E-8	 	18451.46094	42.09786	 
885.0	1.0	0.0	8.01707	7.30986	-7.30236	16.63878	24.33695	1.16591	0.8577	155.45477	159.1178	58.12827	0.33717	 	9.285836343E7	 	6.08738E-8	 	18242.50237	41.79171	 
880.0	1.0	0.0	8.02044	7.30679	-7.34136	16.56502	24.23819	1.16561	0.85792	155.89885	159.3161	58.30574	0.33691	 	1.06008605E8	 	5.30923E-8	 	18035.01267	41.49794	 
875.0	1.0	0.0	8.02379	7.30373	-7.38005	16.49174	24.14046	1.16525	0.85818	156.33767	159.5113	58.48118	0.33665	 	1.211595511E8	 	4.62517E-8	 	17828.93245	41.21604	 
870.0	1.0	0.0	8.02712	7.30071	-7.41845	16.4189	24.04371	1.16484	0.85848	156.7714	159.70348	58.65466	0.33639	 	1.386369514E8	 	4.02449E-8	 	17624.20557	40.94538	 
865.0	1.0	0.0	8.03043	7.2977	-7.45657	16.34645	23.9479	1.16439	0.85882	157.20025	159.89275	58.82627	0.33614	 	1.588230669E8	 	3.49762E-8	 	17420.7781	40.68549	 
860.0	1.0	0.0	8.03371	7.29472	-7.49442	16.27435	23.85298	1.16389	0.85919	157.62439	160.0792	58.99606	0.33589	 	1.821670794E8	 	3.03602E-8	 	17218.59858	40.4359	 
855.0	1.0	0.0	8.03698	7.29175	-7.532	16.20257	23.75891	1.16334	0.85959	158.04399	160.26291	59.1641	0.33564	 	2.09197495E8	 	2.63207E-8	 	17017.61789	40.19614	 
850.0	1.0	0.0	8.04022	7.28881	-7.56933	16.13107	23.66565	1.16275	0.86003	158.45922	160.44397	59.33046	0.3354	 	2.405370191E8	 	2.27899E-8	 	16817.78924	39.96573	 
845.0	1.0	0.0	8.04259	7.28667	-7.59649	16.10519	23.58958	1.1613	0.8611	158.81798	160.66567	59.47125	0.33525	 	2.735123586E8	 	1.99531E-8	 	16659.78853	31.60014	 
840.0	1.0	0.0	8.04495	7.28453	-7.62359	16.07932	23.51351	1.15985	0.86218	159.17607	160.88636	59.61181	0.33511	 	3.113674573E8	 	1.74489E-8	 	16498.80852	32.196	 
835.0	1.0	0.0	8.0473	7.2824	-7.65062	16.05344	23.43741	1.15839	0.86327	159.53349	161.10604	59.75215	0.33496	 	3.548767163E8	 	1.52408E-8	 	16338.07551	32.1466	 
830.0	1.0	0.0	8.04965	7.28027	-7.67757	16.02757	23.36131	1.15692	0.86436	159.89024	161.32473	59.89227	0.33482	 	4.04945633E8	 	1.32961E-8	 	16177.58878	32.09735	 
825.0	1.0	0.0	8.05199	7.27815	-7.70446	16.0017	23.2852	1.15544	0.86547	160.24632	161.54242	60.03216	0.33467	 	4.626343711E8	 	1.15854E-8	 	16017.3476	32.04824	 
820.0	1.0	0.0	8.05433	7.27604	-7.73128	15.97584	23.20907	1.15395	0.86659	160.60172	161.75912	60.17183	0.33453	 	5.291858154E8	 	1.00823E-8	 	15857.35123	31.99927	 
815.0	1.0	0.0	8.05667	7.27393	-7.75802	15.94997	23.13293	1.15246	0.86771	160.95645	161.97482	60.31127	0.33438	 	6.060590094E8	 	8.76316E-9	 	15697.59892	31.95046	 
810.0	1.0	0.0	8.059	7.27182	-7.7847	15.92411	23.05678	1.15095	0.86885	161.31052	162.18954	60.45049	0.33424	 	6.949690678E8	 	7.60694E-9	 	15538.08989	31.90181	 
805.0	1.0	0.0	8.06133	7.26973	-7.81131	15.89826	22.98062	1.14943	0.86999	161.66391	162.40327	60.58948	0.33409	 	7.979348828E8	 	6.59475E-9	 	15378.82337	31.8533	 
800.0	1.0	0.0	8.06365	7.26763	-7.83785	15.8724	22.90444	1.14791	0.87115	162.01663	162.61602	60.72825	0.33395	 	9.173362328E8	 	5.70977E-9	 	15219.79857	31.80496	 
795.0	1.0	0.0	8.06596	7.26555	-7.86432	15.84655	22.82825	1.14637	0.87232	162.36867	162.82779	60.8668	0.3338	 	1.055982244E9	 	4.93699E-9	 	15061.01465	31.75678	 
790.0	1.0	0.0	8.06828	7.26346	-7.89072	15.8207	22.75205	1.14483	0.87349	162.72005	163.03859	61.00512	0.33366	 	1.217193586E9	 	4.26306E-9	 	14902.47077	31.70877	 
785.0	1.0	0.0	8.07058	7.26139	-7.91705	15.79485	22.67583	1.14327	0.87468	163.07076	163.24841	61.14322	0.33351	 	1.404901306E9	 	3.67611E-9	 	14744.16612	31.66093	 
780.0	1.0	0.0	8.07289	7.25932	-7.94331	15.76901	22.5996	1.14171	0.87588	163.42079	163.45726	61.28109	0.33337	 	1.623765855E9	 	3.16558E-9	 	14586.09979	31.61327	 
775.0	1.0	0.0	8.07518	7.25725	-7.9695	15.74317	22.52336	1.14014	0.87709	163.77016	163.66515	61.41874	0.33323	 	1.879320643E9	 	2.72213E-9	 	14428.2709	31.56578	 
770.0	1.0	0.0	8.07748	7.25519	-7.99562	15.71733	22.4471	1.13855	0.87831	164.11885	163.87206	61.55616	0.33308	 	2.17814547E9	 	2.33747E-9	 	14270.67853	31.51847	 
765.0	1.0	0.0	8.07976	7.25314	-8.02168	15.6915	22.37083	1.13696	0.87954	164.46688	164.07802	61.69336	0.33294	 	2.52807636E9	 	2.00427E-9	 	14113.32172	31.47136	 
760.0	1.0	0.0	8.08205	7.25109	-8.04766	15.66566	22.29454	1.13535	0.88078	164.81423	164.28302	61.83033	0.33279	 	2.938459885E9	 	1.71605E-9	 	13956.19953	31.42444	 
755.0	1.0	0.0	8.08433	7.24904	-8.07357	15.63983	22.21824	1.13374	0.88204	165.16092	164.48706	61.96708	0.33265	 	3.420461874E9	 	1.4671E-9	 	13799.31095	31.37772	 
750.0	1.0	0.0	8.0866	7.24701	-8.09942	15.61401	22.14192	1.13211	0.8833	165.50693	164.69015	62.1036	0.33251	 	3.987442799E9	 	1.25237E-9	 	13642.65494	31.3312	 
745.0	1.0	0.0	8.08887	7.24497	-8.12519	15.58818	22.06558	1.13048	0.88458	165.85227	164.89228	62.2399	0.33236	 	4.655414996E9	 	1.06743E-9	 	13486.23045	31.2849	 
740.0	1.0	0.0	8.09113	7.24295	-8.1509	15.56236	21.98923	1.12883	0.88587	166.19695	165.09347	62.37597	0.33222	 	5.4436005E9	 	9.08394E-10	 	13330.03639	31.23881	 
735.0	1.0	0.0	8.09339	7.24093	-8.17653	15.53654	21.91286	1.12718	0.88717	166.54095	165.29371	62.51182	0.33208	 	6.375112843E9	 	7.71834E-10	 	13174.07162	31.19295	 
730.0	1.0	0.0	8.09564	7.23891	-8.2021	15.51073	21.83648	1.12551	0.88849	166.88428	165.49301	62.64744	0.33193	 	7.477791809E9	 	6.54756E-10	 	13018.33498	31.14733	 
725.0	1.0	0.0	8.09789	7.2369	-8.2276	15.48492	21.76008	1.12383	0.88981	167.22695	165.69137	62.78284	0.33179	 	8.785227292E9	 	5.54536E-10	 	12862.82526	31.10194	 
720.0	1.0	0.0	8.10014	7.23489	-8.25303	15.45911	21.68366	1.12214	0.89115	167.56894	165.8888	62.91801	0.33165	 	1.0338E10	 	4.68883E-10	 	12707.5412	31.05681	 
715.0	1.0	0.0	8.10238	7.23289	-8.27838	15.4333	21.60723	1.12044	0.8925	167.91027	166.08529	63.05296	0.3315	 	1.2185299999999998E10	 	3.95797E-10	 	12552.48149	31.01194	 
710.0	1.0	0.0	8.10461	7.2309	-8.30367	15.40749	21.53077	1.11873	0.89387	168.25093	166.28085	63.18768	0.33136	 	1.4386699999999998E10	 	3.33537E-10	 	12397.64478	30.96734	 
705.0	1.0	0.0	8.10684	7.22891	-8.32889	15.38169	21.4543	1.11701	0.89525	168.59091	166.47547	63.32217	0.33122	 	1.7014799999999998E10	 	2.80586E-10	 	12243.02966	30.92302	 
700.0	1.0	0.0	8.10907	7.22693	-8.35405	15.35589	21.37781	1.11528	0.89664	168.93023	166.66918	63.45644	0.33107	 	2.01575E10	 	2.35629E-10	 	12088.63468	30.879	 
695.0	1.0	0.0	8.11129	7.22495	-8.37913	15.3301	21.3013	1.11353	0.89804	169.26888	166.86196	63.59049	0.33093	 	2.3922699999999996E10	 	1.97524E-10	 	11934.45829	30.83528	 
690.0	1.0	0.0	8.1135	7.22298	-8.40414	15.3043	21.22478	1.11177	0.89946	169.60686	167.05381	63.72431	0.33079	 	2.8441599999999996E10	 	1.65282E-10	 	11780.4989	30.79188	 
685.0	1.0	0.0	8.11571	7.22101	-8.42908	15.27851	21.14823	1.11001	0.9009	169.94417	167.24475	63.8579	0.33064	 	3.3875299999999996E10	 	1.3805E-10	 	11626.75485	30.74881	 
680.0	1.0	0.0	8.11792	7.21905	-8.45396	15.25273	21.07166	1.10823	0.90234	170.28081	167.43478	63.99127	0.3305	 	4.04211E10	 	1.15091E-10	 	11473.22438	30.70609	 
675.0	1.0	0.0	8.12012	7.21709	-8.47876	15.22694	20.99507	1.10643	0.9038	170.61678	167.62389	64.12441	0.33036	 	4.832179999999999E10	 	9.57681E-11	 	11319.90569	30.66374	 
670.0	1.0	0.0	8.12231	7.21514	-8.5035	15.20116	20.91846	1.10463	0.90528	170.95209	167.81209	64.25733	0.33021	 	5.787609999999999E10	 	7.95368E-11	 	11166.79684	30.62177	 
665.0	1.0	0.0	8.1245	7.2132	-8.52816	15.17538	20.84183	1.10281	0.90677	171.28672	167.99938	64.39002	0.33007	 	6.9453E10	 	6.59277E-11	 	11013.89585	30.5802	 
660.0	1.0	0.0	8.12669	7.21126	-8.55276	15.1496	20.76518	1.10099	0.90828	171.62069	168.18577	64.52248	0.32993	 	8.35087E10	 	5.45389E-11	 	10861.20526	30.53812	 
655.0	1.0	0.0	8.12887	7.20932	-8.57729	15.12383	20.68851	1.09915	0.9098	171.95399	168.37125	64.65472	0.32979	 	1.00608E11	 	4.50267E-11	 	10708.75078	30.4909	 
650.0	1.0	0.0	8.13104	7.20739	-8.60174	15.09806	20.61181	1.09729	0.91133	172.28662	168.55583	64.78673	0.32964	 	1.21455E11	 	3.70975E-11	 	10556.56657	30.43684	 
645.0	1.0	0.0	8.13321	7.20547	-8.62613	15.07229	20.5351	1.09543	0.91289	172.61858	168.73952	64.91852	0.3295	 	1.46921E11	 	3.05012E-11	 	10404.65175	30.38296	 
640.0	1.0	0.0	8.13538	7.20355	-8.65045	15.04652	20.45836	1.09355	0.91446	172.94988	168.92231	65.05007	0.32936	 	1.78098E11	 	2.50248E-11	 	10253.00545	30.32926	 
635.0	1.0	0.0	8.13754	7.20164	-8.6747	15.02076	20.38159	1.09166	0.91604	173.2805	169.10421	65.18141	0.32922	 	2.16349E11	 	2.04875E-11	 	10101.62677	30.27573	 
630.0	1.0	0.0	8.13969	7.19973	-8.69889	14.995	20.3048	1.08975	0.91764	173.61046	169.28522	65.31251	0.32907	 	2.63382E11	 	1.67364E-11	 	9950.51486	30.22238	 
625.0	1.0	0.0	8.14184	7.19783	-8.723	14.96924	20.22799	1.08783	0.91926	173.93975	169.46534	65.44339	0.32893	 	3.21342E11	 	1.36417E-11	 	9799.6687	30.16923	 
620.0	1.0	0.0	8.14399	7.19594	-8.74704	14.94349	20.15115	1.0859	0.92089	174.26837	169.64457	65.57405	0.32879	 	3.92932E11	 	1.10941E-11	 	9649.08708	30.11632	 
615.0	1.0	0.0	8.14613	7.19405	-8.77102	14.91774	20.07428	1.08396	0.92255	174.59632	169.82292	65.70448	0.32865	 	4.8156E11	 	9.00167E-12	 	9498.7693	30.06356	 
610.0	1.0	0.0	8.14826	7.19216	-8.79492	14.89199	19.99739	1.082	0.92421	174.92361	170.0004	65.83468	0.32851	 	5.91539E11	 	7.28682E-12	 	9348.71452	30.01096	 
605.0	1.0	0.0	8.15039	7.19028	-8.81876	14.86624	19.92048	1.08003	0.9259	175.25023	170.17699	65.96465	0.32836	 	7.28339E11	 	5.88466E-12	 	9198.92188	29.95853	 
600.0	1.0	0.0	8.15252	7.18841	-8.84253	14.8405	19.84353	1.07804	0.92761	175.57618	170.35271	66.0944	0.32822	 	8.98916E11	 	4.74086E-12	 	9049.39053	29.90627	 
595.0	1.0	0.0	8.15464	7.18654	-8.86622	14.81476	19.76656	1.07604	0.92933	175.90146	170.52755	66.22392	0.32808	 	1.11213E12	 	3.81E-12	 	8900.11959	29.85419	 
590.0	1.0	0.0	8.15675	7.18468	-8.88985	14.78902	19.68957	1.07403	0.93107	176.22608	170.70153	66.35321	0.32794	 	1.37932E12	 	3.05427E-12	 	8751.10826	29.80227	 
585.0	1.0	0.0	8.15886	7.18282	-8.91341	14.76329	19.61254	1.072	0.93283	176.55003	170.87464	66.48228	0.3278	 	1.715E12	 	2.44223E-12	 	8602.35566	29.75052	 
580.0	1.0	0.0	8.16097	7.18097	-8.9369	14.73755	19.53548	1.06996	0.93461	176.87331	171.04688	66.61112	0.32766	 	2.13782E12	 	1.94778E-12	 	8453.86097	29.69894	 
575.0	1.0	0.0	8.16307	7.17912	-8.96033	14.71183	19.45839	1.0679	0.93641	177.19592	171.21826	66.73973	0.32751	 	2.67182E12	 	1.54936E-12	 	8305.62335	29.64752	 
570.0	1.0	0.0	8.16516	7.17728	-8.98368	14.6861	19.38128	1.06583	0.93823	177.51787	171.38878	66.86811	0.32737	 	3.34804E12	 	1.22914E-12	 	8157.64195	29.59628	 
565.0	1.0	0.0	8.16725	7.17544	-9.00696	14.66038	19.30413	1.06375	0.94007	177.83915	171.55843	66.99627	0.32723	 	4.20672E12	 	9.72443E-13	 	8009.91596	29.5452	 
560.0	1.0	0.0	8.16934	7.17361	-9.03018	14.63465	19.22695	1.06164	0.94194	178.15976	171.72724	67.1242	0.32709	 	5.30014E12	 	7.67225E-13	 	7862.44454	29.49428	 
555.0	1.0	0.0	8.17142	7.17178	-9.05332	14.60894	19.14974	1.05953	0.94382	178.47971	171.89519	67.2519	0.32695	 	6.69642E12	 	6.03606E-13	 	7715.22687	29.44353	 
550.0	1.0	0.0	8.17349	7.16996	-9.0764	14.58322	19.0725	1.0574	0.94572	178.79898	172.06228	67.37938	0.32681	 	8.48459E12	 	4.73516E-13	 	7568.26214	29.39295	 
545.0	1.0	0.0	8.17556	7.16815	-9.09941	14.55751	18.99522	1.05525	0.94764	179.1176	172.22853	67.50663	0.32667	 	1.07814E13	 	3.70377E-13	 	7421.54952	29.34252	 
540.0	1.0	0.0	8.17762	7.16634	-9.12235	14.5318	18.91791	1.05309	0.94959	179.43554	172.39393	67.63365	0.32653	 	1.37404E13	 	2.8884E-13	 	7275.08821	29.29226	 
535.0	1.0	0.0	8.17968	7.16454	-9.14522	14.50609	18.84056	1.05091	0.95156	179.75282	172.55849	67.76044	0.32638	 	1.75642E13	 	2.24569E-13	 	7128.87739	29.24216	 
530.0	1.0	0.0	8.18173	7.16274	-9.16802	14.48039	18.76318	1.04871	0.95355	180.06943	172.7222	67.88701	0.32624	 	2.25208E13	 	1.7406E-13	 	6982.91628	29.19222	 
525.0	1.0	0.0	8.18378	7.16095	-9.19075	14.45469	18.68576	1.0465	0.95556	180.38538	172.88508	68.01334	0.3261	 	2.89662E13	 	1.34487E-13	 	6837.20406	29.14244	 
520.0	1.0	0.0	8.18583	7.15916	-9.21341	14.42899	18.60831	1.04427	0.9576	180.70065	173.04711	68.13945	0.32596	 	3.73748E13	 	1.03577E-13	 	6691.73993	29.09282	 
515.0	1.0	0.0	8.18786	7.15738	-9.23601	14.40329	18.53081	1.04203	0.95966	181.01527	173.20832	68.26534	0.32582	 	4.83803E13	 	7.95109E-14	 	6546.52313	29.04336	 
510.0	1.0	0.0	8.1899	7.1556	-9.25853	14.3776	18.45328	1.03977	0.96175	181.32921	173.36868	68.39099	0.32568	 	6.28334E13	 	6.08332E-14	 	6401.55286	28.99406	 
505.0	1.0	0.0	8.19192	7.15383	-9.28099	14.35191	18.37571	1.03749	0.96386	181.64249	173.52822	68.51642	0.32554	 	8.18788E13	 	4.63851E-14	 	6256.82833	28.94491	 
500.0	1.0	0.0	8.19395	7.15207	-9.30338	14.32622	18.2981	1.0352	0.966	181.9551	173.68693	68.64161	0.3254	 	1.07063E14	 	3.52461E-14	 	6112.34878	28.89591	 
495.0	1.0	0.0	8.19596	7.15031	-9.3257	14.30054	18.22045	1.03289	0.96816	182.26705	173.84481	68.76658	0.32526	 	1.4048299999999998E14	 	2.66876E-14	 	5968.11344	28.84707	 
490.0	1.0	0.0	8.19797	7.14855	-9.34795	14.27485	18.14275	1.03056	0.97035	182.57833	174.00187	68.89132	0.32512	 	1.84992E14	 	2.01346E-14	 	5824.12153	28.79838	 
485.0	1.0	0.0	8.19998	7.1468	-9.37013	14.24917	18.06502	1.02821	0.97256	182.88894	174.15811	69.01584	0.32498	 	2.4449E14	 	1.5135E-14	 	5680.37232	28.74984	 
480.0	1.0	0.0	8.20198	7.14506	-9.39224	14.2235	17.98724	1.02585	0.9748	183.19889	174.31352	69.14012	0.32484	 	3.24321E14	 	1.13343E-14	 	5536.86503	28.70146	 
475.0	1.0	0.0	8.20398	7.14332	-9.41429	14.19782	17.90941	1.02347	0.97707	183.50817	174.46812	69.26418	0.3247	 	4.31847E14	 	8.45562E-15	 	5393.59893	28.65322	 
470.0	1.0	0.0	8.20597	7.14159	-9.43626	14.17215	17.83154	1.02107	0.97937	183.81679	174.6219	69.38801	0.32456	 	5.77243E14	 	6.28355E-15	 	5250.57328	28.60513	 
465.0	1.0	0.0	8.20795	7.13986	-9.45817	14.14649	17.75362	1.01865	0.98169	184.12474	174.77487	69.51161	0.32442	 	7.7463E14	 	4.6509E-15	 	5107.78733	28.55719	 
460.0	1.0	0.0	8.20993	7.13814	-9.48	14.12082	17.67566	1.01621	0.98405	184.43202	174.92703	69.63498	0.32428	 	1.04369E15	 	3.42853E-15	 	4965.24037	28.50939	 
455.0	1.0	0.0	8.21191	7.13642	-9.50177	14.09516	17.59765	1.01375	0.98643	184.73864	175.07838	69.75812	0.32414	 	1.41198E15	 	2.51698E-15	 	4822.93167	28.46174	 
450.0	1.0	0.0	8.21388	7.13471	-9.52347	14.0695	17.51959	1.01128	0.98885	185.04459	175.22892	69.88103	0.324	 	1.91822E15	 	1.83999E-15	 	4680.86053	28.41423	 
445.0	1.0	0.0	8.21584	7.133	-9.5451	14.04384	17.44147	1.00878	0.99129	185.34988	175.37866	70.00371	0.32386	 	2.61712E15	 	1.3393E-15	 	4539.02622	28.36686	 
440.0	1.0	0.0	8.2178	7.1313	-9.56667	14.01819	17.36331	1.00627	0.99377	185.6545	175.52759	70.12617	0.32372	 	3.58624E15	 	9.70572E-16	 	4397.42807	28.31963	 
435.0	1.0	0.0	8.21975	7.12961	-9.58816	13.99254	17.28509	1.00374	0.99628	185.95845	175.67573	70.2484	0.32358	 	4.93614E15	 	7.00203E-16	 	4256.06536	28.27254	 
430.0	1.0	0.0	8.2217	7.12792	-9.60959	13.96689	17.20682	1.00118	0.99882	186.26174	175.82307	70.37039	0.32344	 	6.8251E15	 	5.02835E-16	 	4114.93743	28.22559	 
425.0	1.0	0.0	8.22365	7.12624	-9.63094	13.94124	17.12849	0.99861	1.00139	186.56437	175.96961	70.49216	0.3233	 	9.48083E15	 	3.59409E-16	 	3974.04366	28.17875	 
420.0	1.0	0.0	8.22558	7.12456	-9.65223	13.9156	17.0501	0.99602	1.004	186.86633	176.11535	70.6137	0.32316	 	1.32325E16	 	2.55665E-16	 	3833.38329	28.13207	 
415.0	1.0	0.0	8.22752	7.12288	-9.67345	13.88996	16.97166	0.9934	1.00664	187.16762	176.2603	70.73501	0.32302	 	1.85585E16	 	1.80978E-16	 	3692.95592	28.08547	 
410.0	1.0	0.0	8.22944	7.12122	-9.6946	13.86432	16.89316	0.99077	1.00932	187.46825	176.40447	70.85609	0.32288	 	2.61573E16	 	1.2747E-16	 	3552.7613	28.03892	 
405.0	1.0	0.0	8.23136	7.11955	-9.71568	13.83869	16.8146	0.98811	1.01203	187.76821	176.54784	70.97694	0.32274	 	3.70546E16	 	8.93244E-17	 	3412.79918	27.99242	 
400.0	1.0	0.0	8.23328	7.1179	-9.73669	13.81306	16.73597	0.98543	1.01478	188.06751	176.69043	71.09756	0.3226	 	5.2764E16	 	6.22674E-17	 	3273.06931	27.94597	 
395.0	1.0	0.0	8.23519	7.11624	-9.75764	13.78743	16.65728	0.98273	1.01757	188.36614	176.83224	71.21795	0.32246	 	7.5532E16	 	4.31748E-17	 	3133.57145	27.89957	 
390.0	1.0	0.0	8.2371	7.1146	-9.77852	13.7618	16.57853	0.98001	1.02039	188.6641	176.97326	71.33811	0.32232	 	1.08711E17	 	2.97732E-17	 	2994.30539	27.85321	 
385.0	1.0	0.0	8.239	7.11296	-9.79932	13.73618	16.49971	0.97727	1.02326	188.96141	177.11351	71.45805	0.32218	 	1.57332E17	 	2.04171E-17	 	2855.27091	27.80689	 
380.0	1.0	0.0	8.24089	7.11132	-9.82006	13.71056	16.42082	0.97451	1.02616	189.25804	177.25298	71.57775	0.32205	 	2.28992E17	 	1.39213E-17	 	2716.46781	27.76062	 
375.0	1.0	0.0	8.24278	7.10969	-9.84073	13.68494	16.34187	0.97172	1.02911	189.55401	177.39167	71.69722	0.32191	 	3.35227E17	 	9.43677E-18	 	2577.89592	27.71438	 
370.0	1.0	0.0	8.24467	7.10807	-9.86133	13.65932	16.26284	0.96891	1.03209	189.84932	177.52958	71.81646	0.32177	 	4.93662E17	 	6.35871E-18	 	2439.55503	27.66818	 
365.0	1.0	0.0	8.24654	7.10645	-9.88187	13.63371	16.18373	0.96607	1.03512	190.14396	177.66673	71.93547	0.32163	 	7.31401E17	 	4.25847E-18	 	2301.44499	27.62201	 
360.0	1.0	0.0	8.24842	7.10483	-9.90233	13.6081	16.10456	0.96322	1.03819	190.43794	177.8031	72.05426	0.32149	 	1.09038E18	 	2.8341E-18	 	2163.56566	27.57587	 
355.0	1.0	0.0	8.25028	7.10323	-9.92273	13.58249	16.0253	0.96034	1.0413	190.73125	177.93871	72.17281	0.32135	 	1.63591E18	 	1.87409E-18	 	2025.9169	27.52975	 
350.0	1.0	0.0	8.25215	7.10162	-9.94305	13.55689	15.94597	0.95743	1.04446	191.0239	178.07355	72.29113	0.32121	 	2.47042E18	 	1.23114E-18	 	1888.49857	27.48367	 
345.0	1.0	0.0	8.254	7.10003	-9.96331	13.53129	15.86655	0.9545	1.04767	191.31588	178.20763	72.40922	0.32107	 	3.75557E18	 	8.03349E-19	 	1751.3106	27.4376	 
340.0	1.0	0.0	8.25585	7.09843	-9.9835	13.50569	15.78706	0.95155	1.05092	191.6072	178.34095	72.52708	0.32094	 	5.74843E18	 	5.206E-19	 	1614.35286	27.39155	 
335.0	1.0	0.0	8.2577	7.09685	-10.00363	13.4801	15.70747	0.94857	1.05422	191.89785	178.4735	72.64471	0.3208	 	8.86057E18	 	3.34993E-19	 	1477.62529	27.34551	 
330.0	1.0	0.0	8.25954	7.09527	-10.02368	13.4545	15.62781	0.94557	1.05756	192.18784	178.6053	72.76211	0.32066	 	1.37559E19	 	2.14004E-19	 	1341.12784	27.29949	 
325.0	1.0	0.0	8.26138	7.09369	-10.04366	13.42891	15.54805	0.94254	1.06096	192.47716	178.73634	72.87928	0.32052	 	2.15135E19	 	1.35702E-19	 	1204.86046	27.25348	 
320.0	1.0	0.0	8.26321	7.09212	-10.06358	13.40333	15.4682	0.93949	1.06441	192.76582	178.86663	72.99622	0.32038	 	3.39006E19	 	8.53972E-20	 	1068.82312	27.20747	 
315.0	1.0	0.0	8.26503	7.09055	-10.08343	13.37774	15.38825	0.93641	1.06791	193.05381	178.99617	73.11293	0.32024	 	5.38346E19	 	5.33228E-20	 	933.01583	27.16146	 
310.0	1.0	0.0	8.26685	7.08899	-10.10321	13.35216	15.30821	0.9333	1.07147	193.34114	179.12495	73.22941	0.32011	 	8.61708E19	 	3.30299E-20	 	797.4386	27.11545	 
305.0	1.0	0.0	8.26866	7.08744	-10.12292	13.32658	15.22807	0.93017	1.07507	193.6278	179.25299	73.34565	0.31997	 	1.3905699999999998E20	 	2.02925E-20	 	662.09146	27.06943	 
300.0	1.0	0.0	8.27047	7.08589	-10.14256	13.301	15.14783	0.92701	1.07874	193.9138	179.38028	73.46167	0.31983	 	2.2628199999999997E20	 	1.23625E-20	 	526.97448	27.0234	 
295.0	1.0	0.0	8.27227	7.08435	-10.16214	13.27543	15.06749	0.92382	1.08246	194.19914	179.50682	73.57745	0.31969	 	3.7139E20	 	7.46654E-21	 	392.08772	26.97735	 
290.0	1.0	0.0	8.27407	7.08281	-10.18164	13.24986	14.98703	0.92061	1.08624	194.48381	179.63263	73.693	0.31955	 	6.149379999999999E20	 	4.46971E-21	 	257.43132	26.93128	 
285.0	1.0	0.0	8.27586	7.08128	-10.20108	13.22429	14.90647	0.91737	1.09008	194.76782	179.75769	73.80833	0.31942	 	1.02744E21	 	2.65144E-21	 	123.00537	26.88519	 
280.0	1.0	0.0	8.27764	7.07975	-10.22045	13.19873	14.82579	0.91409	1.09398	195.05116	179.88201	73.92342	0.31928	 	1.73265E21	 	1.55818E-21	 	-11.18995	26.83907	 
275.0	1.0	0.0	8.27942	7.07823	-10.23975	13.17317	14.745	0.9108	1.09794	195.33384	180.00559	74.03827	0.31914	 	2.94989E21	 	9.06943E-22	 	-145.15448	26.7929	 
270.0	1.0	0.0	8.2812	7.07671	-10.25898	13.14761	14.66408	0.90747	1.10197	195.61585	180.12844	74.1529	0.319	 	5.07173E21	 	5.22697E-22	 	-278.88799	26.7467	 
265.0	1.0	0.0	8.28297	7.0752	-10.27815	13.12205	14.58305	0.90411	1.10606	195.8972	180.25056	74.2673	0.31887	 	8.80805E21	 	2.98202E-22	 	-412.39025	26.70045	 
260.0	1.0	0.0	8.28473	7.07369	-10.29724	13.0965	14.50188	0.90072	1.11022	196.17789	180.37195	74.38146	0.31873	 	1.54561E22	 	1.68359E-22	 	-545.661	26.65415	 
255.0	1.0	0.0	8.28649	7.07219	-10.31627	13.07094	14.42059	0.89731	1.11445	196.45791	180.4926	74.4954	0.31859	 	2.74121E22	 	9.40375E-23	 	-678.69993	26.60779	 
250.0	1.0	0.0	8.28824	7.0707	-10.33523	13.0454	14.33916	0.89386	1.11875	196.73727	180.61253	74.6091	0.31845	 	4.91522E22	 	5.19481E-23	 	-811.50671	26.56136	 
245.0	1.0	0.0	8.28999	7.06921	-10.35412	13.01985	14.2576	0.89038	1.12312	197.01596	180.73173	74.72257	0.31832	 	8.91329E22	 	2.83729E-23	 	-944.08096	26.51485	 
240.0	1.0	0.0	8.29173	7.06772	-10.37294	12.99431	14.17589	0.88687	1.12756	197.29399	180.8502	74.8358	0.31818	 	1.6351999999999998E23	 	1.53166E-23	 	-1076.4223	26.46827	 
235.0	1.0	0.0	8.29346	7.06624	-10.3917	12.96877	14.09403	0.88333	1.13208	197.57136	180.96796	74.94881	0.31804	 	3.0359099999999995E23	 	8.1694E-24	 	-1208.53025	26.42159	 
230.0	1.0	0.0	8.29519	7.06477	-10.41039	12.94323	14.01202	0.87976	1.13668	197.84806	181.08499	75.06158	0.3179	 	5.7061999999999996E23	 	4.30365E-24	 	-1340.40436	26.37482	 
225.0	1.0	0.0	8.29692	7.0633	-10.429	12.9177	13.92986	0.87615	1.14135	198.1241	181.2013	75.17412	0.31777	 	1.08619E24	 	2.23841E-24	 	-1472.04409	26.32795	 
220.0	1.0	0.0	8.29864	7.06184	-10.44755	12.89217	13.84754	0.87251	1.14611	198.39947	181.3169	75.28643	0.31763	 	2.09477E24	 	1.14902E-24	 	-1603.44885	26.28095	 
215.0	1.0	0.0	8.30035	7.06038	-10.46604	12.86664	13.76505	0.86884	1.15096	198.67418	181.43178	75.39851	0.31749	 	4.09458E24	 	5.81876E-25	 	-1734.61805	26.23384	 
210.0	1.0	0.0	8.30206	7.05893	-10.48445	12.84111	13.68239	0.86514	1.15588	198.94823	181.54594	75.51035	0.31736	 	8.11533E24	 	2.90578E-25	 	-1865.55099	26.18659	 
205.0	1.0	0.0	8.30376	7.05748	-10.50279	12.81559	13.59956	0.8614	1.1609	199.22161	181.6594	75.62196	0.31722	 	1.63161E25	 	1.43032E-25	 	-1996.24698	26.1392	 
200.0	1.0	0.0	8.30545	7.05604	-10.52107	12.79007	13.51654	0.85763	1.16601	199.49433	181.77214	75.73334	0.31708	 	3.32918E25	 	6.93663E-26	 	-2126.70522	26.09165	 
195.0	1.0	0.0	8.30714	7.05461	-10.53928	12.76455	13.43334	0.85382	1.1712	199.76638	181.88418	75.84449	0.31695	 	6.8972200000000005E25	 	3.31282E-26	 	-2256.92489	26.04393	 
190.0	1.0	0.0	8.30883	7.05318	-10.55742	12.73903	13.34994	0.84998	1.1765	200.03777	181.9955	75.9554	0.31681	 	1.4515800000000002E26	 	1.55728E-26	 	-2386.90509	25.99604	 
185.0	1.0	0.0	8.31051	7.05175	-10.57549	12.71352	13.26634	0.8461	1.18189	200.3085	182.10613	76.06608	0.31667	 	3.1050000000000004E26	 	7.20167E-27	 	-2516.64487	25.94796	 
180.0	1.0	0.0	8.31218	7.05033	-10.5935	12.68801	13.18253	0.84219	1.18738	200.57856	182.21605	76.17653	0.31654	 	6.754120000000001E26	 	3.27461E-27	 	-2646.14319	25.89966	 
175.0	1.0	0.0	8.31385	7.04892	-10.61143	12.66251	13.09851	0.83824	1.19298	200.84796	182.32526	76.28675	0.3164	 	1.49488E27	 	1.4632E-27	 	-2775.39898	25.85116	 
170.0	1.0	0.0	8.31551	7.04751	-10.6293	12.637	13.01427	0.83425	1.19868	201.1167	182.43378	76.39673	0.31627	 	3.36847E27	 	6.42103E-28	 	-2904.41103	25.80241	 
165.0	1.0	0.0	8.31717	7.0461	-10.6471	12.6115	12.9298	0.83023	1.20449	201.38477	182.5416	76.50648	0.31613	 	7.73232E27	 	2.76566E-28	 	-3033.17814	25.75342	 
160.0	1.0	0.0	8.31882	7.04471	-10.66483	12.586	12.84509	0.82617	1.21041	201.65218	182.64872	76.61599	0.31599	 	1.8093300000000002E28	 	1.16844E-28	 	-3161.69892	25.70416	 
155.0	1.0	0.0	8.32046	7.04331	-10.6825	12.56051	12.76014	0.82207	1.21645	201.91893	182.75515	76.72528	0.31586	 	4.31868E28	 	4.83873E-29	 	-3289.97199	25.65461	 
150.0	1.0	0.0	8.3221	7.04193	-10.70009	12.53502	12.67493	0.81793	1.2226	202.18501	182.86089	76.83433	0.31572	 	1.05223E29	 	1.96277E-29	 	-3417.99581	25.60476	 
145.0	1.0	0.0	8.32374	7.04054	-10.71762	12.50953	12.58945	0.81375	1.22888	202.45043	182.96593	76.94314	0.31558	 	2.61893E29	 	7.79284E-30	 	-3545.76877	25.55459	 
140.0	1.0	0.0	8.32537	7.03917	-10.73508	12.48404	12.50371	0.80953	1.23528	202.71518	183.07028	77.05173	0.31545	 	6.663760000000001E29	 	3.02605E-30	 	-3673.28914	25.50407	 
135.0	1.0	0.0	8.32699	7.03779	-10.75247	12.45856	12.41768	0.80528	1.24181	202.97928	183.17395	77.16008	0.31531	 	1.73481E30	 	1.1483E-30	 	-3800.55511	25.45319	 
130.0	1.0	0.0	8.32861	7.03643	-10.7698	12.43307	12.33135	0.80098	1.24847	203.2427	183.27692	77.26819	0.31518	 	4.6248E30	 	4.25462E-31	 	-3927.56468	25.40191	 
125.0	1.0	0.0	8.33022	7.03507	-10.78705	12.4076	12.24472	0.79664	1.25527	203.50547	183.37922	77.37607	0.31504	 	1.26366E31	 	1.53782E-31	 	-4054.3158	25.35022	 
120.0	1.0	0.0	8.33182	7.03371	-10.80424	12.38212	12.15778	0.79226	1.2622	203.76757	183.48083	77.48372	0.31491	 	3.54216E31	 	5.41723E-32	 	-4180.80624	25.29809	 
115.0	1.0	0.0	8.33342	7.03236	-10.82136	12.35665	12.0705	0.78784	1.26929	204.02901	183.58175	77.59114	0.31477	 	1.0196199999999999E32	 	1.858E-32	 	-4307.03366	25.24548	 
110.0	1.0	0.0	8.33501	7.03102	-10.83841	12.33118	11.98288	0.78338	1.27652	204.28978	183.682	77.69832	0.31463	 	3.0171499999999998E32	 	6.19811E-33	 	-4432.99553	25.19237	 
105.0	1.0	0.0	8.3366	7.02968	-10.85539	12.30571	11.8949	0.77888	1.2839	204.5499	183.78157	77.80526	0.3145	 	9.18781E32	 	2.00881E-33	 	-4558.68919	25.13873	 
100.0	1.0	0.0	8.33818	7.02834	-10.87231	12.28024	11.80655	0.77433	1.29144	204.80935	183.88046	77.91198	0.31436	 	2.8826300000000003E33	 	6.31803E-34	 	-4684.11177	25.08452	 
95.0	1.0	0.0	8.33976	7.02702	-10.88916	12.25478	11.71781	0.76974	1.29914	205.06813	183.97868	78.01845	0.31423	 	9.329380000000001E33	 	1.92601E-34	 	-4809.26026	25.0297	 
90.0	1.0	0.0	8.34133	7.02569	-10.90594	12.22932	11.62867	0.76511	1.30701	205.32625	184.07622	78.1247	0.31409	 	3.11862E34	 	5.68342E-35	 	-4934.13142	24.97423	 
85.0	1.0	0.0	8.3429	7.02438	-10.92265	12.20387	11.53911	0.76043	1.31505	205.58371	184.17309	78.23071	0.31396	 	1.0782199999999998E35	 	1.62123E-35	 	-5058.7218	24.91808	 
80.0	1.0	0.0	8.34446	7.02306	-10.93929	12.17841	11.44912	0.75571	1.32326	205.84051	184.2693	78.33648	0.31382	 	3.86105E35	 	4.46416E-36	 	-5183.02775	24.86119	 
75.0	1.0	0.0	8.34601	7.02176	-10.95587	12.15296	11.35866	0.75094	1.33166	206.09664	184.36483	78.44202	0.31369	 	1.4342299999999998E36	 	1.18477E-36	 	-5307.04533	24.80352	 
70.0	1.0	0.0	8.34756	7.02045	-10.97238	12.12752	11.26773	0.74613	1.34025	206.35211	184.45969	78.54733	0.31355	 	5.53526E36	 	3.02575E-37	 	-5430.77039	24.74501	 
65.0	1.0	0.0	8.3491	7.01916	-10.98882	12.10207	11.17629	0.74127	1.34903	206.60692	184.55389	78.6524	0.31342	 	2.22333E37	 	7.42323E-38	 	-5554.19846	24.68561	 
60.0	1.0	0.0	8.35063	7.01787	-11.00519	12.07663	11.08434	0.73637	1.35801	206.86106	184.64742	78.75724	0.31328	 	9.31095E37	 	1.74635E-38	 	-5677.3248	24.62527	 
55.0	1.0	0.0	8.35216	7.01658	-11.02149	12.05119	10.99183	0.73142	1.3672	207.11455	184.7403	78.86184	0.31315	 	4.07324E38	 	3.93205E-39	 	-5800.14432	24.5639	 
50.0	1.0	0.0	8.35369	7.0153	-11.03773	12.02575	10.89876	0.72643	1.3766	207.36736	184.83251	78.96621	0.31301	 	1.86517E39	 	8.45613E-40	 	-5922.6516	24.50146	 
45.0	1.0	0.0	8.35521	7.01403	-11.0539	12.00032	10.80508	0.72139	1.38621	207.61952	184.92406	79.07034	0.31288	 	8.959190000000001E39	 	1.7332E-40	 	-6044.84084	24.43785	 
40.0	1.0	0.0	8.35672	7.01276	-11.07	11.97489	10.71077	0.7163	1.39605	207.87101	185.01495	79.17424	0.31274	 	4.52462E40	 	3.37798E-41	 	-6166.70582	24.373	 
35.0	1.0	0.0	8.35823	7.01149	-11.08603	11.94946	10.61581	0.71117	1.40613	208.12184	185.10519	79.2779	0.31261	 	2.40835E41	 	6.24495E-42	 	-6288.2399	24.30682	 
30.0	1.0	0.0	8.35973	7.01023	-11.102	11.92404	10.52014	0.706	1.41644	208.37201	185.19477	79.38133	0.31247	 	1.3546E42	 	1.09228E-42	 	-6409.43594	24.23921	 
25.0	1.0	0.0	8.36122	7.00898	-11.11789	 	10.42375	0.70077	1.427	208.62151	185.2837	79.48452	0.31234	 	8.07344E42	 	1.80245E-43	 	-6530.28631	 	 
