T (C)	Fraction solid (wt)-TOTAL	Fraction liquid (wt)-LIQUID	Density (g/(cm)^3)-TOTAL	Molar volume (cm^3)-TOTAL	Volume change (%)-  	Average expansion coeff. (10e-6 1/K)-  	Thermal conductivity (W/(m*K))-TOTAL	Electrical resistivity (10e-6 Ohm*m)-TOTAL	Electrical conductivity (10e6 1/(Ohm*m))-TOTAL	Young's modulus (GPa)-TOTAL	Bulk modulus (GPa)-TOTAL	Shear modulus(GPa)-TOTAL	Poisson's ratio-TOTAL	Liquid viscosity (mPa s)-  	Total viscosity (mPa s)-  	Liquid diffusivity (10e-9 (m^2)/s)-  	Total diffusivity (10e-9 (m^2)/s)-  	Surface Tension (mN/m)-  	Enthalpy (J/mole)-TOTAL	Specific heat (J/(mole K))-TOTAL	Latent heat (J/mole)-TOTAL
1400.0	0.0	1.0	6.91356	7.943	0.0	34.37527	30.08072	1.36274	0.73382	0.0	120.5494	0.0	0.5	5.91822	5.91822	1.37985	1.37985	1707.05832	47878.289	 	0.0
1395.0	0.0	1.0	6.91758	7.93839	-0.0581243	34.33925	29.99802	1.36241	0.73399	0.0	120.69729	0.0	0.5	5.97883	5.97883	1.36178	1.36178	1708.72097	47678.755	39.9068	0.0
1390.0	0.0	1.0	6.92159	7.93378	-0.11609	34.30343	29.91531	1.36208	0.73417	0.0	120.84517	0.0	0.5	6.04043	6.04043	1.34385	1.34385	1710.38536	47479.648	39.8214	0.0
1385.0	0.0	1.0	6.9256	7.92919	-0.17388	34.2678	29.83261	1.36175	0.73435	0.0	120.99305	0.0	0.5	6.10304	6.10304	1.32606	1.32606	1712.05122	47280.965	39.7366	0.0
1380.0	0.0	1.0	6.9296	7.92461	-0.23152	34.23236	29.7499	1.36142	0.73453	0.0	121.14094	0.0	0.5	6.16669	6.16669	1.30842	1.30842	1713.71823	47082.705	39.652	0.0
1375.0	0.0	1.0	6.9336	7.92005	-0.28899	34.19712	29.66719	1.36109	0.73471	0.0	121.28882	0.0	0.5	6.2314	6.2314	1.29092	1.29092	1715.38604	46884.864	39.5682	0.0
1370.0	0.0	1.0	6.93758	7.9155	-0.3463	34.16208	29.58448	1.36075	0.73489	0.0	121.4367	0.0	0.5	6.29718	6.29718	1.27356	1.27356	1717.05432	46687.439	39.485	0.0
1365.0	0.0	1.0	6.94156	7.91096	-0.40344	34.12725	29.50177	1.36042	0.73507	0.0	121.58459	0.0	0.5	6.36406	6.36406	1.25634	1.25634	1718.7227	46490.43	39.4018	0.0
1360.0	0.0	1.0	6.94554	7.90643	-0.46042	34.09262	29.41905	1.36008	0.73525	0.0	121.73247	0.0	0.5	6.43208	6.43208	1.23926	1.23926	1720.39082	46293.832	39.3196	0.0
1355.0	0.0	1.0	6.9495	7.90192	-0.51724	34.05819	29.33634	1.35974	0.73544	0.0	121.88035	0.0	0.5	6.50124	6.50124	1.22232	1.22232	1722.05832	46097.645	39.2374	0.0
1350.0	0.0	1.0	6.95346	7.89742	-0.57389	34.02398	29.25362	1.35939	0.73562	0.0	122.02824	0.0	0.5	6.57158	6.57158	1.20552	1.20552	1723.7248	45901.864	39.1562	0.0
1345.0	0.0	1.0	6.95742	7.89293	-0.63038	33.98997	29.17091	1.35905	0.73581	0.0	122.17612	0.0	0.5	6.64312	6.64312	1.18887	1.18887	1725.38989	45706.489	39.075	0.0
1340.0	0.0	1.0	6.96136	7.88846	-0.68671	33.95619	29.08819	1.3587	0.736	0.0	122.324	0.0	0.5	6.7159	6.7159	1.17235	1.17235	1727.05318	45511.516	38.9946	0.0
1336.02	0.0	1.0	6.9645	7.88491	-0.73141	33.92946	29.02238	1.35842	0.73615	0.0	122.44165	0.0	0.5	6.77469	6.77469	1.15931	1.15931	1728.37489	45356.698	38.9207	0.0
1335.0	0.02454	0.97546	6.97229	7.87604	-0.84312	33.63136	29.10271	1.35381	0.73865	3.12889E-5	122.67455	1.04512E-5	0.49691	6.78805	7.017	1.15629	1.11857	1727.68675	44963.774	384.38301	353.169
1330.0	0.1358	0.8642	7.00811	7.83581	-1.34951	32.28336	29.47134	1.33272	0.75034	0.030134	123.76789	0.0101613	0.48278	6.85339	12.93251	1.14171	0.60503	1724.3558	43175.008	357.7532	1947.76
1325.0	0.22969	0.77031	7.03899	7.8014	-1.78279	31.13901	29.78214	1.3147	0.76063	0.2522	124.76132	0.0857424	0.47068	6.91931	50.14187	1.12731	0.15556	1721.12852	41643.101	306.3814	3285.889
1322.09	0.27714	0.72286	7.05491	7.78383	-2.00394	30.55996	29.93832	1.30546	0.76601	0.54073	125.29917	0.18461	0.46451	6.95799	99.12776	1.119	0.0785448	1719.30086	40857.187	 	3959.197
1320.0	0.33752	0.66248	7.07486	7.76186	-2.28056	29.79629	30.14544	1.2948	0.77232	1.20445	126.13438	0.4135	0.45643	7.01204	212.21822	1.10892	0.0366404	1718.80874	39869.926	354.635	4865.68
1315.0	0.46038	0.53962	7.11602	7.71694	-2.84608	28.24329	30.57607	1.27255	0.78582	4.30781	127.87233	1.49602	0.43975	7.14269	750.48508	1.08522	0.0103285	1717.60335	37845.215	404.9422	6697.399
1310.0	0.55367	0.44633	7.14808	7.68228	-3.28245	27.06071	30.9019	1.25517	0.7967	9.2705	129.27854	3.24851	0.42688	7.27534	1645.87391	1.06208	0.00469475	1716.3787	36276.198	313.8034	8073.812
1305.0	0.62598	0.37402	7.17361	7.65481	-3.62826	26.13818	31.1504	1.24123	0.80566	15.50653	130.45095	5.47256	0.41675	7.41013	2834.91557	1.03946	0.00271703	1715.14344	35029.101	249.4194	9128.692
1300.0	0.68303	0.31697	7.19436	7.63264	-3.9074	25.40743	31.33777	1.2299	0.81308	22.40988	131.4559	7.95437	0.40865	7.54705	4245.79958	1.01737	0.00180841	1713.89807	34014.637	202.8928	9951.324
1295.0	0.72872	0.27128	7.21151	7.61429	-4.13835	24.81532	31.47671	1.22057	0.81929	29.51123	132.3351	10.52416	0.40207	7.68616	5820.32642	0.99578	0.001315	1712.65232	33171.71	168.5854	10602.802
1290.0	0.76582	0.23418	7.22587	7.59888	-4.33248	24.32934	31.57713	1.21281	0.82453	36.50021	133.12327	13.06704	0.39665	7.82756	7519.70477	0.97468	0.00101458	1714.41839	32455.42835	143.25633	11125.868
1285.0	0.79631	0.20369	7.23807	7.58654	-4.48778	23.95679	31.64457	1.20636	0.82894	43.19076	133.81182	15.51269	0.39211	7.97126	9314.82543	0.95405	8.16434E-4	1716.18645	31836.60374	123.76492	11551.03
1280.0	0.82163	0.17837	7.24865	7.57585	-4.62236	23.64409	31.68776	1.20085	0.83275	49.4803	134.44939	17.82067	0.38828	8.11741	11198.81747	0.93386	6.76905E-4	1717.95831	31293.95071	108.53061	11900.456
1275.0	0.84289	0.15711	7.25796	7.56643	-4.74093	23.37764	31.71141	1.19609	0.83606	55.32985	135.04744	19.97432	0.38502	8.266	13168.91563	0.91412	5.73786E-4	1719.735	30811.09226	96.57169	12190.521
1270.0	0.86088	0.13912	7.26624	7.55803	-4.84671	23.14816	31.71911	1.19194	0.83897	60.73436	135.61467	21.96981	0.38222	8.41714	15227.54426	0.89481	4.94612E-4	1721.51418	30375.75076	87.0683	12433.499
1265.0	0.87623	0.12377	7.27369	7.55042	-4.94251	22.94744	31.71375	1.18828	0.84156	65.71195	136.15708	23.81226	0.37979	8.57085	17381.69176	0.87591	4.3191E-4	1723.29843	29978.59463	79.43123	12638.719
1260.0	0.88942	0.11058	7.28046	7.54347	-5.02998	22.7708	31.69751	1.18502	0.84387	70.28537	136.67963	25.50882	0.37767	8.7273	19639.7892	0.85742	3.81008E-4	1725.08446	29612.44327	73.23027	12813.36
1255.0	0.90086	0.0991444	7.28666	7.53705	-5.11082	22.61322	31.67227	1.1821	0.84595	74.49152	137.18586	27.07218	0.37579	8.88657	22014.57222	0.8393	3.38799E-4	1726.87293	29271.70409	68.14784	12963.011
1250.0	0.91082	0.0891804	7.2924	7.53107	-5.18607	22.47172	31.63942	1.17945	0.84785	78.35909	137.67846	28.51218	0.37413	9.04865	24517.45335	0.82157	3.03217E-4	1728.66328	28951.97647	63.94552	13092.071
1245.0	0.91955	0.0804456	7.29775	7.52545	-5.25683	22.34307	31.60017	1.17704	0.84959	81.92508	138.15948	29.842	0.37265	9.21379	27164.50774	0.8042	2.72772E-4	1730.45661	28649.7598	60.44333	13204.037
1240.0	0.9295	0.0705035	7.30349	7.51924	-5.33505	22.18999	31.56093	1.17462	0.85134	86.08472	138.6678	31.39563	0.37097	9.37543	30252.52255	0.78773	2.44122E-4	1732.11342	28325.88445	64.77507	13338.078
1235.0	0.94071	0.0592915	7.30989	7.51233	-5.42211	22.00785	31.52779	1.17197	0.85326	90.90491	139.17617	33.19991	0.36905	9.49576	33852.88555	0.77518	2.17438E-4	1733.66522	27981.2418	68.92853	13493.3
1230.0	0.94966	0.0503427	7.31556	7.50618	-5.49949	21.85475	31.48462	1.16969	0.85493	94.98747	139.66063	34.73074	0.36748	9.61342	37536.50106	0.76315	1.9545E-4	1735.21805	27670.41621	62.16512	13615.117
1225.0	0.95693	0.0430742	7.3207	7.5006	-5.56967	21.72321	31.4339	1.16768	0.8564	98.48938	140.12718	36.0458	0.36617	9.72894	41347.92077	0.75158	1.76843E-4	1736.77331	27384.63504	57.15623	13712.299
1220.0	0.96292	0.0370788	7.32544	7.49546	-5.63443	21.60785	31.37744	1.16587	0.85772	101.53229	140.58024	37.18998	0.36505	9.84249	45328.26074	0.74043	1.60776E-4	1738.33214	27117.74965	53.37708	13790.993
1215.0	0.96794	0.032061	7.32986	7.49065	-5.69495	21.5051	31.31654	1.16423	0.85894	104.20854	141.02272	38.19743	0.36408	9.95463	49515.63075	0.72964	1.46687E-4	1739.89302	26865.37539	50.47485	13855.579
1210.0	0.97299	0.027006	7.33422	7.4857	-5.75728	21.39563	31.25265	1.16269	0.86007	106.97807	141.48441	39.24046	0.36311	10.12128	54127.22924	0.71521	1.33738E-4	1741.4443	26613.21858	50.43136	13920.35
1205.0	0.97652	0.0234778	7.33806	7.48141	-5.81129	21.3121	31.18341	1.16134	0.86107	109.07863	141.9181	40.03254	0.36237	10.26751	58833.37157	0.70265	1.22626E-4	1743.0449	26383.60659	45.9224	13962.976
1200.0	0.97958	0.0204197	7.34174	7.47729	-5.86318	21.23469	31.11224	1.16006	0.86202	110.98749	142.34477	40.75297	0.36171	10.41295	63857.15355	0.69049	1.12596E-4	1744.64587	26160.93474	44.53437	13999.058
1195.0	0.98225	0.0177497	7.3453	7.4733	-5.91337	21.16217	31.03949	1.15884	0.86293	112.73552	142.76505	41.41327	0.3611	10.55661	69234.70723	0.67879	1.03498E-4	1746.24994	25943.98136	43.39068	14029.815
1190.0	0.98464	0.0153643	7.34881	7.46942	-5.96231	21.09312	30.96591	1.15763	0.86383	114.3634	143.1787	42.02875	0.36054	10.68896	75012.92449	0.6681	9.52006E-5	1747.8416	25731.18279	42.55971	14056.81
1185.0	0.98675	0.0132532	7.35222	7.46563	-6.01	21.02757	30.8911	1.15647	0.8647	115.8742	143.5879	42.6004	0.36001	10.82107	81224.19406	0.65769	8.762E-5	1749.43533	25522.48738	41.73908	14080.091
1180.0	0.98863	0.0113703	7.35557	7.46193	-6.0566	20.96504	30.81514	1.15535	0.86554	117.2869	143.99318	43.13531	0.35952	10.95292	87913.46258	0.64754	8.06755E-5	1751.02666	25317.2394	41.0496	14100.311
1175.0	0.99032	0.0096804	7.35885	7.4583	-6.10231	20.90492	30.73836	1.15425	0.86637	118.6154	144.39476	43.6387	0.35906	11.08459	95128.15219	0.63765	7.43004E-5	1752.61879	25114.91618	40.46464	14117.991
1170.0	0.99185	0.00815256	7.36208	7.45473	-6.14719	20.847	30.66082	1.15317	0.86717	119.87211	144.79305	44.11521	0.35863	11.21601	102919.9178	0.628	6.84382E-5	1754.20595	24915.10705	39.96183	14133.539
1165.0	0.99323	0.00676534	7.36527	7.45122	-6.1914	20.79086	30.58263	1.15211	0.86797	121.06639	145.18819	44.56835	0.35821	11.34736	111344.4366	0.61858	6.30409E-5	1755.79172	24717.48031	39.52535	14147.283
1160.0	0.9945	0.00550054	7.36841	7.44776	-6.235	20.73624	30.50384	1.15107	0.86875	122.20706	145.58059	45.00141	0.35781	11.48018	120463.1625	0.6093	5.80663E-5	1757.37276	24521.78728	39.13861	14159.471
1155.0	0.99589	0.00410607	7.37185	7.44427	-6.27894	20.67999	30.42356	1.15008	0.8695	123.41581	145.98496	45.46042	0.3574	11.52588	130438.4745	0.60476	5.34386E-5	1758.96793	24322.79329	39.7988	14175.336
1145.0	1.0	0.0	7.38101	7.43564	-6.38756	20.49551	30.26287	1.1481	0.87101	126.53501	146.80573	46.64554	0.35635	 	153891.7752	 	4.49773E-5	 	23905.2176	41.75757	14227.765
1140.0	1.0	0.0	7.38358	7.43305	-6.42015	20.47618	30.17897	1.14723	0.87167	127.02514	147.16678	46.83321	0.35614	 	166027.2838	 	4.15428E-5	 	23736.57611	33.7283	 
1135.0	1.0	0.0	7.38615	7.43047	-6.45267	20.45692	30.09508	1.14636	0.87233	127.51419	147.5258	47.02054	0.35594	 	179214.9739	 	3.83496E-5	 	23560.89485	35.13625	 
1130.0	1.0	0.0	7.38871	7.42789	-6.48512	20.43773	30.01118	1.14548	0.873	128.00217	147.88282	47.20752	0.35574	 	193554.1144	 	3.53825E-5	 	23385.50417	35.07814	 
1125.0	1.0	0.0	7.39127	7.42532	-6.5175	20.4186	29.92728	1.1446	0.87367	128.48906	148.23783	47.39415	0.35554	 	209154.0955	 	3.26268E-5	 	23210.40293	35.02025	 
1120.0	1.0	0.0	7.39383	7.42275	-6.5498	20.39953	29.84338	1.14371	0.87435	128.97489	148.59085	47.58043	0.35534	 	226135.5152	 	3.00688E-5	 	23035.59001	34.96258	 
1115.0	1.0	0.0	7.39638	7.42019	-6.58204	20.38054	29.75947	1.14282	0.87503	129.45964	148.94189	47.76636	0.35513	 	244631.4392	 	2.76956E-5	 	22861.06427	34.90515	 
1110.0	1.0	0.0	7.39893	7.41764	-6.61421	20.36162	29.67557	1.14192	0.87572	129.94332	149.29097	47.95194	0.35493	 	264788.7322	 	2.54951E-5	 	22686.82463	34.84793	 
1106.56	1.0	0.0	7.40068	7.41588	-6.63631	20.34861	29.61784	1.1413	0.87619	130.27545	149.52997	48.07941	0.35479	 	279704.0151	 	2.40755E-5	 	22567.12494	 	 
1105.0	1.0	0.0	7.40147	7.41509	-6.64628	20.34288	29.59165	1.14102	0.87641	130.42608	149.63835	48.13723	0.35473	 	286772.2809	 	2.34556E-5	 	22512.78365	34.8082	 
1100.0	1.0	0.0	7.404	7.41256	-6.67819	20.32453	29.50772	1.14011	0.87711	130.9081	149.98438	48.32228	0.35453	 	310765.989	 	2.15661E-5	 	22338.84203	34.78832	 
1095.0	1.0	0.0	7.40653	7.41003	-6.71003	20.30623	29.4238	1.1392	0.87781	131.38903	150.32842	48.50698	0.35433	 	336962.1498	 	1.98171E-5	 	22165.1983	34.72875	 
1091.36	1.0	0.0	7.40836	7.40819	-6.73319	20.29293	29.36266	1.13854	0.87832	131.73867	150.5778	48.6413	0.35419	 	357555.5838	 	1.8626E-5	 	22038.89913	 	 
1090.0	1.0	0.0	7.40913	7.40742	-6.74283	20.28434	29.34182	1.13821	0.87857	131.86932	150.66569	48.69168	0.35413	 	365565.2084	 	1.81998E-5	 	21989.88515	35.06263	 
1085.0	1.0	0.0	7.41195	7.4046	-6.77835	20.2525	29.26551	1.13699	0.87951	132.34968	150.98787	48.87695	0.35391	 	396785.0381	 	1.67063E-5	 	21809.49247	36.07854	 
1080.0	1.0	0.0	7.41478	7.40178	-6.81385	20.22042	29.18856	1.13579	0.88044	132.82883	151.30777	49.06183	0.35369	 	430926.3811	 	1.5326E-5	 	21629.24412	36.04967	 
1075.0	1.0	0.0	7.4176	7.39896	-6.84933	20.1881	29.11245	1.13455	0.8814	133.30677	151.62541	49.24633	0.35347	 	468286.1606	 	1.40512E-5	 	21449.13304	36.02222	 
1070.0	1.0	0.0	7.42043	7.39615	-6.88479	20.15554	29.03659	1.1333	0.88238	133.78351	151.94079	49.43044	0.35325	 	509193.8969	 	1.28744E-5	 	21269.1536	35.99589	 
1067.23	1.0	0.0	7.42199	7.39458	-6.90444	20.13738	28.99457	1.1326	0.88292	134.04721	152.1146	49.5323	0.35313	 	533525.2901	 	1.22619E-5	 	21169.4629	 	 
1065.0	1.0	0.0	7.42312	7.39346	-6.91857	20.12883	28.95743	1.13217	0.88326	134.25919	152.26258	49.61391	0.35304	 	554074.3829	 	1.17875E-5	 	21092.40052	35.35061	 
1060.0	1.0	0.0	7.42564	7.39095	-6.95021	20.10972	28.87408	1.13119	0.88402	134.73386	152.59315	49.79668	0.35284	 	603365.7475	 	1.07841E-5	 	20919.77838	34.52443	 
1055.0	1.0	0.0	7.42816	7.38844	-6.98177	20.09072	28.79071	1.13021	0.88479	135.20739	152.92183	49.97907	0.35264	 	657456.1616	 	9.85978E-6	 	20747.48552	34.45857	 
1050.0	1.0	0.0	7.43068	7.38594	-7.01325	20.07181	28.70732	1.12923	0.88556	135.67977	153.24864	50.16109	0.35244	 	716852.4966	 	9.00878E-6	 	20575.51845	34.39341	 
1045.0	1.0	0.0	7.43319	7.38345	-7.04466	20.05302	28.6239	1.12824	0.88633	136.15102	153.5736	50.34272	0.35224	 	782119.2482	 	8.22581E-6	 	20403.87369	34.32895	 
1041.71	1.0	0.0	7.43484	7.38181	-7.0653	20.0407	28.56896	1.12759	0.88685	136.46071	153.78656	50.46212	0.35211	 	828604.0479	 	7.74495E-6	 	20291.02062	 	 
1040.0	1.0	0.0	7.43636	7.3803	-7.08426	20.00329	28.50279	1.12874	0.88595	136.73317	153.90242	50.56975	0.35193	 	857070.9798	 	7.47798E-6	 	20199.92177	40.79038	 
1035.0	1.0	0.0	7.44076	7.37593	-7.1393	19.89492	28.31171	1.13203	0.88337	137.51781	154.23242	50.87993	0.3514	 	946800.3344	 	6.74351E-6	 	19935.21409	52.94154	 
1030.0	1.0	0.0	7.44512	7.37161	-7.19362	19.7882	28.12506	1.13519	0.88091	138.28349	154.54924	51.18296	0.35087	 	1046960.463	 	6.07506E-6	 	19673.45014	52.35279	 
1025.0	1.0	0.0	7.44942	7.36736	-7.24725	19.68303	27.94252	1.13822	0.87857	139.03108	154.85358	51.47916	0.35036	 	1158878.451	 	5.46731E-6	 	19414.49433	51.79116	 
1020.0	1.0	0.0	7.45368	7.36315	-7.30022	19.57932	27.76389	1.14113	0.87633	139.76138	155.1461	51.76883	0.34986	 	1284064.452	 	4.91529E-6	 	19158.21796	51.25527	 
1015.0	1.0	0.0	7.45789	7.35899	-7.35256	19.47699	27.58896	1.14392	0.87418	140.47514	155.4274	52.05224	0.34937	 	1424238.709	 	4.41439E-6	 	18904.49936	50.74372	 
1010.0	1.0	0.0	7.46206	7.35488	-7.40429	19.37597	27.41757	1.14661	0.87214	141.17308	155.69806	52.32968	0.34888	 	1581363.093	 	3.96034E-6	 	18653.22278	50.25532	 
1005.0	1.0	0.0	7.46618	7.35082	-7.45544	19.27616	27.24955	1.14918	0.87018	141.85584	155.95859	52.60137	0.3484	 	1757677.329	 	3.54919E-6	 	18404.27917	49.78872	 
1000.0	1.0	0.0	7.47027	7.3468	-7.50604	19.17751	27.08476	1.15165	0.86832	142.52407	156.20951	52.86756	0.34793	 	1955741.576	 	3.17728E-6	 	18157.56496	49.34284	 
995.0	1.0	0.0	7.47431	7.34282	-7.5561	19.07994	26.92305	1.15402	0.86654	143.17834	156.45127	53.12847	0.34747	 	2178485.083	 	2.84121E-6	 	17912.98216	48.91656	 
990.0	1.0	0.0	7.47832	7.33889	-7.60565	18.98338	26.76428	1.15629	0.86484	143.81923	156.68432	53.3843	0.34702	 	2429263.743	 	2.53786E-6	 	17670.4385	48.50873	 
985.0	1.0	0.0	7.48229	7.33499	-7.6547	18.88779	26.60835	1.15846	0.86322	144.44727	156.90908	53.63526	0.34657	 	2711926.444	 	2.26434E-6	 	17429.8464	48.11842	 
980.0	1.0	0.0	7.48623	7.33113	-7.70327	18.79308	26.45513	1.16054	0.86167	145.06295	157.12597	53.88153	0.34613	 	3030892.46	 	2.01799E-6	 	17191.12368	47.74454	 
975.0	1.0	0.0	7.49014	7.32731	-7.75139	18.69923	26.30452	1.16253	0.8602	145.66676	157.33537	54.12329	0.34569	 	3391242.446	 	1.79637E-6	 	16954.19237	47.38626	 
970.0	1.0	0.0	7.49401	7.32352	-7.79906	18.60616	26.15642	1.16442	0.85879	146.25917	157.53765	54.36071	0.34527	 	3798823.855	 	1.59721E-6	 	16718.97949	47.04258	 
965.0	1.0	0.0	7.49785	7.31977	-7.84631	18.51384	26.01074	1.16624	0.85746	146.84062	157.73319	54.59397	0.34484	 	4260374.972	 	1.41844E-6	 	16485.41584	46.71273	 
960.0	1.0	0.0	7.50166	7.31605	-7.89314	18.42222	25.86739	1.16796	0.85619	147.41152	157.92232	54.82321	0.34443	 	4783670.288	 	1.25818E-6	 	16253.43665	46.39584	 
955.0	1.0	0.0	7.50545	7.31236	-7.93957	18.33125	25.7263	1.16961	0.85499	147.9723	158.1054	55.0486	0.34402	 	5377690.023	 	1.11466E-6	 	16022.98095	46.09114	 
950.0	1.0	0.0	7.5092	7.30871	-7.98561	18.2409	25.58739	1.17117	0.85385	148.52334	158.28275	55.27027	0.34361	 	6052821.412	 	9.86299E-7	 	15793.99153	45.79788	 
945.0	1.0	0.0	7.51293	7.30508	-8.03127	18.15112	25.45059	1.17265	0.85277	149.06502	158.45469	55.48837	0.34321	 	6821092.494	 	8.71633E-7	 	15566.41426	45.51545	 
940.0	1.0	0.0	7.51663	7.30148	-8.07657	18.0619	25.31584	1.17405	0.85175	149.59771	158.62155	55.70303	0.34281	 	7696450.2	 	7.69327E-7	 	15340.19868	45.24312	 
935.0	1.0	0.0	7.52031	7.29791	-8.12151	17.97318	25.18308	1.17538	0.85079	150.12177	158.78362	55.91439	0.34243	 	8695086.52	 	6.78162E-7	 	15115.29731	44.98028	 
930.0	1.0	0.0	7.52396	7.29437	-8.1661	17.88495	25.05226	1.17663	0.84989	150.63754	158.94121	56.12257	0.34204	 	9835824.465	 	5.97029E-7	 	14891.66555	44.72635	 
925.0	1.0	0.0	7.52759	7.29086	-8.21035	17.79716	24.92333	1.1778	0.84904	151.14534	159.09461	56.3277	0.34166	 	1.114057363E7	 	5.24917E-7	 	14669.2615	44.48081	 
920.0	1.0	0.0	7.53119	7.28737	-8.25428	17.70981	24.79624	1.1789	0.84825	151.64552	159.2441	56.52989	0.34129	 	1.263487136E7	 	4.60904E-7	 	14448.04606	44.24309	 
915.0	1.0	0.0	7.53477	7.2839	-8.29788	17.62285	24.67094	1.17992	0.84752	152.13838	159.38995	56.72927	0.34092	 	1.434852069E7	 	4.04158E-7	 	14227.98189	44.01283	 
910.0	1.0	0.0	7.53833	7.28047	-8.34116	17.53627	24.5474	1.18087	0.84684	152.62422	159.53245	56.92595	0.34055	 	1.6316352E7	 	3.53919E-7	 	14009.03444	43.78949	 
905.0	1.0	0.0	7.54187	7.27705	-8.38413	17.45005	24.42558	1.18174	0.84621	153.10335	159.67184	57.12003	0.34019	 	1.857912655E7	 	3.09501E-7	 	13791.17103	43.57268	 
900.0	1.0	0.0	7.54538	7.27366	-8.4268	17.36416	24.30543	1.18254	0.84564	153.57605	159.80838	57.31163	0.33983	 	2.118461025E7	 	2.70284E-7	 	13574.36092	43.36202	 
895.0	1.0	0.0	7.54887	7.2703	-8.46918	17.27858	24.18693	1.18327	0.84512	154.0426	159.94232	57.50085	0.33948	 	2.418885592E7	 	2.35706E-7	 	13358.57509	43.15717	 
890.0	1.0	0.0	7.55235	7.26695	-8.51126	17.1933	24.07004	1.18393	0.84465	154.50328	160.0739	57.68779	0.33913	 	2.765773621E7	 	2.05261E-7	 	13143.78621	42.95778	 
885.0	1.0	0.0	7.5558	7.26363	-8.55305	17.1083	23.95474	1.18451	0.84423	154.95835	160.20334	57.87254	0.33879	 	3.16687688E7	 	1.78493E-7	 	12929.96845	42.76355	 
880.0	1.0	0.0	7.55923	7.26034	-8.59457	17.02356	23.84099	1.18503	0.84386	155.40807	160.33087	58.05521	0.33845	 	3.631331072E7	 	1.54991E-7	 	12717.09739	42.57421	 
875.0	1.0	0.0	7.56264	7.25706	-8.6358	16.93906	23.72877	1.18547	0.84355	155.85268	160.45671	58.23588	0.33812	 	4.169918532E7	 	1.34387E-7	 	12505.14977	42.38952	 
870.0	1.0	0.0	7.56603	7.25381	-8.67676	16.8548	23.61805	1.18584	0.84329	156.29245	160.58106	58.41466	0.33778	 	4.795383413E7	 	1.1635E-7	 	12294.1039	42.20917	 
865.0	1.0	0.0	7.56941	7.25058	-8.71745	16.77075	23.5088	1.18614	0.84307	156.72759	160.70412	58.59162	0.33746	 	5.522810896E7	 	1.00583E-7	 	12083.93917	42.03295	 
860.0	1.0	0.0	7.57276	7.24737	-8.75788	16.6869	23.401	1.18637	0.84291	157.15834	160.82609	58.76685	0.33713	 	6.37008444E7	 	8.68218E-8	 	11874.63543	41.86075	 
855.0	1.0	0.0	7.57609	7.24417	-8.79805	16.60324	23.29463	1.18653	0.8428	157.58493	160.94715	58.94044	0.33682	 	7.358436489E7	 	7.48287E-8	 	11666.17406	41.69227	 
850.0	1.0	0.0	7.57941	7.241	-8.83796	16.51975	23.18967	1.18661	0.84273	158.00758	161.06749	59.11247	0.3365	 	8.513114663E7	 	6.43926E-8	 	11458.53716	41.52738	 
845.0	1.0	0.0	7.5817	7.23882	-8.86543	16.49295	23.11679	1.18506	0.84384	158.40478	161.31996	59.26791	0.33635	 	9.635219085E7	 	5.66403E-8	 	11301.28059	31.45131	 
840.0	1.0	0.0	7.58398	7.23665	-8.89284	16.46615	23.0439	1.18349	0.84496	158.8012	161.57128	59.4231	0.33619	 	1.091736365E8	 	4.97648E-8	 	11141.03224	32.04967	 
835.0	1.0	0.0	7.58625	7.23447	-8.92017	16.43936	22.971	1.18191	0.84609	159.19685	161.82144	59.57803	0.33604	 	1.23840749E8	 	4.36739E-8	 	10981.00282	32.00588	 
830.0	1.0	0.0	7.58852	7.23231	-8.94744	16.41257	22.89807	1.18033	0.84722	159.59171	162.07044	59.7327	0.33588	 	1.406389551E8	 	3.82839E-8	 	10821.1915	31.96226	 
825.0	1.0	0.0	7.59079	7.23015	-8.97463	16.38579	22.82513	1.17873	0.84837	159.9858	162.3183	59.88711	0.33573	 	1.599008375E8	 	3.35195E-8	 	10661.59744	31.91881	 
820.0	1.0	0.0	7.59305	7.228	-9.00174	16.35902	22.75217	1.17713	0.84953	160.37912	162.56502	60.04125	0.33557	 	1.820144197E8	 	2.9313E-8	 	10502.21976	31.87554	 
815.0	1.0	0.0	7.59531	7.22585	-9.02879	16.33225	22.67919	1.17551	0.85069	160.77166	162.8106	60.19514	0.33542	 	2.074329918E8	 	2.56034E-8	 	10343.05755	31.83244	 
810.0	1.0	0.0	7.59756	7.2237	-9.05577	16.30549	22.6062	1.17389	0.85187	161.16342	163.05504	60.34877	0.33527	 	2.366867822E8	 	2.23358E-8	 	10184.1099	31.78953	 
805.0	1.0	0.0	7.59981	7.22157	-9.08267	16.27873	22.53318	1.17226	0.85306	161.5544	163.29835	60.50213	0.33511	 	2.703968387E8	 	1.9461E-8	 	10025.37585	31.74681	 
800.0	1.0	0.0	7.60206	7.21944	-9.10951	16.25198	22.46015	1.17061	0.85425	161.94461	163.54054	60.65524	0.33496	 	3.092915627E8	 	1.69348E-8	 	9866.8544	31.70429	 
795.0	1.0	0.0	7.60429	7.21731	-9.13627	16.22523	22.38709	1.16896	0.85546	162.33405	163.7816	60.80809	0.33481	 	3.542264296E8	 	1.47176E-8	 	9708.54455	31.66197	 
790.0	1.0	0.0	7.60653	7.21519	-9.16296	16.19849	22.31402	1.1673	0.85668	162.72271	164.02155	60.96067	0.33465	 	4.062075449E8	 	1.27742E-8	 	9550.44522	31.61987	 
785.0	1.0	0.0	7.60876	7.21308	-9.18957	16.17176	22.24093	1.16563	0.85791	163.1106	164.26038	61.113	0.3345	 	4.664198234E8	 	1.10728E-8	 	9392.55532	31.57798	 
780.0	1.0	0.0	7.61098	7.21097	-9.21612	16.14503	22.16781	1.16395	0.85915	163.49771	164.4981	61.26507	0.33435	 	5.36260748E8	 	9.58519E-9	 	9234.87373	31.53632	 
775.0	1.0	0.0	7.6132	7.20886	-9.2426	16.11831	22.09468	1.16226	0.8604	163.88405	164.73471	61.41688	0.33419	 	6.173808739E8	 	8.28623E-9	 	9077.39926	31.4949	 
770.0	1.0	0.0	7.61542	7.20677	-9.269	16.0916	22.02152	1.16055	0.86166	164.26962	164.97022	61.56842	0.33404	 	7.117325012E8	 	7.15347E-9	 	8920.13068	31.45372	 
765.0	1.0	0.0	7.61763	7.20468	-9.29534	16.06489	21.94835	1.15884	0.86293	164.65441	165.20463	61.71971	0.33389	 	8.21628253E8	 	6.16696E-9	 	8763.06673	31.41279	 
760.0	1.0	0.0	7.61984	7.20259	-9.3216	16.03818	21.87515	1.15712	0.86421	165.03843	165.43794	61.87074	0.33374	 	9.498116853E8	 	5.309E-9	 	8606.20608	31.37213	 
755.0	1.0	0.0	7.62204	7.20051	-9.34779	16.01148	21.80193	1.15539	0.86551	165.42168	165.67017	62.0215	0.33358	 	1.099542536E9	 	4.56385E-9	 	8449.54737	31.33174	 
750.0	1.0	0.0	7.62423	7.19843	-9.37391	15.98479	21.72868	1.15364	0.86682	165.80416	165.9013	62.17201	0.33343	 	1.274699812E9	 	3.91758E-9	 	8293.08914	31.29165	 
745.0	1.0	0.0	7.62643	7.19637	-9.39995	15.9581	21.65542	1.15189	0.86814	166.18587	166.13135	62.32226	0.33328	 	1.479906658E9	 	3.35787E-9	 	8136.8299	31.25185	 
740.0	1.0	0.0	7.62861	7.1943	-9.42593	15.93142	21.58213	1.15013	0.86947	166.5668	166.36032	62.47224	0.33313	 	1.720681844E9	 	2.87382E-9	 	7980.76809	31.21236	 
735.0	1.0	0.0	7.6308	7.19224	-9.45184	15.90475	21.50881	1.14835	0.87081	166.94697	166.58822	62.62197	0.33297	 	2.003623877E9	 	2.45582E-9	 	7824.90206	31.17321	 
730.0	1.0	0.0	7.63297	7.19019	-9.47767	15.87808	21.43547	1.14657	0.87217	167.32637	166.81504	62.77144	0.33282	 	2.336635126E9	 	2.09537E-9	 	7669.23011	31.13439	 
725.0	1.0	0.0	7.63515	7.18815	-9.50343	15.85141	21.36211	1.14477	0.87354	167.70499	167.04079	62.92065	0.33267	 	2.729195133E9	 	1.78504E-9	 	7513.75043	31.09593	 
720.0	1.0	0.0	7.63732	7.18611	-9.52913	15.82476	21.28872	1.14296	0.87492	168.08285	167.26548	63.06959	0.33252	 	3.192694498E9	 	1.51825E-9	 	7358.46116	31.05785	 
715.0	1.0	0.0	7.63948	7.18407	-9.55475	15.7981	21.21531	1.14114	0.87632	168.45993	167.48911	63.21828	0.33237	 	3.740843475E9	 	1.28926E-9	 	7203.36033	31.02017	 
710.0	1.0	0.0	7.64164	7.18204	-9.5803	15.77146	21.14187	1.13931	0.87772	168.83625	167.71167	63.36671	0.33222	 	4.390172903E9	 	1.09301E-9	 	7048.44585	30.9829	 
705.0	1.0	0.0	7.64379	7.18002	-9.60578	15.74482	21.0684	1.13747	0.87914	169.2118	167.93319	63.51487	0.33206	 	5.160649474E9	 	9.25098E-10	 	6893.71555	30.94606	 
700.0	1.0	0.0	7.64594	7.178	-9.63118	15.71818	20.99491	1.13562	0.88058	169.58658	168.15365	63.66278	0.33191	 	6.076432818E9	 	7.8166E-10	 	6739.16715	30.90968	 
695.0	1.0	0.0	7.64808	7.17599	-9.65652	15.69156	20.92139	1.13375	0.88203	169.9606	168.37306	63.81043	0.33176	 	7.166808866E9	 	6.59331E-10	 	6584.79823	30.87378	 
690.0	1.0	0.0	7.65022	7.17398	-9.68179	15.66493	20.84784	1.13188	0.88349	170.33384	168.59144	63.95782	0.33161	 	8.467342725E9	 	5.5518E-10	 	6430.60626	30.83839	 
685.0	1.0	0.0	7.65236	7.17198	-9.70698	15.63832	20.77426	1.12999	0.88496	170.70632	168.80877	64.10494	0.33146	 	1.00213E10	 	4.66655E-10	 	6276.58858	30.80354	 
680.0	1.0	0.0	7.65449	7.16998	-9.73211	15.61171	20.70066	1.12809	0.88646	171.07803	169.02506	64.25181	0.33131	 	1.1881399999999998E10	 	3.91542E-10	 	6122.74234	30.76925	 
675.0	1.0	0.0	7.65661	7.16799	-9.75716	15.5851	20.62702	1.12618	0.88796	171.44898	169.24032	64.39842	0.33116	 	1.4112199999999998E10	 	3.27921E-10	 	5969.06458	30.73555	 
670.0	1.0	0.0	7.65873	7.16601	-9.78214	15.5585	20.55336	1.12425	0.88948	171.81916	169.45455	64.54477	0.33101	 	1.6792299999999998E10	 	2.7413E-10	 	5815.55214	30.70249	 
665.0	1.0	0.0	7.66085	7.16403	-9.80705	15.53191	20.47966	1.12232	0.89101	172.18857	169.66776	64.69085	0.33086	 	2.00186E10	 	2.28731E-10	 	5662.20169	30.67009	 
660.0	1.0	0.0	7.66296	7.16206	-9.83189	15.50532	20.40593	1.12037	0.89256	172.55721	169.87994	64.83668	0.33071	 	2.3909599999999996E10	 	1.90487E-10	 	5509.01863	30.63661	 
655.0	1.0	0.0	7.66507	7.16009	-9.85666	15.47874	20.33218	1.11841	0.89413	172.9251	170.0911	64.98225	0.33056	 	2.8611699999999996E10	 	1.58329E-10	 	5356.05243	30.59324	 
650.0	1.0	0.0	7.66717	7.15813	-9.88136	15.45216	20.25839	1.11644	0.89571	173.29221	170.30125	65.12756	0.33041	 	3.4305199999999996E10	 	1.31341E-10	 	5203.36875	30.53674	 
645.0	1.0	0.0	7.66926	7.15617	-9.90599	15.42559	20.18456	1.11445	0.8973	173.65856	170.51038	65.2726	0.33026	 	4.1213E10	 	1.08734E-10	 	5050.9664	30.48047	 
640.0	1.0	0.0	7.67135	7.15422	-9.93055	15.39903	20.11071	1.11245	0.89892	174.02415	170.71851	65.41739	0.33011	 	4.961129999999999E10	 	8.98356E-11	 	4898.84419	30.42444	 
635.0	1.0	0.0	7.67344	7.15228	-9.95503	15.37247	20.03682	1.11044	0.90054	174.38897	170.92563	65.56192	0.32996	 	5.984309999999999E10	 	7.40679E-11	 	4747.00092	30.36865	 
630.0	1.0	0.0	7.67552	7.15034	-9.97945	15.34592	19.96289	1.10842	0.90219	174.75303	171.13174	65.70618	0.32981	 	7.23351E10	 	6.09393E-11	 	4595.43542	30.3131	 
625.0	1.0	0.0	7.6776	7.1484	-10.00379	15.31937	19.88893	1.10638	0.90385	175.11632	171.33686	65.85019	0.32966	 	8.76196E10	 	5.00305E-11	 	4444.14642	30.2578	 
620.0	1.0	0.0	7.67967	7.14647	-10.02807	15.29283	19.81493	1.10433	0.90553	175.47885	171.54098	65.99394	0.32951	 	1.06362E11	 	4.09851E-11	 	4293.13246	30.20279	 
615.0	1.0	0.0	7.68173	7.14455	-10.05227	15.2663	19.7409	1.10226	0.90722	175.84062	171.74411	66.13742	0.32936	 	1.29395E11	 	3.35009E-11	 	4142.39252	30.14799	 
610.0	1.0	0.0	7.6838	7.14263	-10.07641	15.23977	19.66683	1.10019	0.90894	176.20162	171.94624	66.28065	0.32921	 	1.57766E11	 	2.73217E-11	 	3991.92542	30.09342	 
605.0	1.0	0.0	7.68585	7.14072	-10.10047	15.21324	19.59272	1.0981	0.91067	176.56186	172.14739	66.42361	0.32906	 	1.92792E11	 	2.22314E-11	 	3841.73	30.03908	 
600.0	1.0	0.0	7.6879	7.13882	-10.12446	15.18673	19.51858	1.09599	0.91242	176.92134	172.34756	66.56632	0.32891	 	2.36136E11	 	1.80473E-11	 	3691.80507	29.98499	 
595.0	1.0	0.0	7.68995	7.13692	-10.14838	15.16021	19.44439	1.09387	0.91418	177.28005	172.54675	66.70876	0.32876	 	2.89902E11	 	1.46161E-11	 	3542.1495	29.93111	 
590.0	1.0	0.0	7.69199	7.13502	-10.17223	15.13371	19.37016	1.09174	0.91597	177.63801	172.74496	66.85095	0.32861	 	3.56756E11	 	1.18087E-11	 	3392.76211	29.87748	 
585.0	1.0	0.0	7.69403	7.13313	-10.19601	15.10721	19.2959	1.08959	0.91777	177.9952	172.9422	66.99287	0.32846	 	4.4009E11	 	9.51719E-12	 	3243.64175	29.82407	 
580.0	1.0	0.0	7.69606	7.13125	-10.21972	15.08071	19.22159	1.08743	0.9196	178.35163	173.13847	67.13454	0.32832	 	5.44227E11	 	7.65124E-12	 	3094.78726	29.7709	 
575.0	1.0	0.0	7.69809	7.12937	-10.24336	15.05423	19.14724	1.08526	0.92144	178.7073	173.33377	67.27594	0.32817	 	6.74694E11	 	6.13554E-12	 	2946.19751	29.71795	 
570.0	1.0	0.0	7.70011	7.1275	-10.26693	15.02774	19.07284	1.08307	0.9233	179.0622	173.5281	67.41708	0.32802	 	8.38571E11	 	4.9074E-12	 	2797.87133	29.66524	 
565.0	1.0	0.0	7.70213	7.12563	-10.29043	15.00127	18.9984	1.08086	0.92519	179.41635	173.72148	67.55796	0.32787	 	1.04496E12	 	3.91479E-12	 	2649.8076	29.61275	 
560.0	1.0	0.0	7.70414	7.12377	-10.31386	14.9748	18.92392	1.07864	0.92709	179.76974	173.91389	67.69859	0.32772	 	1.30559E12	 	3.1146E-12	 	2502.00517	29.56049	 
555.0	1.0	0.0	7.70615	7.12192	-10.33722	14.94833	18.84939	1.07641	0.92901	180.12236	174.10535	67.83895	0.32757	 	1.63562E12	 	2.47123E-12	 	2354.46291	29.50845	 
550.0	1.0	0.0	7.70815	7.12007	-10.36051	14.92187	18.77481	1.07416	0.93096	180.47423	174.29586	67.97905	0.32743	 	2.05469E12	 	1.95533E-12	 	2207.17968	29.45665	 
545.0	1.0	0.0	7.71015	7.11822	-10.38372	14.89542	18.70019	1.0719	0.93293	180.82534	174.48542	68.11889	0.32728	 	2.58833E12	 	1.54276E-12	 	2060.15437	29.40506	 
540.0	1.0	0.0	7.71214	7.11639	-10.40687	14.86897	18.62551	1.06962	0.93491	181.17568	174.67404	68.25847	0.32713	 	3.26985E12	 	1.21375E-12	 	1913.38584	29.35371	 
535.0	1.0	0.0	7.71412	7.11455	-10.42995	14.84253	18.55079	1.06732	0.93692	181.52527	174.86171	68.39779	0.32698	 	4.14278E12	 	9.52109E-13	 	1766.87298	29.30257	 
530.0	1.0	0.0	7.71611	7.11273	-10.45295	14.8161	18.47602	1.06501	0.93896	181.8741	175.04844	68.53684	0.32683	 	5.26424E12	 	7.44643E-13	 	1620.61466	29.25166	 
525.0	1.0	0.0	7.71808	7.1109	-10.47589	14.78967	18.40119	1.06269	0.94101	182.22216	175.23424	68.67564	0.32669	 	6.70938E12	 	5.80616E-13	 	1474.6098	29.20097	 
520.0	1.0	0.0	7.72006	7.10909	-10.49876	14.76324	18.32631	1.06034	0.94309	182.56947	175.4191	68.81418	0.32654	 	8.57743E12	 	4.5132E-13	 	1328.85728	29.1505	 
515.0	1.0	0.0	7.72202	7.10728	-10.52155	14.73682	18.25138	1.05798	0.94519	182.91603	175.60302	68.95245	0.32639	 	1.09998E13	 	3.49711E-13	 	1183.35599	29.10026	 
510.0	1.0	0.0	7.72398	7.10547	-10.54428	14.71041	18.17639	1.05561	0.94732	183.26182	175.78602	69.09047	0.32625	 	1.41512E13	 	2.70108E-13	 	1038.10484	29.05023	 
505.0	1.0	0.0	7.72594	7.10367	-10.56693	14.684	18.10135	1.05322	0.94947	183.60685	175.9681	69.22822	0.3261	 	1.82645E13	 	2.07942E-13	 	893.10275	29.00042	 
500.0	1.0	0.0	7.72789	7.10188	-10.58952	14.6576	18.02625	1.05081	0.95165	183.95113	176.14925	69.36571	0.32595	 	2.36513E13	 	1.59549E-13	 	748.34861	28.95083	 
495.0	1.0	0.0	7.72984	7.10009	-10.61203	14.63121	17.95109	1.04839	0.95385	184.29465	176.32949	69.50294	0.3258	 	3.07301E13	 	1.22003E-13	 	603.84137	28.90145	 
490.0	1.0	0.0	7.73178	7.09831	-10.63448	14.60482	17.87587	1.04595	0.95607	184.63741	176.5088	69.63991	0.32566	 	4.00647E13	 	9.29682E-14	 	459.57993	28.85229	 
485.0	1.0	0.0	7.73372	7.09653	-10.65685	14.57844	17.80059	1.04349	0.95833	184.97942	176.68721	69.77662	0.32551	 	5.2418E13	 	7.0593E-14	 	315.56324	28.80334	 
480.0	1.0	0.0	7.73565	7.09476	-10.67916	14.55206	17.72524	1.04101	0.9606	185.32066	176.8647	69.91307	0.32536	 	6.88253E13	 	5.34097E-14	 	171.79022	28.7546	 
475.0	1.0	0.0	7.73757	7.09299	-10.7014	14.52569	17.64984	1.03852	0.96291	185.66115	177.04128	70.04926	0.32522	 	9.06978E13	 	4.02605E-14	 	28.25983	28.70608	 
470.0	1.0	0.0	7.7395	7.09123	-10.72356	14.49932	17.57437	1.03601	0.96524	186.00089	177.21696	70.18518	0.32507	 	1.19966E14	 	3.02347E-14	 	-115.029	28.65777	 
465.0	1.0	0.0	7.74141	7.08948	-10.74566	14.47296	17.49883	1.03348	0.96761	186.33987	177.39173	70.32085	0.32493	 	1.59281E14	 	2.26186E-14	 	-258.07731	28.60966	 
460.0	1.0	0.0	7.74332	7.08773	-10.76768	14.44661	17.42322	1.03093	0.97	186.67809	177.56561	70.45625	0.32478	 	2.123E14	 	1.6855E-14	 	-400.88613	28.56176	 
455.0	1.0	0.0	7.74523	7.08598	-10.78964	14.42026	17.34755	1.02837	0.97241	187.01555	177.73859	70.59139	0.32463	 	2.84086E14	 	1.251E-14	 	-543.45648	28.51407	 
450.0	1.0	0.0	7.74713	7.08424	-10.81152	14.39392	17.2718	1.02579	0.97486	187.35226	177.91067	70.72627	0.32449	 	3.8168E14	 	9.24732E-15	 	-685.78942	28.46659	 
445.0	1.0	0.0	7.74902	7.08251	-10.83334	14.36758	17.19598	1.02319	0.97734	187.68821	178.08186	70.86089	0.32434	 	5.1491299999999994E14	 	6.80719E-15	 	-827.88594	28.4193	 
440.0	1.0	0.0	7.75091	7.08078	-10.85508	14.34125	17.12009	1.02057	0.97985	188.02341	178.25216	70.99525	0.3242	 	6.97577E14	 	4.98971E-15	 	-969.74707	28.37222	 
435.0	1.0	0.0	7.7528	7.07906	-10.87676	14.31493	17.04412	1.01793	0.98239	188.35785	178.42158	71.12934	0.32405	 	9.49101E14	 	3.64166E-15	 	-1111.37379	28.32534	 
430.0	1.0	0.0	7.75468	7.07735	-10.89837	14.28861	16.96807	1.01527	0.98496	188.69154	178.59011	71.26318	0.32391	 	1.29698E15	 	2.64606E-15	 	-1252.76709	28.27866	 
425.0	1.0	0.0	7.75655	7.07564	-10.9199	14.2623	16.89195	1.01259	0.98756	189.02447	178.75776	71.39675	0.32376	 	1.78032E15	 	1.91398E-15	 	-1393.92785	28.23215	 
420.0	1.0	0.0	7.75842	7.07393	-10.94137	14.23599	16.81574	1.0099	0.9902	189.35665	178.92454	71.53006	0.32362	 	2.45498E15	 	1.37805E-15	 	-1534.85724	28.18588	 
415.0	1.0	0.0	7.76029	7.07223	-10.96277	14.20969	16.73945	1.00718	0.99287	189.68807	179.09043	71.66311	0.32347	 	3.40114E15	 	9.87518E-16	 	-1675.5557	28.13969	 
410.0	1.0	0.0	7.76215	7.07054	-10.9841	14.18339	16.66308	1.00445	0.99557	190.01874	179.25546	71.79589	0.32333	 	4.7345E15	 	7.04253E-16	 	-1816.02345	28.09355	 
405.0	1.0	0.0	7.764	7.06885	-11.00535	14.1571	16.58662	1.00169	0.99831	190.34865	179.41961	71.92842	0.32318	 	6.6228E15	 	4.99771E-16	 	-1956.26072	28.04745	 
400.0	1.0	0.0	7.76585	7.06717	-11.02654	14.13082	16.51007	0.99892	1.00108	190.67781	179.5829	72.06068	0.32304	 	9.31054E15	 	3.52877E-16	 	-2096.26769	28.00139	 
395.0	1.0	0.0	7.76769	7.06549	-11.04766	14.10454	16.43343	0.99612	1.00389	191.00622	179.74532	72.19268	0.32289	 	1.31559E16	 	2.47878E-16	 	-2236.04458	27.95538	 
390.0	1.0	0.0	7.76953	7.06382	-11.06871	14.07827	16.35669	0.9933	1.00674	191.33387	179.90688	72.32442	0.32275	 	1.86867E16	 	1.73207E-16	 	-2375.59156	27.9094	 
385.0	1.0	0.0	7.77137	7.06215	-11.08969	14.052	16.27986	0.99047	1.00962	191.66077	180.06757	72.4559	0.3226	 	2.66846E16	 	1.20379E-16	 	-2514.90881	27.86345	 
380.0	1.0	0.0	7.77319	7.06049	-11.1106	14.02574	16.20294	0.98761	1.01255	191.98691	180.22741	72.58711	0.32246	 	3.83139E16	 	8.32038E-17	 	-2653.99651	27.81754	 
375.0	1.0	0.0	7.77502	7.05883	-11.13144	13.99949	16.12591	0.98473	1.01551	192.31231	180.3864	72.71807	0.32231	 	5.53192E16	 	5.71855E-17	 	-2792.85478	27.77166	 
370.0	1.0	0.0	7.77683	7.05718	-11.15221	13.97324	16.04878	0.98183	1.01851	192.63695	180.54453	72.84876	0.32217	 	8.03297E16	 	3.90771E-17	 	-2931.48378	27.7258	 
365.0	1.0	0.0	7.77865	7.05554	-11.17291	13.947	15.97154	0.97891	1.02155	192.96083	180.70181	72.97919	0.32203	 	1.17332E17	 	2.65457E-17	 	-3069.88362	27.67997	 
360.0	1.0	0.0	7.78045	7.0539	-11.19354	13.92076	15.8942	0.97596	1.02463	193.28396	180.85825	73.10935	0.32188	 	1.72406E17	 	1.79242E-17	 	-3208.05444	27.63416	 
355.0	1.0	0.0	7.78226	7.05227	-11.2141	13.89453	15.81675	0.973	1.02775	193.60634	181.01384	73.23925	0.32174	 	2.54889E17	 	1.20282E-17	 	-3345.99632	27.58838	 
350.0	1.0	0.0	7.78405	7.05064	-11.2346	13.8683	15.73918	0.97001	1.03092	193.92797	181.16859	73.36889	0.3216	 	3.79205E17	 	8.02058E-18	 	-3483.70935	27.54261	 
345.0	1.0	0.0	7.78584	7.04902	-11.25502	13.84208	15.6615	0.967	1.03413	194.24885	181.32249	73.49827	0.32145	 	5.6779E17	 	5.31365E-18	 	-3621.1936	27.49685	 
340.0	1.0	0.0	7.78763	7.0474	-11.27537	13.81587	15.5837	0.96397	1.03738	194.56897	181.47556	73.62739	0.32131	 	8.55777E17	 	3.49698E-18	 	-3758.44912	27.4511	 
335.0	1.0	0.0	7.78941	7.04579	-11.29566	13.78966	15.50577	0.96091	1.04068	194.88834	181.62779	73.75624	0.32117	 	1.29856E18	 	2.28578E-18	 	-3895.47596	27.40537	 
330.0	1.0	0.0	7.79119	7.04418	-11.31587	13.76346	15.42772	0.95783	1.04402	195.20696	181.7792	73.88483	0.32102	 	1.98413E18	 	1.48369E-18	 	-4032.27415	27.35964	 
325.0	1.0	0.0	7.79296	7.04258	-11.33602	13.73726	15.34955	0.95473	1.04742	195.52483	181.92977	74.01316	0.32088	 	3.05318E18	 	9.5619E-19	 	-4168.84369	27.31391	 
320.0	1.0	0.0	7.79472	7.04099	-11.3561	13.71107	15.27124	0.9516	1.05086	195.84194	182.07951	74.14122	0.32074	 	4.73252E18	 	6.11729E-19	 	-4305.18455	27.26817	 
315.0	1.0	0.0	7.79648	7.0394	-11.37611	13.68489	15.19279	0.94845	1.05435	196.15831	182.22842	74.26902	0.32059	 	7.39039E18	 	3.88425E-19	 	-4441.29672	27.22243	 
310.0	1.0	0.0	7.79824	7.03782	-11.39604	13.65871	15.11421	0.94528	1.05789	196.47392	182.37652	74.39656	0.32045	 	1.16295E19	 	2.4474E-19	 	-4577.18016	27.17669	 
305.0	1.0	0.0	7.79999	7.03624	-11.41591	13.63254	15.03548	0.94208	1.06148	196.78878	182.52379	74.52384	0.32031	 	1.84443E19	 	1.5299E-19	 	-4712.83478	27.13092	 
300.0	1.0	0.0	7.80173	7.03467	-11.43571	13.60637	14.9566	0.93886	1.06512	197.10289	182.67024	74.65085	0.32017	 	2.94889E19	 	9.4863E-20	 	-4848.2605	27.08514	 
295.0	1.0	0.0	7.80347	7.0331	-11.45544	13.58021	14.87758	0.93561	1.06882	197.41625	182.81588	74.7776	0.32002	 	4.7538E19	 	5.83323E-20	 	-4983.45721	27.03934	 
290.0	1.0	0.0	7.8052	7.03154	-11.47511	13.55405	14.79839	0.93234	1.07257	197.72886	182.9607	74.90408	0.31988	 	7.72868E19	 	3.55636E-20	 	-5118.42478	26.99351	 
285.0	1.0	0.0	7.80693	7.02998	-11.4947	13.5279	14.71905	0.92905	1.07637	198.04072	183.10471	75.03031	0.31974	 	1.2675099999999998E20	 	2.14924E-20	 	-5253.16304	26.94765	 
280.0	1.0	0.0	7.80865	7.02843	-11.51422	13.50176	14.63955	0.92572	1.08024	198.35183	183.24792	75.15626	0.3196	 	2.0974E20	 	1.2872E-20	 	-5387.67182	26.90176	 
275.0	1.0	0.0	7.81037	7.02688	-11.53368	13.47562	14.55987	0.92238	1.08416	198.66219	183.39031	75.28196	0.31945	 	3.5027E20	 	7.63806E-21	 	-5521.95092	26.85582	 
270.0	1.0	0.0	7.81208	7.02534	-11.55306	13.44949	14.48002	0.919	1.08814	198.97179	183.5319	75.40739	0.31931	 	5.905059999999999E20	 	4.48934E-21	 	-5656.00008	26.80983	 
265.0	1.0	0.0	7.81379	7.02381	-11.57238	13.42336	14.4	0.9156	1.09218	199.28065	183.67269	75.53256	0.31917	 	1.00522E21	 	2.61294E-21	 	-5789.81907	26.7638	 
260.0	1.0	0.0	7.81549	7.02228	-11.59162	13.39724	14.31979	0.91218	1.09628	199.58876	183.81267	75.65747	0.31903	 	1.7283400000000001E21	 	1.50559E-21	 	-5923.40757	26.7177	 
255.0	1.0	0.0	7.81718	7.02076	-11.6108	13.37113	14.23938	0.90872	1.10044	199.89612	183.95186	75.78211	0.31889	 	3.00231E21	 	8.58594E-22	 	-6056.76528	26.67154	 
250.0	1.0	0.0	7.81887	7.01924	-11.62991	13.34502	14.15879	0.90525	1.10467	200.20272	184.09026	75.90648	0.31875	 	5.27067E21	 	4.84448E-22	 	-6189.89184	26.62531	 
245.0	1.0	0.0	7.82056	7.01773	-11.64895	13.31892	14.07799	0.90174	1.10897	200.50858	184.22786	76.0306	0.3186	 	9.35392E21	 	2.70364E-22	 	-6322.78687	26.57901	 
240.0	1.0	0.0	7.82224	7.01622	-11.66792	13.29282	13.99698	0.89821	1.11333	200.81369	184.36466	76.15445	0.31846	 	1.6787099999999999E22	 	1.49195E-22	 	-6455.44994	26.53261	 
235.0	1.0	0.0	7.82391	7.01472	-11.68683	13.26673	13.91576	0.89465	1.11776	201.11805	184.50068	76.27803	0.31832	 	3.0475899999999998E22	 	8.1381E-23	 	-6587.8806	26.48613	 
230.0	1.0	0.0	7.82558	7.01322	-11.70566	13.24064	13.83432	0.89106	1.12226	201.42166	184.63591	76.40135	0.31818	 	5.59865E22	 	4.38633E-23	 	-6720.07836	26.43955	 
225.0	1.0	0.0	7.82725	7.01173	-11.72443	13.21456	13.75265	0.88744	1.12683	201.72452	184.77036	76.52441	0.31804	 	1.0411499999999998E23	 	2.33525E-23	 	-6852.0427	26.39287	 
220.0	1.0	0.0	7.8289	7.01025	-11.74312	13.18849	13.67075	0.8838	1.13148	202.02663	184.90403	76.6472	0.3179	 	1.9606799999999998E23	 	1.22761E-23	 	-6983.77301	26.34606	 
215.0	1.0	0.0	7.83056	7.00877	-11.76175	13.16242	13.5886	0.88013	1.1362	202.328	185.03691	76.76973	0.31776	 	3.7405099999999996E23	 	6.36956E-24	 	-7115.2687	26.29914	 
210.0	1.0	0.0	7.8322	7.00729	-11.78031	13.13636	13.50621	0.87642	1.141	202.62861	185.16901	76.892	0.31762	 	7.23204E23	 	3.26068E-24	 	-7246.52911	26.25208	 
205.0	1.0	0.0	7.83385	7.00583	-11.7988	13.11031	13.42355	0.8727	1.14587	202.92848	185.30034	77.014	0.31748	 	1.41769E24	 	1.64616E-24	 	-7377.55352	26.20488	 
200.0	1.0	0.0	7.83548	7.00436	-11.81722	13.08426	13.34063	0.86894	1.15083	203.22759	185.4309	77.13573	0.31734	 	2.81888E24	 	8.19235E-25	 	-7508.34117	26.15753	 
195.0	1.0	0.0	7.83711	7.0029	-11.83557	13.05821	13.25743	0.86515	1.15587	203.52596	185.56068	77.25721	0.3172	 	5.68788E24	 	4.01718E-25	 	-7638.89127	26.11002	 
190.0	1.0	0.0	7.83874	7.00145	-11.85385	13.03217	13.17394	0.86133	1.16099	203.82358	185.68969	77.37841	0.31706	 	1.16521E25	 	1.94E-25	 	-7769.20293	26.06233	 
185.0	1.0	0.0	7.84036	7.00001	-11.87207	13.00614	13.09016	0.85749	1.16619	204.12046	185.81794	77.49935	0.31692	 	2.4247100000000003E25	 	9.22221E-26	 	-7899.27524	26.01446	 
180.0	1.0	0.0	7.84197	6.99856	-11.89022	12.98011	13.00607	0.85361	1.17149	204.41658	185.94542	77.62003	0.31678	 	5.12786E25	 	4.31313E-26	 	-8029.10721	25.96639	 
175.0	1.0	0.0	7.84358	6.99713	-11.90829	12.95409	12.92167	0.84971	1.17687	204.71196	186.07213	77.74044	0.31664	 	1.10274E26	 	1.98353E-26	 	-8158.69781	25.91812	 
170.0	1.0	0.0	7.84519	6.9957	-11.9263	12.92808	12.83693	0.84578	1.18235	205.00659	186.19809	77.86059	0.3165	 	2.41274E26	 	8.96451E-27	 	-8288.04592	25.86962	 
165.0	1.0	0.0	7.84678	6.99427	-11.94424	12.90207	12.75186	0.84181	1.18791	205.30047	186.32328	77.98047	0.31636	 	5.374160000000001E26	 	3.97923E-27	 	-8417.15035	25.82089	 
160.0	1.0	0.0	7.84838	6.99285	-11.96212	12.87606	12.66643	0.83782	1.19358	205.5936	186.44772	78.10009	0.31622	 	1.2193799999999999E27	 	1.73374E-27	 	-8546.00987	25.7719	 
155.0	1.0	0.0	7.84997	6.99144	-11.97992	12.85007	12.58064	0.83379	1.19934	205.88598	186.5714	78.21944	0.31608	 	2.8202E27	 	7.40973E-28	 	-8674.62314	25.72265	 
150.0	1.0	0.0	7.85155	6.99003	-11.99765	12.82407	12.49447	0.82974	1.2052	206.17762	186.69433	78.33853	0.31594	 	6.65313E27	 	3.10424E-28	 	-8802.98875	25.67312	 
145.0	1.0	0.0	7.85312	6.98863	-12.01532	12.79809	12.40791	0.82566	1.21116	206.46851	186.8165	78.45735	0.3158	 	1.60209E28	 	1.27389E-28	 	-8931.10522	25.62329	 
140.0	1.0	0.0	7.85469	6.98723	-12.03292	12.77211	12.32093	0.82154	1.21722	206.75866	186.93793	78.57591	0.31566	 	3.94079E28	 	5.11694E-29	 	-9058.97096	25.57315	 
135.0	1.0	0.0	7.85626	6.98584	-12.05045	12.74613	12.23353	0.8174	1.22339	207.04805	187.05861	78.6942	0.31552	 	9.90966E28	 	2.01024E-29	 	-9186.5843	25.52267	 
130.0	1.0	0.0	7.85782	6.98445	-12.06791	12.72017	12.14569	0.81322	1.22967	207.3367	187.17854	78.81222	0.31538	 	2.54957E29	 	7.71766E-30	 	-9313.94345	25.47183	 
125.0	1.0	0.0	7.85937	6.98307	-12.0853	12.6942	12.05739	0.80902	1.23606	207.6246	187.29773	78.92998	0.31525	 	6.71713E29	 	2.89301E-30	 	-9441.04655	25.42062	 
120.0	1.0	0.0	7.86092	6.98169	-12.10263	12.66825	11.96861	0.80479	1.24257	207.91176	187.41618	79.04747	0.31511	 	1.8138499999999998E30	 	1.0579E-30	 	-9567.89162	25.36901	 
115.0	1.0	0.0	7.86247	6.98032	-12.11988	12.6423	11.87933	0.80052	1.24918	208.19817	187.53389	79.1647	0.31497	 	5.0249799999999997E30	 	3.77009E-31	 	-9694.47656	25.31699	 
110.0	1.0	0.0	7.86401	6.97896	-12.13707	12.61635	11.78954	0.79623	1.25592	208.48383	187.65086	79.28167	0.31483	 	1.42961E31	 	1.30809E-31	 	-9820.79916	25.26452	 
105.0	1.0	0.0	7.86554	6.9776	-12.15419	12.59041	11.6992	0.79191	1.26277	208.76874	187.76709	79.39836	0.31469	 	4.18126E31	 	4.41412E-32	 	-9946.85706	25.21158	 
100.0	1.0	0.0	7.86707	6.97624	-12.17124	12.56448	11.6083	0.78756	1.26975	209.05291	187.8826	79.51479	0.31455	 	1.2586E32	 	1.44705E-32	 	-10072.6478	25.15815	 
95.0	1.0	0.0	7.86859	6.97489	-12.18822	12.53855	11.51681	0.78317	1.27685	209.33633	187.99736	79.63096	0.31442	 	3.90363E32	 	4.60302E-33	 	-10198.16875	25.10419	 
90.0	1.0	0.0	7.8701	6.97355	-12.20514	12.51263	11.42471	0.77877	1.28408	209.61901	188.1114	79.74685	0.31428	 	1.24907E33	 	1.41902E-33	 	-10323.41716	25.04968	 
85.0	1.0	0.0	7.87161	6.97221	-12.22199	12.48671	11.33196	0.77433	1.29144	209.90094	188.22472	79.86249	0.31414	 	4.12863E33	 	4.23395E-34	 	-10448.3901	24.99459	 
80.0	1.0	0.0	7.87312	6.97088	-12.23876	12.4608	11.23854	0.76987	1.29893	210.18212	188.3373	79.97785	0.314	 	1.41166E34	 	1.221E-34	 	-10573.0845	24.93888	 
75.0	1.0	0.0	7.87462	6.96955	-12.25547	12.4349	11.14442	0.76538	1.30655	210.46256	188.44916	80.09295	0.31386	 	5.00022E34	 	3.39832E-35	 	-10697.49712	24.88252	 
70.0	1.0	0.0	7.87611	6.96823	-12.27212	12.409	11.04957	0.76086	1.3143	210.74225	188.5603	80.20778	0.31373	 	1.8376099999999998E35	 	9.11415E-36	 	-10821.62452	24.82548	 
65.0	1.0	0.0	7.8776	6.96691	-12.28869	12.38311	10.95394	0.75632	1.32219	211.02119	188.67072	80.32235	0.31359	 	7.01837E35	 	2.35158E-36	 	-10945.46307	24.76771	 
60.0	1.0	0.0	7.87908	6.9656	-12.3052	12.35722	10.85751	0.75175	1.33022	211.29939	188.78042	80.43665	0.31345	 	2.7905399999999997E36	 	5.82692E-37	 	-11069.00898	24.70918	 
55.0	1.0	0.0	7.88056	6.9643	-12.32163	12.33134	10.76023	0.74717	1.33839	211.57685	188.8894	80.55068	0.31332	 	1.15719E37	 	1.38405E-37	 	-11192.25821	24.64985	 
50.0	1.0	0.0	7.88203	6.963	-12.338	12.30547	10.66206	0.74256	1.3467	211.85355	188.99766	80.66445	0.31318	 	5.01465E37	 	3.14521E-38	 	-11315.20654	24.58966	 
45.0	1.0	0.0	7.8835	6.9617	-12.35431	12.2796	10.56295	0.73793	1.35515	212.12952	189.10522	80.77795	0.31304	 	2.27558E38	 	6.82381E-39	 	-11437.84949	24.52859	 
40.0	1.0	0.0	7.88496	6.96041	-12.37054	12.25373	10.46285	0.73328	1.36374	212.40473	189.21206	80.89118	0.3129	 	1.0837200000000001E39	 	1.41033E-39	 	-11560.18237	24.46658	 
35.0	1.0	0.0	7.88641	6.95913	-12.38671	12.22787	10.36172	0.72861	1.37247	212.6792	189.31819	81.00414	0.31277	 	5.4292700000000005E39	 	2.77017E-40	 	-11682.20025	24.40357	 
30.0	1.0	0.0	7.88786	6.95785	-12.4028	12.20203	10.2595	0.72393	1.38135	212.95293	189.42362	81.11684	0.31263	 	2.86847E40	 	5.15815E-41	 	-11803.89792	24.33954	 
25.0	1.0	0.0	7.88931	6.95658	-12.41883	 	10.15612	0.71924	1.39036	213.22591	189.52834	81.22927	0.31249	 	1.6025300000000001E41	 	9.08064E-42	 	-11925.26993	 	 
