T (C)	Fraction solid (wt)-TOTAL	Fraction liquid (wt)-LIQUID	Density (g/(cm)^3)-TOTAL	Molar volume (cm^3)-TOTAL	Volume change (%)-  	Average expansion coeff. (10e-6 1/K)-  	Thermal conductivity (W/(m*K))-TOTAL	Electrical resistivity (10e-6 Ohm*m)-TOTAL	Electrical conductivity (10e6 1/(Ohm*m))-TOTAL	Young's modulus (GPa)-TOTAL	Bulk modulus (GPa)-TOTAL	Shear modulus(GPa)-TOTAL	Poisson's ratio-TOTAL	Liquid viscosity (mPa s)-  	Total viscosity (mPa s)-  	Liquid diffusivity (10e-9 (m^2)/s)-  	Total diffusivity (10e-9 (m^2)/s)-  	Surface Tension (mN/m)-  	Enthalpy (J/mole)-TOTAL	Specific heat (J/(mole K))-TOTAL	Latent heat (J/mole)-TOTAL
1400.0	0.0	1.0	7.51569	7.79493	0.0	28.01499	28.19576	1.45384	0.68783	0.0	126.7446	0.0	0.5	7.92845	7.92845	1.02999	1.02999	1800.39679	53821.505	 	0.0
1395.0	0.0	1.0	7.5197	7.79077	-0.0533551	27.97241	28.12514	1.45314	0.68817	0.0	126.90266	0.0	0.5	8.0155	8.0155	1.01576	1.01576	1803.54047	53615.172	41.2666	0.0
1390.0	0.0	1.0	7.52371	7.78663	-0.10655	27.92995	28.05452	1.45243	0.6885	0.0	127.06073	0.0	0.5	8.10404	8.10404	1.00165	1.00165	1806.71078	53409.331	41.1682	0.0
1385.0	0.0	1.0	7.5277	7.78249	-0.1596	27.8876	27.9839	1.45172	0.68884	0.0	127.21879	0.0	0.5	8.1941	8.1941	0.98766	0.98766	1809.90768	53203.977	41.0708	0.0
1380.0	0.0	1.0	7.53169	7.77837	-0.21249	27.84537	27.91329	1.451	0.68918	0.0	127.37686	0.0	0.5	8.28571	8.28571	0.9738	0.9738	1813.13108	52999.107	40.974	0.0
1375.0	0.0	1.0	7.53568	7.77426	-0.26522	27.80325	27.84267	1.45028	0.68952	0.0	127.53492	0.0	0.5	8.37892	8.37892	0.96005	0.96005	1816.3809	52794.721	40.8772	0.0
1370.0	0.0	1.0	7.53965	7.77016	-0.31779	27.76125	27.77205	1.44956	0.68987	0.0	127.69299	0.0	0.5	8.47374	8.47374	0.94643	0.94643	1819.65701	52590.814	40.7814	0.0
1365.0	0.0	1.0	7.54362	7.76608	-0.37022	27.71936	27.70143	1.44883	0.69021	0.0	127.85105	0.0	0.5	8.57024	8.57024	0.93293	0.93293	1822.95932	52387.384	40.686	0.0
1360.0	0.0	1.0	7.54758	7.762	-0.42248	27.6776	27.63082	1.4481	0.69056	0.0	128.00912	0.0	0.5	8.66843	8.66843	0.91954	0.91954	1826.28768	52184.428	40.5912	0.0
1358.08	0.0	1.0	7.54909	7.76044	-0.44251	27.6616	27.6037	1.44782	0.69069	0.0	128.06981	0.0	0.5	8.70659	8.70659	0.91444	0.91444	1827.57261	52106.629	40.52242	0.0
1355.0	0.0957417	0.90426	7.57286	7.7361	-0.75476	26.85265	27.8733	1.43111	0.69876	0.00819602	128.40245	0.00275619	0.48684	8.75931	12.93331	0.90722	0.61443	1826.35453	50566.382	500.06396	1415.561
1350.0	0.22815	0.77185	7.60619	7.7022	-1.18971	25.73329	28.24595	1.40789	0.71028	0.26994	128.86339	0.0919149	0.46842	8.84445	114.79088	0.89572	0.0690141	1824.45698	48419.077	429.461	3360.852
1345.0	0.33485	0.66515	7.63365	7.67453	-1.54468	24.83079	28.54408	1.38889	0.72	1.27459	129.26445	0.43848	0.4534	8.92955	521.09951	0.88445	0.015156	1822.67606	46662.752	351.265	4915.629
1340.0	0.42194	0.57806	7.65659	7.65157	-1.83918	24.09242	28.78435	1.37304	0.72831	3.26199	129.62575	1.13185	0.441	9.01471	1375.4756	0.87339	0.00572412	1821.01985	45204.276	291.6952	6173.022
1335.0	0.49385	0.50615	7.67603	7.63219	-2.08785	23.47851	28.97845	1.35962	0.7355	6.20302	129.96085	2.16791	0.43064	9.09997	2732.39765	0.86253	0.00287256	1819.49404	43975.809	245.6934	7200.867
1330.0	0.55384	0.44616	7.69271	7.61569	-2.29948	22.96544	29.13452	1.34813	0.74177	9.92711	130.28009	3.49073	0.42193	9.18549	4590.34692	0.85184	0.00170457	1818.0993	42927.19	209.7238	8049.324
1325.0	0.60435	0.39565	7.70719	7.60147	-2.48189	22.53199	29.25905	1.33821	0.74727	14.22168	130.58928	5.02704	0.41452	9.27136	6922.40297	0.84132	0.0011268	1816.83588	42020.814	181.2752	8755.995
1320.0	0.64723	0.35277	7.71989	7.58901	-2.64173	22.16002	29.35698	1.32957	0.75212	18.88442	130.8916	6.70532	0.40817	9.35756	9694.37021	0.83096	8.02091E-4	1815.70404	41228.136	158.5356	9349.422
1315.0	0.68392	0.31608	7.73116	7.57807	-2.78212	21.84122	29.43261	1.32199	0.75643	23.74658	131.19112	8.46467	0.40269	9.44427	12876.50926	0.82075	6.01977E-4	1814.69887	40527.233	140.1806	9851.526
1310.0	0.71551	0.28449	7.74123	7.56828	-2.90769	21.56285	29.48911	1.3153	0.76028	28.67381	131.48791	10.25587	0.39792	9.53155	16443.8804	0.81067	4.69899E-4	1813.81931	39901.085	125.2296	10279.325
1309.12	0.72048	0.27952	7.74286	7.5667	-2.92793	21.51896	29.49682	1.31423	0.7609	29.51827	131.54062	10.5636	0.39717	9.54696	17097.69993	0.80891	4.5168E-4	1813.67577	39799.392	 	10346.275
1305.0	0.76636	0.23364	7.75634	7.55364	-3.09556	21.10128	29.61212	1.3057	0.76587	38.25701	131.98878	13.76058	0.39009	9.69651	23152.51758	0.79436	3.32688E-4	1812.18275	38977.974	184.6222	11004.533
1300.0	0.81015	0.18985	7.76967	7.54077	-3.26065	20.70254	29.70949	1.2973	0.77083	48.38441	132.44757	17.48927	0.38326	9.88103	30964.71224	0.77706	2.47965E-4	1810.51564	38161.057	163.3834	11623.993
1295.0	0.84381	0.15619	7.78044	7.53037	-3.39402	20.39355	29.76895	1.2906	0.77484	57.54141	132.84819	20.87962	0.37793	10.06868	39028.0729	0.76015	1.96109E-4	1809.00095	37494.812	133.249	12093.223
1290.0	0.87013	0.12987	7.78938	7.52177	-3.50435	20.14983	29.79998	1.28514	0.77812	65.64221	133.21329	23.89231	0.37371	10.25929	47264.68199	0.74365	1.61418E-4	1807.63766	36936.586	111.6452	12454.875
1285.0	0.89103	0.10897	7.79696	7.51449	-3.59782	19.95394	29.80958	1.28062	0.78087	72.73899	133.55617	26.54114	0.37031	10.45268	55672.19798	0.72756	1.36602E-4	1806.42273	36457.349	95.8474	12737.974
1280.0	0.90785	0.0921473	7.80353	7.50818	-3.67874	19.79368	29.8027	1.2768	0.78321	78.9297	133.88516	28.85864	0.36752	10.64879	64279.99753	0.71187	1.1793E-4	1805.35211	36036.932	84.0834	12962.69
1275.0	0.92157	0.0784328	7.80934	7.5026	-3.75024	19.66015	29.78296	1.27354	0.78522	84.32778	134.20523	30.88444	0.36521	10.84768	73137.97892	0.69657	1.03313E-4	1804.42118	35661.048	75.1768	13143.306
1270.0	0.93288	0.0671189	7.81456	7.4976	-3.81439	19.54751	29.7532	1.27069	0.78697	89.04996	134.52002	32.6603	0.36328	11.04939	82313.24036	0.68164	9.15009E-5	1803.62322	35319.403	68.329	13290.114
1265.0	0.94231	0.0576889	7.81932	7.49305	-3.87279	19.45118	29.71545	1.26818	0.78853	93.19627	134.83162	34.22239	0.36163	11.25392	91873.49702	0.66709	8.17138E-5	1802.95192	35004.454	62.9898	13410.654
1260.0	0.95025	0.0497525	7.82372	7.48885	-3.92666	19.36774	29.67128	1.26594	0.78992	96.8555	135.14114	35.60314	0.36021	11.46139	101891.8681	0.65288	7.34399E-5	1802.40084	34710.597	58.7714	13510.53
1255.0	0.95699	0.0430141	7.82782	7.48493	-3.97698	19.29437	29.62188	1.26392	0.79119	100.10247	135.44922	36.83004	0.35898	11.67195	112443.3699	0.63901	6.63314E-5	1801.96433	34433.606	55.3982	13593.963
1250.0	0.96275	0.0372475	7.8317	7.48124	-4.02432	19.22941	29.56822	1.26207	0.79235	103.00034	135.7567	37.92637	0.3579	11.88566	123607.329	0.62547	6.0143E-5	1801.63514	34170.257	52.6698	13664.177
1245.0	0.96773	0.0322739	7.83538	7.47774	-4.06922	19.17136	29.51103	1.26037	0.79342	105.60147	136.06381	38.91152	0.35694	12.10269	135464.8345	0.61224	5.46984E-5	1801.40712	33918.058	50.4398	13723.659
1240.0	0.97204	0.0279564	7.83891	7.47439	-4.11214	19.11889	29.45089	1.25878	0.79442	107.94933	136.37059	39.80166	0.35609	12.32316	148100.6052	0.5993	4.98668E-5	1801.27511	33675.066	48.5984	13774.354
1235.0	0.97582	0.0241841	7.84231	7.47118	-4.15341	19.07105	29.38828	1.25729	0.79536	110.08185	136.67709	40.61092	0.35532	12.54726	161606.601	0.58665	4.55483E-5	1801.23391	33439.745	47.0642	13817.793
1230.0	0.97913	0.0208691	7.8456	7.46807	-4.19323	19.02733	29.32356	1.25589	0.79625	112.02861	136.9834	41.35032	0.35463	12.77513	176077.8502	0.57428	4.16662E-5	1801.27715	33210.873	45.7744	13855.195
1225.0	0.98206	0.0179395	7.84879	7.46506	-4.23188	18.98682	29.25705	1.25456	0.79709	113.81505	137.28946	42.02938	0.35399	13.00694	191615.6769	0.56217	3.81602E-5	1801.40168	32987.469	44.6808	13887.541
1220.0	0.98466	0.0153389	7.85191	7.46213	-4.26947	18.9493	29.18903	1.25329	0.7979	115.46314	137.59542	42.65632	0.35341	13.24281	208331.4757	0.55031	3.49812E-5	1801.60091	32768.738	43.7462	13915.624
1219.29	0.985	0.0149973	7.85235	7.46172	-4.27475	18.94418	29.17919	1.25311	0.79802	115.68531	137.63899	42.74087	0.35333	13.27681	210812.0717	0.54864	3.45531E-5	1801.63424	32737.965	 	13919.254
1215.0	0.98799	0.0120072	7.85541	7.45907	-4.30871	18.90629	29.12336	1.2519	0.79878	117.52179	137.95792	43.43919	0.35272	13.38359	227242.3372	0.5427	3.19628E-5	1801.44085	32536.597	46.4282	13957.523
1212.72	0.98938	0.0106152	7.85699	7.45771	-4.32614	18.88804	29.09285	1.2513	0.79917	118.40592	138.12439	43.77557	0.35242	13.44163	236340.0376	0.53953	3.06853E-5	1801.37688	32432.398	 	13975.038
1210.0	0.99225	0.00774818	7.85933	7.45571	-4.3518	18.85085	29.05864	1.25048	0.79969	120.09245	138.34466	44.41736	0.35186	13.44598	248951.8538	0.53837	2.90775E-5	1800.68583	32287.633	49.7928	14016.651
1205.0	0.99662	0.00337987	7.8634	7.45224	-4.39641	18.79014	28.99377	1.24905	0.80061	122.76849	138.73309	45.43655	0.35099	13.45776	273018.8583	0.53608	2.64249E-5	1799.589	32035.75	50.3766	14079.1
1200.0	1.0	0.0	7.86723	7.44898	-4.43819	18.73788	28.92654	1.24772	0.80146	124.96569	139.10344	46.27425	0.35027	 	298339.654	 	2.41003E-5	 	31799.559	47.2382	14126.257
1195.0	1.0	0.0	7.86979	7.44657	-4.46912	18.71966	28.84738	1.2469	0.80199	125.3796	139.4115	46.43316	0.35011	 	321595.1852	 	2.22817E-5	 	31618.11146	36.28951	 
1193.82	1.0	0.0	7.87039	7.446	-4.4764	18.71536	28.82874	1.2467	0.80212	125.47677	139.48356	46.47048	0.35007	 	327349.7221	 	2.18724E-5	 	31575.22658	 	 
1190.0	1.0	0.0	7.87233	7.44416	-4.5	18.70145	28.76826	1.24607	0.80253	125.79823	139.72232	46.59392	0.34994	 	346992.6782	 	2.05805E-5	 	31434.02242	36.81781	 
1185.0	1.0	0.0	7.87488	7.44176	-4.53083	18.68323	28.68917	1.24523	0.80306	126.21788	140.03319	46.75511	0.34978	 	374635.6855	 	1.89968E-5	 	31249.69299	36.86589	 
1180.0	1.0	0.0	7.87741	7.43936	-4.5616	18.66505	28.61007	1.24439	0.8036	126.63672	140.34259	46.91604	0.34961	 	404689.4109	 	1.75257E-5	 	31065.71462	36.79567	 
1175.0	1.0	0.0	7.87995	7.43697	-4.59231	18.6469	28.53097	1.24355	0.80415	127.05477	140.65054	47.07671	0.34944	 	437381.8889	 	1.61599E-5	 	30882.08608	36.72571	 
1170.0	1.0	0.0	7.88248	7.43458	-4.62296	18.62879	28.45186	1.2427	0.8047	127.47202	140.95702	47.23713	0.34928	 	472964.3788	 	1.48926E-5	 	30698.80613	36.65599	 
1165.0	1.0	0.0	7.88501	7.43219	-4.65354	18.61073	28.37275	1.24185	0.80525	127.88848	141.26206	47.39728	0.34911	 	511713.8864	 	1.37171E-5	 	30515.87352	36.58652	 
1160.0	1.0	0.0	7.88754	7.42981	-4.68407	18.5927	28.29363	1.24099	0.80581	128.30414	141.56566	47.55717	0.34895	 	553936.0079	 	1.26275E-5	 	30333.28702	36.5173	 
1155.0	1.0	0.0	7.89006	7.42744	-4.71453	18.57471	28.2145	1.24013	0.80637	128.719	141.86782	47.71681	0.34878	 	599968.0648	 	1.1618E-5	 	30151.04537	36.44833	 
1150.0	1.0	0.0	7.89258	7.42507	-4.74494	18.55677	28.13537	1.23926	0.80693	129.13307	142.16854	47.87618	0.34862	 	650182.6387	 	1.06832E-5	 	29969.14734	36.37961	 
1145.0	1.0	0.0	7.89509	7.4227	-4.77528	18.53887	28.05623	1.23839	0.8075	129.54635	142.46784	48.03529	0.34845	 	704991.5459	 	9.81804E-6	 	29787.5917	36.31113	 
1140.0	1.0	0.0	7.8976	7.42034	-4.80556	18.52101	27.97709	1.23752	0.80807	129.95883	142.76571	48.19415	0.34828	 	764850.1762	 	9.01776E-6	 	29606.3772	36.2429	 
1135.0	1.0	0.0	7.90011	7.41799	-4.83579	18.5032	27.89794	1.23664	0.80864	130.37052	143.06217	48.35275	0.34812	 	830262.5115	 	8.2779E-6	 	29425.5026	36.17492	 
1130.0	1.0	0.0	7.90262	7.41564	-4.86595	18.48543	27.81879	1.23575	0.80922	130.78141	143.35721	48.51108	0.34795	 	901786.6113	 	7.59429E-6	 	29244.96665	36.10719	 
1125.0	1.0	0.0	7.90512	7.41329	-4.89605	18.4677	27.73963	1.23486	0.80981	131.19152	143.65085	48.66916	0.34779	 	980040.8642	 	6.963E-6	 	29064.76814	36.0397	 
1120.0	1.0	0.0	7.90761	7.41095	-4.92608	18.45002	27.66047	1.23397	0.81039	131.60083	143.94309	48.82698	0.34762	 	1065710.938	 	6.38036E-6	 	28884.90581	35.97247	 
1115.0	1.0	0.0	7.91011	7.40861	-4.95606	18.43239	27.5813	1.23307	0.81098	132.00936	144.23393	48.98455	0.34746	 	1159557.577	 	5.84293E-6	 	28705.37843	35.90548	 
1110.0	1.0	0.0	7.9126	7.40628	-4.98598	18.4148	27.50212	1.23217	0.81158	132.41709	144.52339	49.14185	0.34729	 	1262425.444	 	5.34749E-6	 	28526.18476	35.83873	 
1105.0	1.0	0.0	7.91509	7.40395	-5.01583	18.39726	27.42294	1.23126	0.81218	132.82404	144.81145	49.2989	0.34713	 	1375252.933	 	4.89103E-6	 	28347.32357	35.77224	 
1100.0	1.0	0.0	7.91757	7.40163	-5.04563	18.37977	27.34376	1.23034	0.81278	133.2302	145.09814	49.45569	0.34697	 	1499083.389	 	4.47073E-6	 	28168.79368	35.70598	 
1095.0	1.0	0.0	7.92005	7.39931	-5.07536	18.36233	27.26457	1.22942	0.81339	133.63557	145.38346	49.61222	0.3468	 	1635077.702	 	4.08397E-6	 	27990.59373	35.63999	 
1090.0	1.0	0.0	7.92253	7.397	-5.10503	18.34494	27.18537	1.2285	0.814	134.04016	145.66741	49.76849	0.34664	 	1784528.094	 	3.72827E-6	 	27812.72259	35.57423	 
1085.0	1.0	0.0	7.925	7.39469	-5.13464	18.3276	27.10617	1.22757	0.81462	134.44396	145.94999	49.92451	0.34647	 	1948874.392	 	3.40134E-6	 	27635.17908	35.5087	 
1082.5	1.0	0.0	7.92623	7.39354	-5.14943	18.3189	27.06658	1.2271	0.81493	134.64545	146.09066	50.00238	0.34639	 	2037073.375	 	3.24809E-6	 	27546.58378	 	 
1080.0	1.0	0.0	7.92794	7.39195	-5.16984	18.29038	27.03771	1.22615	0.81556	134.87493	146.23477	50.0917	0.34628	 	2129739.615	 	3.10103E-6	 	27444.92599	38.05062	 
1077.92	1.0	0.0	7.92936	7.39062	-5.18684	18.26648	27.01419	1.22533	0.81611	135.0656	146.35411	50.16593	0.34619	 	2210274.53	 	2.98345E-6	 	27360.30078	 	 
1075.0	1.0	0.0	7.93082	7.38926	-5.20432	18.25537	26.96851	1.22475	0.81649	135.30313	146.51867	50.25779	0.34609	 	2329125.762	 	2.82509E-6	 	27255.90739	37.80372	 
1070.0	1.0	0.0	7.93332	7.38693	-5.23419	18.23644	26.89026	1.22376	0.81715	135.70908	146.79929	50.41482	0.34592	 	2548989.613	 	2.57184E-6	 	27077.46142	35.68919	 
1065.0	1.0	0.0	7.93582	7.38461	-5.26397	18.21762	26.81196	1.22276	0.81782	136.11401	147.07842	50.5715	0.34576	 	2791429.491	 	2.33973E-6	 	26899.42444	35.6074	 
1060.0	1.0	0.0	7.93831	7.38229	-5.29367	18.19892	26.73361	1.22176	0.81849	136.51792	147.35608	50.72783	0.34559	 	3058948.994	 	2.12713E-6	 	26721.79213	35.52646	 
1055.0	1.0	0.0	7.94079	7.37999	-5.32329	18.18033	26.65521	1.22076	0.81916	136.92081	147.63226	50.88382	0.34543	 	3354349.564	 	1.93253E-6	 	26544.56028	35.44637	 
1050.94	1.0	0.0	7.9428	7.37811	-5.3473	18.16533	26.59147	1.21994	0.81971	137.24752	147.85567	51.01034	0.34529	 	3617133.272	 	1.78665E-6	 	26400.80663	 	 
1050.0	1.0	0.0	7.94327	7.37769	-5.3528	18.16195	26.57678	1.21976	0.81984	137.32277	147.90712	51.03948	0.34526	 	3680790.04	 	1.75451E-6	 	26367.68463	35.37513	 
1045.0	1.0	0.0	7.94573	7.3754	-5.38216	18.14395	26.49831	1.21874	0.82052	137.72401	148.18101	51.19491	0.34509	 	4041849.843	 	1.59174E-6	 	26191.03549	35.32983	 
1040.0	1.0	0.0	7.94819	7.37311	-5.41145	18.12604	26.4198	1.21773	0.8212	138.12426	148.45343	51.34999	0.34493	 	4441402.32	 	1.44305E-6	 	26014.78687	35.24972	 
1035.0	1.0	0.0	7.95065	7.37084	-5.44066	18.10822	26.34125	1.21671	0.82189	138.5235	148.72438	51.50473	0.34476	 	4883875.928	 	1.30731E-6	 	25838.93416	35.17054	 
1030.0	1.0	0.0	7.9531	7.36857	-5.4698	18.09049	26.26266	1.21569	0.82258	138.92176	148.99388	51.65913	0.3446	 	5374245.827	 	1.18349E-6	 	25663.47287	35.09226	 
1025.0	1.0	0.0	7.95554	7.3663	-5.49887	18.07285	26.18404	1.21466	0.82328	139.31904	149.26195	51.81321	0.34444	 	5918105.26	 	1.0706E-6	 	25488.39858	35.01486	 
1020.0	1.0	0.0	7.95798	7.36404	-5.52786	18.05531	26.10537	1.21363	0.82398	139.71535	149.52859	51.96695	0.34427	 	6521748.26	 	9.67769E-7	 	25313.70698	34.93832	 
1015.0	1.0	0.0	7.96042	7.36179	-5.55678	18.03787	26.02667	1.21259	0.82468	140.11071	149.79381	52.12037	0.34411	 	7192262.3	 	8.74153E-7	 	25139.39383	34.86263	 
1010.0	1.0	0.0	7.96285	7.35954	-5.58564	18.02051	25.94794	1.21155	0.82539	140.50512	150.05763	52.27346	0.34394	 	7937636.231	 	7.88993E-7	 	24965.45497	34.78777	 
1005.0	1.0	0.0	7.96528	7.35729	-5.61442	18.00325	25.86917	1.2105	0.8261	140.89859	150.32005	52.42624	0.34378	 	8766881.419	 	7.11579E-7	 	24791.88639	34.71372	 
1000.0	1.0	0.0	7.96771	7.35506	-5.64312	17.98608	25.79036	1.20945	0.82682	141.29113	150.5811	52.5787	0.34362	 	9690171.601	 	6.41261E-7	 	24618.6841	34.64046	 
997.24	1.0	0.0	7.96904	7.35382	-5.65892	17.97666	25.74692	1.20887	0.82722	141.50706	150.72437	52.66259	0.34353	 	1.024331369E7	 	6.0532E-7	 	24523.38668	 	 
995.0	1.0	0.0	7.97094	7.35207	-5.68142	17.93199	25.68649	1.20957	0.82674	141.83012	150.91769	52.78895	0.34337	 	1.076940848E7	 	5.74732E-7	 	24399.83613	43.76959	 
990.0	1.0	0.0	7.97513	7.34821	-5.73095	17.83403	25.55431	1.21104	0.82574	142.53802	151.34082	53.06593	0.34303	 	1.204643079E7	 	5.1178E-7	 	24127.55954	54.45532	 
985.0	1.0	0.0	7.97925	7.34441	-5.77969	17.73813	25.42564	1.21235	0.82485	143.23039	151.75404	53.33692	0.34269	 	1.34840637E7	 	4.55406E-7	 	23859.23828	53.66425	 
980.0	1.0	0.0	7.98332	7.34067	-5.82766	17.64421	25.30009	1.21352	0.82405	143.90801	152.15789	53.60222	0.34237	 	1.510372315E7	 	4.04954E-7	 	23594.72548	52.90256	 
975.0	1.0	0.0	7.98732	7.33699	-5.87489	17.55221	25.17742	1.21457	0.82334	144.57162	152.55285	53.86211	0.34205	 	1.692985292E7	 	3.59832E-7	 	23333.88006	52.16908	 
970.0	1.0	0.0	7.99127	7.33336	-5.92141	17.46204	25.05748	1.21549	0.82271	145.22191	152.9394	54.11687	0.34174	 	1.899037563E7	 	3.19504E-7	 	23076.5665	51.46271	 
965.0	1.0	0.0	7.99517	7.32979	-5.96723	17.37364	24.93952	1.21633	0.82215	145.85956	153.31796	54.36674	0.34144	 	2.13172188E7	 	2.83485E-7	 	22822.65469	50.78236	 
960.0	1.0	0.0	7.99901	7.32627	-6.01239	17.28695	24.82455	1.21703	0.82167	146.48518	153.68893	54.61197	0.34115	 	2.394692254E7	 	2.51335E-7	 	22572.01964	50.12701	 
955.0	1.0	0.0	8.0028	7.3228	-6.05691	17.20189	24.71187	1.21762	0.82127	147.09935	154.05268	54.85278	0.34086	 	2.692134371E7	 	2.2266E-7	 	22324.54137	49.49565	 
950.0	1.0	0.0	8.00654	7.31938	-6.1008	17.11841	24.60135	1.21811	0.82094	147.70262	154.40958	55.08937	0.34057	 	3.028847806E7	 	1.97101E-7	 	22080.10469	48.88734	 
945.0	1.0	0.0	8.01023	7.316	-6.1441	17.03644	24.49287	1.2185	0.82068	148.29552	154.75993	55.32197	0.3403	 	3.410341016E7	 	1.74337E-7	 	21838.59903	48.30113	 
940.0	1.0	0.0	8.01388	7.31267	-6.18682	16.95593	24.38632	1.21881	0.82048	148.87853	155.10405	55.55074	0.34002	 	3.842942359E7	 	1.54077E-7	 	21599.91834	47.73614	 
935.0	1.0	0.0	8.01749	7.30939	-6.22898	16.87682	24.2816	1.21902	0.82033	149.45212	155.44223	55.77587	0.33976	 	4.333929477E7	 	1.36059E-7	 	21363.96082	47.1915	 
930.0	1.0	0.0	8.02105	7.30614	-6.2706	16.79905	24.17861	1.21914	0.82025	150.01673	155.77473	55.99754	0.33949	 	4.891679798E7	 	1.20046E-7	 	21130.62883	46.6664	 
925.0	1.0	0.0	8.02456	7.30294	-6.3117	16.72257	24.07725	1.21919	0.82022	150.57276	156.1018	56.21589	0.33924	 	5.525846497E7	 	1.05828E-7	 	20899.82877	46.16001	 
920.0	1.0	0.0	8.02804	7.29978	-6.35229	16.64733	23.97745	1.21915	0.82024	151.12062	156.42368	56.43109	0.33898	 	6.247564727E7	 	9.32118E-8	 	20671.47086	45.67158	 
915.0	1.0	0.0	8.03148	7.29665	-6.3924	16.57328	23.8791	1.21904	0.82031	151.66066	156.7406	56.64327	0.33873	 	7.069692004E7	 	8.20271E-8	 	20445.46902	45.20037	 
910.0	1.0	0.0	8.03488	7.29356	-6.43204	16.50037	23.78215	1.21886	0.82044	152.19324	157.05275	56.85258	0.33849	 	8.007090249E7	 	7.21193E-8	 	20221.74077	44.74565	 
905.0	1.0	0.0	8.03825	7.29051	-6.47122	16.42857	23.6865	1.21861	0.82061	152.7187	157.36035	57.05913	0.33825	 	9.076957179E7	 	6.33501E-8	 	20000.20698	44.30676	 
900.0	1.0	0.0	8.04158	7.28749	-6.50996	16.35781	23.59211	1.2183	0.82082	153.23732	157.66356	57.26305	0.33801	 	1.029921467E8	 	5.55951E-8	 	19780.7919	43.88302	 
895.0	1.0	0.0	8.04488	7.2845	-6.54827	16.28806	23.49889	1.21792	0.82107	153.74943	157.96257	57.46445	0.33778	 	1.169696582E8	 	4.8743E-8	 	19563.42286	43.47381	 
890.0	1.0	0.0	8.04814	7.28155	-6.58617	16.21928	23.40679	1.21747	0.82137	154.25528	158.25753	57.66345	0.33755	 	1.329703236E8	 	4.26941E-8	 	19348.03025	43.07852	 
885.0	1.0	0.0	8.05137	7.27862	-6.62367	16.15143	23.31575	1.21697	0.82171	154.75515	158.54861	57.86014	0.33732	 	1.513059006E8	 	3.7359E-8	 	19134.54733	42.69658	 
880.0	1.0	0.0	8.05458	7.27573	-6.66079	16.08446	23.22573	1.21642	0.82209	155.24929	158.83595	58.05462	0.3371	 	1.723391294E8	 	3.26579E-8	 	18922.91018	42.32743	 
875.0	1.0	0.0	8.05775	7.27287	-6.69752	16.01835	23.13665	1.21581	0.8225	155.73792	159.11967	58.24698	0.33688	 	1.964926264E8	 	2.85193E-8	 	18713.05696	41.97064	 
870.0	1.0	0.0	8.06089	7.27003	-6.7339	15.95305	23.04848	1.21514	0.82295	156.22128	159.39992	58.43732	0.33666	 	2.242592923E8	 	2.48794E-8	 	18504.92959	41.62548	 
865.0	1.0	0.0	8.06401	7.26722	-6.76993	15.88854	22.96118	1.21443	0.82343	156.69958	159.67681	58.62571	0.33644	 	2.5621469E8	 	2.16811E-8	 	18298.47173	41.29157	 
860.0	1.0	0.0	8.06709	7.26444	-6.80561	15.82477	22.87469	1.21366	0.82395	157.17301	159.95046	58.81222	0.33623	 	2.930317598E8	 	1.88738E-8	 	18093.62943	40.96846	 
855.0	1.0	0.0	8.07015	7.26168	-6.84096	15.76171	22.78899	1.21285	0.8245	157.64176	160.22098	58.99695	0.33602	 	3.354982156E8	 	1.64121E-8	 	17890.3509	40.65571	 
850.0	1.0	0.0	8.07319	7.25895	-6.876	15.69933	22.70402	1.212	0.82509	158.10602	160.48846	59.17994	0.33581	 	3.845373082E8	 	1.42556E-8	 	17688.58649	40.35288	 
845.0	1.0	0.0	8.07547	7.2569	-6.90232	15.67569	22.63106	1.21049	0.82611	158.46536	160.70924	59.32098	0.33566	 	4.38186004E8	 	1.24546E-8	 	17528.9578	31.92574	 
840.0	1.0	0.0	8.07775	7.25486	-6.92858	15.65205	22.55809	1.20898	0.82715	158.82408	160.92904	59.46181	0.33551	 	4.999056749E8	 	1.08681E-8	 	17366.32864	32.52583	 
835.0	1.0	0.0	8.08003	7.25281	-6.95477	15.6284	22.48512	1.20745	0.82819	159.18218	161.14785	59.60244	0.33537	 	5.709973258E8	 	9.47221E-9	 	17203.95873	32.47398	 
830.0	1.0	0.0	8.0823	7.25078	-6.98091	15.60475	22.41214	1.20592	0.82924	159.53968	161.36569	59.74287	0.33522	 	6.529855134E8	 	8.24551E-9	 	17041.84746	32.42225	 
825.0	1.0	0.0	8.08456	7.24874	-7.00698	15.58109	22.33915	1.20437	0.83031	159.89656	161.58256	59.8831	0.33507	 	7.476591171E8	 	7.16877E-9	 	16879.99418	32.37066	 
820.0	1.0	0.0	8.08682	7.24672	-7.03299	15.55744	22.26616	1.20282	0.83138	160.25282	161.79845	60.02314	0.33493	 	8.571199752E8	 	6.22479E-9	 	16718.39827	32.31918	 
815.0	1.0	0.0	8.08908	7.24469	-7.05893	15.53378	22.19315	1.20126	0.83246	160.60848	162.01337	60.16297	0.33478	 	9.83840984E8	 	5.39822E-9	 	16557.05907	32.26784	 
810.0	1.0	0.0	8.09133	7.24268	-7.08482	15.51011	22.12014	1.19968	0.83355	160.96352	162.22732	60.3026	0.33463	 	1.130735601E9	 	4.67535E-9	 	16395.97594	32.21663	 
805.0	1.0	0.0	8.09358	7.24066	-7.11064	15.48644	22.04712	1.1981	0.83465	161.31795	162.44031	60.44203	0.33448	 	1.301241113E9	 	4.04397E-9	 	16235.14821	32.16555	 
800.0	1.0	0.0	8.09583	7.23866	-7.13639	15.46277	21.9741	1.19651	0.83577	161.67177	162.65234	60.58126	0.33434	 	1.499418538E9	 	3.49321E-9	 	16074.57521	32.1146	 
795.0	1.0	0.0	8.09807	7.23665	-7.16209	15.4391	21.90106	1.1949	0.83689	162.02497	162.86341	60.72029	0.33419	 	1.730072676E9	 	3.01338E-9	 	15914.25625	32.06379	 
790.0	1.0	0.0	8.1003	7.23466	-7.18772	15.41542	21.82802	1.19329	0.83802	162.37757	163.07353	60.85912	0.33404	 	1.998896563E9	 	2.59592E-9	 	15754.19063	32.01312	 
785.0	1.0	0.0	8.10254	7.23266	-7.21329	15.39174	21.75497	1.19167	0.83916	162.72955	163.28269	60.99775	0.3339	 	2.3126456E9	 	2.23319E-9	 	15594.37767	31.96259	 
780.0	1.0	0.0	8.10476	7.23067	-7.23879	15.36805	21.68191	1.19003	0.84031	163.08091	163.4909	61.13618	0.33375	 	2.679347727E9	 	1.91844E-9	 	15434.81662	31.91221	 
775.0	1.0	0.0	8.10699	7.22869	-7.26423	15.34436	21.60885	1.18839	0.84148	163.43167	163.69816	61.27441	0.3336	 	3.10855755E9	 	1.6457E-9	 	15275.50677	31.86197	 
770.0	1.0	0.0	8.10921	7.22671	-7.28961	15.32067	21.53577	1.18673	0.84265	163.78181	163.90448	61.41244	0.33346	 	3.611664076E9	 	1.4097E-9	 	15116.44736	31.81188	 
765.0	1.0	0.0	8.11142	7.22474	-7.31493	15.29698	21.46269	1.18506	0.84384	164.13135	164.10986	61.55026	0.33331	 	4.202263977E9	 	1.20577E-9	 	14957.63765	31.76194	 
760.0	1.0	0.0	8.11363	7.22277	-7.34018	15.27328	21.38959	1.18339	0.84503	164.48027	164.3143	61.68789	0.33316	 	4.896615083E9	 	1.0298E-9	 	14799.07684	31.71216	 
755.0	1.0	0.0	8.11584	7.22081	-7.36537	15.24958	21.31649	1.1817	0.84624	164.82858	164.5178	61.82531	0.33302	 	5.714188261E9	 	8.7819E-10	 	14640.76414	31.66254	 
750.0	1.0	0.0	8.11804	7.21885	-7.3905	15.22587	21.24338	1.18	0.84746	165.17627	164.72037	61.96254	0.33287	 	6.678340165E9	 	7.47752E-10	 	14482.69874	31.61308	 
745.0	1.0	0.0	8.12024	7.2169	-7.41556	15.20217	21.17026	1.17829	0.84869	165.52336	164.922	62.09956	0.33273	 	7.817134725E9	 	6.35698E-10	 	14324.87982	31.56378	 
740.0	1.0	0.0	8.12243	7.21495	-7.44056	15.17846	21.09712	1.17657	0.84993	165.86983	165.12271	62.23639	0.33258	 	9.164348012E9	 	5.39584E-10	 	14167.3065	31.51466	 
735.0	1.0	0.0	8.12462	7.213	-7.4655	15.15474	21.02398	1.17483	0.85118	166.2157	165.32249	62.37301	0.33243	 	1.07607E10	 	4.57269E-10	 	14009.97792	31.46572	 
730.0	1.0	0.0	8.12681	7.21106	-7.49037	15.13102	20.95083	1.17309	0.85245	166.56095	165.52135	62.50943	0.33229	 	1.2655399999999998E10	 	3.86881E-10	 	13852.89318	31.41695	 
725.0	1.0	0.0	8.12899	7.20913	-7.51518	15.1073	20.87767	1.17133	0.85373	166.90559	165.71929	62.64565	0.33214	 	1.4907799999999998E10	 	3.2679E-10	 	13696.05134	31.36837	 
720.0	1.0	0.0	8.13116	7.2072	-7.53993	15.08358	20.8045	1.16956	0.85502	167.24962	165.9163	62.78167	0.33199	 	1.75902E10	 	2.75569E-10	 	13539.45147	31.31998	 
715.0	1.0	0.0	8.13333	7.20528	-7.56461	15.05985	20.73132	1.16778	0.85632	167.59303	166.11241	62.91749	0.33185	 	2.079E10	 	2.31983E-10	 	13383.09256	31.27178	 
710.0	1.0	0.0	8.1355	7.20336	-7.58923	15.03612	20.65813	1.16599	0.85764	167.93584	166.3076	63.05311	0.3317	 	2.4613599999999996E10	 	1.94954E-10	 	13226.97361	31.22379	 
705.0	1.0	0.0	8.13766	7.20144	-7.61379	15.01238	20.58492	1.16419	0.85897	168.27804	166.50187	63.18852	0.33156	 	2.9190799999999996E10	 	1.63548E-10	 	13071.09357	31.17601	 
700.0	1.0	0.0	8.13982	7.19953	-7.63829	14.98864	20.51171	1.16237	0.86031	168.61962	166.69525	63.32374	0.33141	 	3.468E10	 	1.36958E-10	 	12915.45137	31.12844	 
695.0	1.0	0.0	8.14197	7.19763	-7.66272	14.9649	20.43848	1.16054	0.86167	168.96059	166.88771	63.45875	0.33126	 	4.12747E10	 	1.14484E-10	 	12760.04585	31.0811	 
690.0	1.0	0.0	8.14412	7.19573	-7.68709	14.94116	20.36524	1.1587	0.86304	169.30096	167.07927	63.59356	0.33112	 	4.921239999999999E10	 	9.55227E-11	 	12604.87588	31.03399	 
685.0	1.0	0.0	8.14627	7.19384	-7.71139	14.91741	20.292	1.15684	0.86442	169.64071	167.26993	63.72817	0.33097	 	5.878429999999999E10	 	7.95534E-11	 	12449.94023	30.98713	 
680.0	1.0	0.0	8.14841	7.19195	-7.73563	14.89366	20.21873	1.15498	0.86582	169.97985	167.4597	63.86258	0.33083	 	7.03492E10	 	6.61286E-11	 	12295.23767	30.94051	 
675.0	1.0	0.0	8.15054	7.19006	-7.75981	14.8699	20.14546	1.1531	0.86723	170.31838	167.64857	63.99679	0.33068	 	8.43488E10	 	5.48637E-11	 	12140.76687	30.89416	 
670.0	1.0	0.0	8.15268	7.18818	-7.78393	14.84614	20.07218	1.1512	0.86866	170.6563	167.83654	64.13079	0.33053	 	1.01329E11	 	4.5429E-11	 	11986.52647	30.84808	 
665.0	1.0	0.0	8.1548	7.18631	-7.80798	14.82238	19.99888	1.1493	0.8701	170.99362	168.02363	64.2646	0.33039	 	1.21966E11	 	3.75422E-11	 	11832.51506	30.80228	 
660.0	1.0	0.0	8.15693	7.18444	-7.83197	14.79862	19.92557	1.14738	0.87155	171.33032	168.20983	64.3982	0.33024	 	1.47098E11	 	3.09622E-11	 	11678.73408	30.7562	 
655.0	1.0	0.0	8.15904	7.18257	-7.85589	14.77485	19.85225	1.14545	0.87302	171.66641	168.39514	64.5316	0.3301	 	1.77767E11	 	2.54832E-11	 	11525.19948	30.70692	 
650.0	1.0	0.0	8.16116	7.18071	-7.87976	14.75108	19.77891	1.1435	0.87451	172.00189	168.57957	64.6648	0.32995	 	2.15271E11	 	2.09302E-11	 	11371.93257	30.65338	 
645.0	1.0	0.0	8.16327	7.17886	-7.90356	14.7273	19.70556	1.14154	0.87601	172.33675	168.76311	64.7978	0.3298	 	2.61232E11	 	1.71544E-11	 	11218.93263	30.59999	 
640.0	1.0	0.0	8.16537	7.17701	-7.92729	14.70352	19.6322	1.13957	0.87753	172.67101	168.94578	64.93059	0.32966	 	3.17678E11	 	1.40295E-11	 	11066.19894	30.54674	 
635.0	1.0	0.0	8.16747	7.17516	-7.95096	14.67974	19.55882	1.13758	0.87906	173.00466	169.12758	65.06319	0.32951	 	3.87153E11	 	1.14488E-11	 	10913.73078	30.49363	 
630.0	1.0	0.0	8.16957	7.17332	-7.97457	14.65596	19.48543	1.13558	0.88061	173.3377	169.3085	65.19558	0.32937	 	4.72858E11	 	9.32215E-12	 	10761.52748	30.44066	 
625.0	1.0	0.0	8.17166	7.17149	-7.99812	14.63217	19.41202	1.13356	0.88218	173.67013	169.48855	65.32777	0.32922	 	5.78822E11	 	7.5734E-12	 	10609.58803	30.38789	 
620.0	1.0	0.0	8.17374	7.16966	-8.0216	14.60838	19.3386	1.13153	0.88376	174.00195	169.66773	65.45976	0.32908	 	7.10137E11	 	6.13859E-12	 	10457.91106	30.33539	 
615.0	1.0	0.0	8.17582	7.16783	-8.04501	14.58458	19.26517	1.12948	0.88536	174.33316	169.84604	65.59154	0.32893	 	8.73252E11	 	4.96402E-12	 	10306.49624	30.28296	 
610.0	1.0	0.0	8.1779	7.16601	-8.06837	14.56078	19.19172	1.12742	0.88698	174.66376	170.02349	65.72312	0.32878	 	1.07635E12	 	4.00468E-12	 	10155.34287	30.23067	 
605.0	1.0	0.0	8.17997	7.16419	-8.09166	14.53698	19.11825	1.12535	0.88861	174.99375	170.20008	65.85451	0.32864	 	1.32985E12	 	3.22295E-12	 	10004.45027	30.17852	 
600.0	1.0	0.0	8.18204	7.16238	-8.11489	14.51318	19.04477	1.12326	0.89027	175.32313	170.37581	65.98568	0.32849	 	1.64703E12	 	2.58746E-12	 	9853.81776	30.1265	 
595.0	1.0	0.0	8.1841	7.16058	-8.13805	14.48937	18.97127	1.12115	0.89194	175.65191	170.55069	66.11666	0.32835	 	2.0449E12	 	2.07209E-12	 	9703.44467	30.07462	 
590.0	1.0	0.0	8.18616	7.15878	-8.16115	14.46556	18.89775	1.11903	0.89363	175.98007	170.72471	66.24743	0.3282	 	2.54526E12	 	1.65517E-12	 	9553.33031	30.02287	 
585.0	1.0	0.0	8.18822	7.15698	-8.18419	14.44174	18.82422	1.11689	0.89534	176.30762	170.89787	66.37801	0.32806	 	3.17613E12	 	1.31872E-12	 	9403.47402	29.97126	 
580.0	1.0	0.0	8.19027	7.15519	-8.20716	14.41792	18.75068	1.11474	0.89707	176.63456	171.07019	66.50837	0.32791	 	3.97367E12	 	1.0479E-12	 	9253.87513	29.91978	 
575.0	1.0	0.0	8.19231	7.1534	-8.23007	14.3941	18.67711	1.11257	0.89882	176.9609	171.24166	66.63854	0.32777	 	4.98463E12	 	8.30474E-13	 	9104.53298	29.86843	 
570.0	1.0	0.0	8.19435	7.15162	-8.25292	14.37028	18.60353	1.11039	0.90058	177.28662	171.41229	66.7685	0.32762	 	6.26963E12	 	6.56372E-13	 	8955.44688	29.81722	 
565.0	1.0	0.0	8.19639	7.14985	-8.2757	14.34645	18.52993	1.10819	0.90237	177.61174	171.58207	66.89827	0.32748	 	7.90749E12	 	5.17332E-13	 	8806.61619	29.76614	 
560.0	1.0	0.0	8.19842	7.14808	-8.29842	14.32261	18.45631	1.10597	0.90418	177.93624	171.75101	67.02782	0.32733	 	1.0001E13	 	4.06597E-13	 	8658.04026	29.71519	 
555.0	1.0	0.0	8.20044	7.14631	-8.32108	14.29878	18.38267	1.10374	0.90601	178.26014	171.91911	67.15718	0.32719	 	1.26848E13	 	3.18648E-13	 	8509.71843	29.66437	 
550.0	1.0	0.0	8.20246	7.14455	-8.34367	14.27494	18.30901	1.10149	0.90786	178.58343	172.08638	67.28633	0.32704	 	1.61353E13	 	2.48994E-13	 	8361.65003	29.61368	 
545.0	1.0	0.0	8.20448	7.14279	-8.3662	14.2511	18.23534	1.09922	0.90973	178.90611	172.25281	67.41528	0.3269	 	2.05848E13	 	1.93987E-13	 	8213.83445	29.56312	 
540.0	1.0	0.0	8.20649	7.14104	-8.38866	14.22725	18.16164	1.09694	0.91163	179.22818	172.41841	67.54403	0.32675	 	2.63401E13	 	1.50675E-13	 	8066.27101	29.51269	 
535.0	1.0	0.0	8.2085	7.1393	-8.41106	14.2034	18.08793	1.09463	0.91355	179.54964	172.58318	67.67257	0.32661	 	3.38075E13	 	1.16672E-13	 	7918.95909	29.46238	 
530.0	1.0	0.0	8.2105	7.13756	-8.4334	14.17955	18.01419	1.09232	0.91549	179.87049	172.74713	67.80091	0.32646	 	4.3527E13	 	9.00586E-14	 	7771.89804	29.41221	 
525.0	1.0	0.0	8.2125	7.13582	-8.45567	14.1557	17.94043	1.08998	0.91745	180.19073	172.91025	67.92905	0.32632	 	5.62184E13	 	6.92935E-14	 	7625.08726	29.36216	 
520.0	1.0	0.0	8.21449	7.13409	-8.47788	14.13184	17.86665	1.08762	0.91944	180.51037	173.07254	68.05698	0.32617	 	7.2845E13	 	5.31425E-14	 	7478.52609	29.31223	 
515.0	1.0	0.0	8.21648	7.13236	-8.50003	14.10798	17.79285	1.08525	0.92145	180.8294	173.23402	68.18471	0.32603	 	9.46997E13	 	4.06207E-14	 	7332.21392	29.26243	 
510.0	1.0	0.0	8.21846	7.13064	-8.52211	14.08411	17.71903	1.08286	0.92348	181.14781	173.39468	68.31224	0.32588	 	1.23524E14	 	3.09442E-14	 	7186.15012	29.21276	 
505.0	1.0	0.0	8.22044	7.12892	-8.54413	14.06024	17.64519	1.08045	0.92554	181.46562	173.55452	68.43957	0.32574	 	1.61674E14	 	2.34915E-14	 	7040.33408	29.16321	 
500.0	1.0	0.0	8.22242	7.12721	-8.56609	14.03637	17.57132	1.07802	0.92763	181.78282	173.71355	68.56669	0.32559	 	2.12343E14	 	1.7771E-14	 	6894.76519	29.11378	 
495.0	1.0	0.0	8.22439	7.12551	-8.58798	14.0125	17.49743	1.07557	0.92974	182.09942	173.87176	68.69361	0.32545	 	2.7988399999999997E14	 	1.33954E-14	 	6749.44284	29.06447	 
490.0	1.0	0.0	8.22635	7.1238	-8.60981	13.98862	17.42351	1.0731	0.93188	182.4154	174.02917	68.82032	0.3253	 	3.70246E14	 	1.00602E-14	 	6604.36645	29.01528	 
485.0	1.0	0.0	8.22831	7.12211	-8.63157	13.96473	17.34957	1.07061	0.93404	182.73077	174.18577	68.94683	0.32516	 	4.91592E14	 	7.52727E-15	 	6459.53539	28.96621	 
480.0	1.0	0.0	8.23026	7.12042	-8.65327	13.94085	17.27561	1.06811	0.93624	183.04554	174.34156	69.07314	0.32501	 	6.55169E14	 	5.61067E-15	 	6314.94908	28.91726	 
475.0	1.0	0.0	8.23221	7.11873	-8.67491	13.91696	17.20162	1.06558	0.93846	183.3597	174.49655	69.19924	0.32487	 	8.76537E14	 	4.16587E-15	 	6170.60695	28.86843	 
470.0	1.0	0.0	8.23416	7.11705	-8.69648	13.89307	17.1276	1.06303	0.94071	183.67325	174.65074	69.32514	0.32472	 	1.1773E15	 	3.08088E-15	 	6026.50841	28.81971	 
465.0	1.0	0.0	8.2361	7.11537	-8.71799	13.86917	17.05356	1.06046	0.94298	183.98619	174.80413	69.45083	0.32458	 	1.5876E15	 	2.26929E-15	 	5882.65287	28.77111	 
460.0	1.0	0.0	8.23804	7.1137	-8.73943	13.84527	16.97949	1.05788	0.94529	184.29853	174.95672	69.57633	0.32443	 	2.14964E15	 	1.66462E-15	 	5739.03978	28.72262	 
455.0	1.0	0.0	8.23997	7.11203	-8.76081	13.82137	16.90539	1.05527	0.94763	184.61025	175.10852	69.70161	0.32429	 	2.92279E15	 	1.21593E-15	 	5595.66856	28.67424	 
450.0	1.0	0.0	8.24189	7.11037	-8.78213	13.79747	16.83126	1.05263	0.95	184.92137	175.25953	69.8267	0.32415	 	3.99094E15	 	8.84382E-16	 	5452.53867	28.62598	 
445.0	1.0	0.0	8.24381	7.10872	-8.80338	13.77356	16.75711	1.04998	0.9524	185.23188	175.40974	69.95158	0.324	 	5.47313E15	 	6.40421E-16	 	5309.64954	28.57783	 
440.0	1.0	0.0	8.24573	7.10706	-8.82457	13.74964	16.68292	1.04731	0.95483	185.54178	175.55917	70.07625	0.32386	 	7.53912E15	 	4.61686E-16	 	5167.00064	28.52978	 
435.0	1.0	0.0	8.24764	7.10542	-8.84569	13.72573	16.60871	1.04461	0.95729	185.85108	175.70781	70.20072	0.32371	 	1.0432E16	 	3.31317E-16	 	5024.59142	28.48184	 
430.0	1.0	0.0	8.24954	7.10378	-8.86675	13.70181	16.53447	1.04189	0.95979	186.15976	175.85566	70.32499	0.32357	 	1.45018E16	 	2.36653E-16	 	4882.42137	28.43401	 
425.0	1.0	0.0	8.25145	7.10214	-8.88775	13.67789	16.46019	1.03915	0.96232	186.46784	176.00273	70.44905	0.32342	 	2.02547E16	 	1.68232E-16	 	4740.48999	28.38628	 
420.0	1.0	0.0	8.25334	7.10051	-8.90868	13.65396	16.38588	1.03639	0.96489	186.77531	176.14902	70.57291	0.32328	 	2.84265E16	 	1.19012E-16	 	4598.79672	28.33866	 
415.0	1.0	0.0	8.25523	7.09888	-8.92955	13.63003	16.31154	1.0336	0.96749	187.08218	176.29454	70.69656	0.32313	 	4.00921E16	 	8.37743E-17	 	4457.34119	28.2911	 
410.0	1.0	0.0	8.25712	7.09726	-8.95036	13.6061	16.23717	1.03079	0.97013	187.38843	176.43928	70.82001	0.32299	 	5.68304E16	 	5.86708E-17	 	4316.12316	28.24361	 
405.0	1.0	0.0	8.259	7.09564	-8.9711	13.58216	16.16276	1.02796	0.9728	187.69408	176.58324	70.94326	0.32285	 	8.09724E16	 	4.08767E-17	 	4175.1424	28.19615	 
400.0	1.0	0.0	8.26088	7.09403	-8.99178	13.55823	16.08831	1.0251	0.97551	187.99912	176.72643	71.0663	0.3227	 	1.15978E17	 	2.83284E-17	 	4034.39863	28.14875	 
395.0	1.0	0.0	8.26275	7.09242	-9.01239	13.53428	16.01383	1.02222	0.97826	188.30355	176.86885	71.18913	0.32256	 	1.67014E17	 	1.95258E-17	 	3893.89165	28.1014	 
390.0	1.0	0.0	8.26462	7.09082	-9.03294	13.51034	15.93932	1.01931	0.98105	188.60737	177.0105	71.31177	0.32241	 	2.41834E17	 	1.33839E-17	 	3753.62121	28.05409	 
385.0	1.0	0.0	8.26648	7.08922	-9.05342	13.48639	15.86476	1.01638	0.98388	188.91059	177.15139	71.43419	0.32227	 	3.52146E17	 	9.12197E-18	 	3613.58712	28.00682	 
380.0	1.0	0.0	8.26833	7.08763	-9.07384	13.46244	15.79017	1.01343	0.98675	189.2132	177.29151	71.55641	0.32213	 	5.15737E17	 	6.18118E-18	 	3473.78917	27.95959	 
375.0	1.0	0.0	8.27019	7.08605	-9.0942	13.43848	15.71554	1.01044	0.98966	189.5152	177.43087	71.67843	0.32198	 	7.59784E17	 	4.16363E-18	 	3334.22715	27.9124	 
370.0	1.0	0.0	8.27203	7.08446	-9.11449	13.41452	15.64087	1.00744	0.99262	189.8166	177.56946	71.80024	0.32184	 	1.12608E18	 	2.7876E-18	 	3194.9009	27.86525	 
365.0	1.0	0.0	8.27387	7.08289	-9.13472	13.39056	15.56616	1.0044	0.99562	190.11739	177.7073	71.92185	0.32169	 	1.67928E18	 	1.85475E-18	 	3055.81024	27.81813	 
360.0	1.0	0.0	8.27571	7.08132	-9.15488	13.36659	15.4914	1.00134	0.99866	190.41757	177.84439	72.04325	0.32155	 	2.52012E18	 	1.22623E-18	 	2916.955	27.77105	 
355.0	1.0	0.0	8.27754	7.07975	-9.17498	13.34262	15.41661	0.99825	1.00175	190.71714	177.98072	72.16444	0.32141	 	3.80649E18	 	8.05425E-19	 	2778.33505	27.72399	 
350.0	1.0	0.0	8.27937	7.07819	-9.19502	13.31865	15.34176	0.99514	1.00489	191.01611	178.11629	72.28544	0.32126	 	5.78765E18	 	5.25505E-19	 	2639.95025	27.67696	 
345.0	1.0	0.0	8.28119	7.07663	-9.21499	13.29468	15.26688	0.992	1.00807	191.31446	178.25112	72.40622	0.32112	 	8.8598E18	 	3.40531E-19	 	2501.80047	27.62996	 
340.0	1.0	0.0	8.28301	7.07508	-9.2349	13.2707	15.19195	0.98882	1.0113	191.61222	178.38519	72.5268	0.32098	 	1.36572E19	 	2.19125E-19	 	2363.88561	27.58297	 
335.0	1.0	0.0	8.28482	7.07353	-9.25474	13.24671	15.11697	0.98563	1.01458	191.90936	178.51852	72.64718	0.32083	 	2.12026E19	 	1.39993E-19	 	2226.20557	27.53601	 
330.0	1.0	0.0	8.28662	7.07199	-9.27452	13.22273	15.04194	0.9824	1.01792	192.2059	178.65111	72.76735	0.32069	 	3.31577E19	 	8.87825E-20	 	2088.76026	27.48906	 
325.0	1.0	0.0	8.28842	7.07045	-9.29424	13.19874	14.96686	0.97914	1.0213	192.50183	178.78295	72.88731	0.32054	 	5.22428E19	 	5.58818E-20	 	1951.54964	27.44212	 
320.0	1.0	0.0	8.29022	7.06892	-9.31389	13.17475	14.89173	0.97586	1.02474	192.79715	178.91405	73.00707	0.3204	 	8.29462E19	 	3.49023E-20	 	1814.57365	27.3952	 
315.0	1.0	0.0	8.29201	7.0674	-9.33347	13.15075	14.81655	0.97254	1.02824	193.09187	179.04441	73.12662	0.32026	 	1.3273399999999998E20	 	2.16269E-20	 	1677.83226	27.34828	 
310.0	1.0	0.0	8.2938	7.06587	-9.353	13.12675	14.74131	0.96919	1.03179	193.38598	179.17403	73.24597	0.32011	 	2.1412399999999997E20	 	1.32923E-20	 	1541.32545	27.30136	 
305.0	1.0	0.0	8.29558	7.06436	-9.37245	13.10275	14.66602	0.96582	1.03539	193.67948	179.30292	73.36511	0.31997	 	3.48292E20	 	8.10184E-21	 	1405.05322	27.25445	 
300.0	1.0	0.0	8.29735	7.06284	-9.39185	13.07874	14.59068	0.96241	1.03906	193.97237	179.43107	73.48404	0.31983	 	5.7135699999999997E20	 	4.89607E-21	 	1269.01562	27.20752	 
295.0	1.0	0.0	8.29912	7.06134	-9.41118	13.05473	14.51527	0.95897	1.04279	194.26466	179.55849	73.60277	0.31968	 	9.45485E20	 	2.93288E-21	 	1133.21265	27.16059	 
290.0	1.0	0.0	8.30089	7.05984	-9.43044	13.03072	14.43981	0.9555	1.04658	194.55635	179.68519	73.7213	0.31954	 	1.57865E21	 	1.7411E-21	 	997.64439	27.11365	 
285.0	1.0	0.0	8.30265	7.05834	-9.44964	13.0067	14.36429	0.95199	1.05043	194.84742	179.81115	73.83961	0.3194	 	2.66016E21	 	1.02407E-21	 	862.31094	27.06669	 
280.0	1.0	0.0	8.3044	7.05685	-9.46878	12.98268	14.2887	0.94845	1.05435	195.13789	179.93639	73.95773	0.31925	 	4.52506E21	 	5.9663E-22	 	727.21238	27.01971	 
275.0	1.0	0.0	8.30615	7.05536	-9.48785	12.95866	14.21305	0.94488	1.05833	195.42775	180.0609	74.07563	0.31911	 	7.77232E21	 	3.44219E-22	 	592.34886	26.9727	 
270.0	1.0	0.0	8.3079	7.05388	-9.50686	12.93464	14.13733	0.94128	1.06238	195.71701	180.18469	74.19333	0.31897	 	1.3483499999999998E22	 	1.96609E-22	 	457.72052	26.92567	 
265.0	1.0	0.0	8.30964	7.0524	-9.5258	12.91061	14.06155	0.93764	1.06651	196.00565	180.30776	74.31082	0.31882	 	2.3632E22	 	1.11145E-22	 	323.32755	26.87859	 
260.0	1.0	0.0	8.31137	7.05093	-9.54468	12.88657	13.98569	0.93397	1.0707	196.2937	180.43011	74.42811	0.31868	 	4.185699999999999E22	 	6.21681E-23	 	189.17015	26.83148	 
255.0	1.0	0.0	8.3131	7.04947	-9.56349	12.86254	13.90977	0.93026	1.07497	196.58113	180.55174	74.54519	0.31854	 	7.494409999999999E22	 	3.43959E-23	 	55.24855	26.78432	 
250.0	1.0	0.0	8.31482	7.048	-9.58224	12.8385	13.83377	0.92651	1.07931	196.86796	180.67266	74.66206	0.31839	 	1.35688E23	 	1.88179E-23	 	-78.43698	26.73711	 
245.0	1.0	0.0	8.31654	7.04655	-9.60093	12.81445	13.75769	0.92273	1.08374	197.15418	180.79286	74.77873	0.31825	 	2.4849799999999997E23	 	1.0177E-23	 	-211.88616	26.68983	 
240.0	1.0	0.0	8.31826	7.0451	-9.61955	12.79041	13.68154	0.91892	1.08824	197.4398	180.91235	74.89519	0.31811	 	4.6049299999999995E23	 	5.43886E-24	 	-345.09865	26.6425	 
235.0	1.0	0.0	8.31996	7.04365	-9.6381	12.76636	13.6053	0.91506	1.09282	197.72481	181.03113	75.01144	0.31796	 	8.63766E23	 	2.87132E-24	 	-478.07409	26.59509	 
230.0	1.0	0.0	8.32167	7.04221	-9.6566	12.74231	13.52898	0.91117	1.09749	198.00921	181.14921	75.12749	0.31782	 	1.64058E24	 	1.49687E-24	 	-610.8121	26.5476	 
225.0	1.0	0.0	8.32337	7.04077	-9.67502	12.71825	13.45258	0.90724	1.10225	198.29301	181.26657	75.24333	0.31768	 	3.15641E24	 	7.70288E-25	 	-743.31223	26.50003	 
220.0	1.0	0.0	8.32506	7.03934	-9.69339	12.69419	13.37609	0.90327	1.10709	198.5762	181.38324	75.35897	0.31754	 	6.15392E24	 	3.91124E-25	 	-875.57403	26.45236	 
215.0	1.0	0.0	8.32675	7.03791	-9.71169	12.67013	13.29951	0.89926	1.11203	198.85878	181.49919	75.47439	0.31739	 	1.21633E25	 	1.9588E-25	 	-1007.59696	26.40459	 
210.0	1.0	0.0	8.32843	7.03649	-9.72992	12.64606	13.22284	0.89521	1.11706	199.14076	181.61445	75.58961	0.31725	 	2.43821E25	 	9.67157E-26	 	-1139.3805	26.35671	 
205.0	1.0	0.0	8.3301	7.03508	-9.74809	12.62199	13.14607	0.89112	1.12219	199.42213	181.72901	75.70462	0.31711	 	4.95919E25	 	4.70587E-26	 	-1270.92402	26.3087	 
200.0	1.0	0.0	8.33178	7.03367	-9.76619	12.59792	13.0692	0.88698	1.12742	199.7029	181.84287	75.81943	0.31696	 	1.02392E26	 	2.25538E-26	 	-1402.22689	26.26057	 
195.0	1.0	0.0	8.33344	7.03226	-9.78423	12.57384	12.99223	0.88281	1.13275	199.98306	181.95603	75.93403	0.31682	 	2.1470700000000002E26	 	1.0642E-26	 	-1533.28841	26.2123	 
190.0	1.0	0.0	8.3351	7.03086	-9.80221	12.54976	12.91515	0.87859	1.13818	200.26261	182.0685	76.04842	0.31668	 	4.574790000000001E26	 	4.94125E-27	 	-1664.10782	26.16388	 
185.0	1.0	0.0	8.33676	7.02946	-9.82012	12.52568	12.83797	0.87433	1.14373	200.54156	182.18027	76.1626	0.31654	 	9.909830000000001E26	 	2.25646E-27	 	-1794.68433	26.1153	 
180.0	1.0	0.0	8.33841	7.02807	-9.83797	12.50159	12.76067	0.87003	1.14938	200.8199	182.29136	76.27658	0.31639	 	2.1835799999999998E27	 	1.01288E-27	 	-1925.01706	26.06655	 
175.0	1.0	0.0	8.34005	7.02668	-9.85575	12.4775	12.68326	0.86568	1.15516	201.09763	182.40175	76.39035	0.31625	 	4.89698E27	 	4.46665E-28	 	-2055.1051	26.01761	 
170.0	1.0	0.0	8.34169	7.0253	-9.87346	12.45341	12.60572	0.86129	1.16105	201.37476	182.51146	76.50391	0.31611	 	1.1184100000000001E28	 	1.9339E-28	 	-2184.94744	25.96847	 
165.0	1.0	0.0	8.34333	7.02393	-9.89112	12.42931	12.52807	0.85685	1.16707	201.65128	182.62048	76.61726	0.31597	 	2.60293E28	 	8.21574E-29	 	-2314.54303	25.91912	 
160.0	1.0	0.0	8.34495	7.02256	-9.9087	12.40521	12.45028	0.85236	1.17321	201.9272	182.72882	76.73041	0.31582	 	6.17721E28	 	3.42241E-29	 	-2443.89074	25.86954	 
155.0	1.0	0.0	8.34658	7.02119	-9.92623	12.38111	12.37236	0.84783	1.17948	202.20251	182.83647	76.84335	0.31568	 	1.4958500000000002E29	 	1.39699E-29	 	-2572.98935	25.81972	 
150.0	1.0	0.0	8.3482	7.01983	-9.94368	12.35701	12.2943	0.84325	1.18589	202.47722	182.94345	76.95608	0.31554	 	3.6988100000000005E29	 	5.58366E-30	 	-2701.83755	25.76964	 
145.0	1.0	0.0	8.34981	7.01847	-9.96108	12.3329	12.2161	0.83862	1.19243	202.75132	183.04974	77.0686	0.3154	 	9.34626E29	 	2.18364E-30	 	-2830.434	25.71929	 
140.0	1.0	0.0	8.35142	7.01712	-9.97841	12.30878	12.13776	0.83394	1.19913	203.02481	183.15536	77.18092	0.31525	 	2.41523E30	 	8.34905E-31	 	-2958.77719	25.66864	 
135.0	1.0	0.0	8.35302	7.01578	-9.99567	12.28467	12.05926	0.82921	1.20597	203.2977	183.2603	77.29302	0.31511	 	6.38822E30	 	3.11836E-31	 	-3086.86558	25.61768	 
130.0	1.0	0.0	8.35461	7.01444	-10.01287	12.26055	11.9806	0.82443	1.21296	203.56998	183.36456	77.40492	0.31497	 	1.73093E31	 	1.13677E-31	 	-3214.69746	25.56638	 
125.0	1.0	0.0	8.35621	7.0131	-10.03	12.23642	11.90178	0.8196	1.22011	203.84166	183.46815	77.51661	0.31483	 	4.80898E31	 	4.04092E-32	 	-3342.27109	25.51472	 
120.0	1.0	0.0	8.35779	7.01177	-10.04707	12.2123	11.82278	0.81471	1.22743	204.11273	183.57108	77.6281	0.31468	 	1.37124E32	 	1.39937E-32	 	-3469.58454	25.46269	 
115.0	1.0	0.0	8.35937	7.01044	-10.06408	12.18817	11.74361	0.80977	1.23491	204.38319	183.67333	77.73937	0.31454	 	4.01696E32	 	4.71616E-33	 	-3596.63578	25.41025	 
110.0	1.0	0.0	8.36095	7.00912	-10.08102	12.16403	11.66426	0.80478	1.24257	204.65305	183.77491	77.85044	0.3144	 	1.21022E33	 	1.54522E-33	 	-3723.42268	25.35738	 
105.0	1.0	0.0	8.36252	7.00781	-10.09789	12.1399	11.58471	0.79973	1.25042	204.92231	183.87583	77.9613	0.31426	 	3.75403E33	 	4.91646E-34	 	-3849.94293	25.30405	 
100.0	1.0	0.0	8.36408	7.0065	-10.1147	12.11576	11.50497	0.79463	1.25845	205.19095	183.97609	78.07195	0.31411	 	1.20035E34	 	1.51727E-34	 	-3976.19405	25.25023	 
95.0	1.0	0.0	8.36564	7.00519	-10.13145	12.09161	11.42501	0.78947	1.26668	205.459	184.07568	78.18239	0.31397	 	3.9612100000000004E34	 	4.53612E-35	 	-4102.17347	25.19588	 
90.0	1.0	0.0	8.36719	7.00389	-10.14813	12.06747	11.34485	0.78425	1.27511	205.72643	184.17461	78.29262	0.31383	 	1.3509099999999998E35	 	1.31204E-35	 	-4227.87839	25.14098	 
85.0	1.0	0.0	8.36874	7.0026	-10.16475	12.04332	11.26445	0.77897	1.28375	205.99327	184.27288	78.40265	0.31369	 	4.7676199999999994E35	 	3.66649E-36	 	-4353.30584	25.08549	 
80.0	1.0	0.0	8.37028	7.00131	-10.1813	12.01916	11.18383	0.77363	1.2926	206.25949	184.37049	78.51246	0.31355	 	1.7437499999999997E36	 	9.88464E-37	 	-4478.45265	25.02936	 
75.0	1.0	0.0	8.37182	7.00002	-10.19778	11.99501	11.10295	0.76823	1.30169	206.52511	184.46744	78.62207	0.3134	 	6.619809999999999E36	 	2.56689E-37	 	-4603.31546	24.97256	 
70.0	1.0	0.0	8.37335	6.99874	-10.2142	11.97085	11.02183	0.76278	1.311	206.79013	184.56374	78.73147	0.31326	 	2.6127E37	 	6.41035E-38	 	-4727.89067	24.91504	 
65.0	1.0	0.0	8.37487	6.99747	-10.23056	11.94668	10.94043	0.75725	1.32056	207.05454	184.65939	78.84066	0.31312	 	1.0739E38	 	1.53685E-38	 	-4852.1744	24.85675	 
60.0	1.0	0.0	8.37639	6.9962	-10.24685	11.92252	10.85876	0.75167	1.33038	207.31835	184.75438	78.94964	0.31298	 	4.6054099999999995E38	 	3.53068E-39	 	-4976.16257	24.79763	 
55.0	1.0	0.0	8.37791	6.99493	-10.26308	11.89835	10.7768	0.74602	1.34045	207.58155	184.84873	79.05841	0.31284	 	2.06462E39	 	7.75746E-40	 	-5099.85079	24.73764	 
50.0	1.0	0.0	8.37942	6.99367	-10.27924	11.87417	10.69453	0.7403	1.3508	207.84414	184.94242	79.16697	0.31269	 	9.695580000000001E39	 	1.62674E-40	 	-5223.23436	24.67671	 
45.0	1.0	0.0	8.38092	6.99242	-10.29533	11.85	10.61195	0.73452	1.36144	208.10613	185.03547	79.27533	0.31255	 	4.77994E40	 	3.2486E-41	 	-5346.30826	24.61478	 
40.0	1.0	0.0	8.38242	6.99117	-10.31137	11.82582	10.52903	0.72867	1.37237	208.36752	185.12787	79.38347	0.31241	 	2.4796800000000002E41	 	6.16373E-42	 	-5469.06712	24.55177	 
35.0	1.0	0.0	8.38391	6.98992	-10.32733	11.80163	10.44576	0.72275	1.3836	208.6283	185.21963	79.49141	0.31227	 	1.35697E42	 	1.10835E-42	 	-5591.50518	24.48761	 
30.0	1.0	0.0	8.3854	6.98869	-10.34323	11.77745	10.36212	0.71676	1.39516	208.88847	185.31075	79.59914	0.31213	 	7.8541E42	 	1.88386E-43	 	-5713.61628	24.42222	 
25.0	1.0	0.0	8.38688	6.98745	-10.35907	 	10.2781	0.7107	1.40706	209.14804	185.40122	79.70665	0.31199	 	4.82167E43	 	3.01803E-44	 	-5835.39378	 	 
