T (C)	Fraction solid (wt)-TOTAL	Fraction liquid (wt)-LIQUID	Density (g/(cm)^3)-TOTAL	Molar volume (cm^3)-TOTAL	Volume change (%)-  	Average expansion coeff. (10e-6 1/K)-  	Thermal conductivity (W/(m*K))-TOTAL	Electrical resistivity (10e-6 Ohm*m)-TOTAL	Electrical conductivity (10e6 1/(Ohm*m))-TOTAL	Young's modulus (GPa)-TOTAL	Bulk modulus (GPa)-TOTAL	Shear modulus(GPa)-TOTAL	Poisson's ratio-TOTAL	Liquid viscosity (mPa s)-  	Total viscosity (mPa s)-  	Liquid diffusivity (10e-9 (m^2)/s)-  	Total diffusivity (10e-9 (m^2)/s)-  	Surface Tension (mN/m)-  	Enthalpy (J/mole)-TOTAL	Specific heat (J/(mole K))-TOTAL	Latent heat (J/mole)-TOTAL
1400.0	0.0	1.0	7.19281	8.05436	0.0	33.43119	29.19014	1.40432	0.71209	0.0	121.72051	0.0	0.5	6.90374	6.90374	1.18287	1.18287	1766.53565	45645.617	 	0.0
1395.0	0.0	1.0	7.19684	8.04985	-0.0559052	33.39842	29.10708	1.40411	0.71219	0.0	121.86603	0.0	0.5	6.97701	6.97701	1.16695	1.16695	1769.48702	45446.71	39.7814	0.0
1390.0	0.0	1.0	7.20085	8.04536	-0.11165	33.36585	29.02402	1.40391	0.7123	0.0	122.01154	0.0	0.5	7.05151	7.05151	1.15116	1.15116	1772.47424	45248.232	39.6956	0.0
1385.0	0.0	1.0	7.20486	8.04089	-0.16724	33.33347	28.94096	1.40371	0.7124	0.0	122.15706	0.0	0.5	7.12726	7.12726	1.1355	1.1355	1775.49762	45050.18	39.6104	0.0
1380.0	0.0	1.0	7.20887	8.03642	-0.22268	33.3013	28.8579	1.4035	0.7125	0.0	122.30258	0.0	0.5	7.20429	7.20429	1.11997	1.11997	1778.55746	44852.553	39.5254	0.0
1375.0	0.0	1.0	7.21286	8.03197	-0.27795	33.26933	28.77484	1.4033	0.71261	0.0	122.44809	0.0	0.5	7.28263	7.28263	1.10458	1.10458	1781.65402	44655.347	39.4412	0.0
1370.0	0.0	1.0	7.21685	8.02753	-0.33307	33.23757	28.69179	1.40309	0.71271	0.0	122.59361	0.0	0.5	7.3623	7.3623	1.08931	1.08931	1784.78755	44458.56	39.3574	0.0
1365.0	0.0	1.0	7.22083	8.0231	-0.38803	33.20602	28.60873	1.40288	0.71282	0.0	122.73913	0.0	0.5	7.44334	7.44334	1.07417	1.07417	1787.95828	44262.19	39.274	0.0
1360.0	0.0	1.0	7.22481	8.01869	-0.44284	33.17468	28.52567	1.40267	0.71292	0.0	122.88464	0.0	0.5	7.52577	7.52577	1.05916	1.05916	1791.16641	44066.235	39.191	0.0
1355.0	0.0	1.0	7.22877	8.01429	-0.49748	33.14355	28.44261	1.40246	0.71303	0.0	123.03016	0.0	0.5	7.60964	7.60964	1.04428	1.04428	1794.41213	43870.691	39.1088	0.0
1350.0	0.0	1.0	7.23274	8.0099	-0.55197	33.11263	28.35955	1.40225	0.71314	0.0	123.17568	0.0	0.5	7.69496	7.69496	1.02953	1.02953	1797.6956	43675.557	39.0268	0.0
1345.0	0.0	1.0	7.23669	8.00552	-0.60631	33.08194	28.27649	1.40204	0.71325	0.0	123.3212	0.0	0.5	7.78178	7.78178	1.01491	1.01491	1801.01697	43480.83	38.9454	0.0
1340.0	0.0	1.0	7.24064	8.00116	-0.66048	33.05146	28.19343	1.40182	0.71336	0.0	123.46671	0.0	0.5	7.87012	7.87012	1.00042	1.00042	1804.37634	43286.508	38.8644	0.0
1335.0	0.0	1.0	7.24458	7.99681	-0.7145	33.02121	28.11038	1.40161	0.71347	0.0	123.61223	0.0	0.5	7.96002	7.96002	0.98605	0.98605	1807.77381	43092.589	38.7838	0.0
1330.0	0.0	1.0	7.24851	7.99247	-0.76836	32.99118	28.02732	1.40139	0.71358	0.0	123.75775	0.0	0.5	8.05152	8.05152	0.97181	0.97181	1811.20946	42899.07	38.7038	0.0
1325.0	0.0	1.0	7.25243	7.98814	-0.82206	32.96138	27.94426	1.40117	0.71369	0.0	123.90326	0.0	0.5	8.14466	8.14466	0.9577	0.9577	1814.68331	42705.949	38.6242	0.0
1320.0	0.0	1.0	7.25635	7.98383	-0.87561	32.93181	27.8612	1.40095	0.7138	0.0	124.04878	0.0	0.5	8.23947	8.23947	0.94372	0.94372	1818.19539	42513.224	38.545	0.0
1316.41	0.0	1.0	7.25915	7.98075	-0.91391	32.91075	27.80163	1.40079	0.71388	0.0	124.15314	0.0	0.5	8.30851	8.30851	0.93377	0.93377	1820.7377	42375.249	38.47752	0.0
1315.0	0.03426	0.96574	7.26986	7.96909	-1.05861	32.52135	27.91615	1.39381	0.71746	1.31185E-4	124.79693	4.3855E-5	0.49567	8.33832	8.7516	0.92961	0.88571	1820.51412	41849.072	372.08268	471.819
1313.56	0.0676104	0.93239	7.2804	7.95752	-1.20232	32.13469	28.02782	1.38699	0.72098	0.00200373	125.42622	6.71752E-4	0.49142	8.36897	9.54576	0.92536	0.81129	1820.29376	41335.244	 	930.298
1310.0	0.1735	0.8265	7.31385	7.92116	-1.65372	30.89128	28.38766	1.36634	0.73188	0.0878517	127.58118	0.0297261	0.47769	8.47345	28.47938	0.9119	0.27132	1820.45535	39697.073	430.3998	2431.879
1305.0	0.29877	0.70123	7.35399	7.87793	-2.19041	29.4216	28.824	1.34141	0.74549	0.79587	130.15767	0.27233	0.4612	8.62242	177.6969	0.89332	0.0433466	1820.57163	37744.265	390.5616	4193.136
1300.0	0.39993	0.60007	7.38695	7.84272	-2.62757	28.23646	29.1844	1.32064	0.75721	2.62359	132.28085	0.90613	0.44769	8.77373	572.52468	0.87513	0.013411	1823.46296	36145.88894	319.67521	5600.306
1295.0	0.48265	0.51735	7.41344	7.81483	-2.97386	27.31338	29.47944	1.30327	0.7673	5.69158	134.00244	1.98111	0.43646	8.92799	1258.59627	0.85728	0.00608118	1826.37133	34816.6291	265.85197	6737.732
1290.0	0.55104	0.44896	7.43546	7.79172	-3.26083	26.56088	29.7227	1.28848	0.77611	9.85442	135.45064	3.45271	0.42706	9.08509	2237.37222	0.83977	0.00340996	1829.29695	33696.15669	224.09448	7666.78
1285.0	0.60813	0.39187	7.45406	7.77228	-3.50213	25.93987	29.92483	1.27569	0.78389	14.85516	136.69131	5.23395	0.41912	9.24546	3487.79915	0.82256	0.00218044	1832.23865	32739.10215	191.41091	8432.815
1280.0	0.65621	0.34379	7.46996	7.75561	-3.7091	25.41771	30.09128	1.26456	0.79079	20.42094	137.76868	7.22943	0.41235	9.40928	4982.14413	0.80565	0.00152154	1835.19876	31911.43603	165.53322	9069.864
1275.0	0.697	0.303	7.48374	7.74114	-3.88882	24.97402	30.22739	1.25481	0.79693	26.30951	138.71884	9.35257	0.40654	9.57701	6695.0836	0.78899	0.00112861	1838.17621	31187.2949	144.82823	9603.788
1270.0	0.73186	0.26814	7.49578	7.72843	-4.04656	24.59375	30.33746	1.24622	0.80243	32.32422	139.56728	11.53182	0.40152	9.74866	8605.82965	0.77259	8.7519E-4	1841.16979	30546.78534	128.10191	10054.478
1265.0	0.76182	0.23818	7.50642	7.71711	-4.18708	24.2631	30.42522	1.2386	0.80736	38.31826	140.33375	13.71291	0.39716	9.9246	10699.9215	0.75644	7.01625E-4	1844.18079	29974.43494	114.47008	10437.406
1260.0	0.78775	0.21225	7.51593	7.70694	-4.31341	23.97334	30.49378	1.2318	0.81182	44.18628	141.03446	15.85618	0.39335	10.10541	12969.34326	0.74049	5.7697E-4	1847.20825	29458.08527	103.26993	10764.726
1255.0	0.81027	0.18973	7.5245	7.69766	-4.42866	23.71537	30.54579	1.22569	0.81587	49.85813	141.68024	17.93476	0.38999	10.29109	15411.25102	0.72476	4.83966E-4	1850.25477	28988.09493	93.99807	11046.077
1250.0	0.82997	0.17003	7.53228	7.68916	-4.53417	23.48549	30.58343	1.22018	0.81955	55.28721	142.28138	19.93026	0.38702	10.48222	18026.80131	0.70921	4.12392E-4	1853.31708	28556.75251	86.26848	11289.168
1245.0	0.84724	0.15276	7.53941	7.68129	-4.63184	23.27808	30.60865	1.21517	0.82293	60.45225	142.84505	21.83376	0.38438	10.67905	20823.39796	0.69386	3.55836E-4	1856.39644	28157.83561	79.78338	11500.218
1240.0	0.86247	0.13753	7.546	7.67395	-4.72301	23.08927	30.62297	1.2106	0.82604	65.33762	143.37706	23.63852	0.38202	10.88226	23808.24589	0.67866	3.102E-4	1859.4943	27786.29383	74.30836	11684.278
1235.0	0.88058	0.11942	7.55368	7.66546	-4.82842	22.85422	30.64198	1.20585	0.82929	71.44736	143.99839	25.90109	0.37923	11.04911	27532.90647	0.6662	2.67349E-4	1862.52121	27364.50777	84.35721	11918.962
1230.0	0.90043	0.0995655	7.56271	7.65611	-4.94449	22.58371	30.66727	1.20086	0.83273	78.55586	144.68054	28.54075	0.37621	11.11911	31999.71427	0.65981	2.29268E-4	1865.55385	26911.17804	90.66595	12185.569
1225.0	0.91664	0.0833616	7.57089	7.64784	-5.04718	22.35322	30.67563	1.19654	0.83574	84.8397	145.29376	30.88048	0.37368	11.19365	36603.93255	0.65324	1.99763E-4	1868.59858	26509.99324	80.23696	12400.407
1220.0	0.92999	0.0700067	7.57841	7.64043	-5.13914	22.15485	30.67026	1.19276	0.83839	90.38359	145.85391	32.94947	0.37155	11.27269	41371.40521	0.64649	1.76153E-4	1871.65348	26149.166	72.16545	12575.261
1215.0	0.9411	0.0588997	7.58537	7.63371	-5.22254	21.98213	30.6538	1.1894	0.84076	95.28196	146.37262	34.78121	0.36973	11.35585	46335.46759	0.63961	1.56754E-4	1874.71744	25819.96292	65.84062	12718.862
1210.0	0.95042	0.0495829	7.59189	7.62754	-5.29914	21.82968	30.62827	1.18639	0.84289	99.62236	146.85848	36.40717	0.36817	11.44374	51532.59003	0.63256	1.40472E-4	1877.79188	25515.82664	60.82726	12837.766
1205.0	0.95829	0.0417091	7.59803	7.62183	-5.37013	21.694	30.59525	1.18367	0.84483	103.48064	147.31779	37.85483	0.36681	11.53581	57000.1976	0.6254	1.26569E-4	1880.87499	25231.76978	56.81137	12936.958
1200.0	0.96499	0.0350054	7.60386	7.61648	-5.43654	21.57194	30.55603	1.18118	0.84661	106.92593	147.75535	39.14938	0.36561	11.63209	62778.93946	0.61812	1.1453E-4	1883.96739	24963.96896	53.56016	13020.258
1195.0	0.97074	0.0292598	7.60941	7.61144	-5.49914	21.46118	30.51161	1.17888	0.84826	110.01538	148.17482	40.31177	0.36456	11.73296	68910.30541	0.61073	1.03986E-4	1887.06906	24709.44384	50.90502	13090.646
1190.0	0.97575	0.0242503	7.61477	7.60663	-5.55885	21.35889	30.46297	1.17675	0.8498	112.82694	148.58127	41.3709	0.3636	11.83347	75455.16067	0.60348	9.46426E-5	1890.1791	24464.88101	48.91257	13151.431
1185.0	0.98167	0.0183298	7.62101	7.6013	-5.62501	21.23462	30.41734	1.17448	0.85144	116.18237	149.03708	42.63576	0.3625	11.83139	82957.20861	0.60152	8.57896E-5	1893.29209	24203.45916	52.28437	13229.433
1180.0	0.98654	0.0134607	7.62688	7.59637	-5.68617	21.12569	30.36736	1.17238	0.85296	119.08342	149.46721	43.73082	0.36155	11.83681	90870.77815	0.59919	7.805E-5	1896.41893	23957.4919	49.19345	13292.336
1175.0	0.99365	0.00634685	7.63332	7.59068	-5.75685	20.98441	30.35464	1.16884	0.85555	122.62848	149.98285	45.076	0.36024	11.97097	100549.8115	0.59043	7.02941E-5	1899.69248	23671.11589	57.2752	13396.001
1170.0	1.0	0.0	7.63913	7.58546	-5.82167	20.86134	30.34213	1.16528	0.85816	127.2594	150.47547	46.81934	0.35905	 	110968.0173	 	6.34747E-5	 	23395.8328	55.05662	13488.925
1165.0	1.0	0.0	7.64165	7.58296	-5.85269	20.84962	30.25993	1.1644	0.85881	127.68152	150.75041	46.98188	0.35884	 	119405.759	 	5.87849E-5	 	23212.57497	36.65157	 
1160.0	1.0	0.0	7.64416	7.58047	-5.88365	20.838	30.17772	1.16351	0.85947	128.10272	151.02369	47.14413	0.35863	 	128550.4526	 	5.44133E-5	 	23038.47054	34.82089	 
1157.13	1.0	0.0	7.6456	7.57904	-5.90138	20.83135	30.13058	1.163	0.85984	128.34382	151.17962	47.23704	0.35851	 	134137.6904	 	5.20425E-5	 	22938.75401	 	 
1155.0	1.0	0.0	7.64667	7.57798	-5.9145	20.82663	30.09551	1.16262	0.86013	128.52319	151.29565	47.30615	0.35842	 	138468.2686	 	5.03397E-5	 	22864.50679	34.79275	 
1150.0	1.0	0.0	7.64916	7.57551	-5.94523	20.81562	30.01328	1.16173	0.86079	128.943	151.56646	47.46797	0.35821	 	149231.3031	 	4.65455E-5	 	22690.64664	34.77203	 
1145.0	1.0	0.0	7.65166	7.57304	-5.97589	20.80469	29.93104	1.16082	0.86146	129.36188	151.83559	47.62948	0.358	 	160915.1878	 	4.30142E-5	 	22517.05478	34.71837	 
1140.0	1.0	0.0	7.65415	7.57057	-6.0065	20.79385	29.8488	1.15992	0.86213	129.77982	152.10305	47.79069	0.35779	 	173605.7363	 	3.97293E-5	 	22343.72986	34.66498	 
1135.0	1.0	0.0	7.65664	7.56811	-6.03706	20.7831	29.76656	1.15901	0.86281	130.19682	152.36885	47.95159	0.35759	 	187397.3771	 	3.66752E-5	 	22170.67055	34.61186	 
1130.0	1.0	0.0	7.65913	7.56565	-6.06756	20.77244	29.68431	1.15809	0.86349	130.61288	152.63299	48.1122	0.35738	 	202394.1235	 	3.38371E-5	 	21997.87556	34.559	 
1125.0	1.0	0.0	7.66161	7.5632	-6.09801	20.76188	29.60205	1.15717	0.86418	131.02802	152.8955	48.2725	0.35717	 	218710.5929	 	3.12012E-5	 	21825.34361	34.50639	 
1122.95	1.0	0.0	7.66262	7.5622	-6.11044	20.75759	29.5684	1.15679	0.86446	131.19755	153.00241	48.33798	0.35709	 	225793.5692	 	3.01782E-5	 	21754.84878	 	 
1120.0	1.0	0.0	7.66616	7.55871	-6.15376	20.66355	29.40033	1.16095	0.86137	131.79353	153.22306	48.5734	0.35664	 	237664.1716	 	2.86102E-5	 	21549.0551	55.2577	 
1115.0	1.0	0.0	7.67204	7.55292	-6.22569	20.50803	29.12552	1.16769	0.85639	132.77049	153.57805	48.95977	0.35591	 	259381.1604	 	2.61207E-5	 	21206.73093	68.46484	 
1110.0	1.0	0.0	7.67779	7.54726	-6.29596	20.35689	28.86206	1.17411	0.85171	133.71022	153.91215	49.33194	0.35521	 	283345.8117	 	2.38253E-5	 	20871.55239	67.03571	 
1105.0	1.0	0.0	7.68343	7.54173	-6.36464	20.20995	28.60906	1.18021	0.84731	134.61525	154.22762	49.69085	0.35453	 	309812.0748	 	2.17113E-5	 	20543.21191	65.6681	 
1100.0	1.0	0.0	7.68894	7.53632	-6.43178	20.06703	28.36589	1.18601	0.84316	135.48785	154.52641	50.03733	0.35387	 	339064.7312	 	1.97661E-5	 	20221.41433	64.35952	 
1095.0	1.0	0.0	7.69434	7.53103	-6.49746	19.92796	28.13201	1.19151	0.83927	136.33012	154.81023	50.37216	0.35323	 	371423.2752	 	1.79784E-5	 	19905.87618	63.10763	 
1090.0	1.0	0.0	7.69963	7.52585	-6.56174	19.79259	27.90691	1.19673	0.83561	137.14396	155.08059	50.69605	0.35261	 	407246.5348	 	1.6337E-5	 	19596.32505	61.91023	 
1085.0	1.0	0.0	7.70482	7.52078	-6.62468	19.66075	27.69012	1.20168	0.83217	137.93114	155.33881	51.00965	0.35201	 	446937.7519	 	1.48316E-5	 	19292.49903	60.7652	 
1080.0	1.0	0.0	7.70991	7.51582	-6.68633	19.53228	27.48119	1.20636	0.82894	138.6933	155.58604	51.31357	0.35143	 	490950.4981	 	1.34523E-5	 	18994.1463	59.67055	 
1075.0	1.0	0.0	7.71491	7.51095	-6.74674	19.40705	27.27968	1.21078	0.82591	139.43194	155.82332	51.60838	0.35087	 	539795.3765	 	1.21898E-5	 	18701.0247	58.62432	 
1070.0	1.0	0.0	7.71981	7.50618	-6.80598	19.28489	27.08517	1.21495	0.82308	140.14848	156.05157	51.89461	0.35032	 	594047.6457	 	1.10354E-5	 	18412.90141	57.62466	 
1065.0	1.0	0.0	7.72463	7.5015	-6.86409	19.16568	26.89727	1.21888	0.82042	140.84422	156.27161	52.17276	0.34979	 	654355.9719	 	9.98108E-6	 	18129.55271	56.66974	 
1060.32	1.0	0.0	7.72906	7.4972	-6.9175	19.05664	26.72705	1.22236	0.81809	141.47772	156.47079	52.42621	0.3493	 	716942.75	 	9.0779E-6	 	17868.46088	 	 
1060.0	1.0	0.0	7.72949	7.49679	-6.9226	19.04384	26.71367	1.22268	0.81788	141.53306	156.47634	52.4488	0.34925	 	721497.1642	 	9.01843E-6	 	17846.03897	56.70275	 
1058.17	1.0	0.0	7.7319	7.49445	-6.95161	18.97113	26.64002	1.22437	0.81675	141.84793	156.50868	52.57733	0.34895	 	748223.6311	 	8.68434E-6	 	17718.33458	 	 
1055.0	1.0	0.0	7.73483	7.4916	-6.98692	18.89942	26.52987	1.22653	0.81531	142.26335	156.63923	52.74367	0.34863	 	796537.2291	 	8.13819E-6	 	17544.92628	60.22254	 
1050.0	1.0	0.0	7.7394	7.48718	-7.04186	18.78831	26.36044	1.22977	0.81316	142.90516	156.84039	53.0008	0.34814	 	879911.9521	 	7.33933E-6	 	17274.54778	54.0757	 
1045.0	1.0	0.0	7.7439	7.48283	-7.09584	18.67966	26.19622	1.2328	0.81116	143.53059	157.03594	53.2515	0.34767	 	972909.1302	 	6.61271E-6	 	17008.18881	53.27179	 
1040.0	1.0	0.0	7.74833	7.47856	-7.14892	18.57335	26.03691	1.23564	0.8093	144.14058	157.22635	53.49617	0.3472	 	1076728.822	 	5.95244E-6	 	16745.66098	52.50557	 
1035.0	1.0	0.0	7.75268	7.47435	-7.20112	18.46925	25.88224	1.23829	0.80757	144.73605	157.41206	53.73512	0.34675	 	1192731.569	 	5.35305E-6	 	16486.78462	51.77527	 
1030.0	1.0	0.0	7.75698	7.47021	-7.25249	18.36726	25.73193	1.24076	0.80596	145.31783	157.59346	53.96871	0.34632	 	1322461.179	 	4.80948E-6	 	16231.38853	51.07922	 
1025.0	1.0	0.0	7.76121	7.46614	-7.30306	18.26727	25.58574	1.24306	0.80446	145.88672	157.77092	54.19721	0.34589	 	1467671.049	 	4.31701E-6	 	15979.30962	50.41578	 
1020.0	1.0	0.0	7.76538	7.46213	-7.35288	18.16917	25.44343	1.2452	0.80308	146.44345	157.94477	54.42094	0.34547	 	1630354.603	 	3.87127E-6	 	15730.3926	49.7834	 
1015.0	1.0	0.0	7.7695	7.45818	-7.40197	18.07286	25.30478	1.24718	0.80181	146.98873	158.1153	54.64014	0.34506	 	1812780.287	 	3.46823E-6	 	15484.4897	49.18058	 
1010.0	1.0	0.0	7.77356	7.45428	-7.45036	17.97824	25.16959	1.24901	0.80063	147.5232	158.2828	54.85509	0.34466	 	2017532.094	 	3.10416E-6	 	15241.46041	48.60586	 
1005.0	1.0	0.0	7.77757	7.45043	-7.49809	17.88523	25.03766	1.2507	0.79955	148.04749	158.44751	55.06601	0.34427	 	2247556.226	 	2.77561E-6	 	15001.1711	48.05786	 
1000.0	1.0	0.0	7.78154	7.44664	-7.54519	17.79373	24.90882	1.25225	0.79856	148.56217	158.60967	55.27314	0.34389	 	2506215.202	 	2.47941E-6	 	14763.49483	47.53525	 
995.0	1.0	0.0	7.78545	7.4429	-7.59168	17.70366	24.7829	1.25367	0.79766	149.06778	158.76949	55.47668	0.34352	 	2797350.934	 	2.21264E-6	 	14528.31102	47.03676	 
990.0	1.0	0.0	7.78932	7.4392	-7.63759	17.61494	24.65973	1.25497	0.79683	149.56483	158.92716	55.67683	0.34315	 	3125356.957	 	1.97261E-6	 	14295.50517	46.56117	 
985.0	1.0	0.0	7.79315	7.43554	-7.68294	17.5275	24.53918	1.25614	0.79609	150.05381	159.08287	55.87378	0.34279	 	3495263.224	 	1.75687E-6	 	14064.96863	46.10731	 
980.0	1.0	0.0	7.79693	7.43193	-7.72776	17.44126	24.4211	1.2572	0.79542	150.53516	159.23679	56.0677	0.34244	 	3912834.103	 	1.56314E-6	 	13836.59828	45.67407	 
975.0	1.0	0.0	7.80068	7.42837	-7.77207	17.35615	24.30537	1.25814	0.79482	151.0093	159.38906	56.25877	0.3421	 	4384682.787	 	1.38936E-6	 	13610.29632	45.26039	 
970.0	1.0	0.0	7.80439	7.42484	-7.81588	17.2721	24.19187	1.25898	0.79429	151.47663	159.53984	56.44713	0.34176	 	4918404.153	 	1.23363E-6	 	13385.96997	44.86527	 
965.0	1.0	0.0	7.80806	7.42135	-7.85923	17.18906	24.08048	1.25972	0.79383	151.93752	159.68924	56.63293	0.34142	 	5522729.683	 	1.09422E-6	 	13163.53128	44.48774	 
960.0	1.0	0.0	7.81169	7.41789	-7.90213	17.10695	23.9711	1.26036	0.79343	152.39233	159.8374	56.81632	0.3411	 	6207709.41	 	9.69552E-7	 	12942.89683	44.12689	 
955.0	1.0	0.0	7.8153	7.41447	-7.9446	17.02573	23.86364	1.2609	0.79308	152.84138	159.98443	56.99741	0.34077	 	6984922.116	 	8.58176E-7	 	12723.98753	43.78186	 
950.0	1.0	0.0	7.81887	7.41108	-7.98665	16.94533	23.75799	1.26135	0.7928	153.28499	160.13043	57.17634	0.34046	 	7867724.938	 	7.58782E-7	 	12506.72842	43.45182	 
945.0	1.0	0.0	7.82241	7.40773	-8.0283	16.86571	23.65409	1.26171	0.79257	153.72344	160.2755	57.35322	0.34015	 	8871541.383	 	6.70175E-7	 	12291.04843	43.136	 
940.0	1.0	0.0	7.82592	7.4044	-8.06956	16.7868	23.55184	1.26199	0.7924	154.15702	160.41973	57.52815	0.33984	 	1.001420382E7	 	5.91269E-7	 	12076.88017	42.83365	 
935.0	1.0	0.0	7.8294	7.40111	-8.11046	16.70858	23.45118	1.26218	0.79228	154.58598	160.56321	57.70124	0.33954	 	1.131635111E7	 	5.21076E-7	 	11864.15976	42.54408	 
930.0	1.0	0.0	7.83286	7.39785	-8.151	16.63098	23.35203	1.2623	0.79221	155.01057	160.70602	57.87259	0.33924	 	1.280189935E7	 	4.58704E-7	 	11652.82664	42.26663	 
925.0	1.0	0.0	7.83629	7.39461	-8.1912	16.55396	23.25433	1.26233	0.79218	155.43102	160.84823	58.04228	0.33895	 	1.449859555E7	 	4.03341E-7	 	11442.82335	42.00066	 
920.0	1.0	0.0	7.83969	7.3914	-8.23106	16.47749	23.15802	1.26229	0.79221	155.84754	160.98992	58.21041	0.33866	 	1.643866711E7	 	3.54254E-7	 	11234.09544	41.74558	 
915.0	1.0	0.0	7.84307	7.38821	-8.27061	16.40152	23.06305	1.26218	0.79228	156.26035	161.13114	58.37705	0.33837	 	1.865959322E7	 	3.10782E-7	 	11026.59124	41.50084	 
910.0	1.0	0.0	7.84643	7.38505	-8.30985	16.32602	22.96936	1.26199	0.7924	156.66963	161.27196	58.54228	0.33809	 	2.120501193E7	 	2.72325E-7	 	10820.26177	41.2659	 
905.0	1.0	0.0	7.84976	7.38191	-8.34879	16.25094	22.8769	1.26174	0.79256	157.07556	161.41245	58.70617	0.33781	 	2.412579427E7	 	2.38345E-7	 	10615.06051	41.04025	 
900.0	1.0	0.0	7.85308	7.3788	-8.38744	16.17625	22.78562	1.26142	0.79276	157.47833	161.55264	58.86879	0.33754	 	2.748131931E7	 	2.08354E-7	 	10410.94337	40.82343	 
895.0	1.0	0.0	7.85637	7.37571	-8.42581	16.10192	22.69549	1.26103	0.793	157.87809	161.69261	59.03021	0.33727	 	3.134098073E7	 	1.81917E-7	 	10207.86849	40.61498	 
890.0	1.0	0.0	7.85964	7.37264	-8.46391	16.02792	22.60646	1.26058	0.79329	158.275	161.83239	59.19049	0.337	 	3.578598063E7	 	1.58639E-7	 	10005.79614	40.41447	 
885.0	1.0	0.0	7.86289	7.36959	-8.50175	15.95422	22.51849	1.26006	0.79361	158.66921	161.97203	59.34968	0.33673	 	4.091146102E7	 	1.38168E-7	 	9804.6886	40.22151	 
880.0	1.0	0.0	7.86612	7.36657	-8.53934	15.88078	22.43155	1.25948	0.79398	159.06085	162.11158	59.50784	0.33647	 	4.682904113E7	 	1.20187E-7	 	9604.50989	40.03574	 
875.0	1.0	0.0	7.86933	7.36356	-8.57668	15.80757	22.34561	1.25885	0.79438	159.45006	162.25107	59.66502	0.33621	 	5.366984246E7	 	1.04413E-7	 	9405.22588	39.8568	 
870.0	1.0	0.0	7.87253	7.36057	-8.61378	15.73458	22.26063	1.25815	0.79482	159.83696	162.39055	59.82127	0.33595	 	6.158809765E7	 	9.05927E-8	 	9206.80477	39.68422	 
865.0	1.0	0.0	7.8757	7.3576	-8.65064	15.66178	22.17659	1.25739	0.7953	160.22166	162.53006	59.97664	0.3357	 	7.076547176E7	 	7.84991E-8	 	9009.21591	39.51777	 
860.0	1.0	0.0	7.87886	7.35465	-8.68728	15.58914	22.09345	1.25658	0.79581	160.60429	162.66963	60.13118	0.33545	 	8.141622326E7	 	6.79302E-8	 	8812.43021	39.35714	 
855.0	1.0	0.0	7.88201	7.35172	-8.72369	15.51663	22.0112	1.25571	0.79636	160.98494	162.80929	60.28491	0.3352	 	9.379340494E7	 	5.87058E-8	 	8616.42007	39.20203	 
850.0	1.0	0.0	7.88513	7.3488	-8.75989	15.44423	21.9298	1.25478	0.79695	161.36371	162.94907	60.43789	0.33495	 	1.081962971E8	 	5.06655E-8	 	8421.15925	39.05216	 
845.0	1.0	0.0	7.88735	7.34674	-8.78556	15.41969	21.86419	1.25295	0.79812	161.71296	163.15494	60.57544	0.33481	 	1.225998757E8	 	4.4514E-8	 	8265.09814	31.21222	 
840.0	1.0	0.0	7.88957	7.34467	-8.81116	15.39514	21.79856	1.2511	0.7993	162.06158	163.3599	60.71278	0.33466	 	1.390769846E8	 	3.90648E-8	 	8106.0603	31.80757	 
835.0	1.0	0.0	7.89178	7.34262	-8.83669	15.3706	21.73293	1.24924	0.80049	162.40958	163.56395	60.84991	0.33451	 	1.579482092E8	 	3.42429E-8	 	7947.23199	31.76566	 
830.0	1.0	0.0	7.89398	7.34057	-8.86216	15.34607	21.66728	1.24737	0.80168	162.75696	163.76708	60.98684	0.33436	 	1.795870724E8	 	2.9981E-8	 	7788.61245	31.72391	 
825.0	1.0	0.0	7.89618	7.33852	-8.88757	15.32154	21.60161	1.24549	0.80289	163.10371	163.96931	61.12356	0.33421	 	2.044293281E8	 	2.62183E-8	 	7630.20089	31.68231	 
820.0	1.0	0.0	7.89838	7.33648	-8.9129	15.29702	21.53594	1.2436	0.80411	163.44985	164.17063	61.26007	0.33407	 	2.329839832E8	 	2.29003E-8	 	7471.99646	31.64088	 
815.0	1.0	0.0	7.90057	7.33444	-8.93818	15.2725	21.47025	1.2417	0.80535	163.79536	164.37105	61.39638	0.33392	 	2.658463854E8	 	1.99777E-8	 	7313.99835	31.59962	 
810.0	1.0	0.0	7.90276	7.33241	-8.96338	15.24798	21.40455	1.23979	0.80659	164.14026	164.57058	61.53248	0.33377	 	3.037137888E8	 	1.74065E-8	 	7156.20565	31.55854	 
805.0	1.0	0.0	7.90494	7.33039	-8.98852	15.22347	21.33883	1.23787	0.80784	164.48453	164.7692	61.66838	0.33362	 	3.474038891E8	 	1.51472E-8	 	6998.61748	31.51764	 
800.0	1.0	0.0	7.90712	7.32837	-9.0136	15.19897	21.2731	1.23594	0.8091	164.82818	164.96694	61.80407	0.33347	 	3.978769286E8	 	1.31643E-8	 	6841.23288	31.47692	 
795.0	1.0	0.0	7.90929	7.32635	-9.03861	15.17447	21.20736	1.23399	0.81038	165.17121	165.16378	61.93955	0.33333	 	4.562620947E8	 	1.14263E-8	 	6684.05089	31.4364	 
790.0	1.0	0.0	7.91146	7.32435	-9.06355	15.14997	21.1416	1.23203	0.81167	165.51362	165.35974	62.07483	0.33318	 	5.238890939E8	 	9.90471E-9	 	6527.07049	31.39608	 
785.0	1.0	0.0	7.91363	7.32234	-9.08843	15.12548	21.07583	1.23007	0.81296	165.85541	165.55481	62.2099	0.33303	 	6.023259697E8	 	8.57437E-9	 	6370.29064	31.35597	 
780.0	1.0	0.0	7.91579	7.32034	-9.11324	15.101	21.01004	1.22809	0.81427	166.19658	165.749	62.34476	0.33288	 	6.934244684E8	 	7.41272E-9	 	6213.71025	31.31608	 
775.0	1.0	0.0	7.91794	7.31835	-9.13799	15.07652	20.94424	1.2261	0.8156	166.53713	165.94231	62.47942	0.33274	 	7.993745412E8	 	6.3997E-9	 	6057.32818	31.27641	 
770.0	1.0	0.0	7.9201	7.31636	-9.16267	15.05204	20.87843	1.22409	0.81693	166.87706	166.13475	62.61387	0.33259	 	9.227699237E8	 	5.51747E-9	 	5901.14325	31.23699	 
765.0	1.0	0.0	7.92224	7.31438	-9.18728	15.02757	20.81259	1.22208	0.81828	167.21637	166.32631	62.74811	0.33244	 	1.066687168E9	 	4.75018E-9	 	5745.15425	31.1978	 
760.0	1.0	0.0	7.92439	7.3124	-9.21183	15.0031	20.74675	1.22006	0.81964	167.55506	166.517	62.88215	0.33229	 	1.234781034E9	 	4.08376E-9	 	5589.35987	31.15888	 
755.0	1.0	0.0	7.92652	7.31043	-9.23632	14.97864	20.68088	1.21802	0.82101	167.89313	166.70682	63.01598	0.33215	 	1.431399821E9	 	3.50576E-9	 	5433.75879	31.12022	 
750.0	1.0	0.0	7.92866	7.30846	-9.26074	14.95418	20.615	1.21597	0.82239	168.23059	166.89578	63.1496	0.332	 	1.661725014E9	 	3.00515E-9	 	5278.3496	31.08184	 
745.0	1.0	0.0	7.93078	7.3065	-9.28509	14.92973	20.54911	1.21391	0.82379	168.56742	167.08387	63.28302	0.33185	 	1.931940679E9	 	2.5722E-9	 	5123.13084	31.04375	 
740.0	1.0	0.0	7.93291	7.30455	-9.30938	14.90528	20.48319	1.21183	0.8252	168.90363	167.2711	63.41623	0.33171	 	2.249439256E9	 	2.1983E-9	 	4968.10099	31.00597	 
735.0	1.0	0.0	7.93503	7.30259	-9.33361	14.88084	20.41726	1.20974	0.82662	169.23922	167.45748	63.54923	0.33156	 	2.623072025E9	 	1.87587E-9	 	4813.25843	30.96851	 
730.0	1.0	0.0	7.93714	7.30065	-9.35776	14.8564	20.35132	1.20765	0.82806	169.57419	167.64299	63.68202	0.33141	 	3.063454436E9	 	1.59824E-9	 	4658.60149	30.93139	 
725.0	1.0	0.0	7.93925	7.29871	-9.38186	14.83197	20.28535	1.20553	0.82951	169.90855	167.82766	63.81461	0.33127	 	3.583339E9	 	1.35955E-9	 	4504.1284	30.89462	 
720.0	1.0	0.0	7.94136	7.29677	-9.40589	14.80754	20.21937	1.20341	0.83097	170.24228	168.01148	63.94699	0.33112	 	4.198071464E9	 	1.15465E-9	 	4349.83731	30.85822	 
715.0	1.0	0.0	7.94346	7.29484	-9.42985	14.78312	20.15337	1.20127	0.83245	170.5754	168.19445	64.07916	0.33097	 	4.926149908E9	 	9.79043E-10	 	4195.72627	30.82221	 
710.0	1.0	0.0	7.94556	7.29292	-9.45375	14.7587	20.08735	1.19912	0.83394	170.9079	168.37657	64.21113	0.33083	 	5.789911191E9	 	8.28771E-10	 	4041.79322	30.78661	 
705.0	1.0	0.0	7.94765	7.291	-9.47758	14.73429	20.02131	1.19696	0.83545	171.23978	168.55785	64.34289	0.33068	 	6.816375346E9	 	7.00388E-10	 	3888.03603	30.75144	 
700.0	1.0	0.0	7.94974	7.28908	-9.50134	14.70988	19.95525	1.19478	0.83697	171.57104	168.73829	64.47444	0.33054	 	8.03828619E9	 	5.90885E-10	 	3734.4524	30.71673	 
695.0	1.0	0.0	7.95182	7.28717	-9.52505	14.68548	19.88917	1.19259	0.83851	171.90168	168.91789	64.60578	0.33039	 	9.495396181E9	 	4.97641E-10	 	3581.03996	30.68249	 
690.0	1.0	0.0	7.9539	7.28527	-9.54868	14.66108	19.82307	1.19039	0.84006	172.2317	169.09666	64.73691	0.33024	 	1.12361E10	 	4.18376E-10	 	3427.79616	30.64876	 
685.0	1.0	0.0	7.95597	7.28337	-9.57225	14.63668	19.75695	1.18817	0.84163	172.5611	169.2746	64.86784	0.3301	 	1.3319199999999998E10	 	3.51109E-10	 	3274.71836	30.61556	 
680.0	1.0	0.0	7.95804	7.28148	-9.59576	14.61229	19.69081	1.18594	0.84321	172.88989	169.45171	64.99856	0.32995	 	1.5816699999999998E10	 	2.94125E-10	 	3121.80371	30.58293	 
675.0	1.0	0.0	7.9601	7.27959	-9.6192	14.58791	19.62465	1.1837	0.84481	173.21806	169.62799	65.12907	0.32981	 	1.88166E10	 	2.45936E-10	 	2969.04926	30.55089	 
670.0	1.0	0.0	7.96216	7.27771	-9.64258	14.56353	19.55847	1.18144	0.84642	173.54561	169.80344	65.25938	0.32966	 	2.24268E10	 	2.05258E-10	 	2816.45183	30.51949	 
665.0	1.0	0.0	7.96422	7.27583	-9.66589	14.53915	19.49227	1.17917	0.84806	173.87254	169.97807	65.38948	0.32951	 	2.6779699999999996E10	 	1.70983E-10	 	2664.0081	30.48875	 
660.0	1.0	0.0	7.96627	7.27396	-9.68913	14.51478	19.42604	1.17688	0.8497	174.19886	170.15188	65.51936	0.32937	 	3.2038299999999996E10	 	1.42157E-10	 	2511.72364	30.45689	 
655.0	1.0	0.0	7.96831	7.27209	-9.71231	14.49042	19.3598	1.17458	0.85137	174.52455	170.32488	65.64904	0.32922	 	3.84036E10	 	1.17959E-10	 	2359.64919	30.41489	 
650.0	1.0	0.0	7.97035	7.27023	-9.73543	14.46606	19.29352	1.17227	0.85305	174.84963	170.49705	65.77852	0.32908	 	4.6124E10	 	9.76858E-11	 	2207.85205	30.35943	 
645.0	1.0	0.0	7.97239	7.26837	-9.75848	14.4417	19.22723	1.16994	0.85475	175.17409	170.66842	65.90778	0.32893	 	5.550719999999999E10	 	8.0733E-11	 	2056.33104	30.3042	 
640.0	1.0	0.0	7.97442	7.26652	-9.78146	14.41735	19.16091	1.16759	0.85646	175.49793	170.83897	66.03684	0.32879	 	6.693469999999999E10	 	6.65852E-11	 	1905.08503	30.2492	 
635.0	1.0	0.0	7.97645	7.26468	-9.80438	14.393	19.09457	1.16524	0.8582	175.82116	171.00872	66.16568	0.32864	 	8.08814E10	 	5.48019E-11	 	1754.11287	30.19443	 
630.0	1.0	0.0	7.97847	7.26284	-9.82724	14.36866	19.0282	1.16286	0.85995	176.14377	171.17766	66.29432	0.3285	 	9.793919999999998E10	 	4.5008E-11	 	1603.41342	30.13989	 
625.0	1.0	0.0	7.98048	7.261	-9.85003	14.34432	18.96181	1.16047	0.86172	176.46576	171.3458	66.42275	0.32835	 	1.18847E11	 	3.68847E-11	 	1452.98525	30.08563	 
620.0	1.0	0.0	7.9825	7.25917	-9.87276	14.31999	18.89539	1.15807	0.86351	176.78713	171.51314	66.55098	0.32821	 	1.44532E11	 	3.01611E-11	 	1302.82654	30.03174	 
615.0	1.0	0.0	7.9845	7.25734	-9.89542	14.29566	18.82895	1.15565	0.86531	177.10789	171.67967	66.67899	0.32806	 	1.76155E11	 	2.46081E-11	 	1152.9365	29.97801	 
610.0	1.0	0.0	7.98651	7.25552	-9.91801	14.27134	18.76248	1.15322	0.86714	177.42802	171.84542	66.8068	0.32792	 	2.15178E11	 	2.0032E-11	 	1003.31402	29.9245	 
605.0	1.0	0.0	7.9885	7.25371	-9.94054	14.24702	18.69598	1.15076	0.86899	177.74755	172.01036	66.93439	0.32777	 	2.63446E11	 	1.62691E-11	 	853.95797	29.87121	 
600.0	1.0	0.0	7.9905	7.2519	-9.96301	14.22271	18.62946	1.1483	0.87085	178.06645	172.17452	67.06178	0.32763	 	3.23289E11	 	1.31821E-11	 	704.86723	29.81815	 
595.0	1.0	0.0	7.99249	7.2501	-9.98541	14.1984	18.5629	1.14582	0.87274	178.38474	172.33788	67.18896	0.32749	 	3.97663E11	 	1.06553E-11	 	556.04069	29.76531	 
590.0	1.0	0.0	7.99447	7.2483	-10.00775	14.1741	18.49632	1.14332	0.87465	178.70241	172.50046	67.31593	0.32734	 	4.90321E11	 	8.59197E-12	 	407.47724	29.71269	 
585.0	1.0	0.0	7.99645	7.2465	-10.03002	14.1498	18.42971	1.1408	0.87658	179.01946	172.66226	67.44269	0.3272	 	6.06047E11	 	6.91104E-12	 	259.17576	29.66029	 
580.0	1.0	0.0	7.99842	7.24471	-10.05223	14.12551	18.36307	1.13827	0.87852	179.3359	172.82327	67.56925	0.32705	 	7.50949E11	 	5.545E-12	 	111.13516	29.60812	 
575.0	1.0	0.0	8.00039	7.24293	-10.07437	14.10122	18.2964	1.13572	0.88049	179.65172	172.9835	67.69559	0.32691	 	9.32852E11	 	4.43758E-12	 	-36.64569	29.55617	 
570.0	1.0	0.0	8.00236	7.24115	-10.09645	14.07694	18.2297	1.13316	0.88249	179.96692	173.14295	67.82172	0.32676	 	1.1618E12	 	3.54209E-12	 	-184.16787	29.50444	 
565.0	1.0	0.0	8.00432	7.23938	-10.11846	14.05266	18.16297	1.13058	0.8845	180.28151	173.30162	67.94765	0.32662	 	1.45074E12	 	2.81981E-12	 	-331.43247	29.45292	 
560.0	1.0	0.0	8.00627	7.23761	-10.14041	14.02838	18.0962	1.12798	0.88654	180.59548	173.45953	68.07336	0.32648	 	1.81636E12	 	2.23876E-12	 	-478.4406	29.40163	 
555.0	1.0	0.0	8.00822	7.23585	-10.16229	14.00411	18.0294	1.12537	0.8886	180.90884	173.61666	68.19887	0.32633	 	2.28032E12	 	1.77255E-12	 	-625.19335	29.35055	 
550.0	1.0	0.0	8.01017	7.23409	-10.18411	13.97985	17.96257	1.12273	0.89068	181.22157	173.77302	68.32417	0.32619	 	2.87071E12	 	1.39951E-12	 	-771.6918	29.29969	 
545.0	1.0	0.0	8.01211	7.23234	-10.20587	13.95559	17.89571	1.12008	0.89279	181.5337	173.92861	68.44926	0.32605	 	3.62414E12	 	1.10183E-12	 	-917.93704	29.24905	 
540.0	1.0	0.0	8.01404	7.23059	-10.22756	13.93133	17.82881	1.11741	0.89492	181.8452	174.08344	68.57413	0.3259	 	4.58844E12	 	8.64953E-13	 	-1063.93013	29.19862	 
535.0	1.0	0.0	8.01598	7.22885	-10.24918	13.90708	17.76188	1.11473	0.89708	182.15609	174.23751	68.6988	0.32576	 	5.8263E12	 	6.76995E-13	 	-1209.67217	29.14841	 
530.0	1.0	0.0	8.0179	7.22711	-10.27074	13.88284	17.69491	1.11202	0.89926	182.46636	174.39081	68.82326	0.32562	 	7.42015E12	 	5.28288E-13	 	-1355.16421	29.09841	 
525.0	1.0	0.0	8.01982	7.22538	-10.29224	13.8586	17.6279	1.1093	0.90147	182.77602	174.54336	68.94751	0.32547	 	9.47868E12	 	4.10982E-13	 	-1500.40733	29.04862	 
520.0	1.0	0.0	8.02174	7.22366	-10.31367	13.83436	17.56086	1.10656	0.9037	183.08506	174.69515	69.07155	0.32533	 	1.21457E13	 	3.18726E-13	 	-1645.40259	28.99905	 
515.0	1.0	0.0	8.02365	7.22194	-10.33504	13.81013	17.49378	1.1038	0.90596	183.39348	174.84618	69.19538	0.32519	 	1.56123E13	 	2.46394E-13	 	-1790.15109	28.9497	 
510.0	1.0	0.0	8.02556	7.22022	-10.35634	13.7859	17.42665	1.10102	0.90824	183.70129	174.99646	69.319	0.32504	 	2.01326E13	 	1.89859E-13	 	-1934.65403	28.90059	 
505.0	1.0	0.0	8.02746	7.21851	-10.37758	13.76168	17.35949	1.09823	0.91056	184.00848	175.146	69.44241	0.3249	 	2.60468E13	 	1.45813E-13	 	-2078.9124	28.85167	 
500.0	1.0	0.0	8.02936	7.2168	-10.39875	13.73747	17.29229	1.09541	0.9129	184.31506	175.29478	69.56561	0.32476	 	3.38107E13	 	1.11608E-13	 	-2222.92722	28.80296	 
495.0	1.0	0.0	8.03125	7.2151	-10.41986	13.71325	17.22505	1.09258	0.91527	184.62102	175.44282	69.6886	0.32461	 	4.40383E13	 	8.51339E-14	 	-2366.69953	28.75446	 
490.0	1.0	0.0	8.03314	7.21341	-10.4409	13.68905	17.15777	1.08972	0.91767	184.92637	175.59011	69.81138	0.32447	 	5.75585E13	 	6.47123E-14	 	-2510.23035	28.70616	 
485.0	1.0	0.0	8.03502	7.21172	-10.46188	13.66484	17.09044	1.08685	0.92009	185.2311	175.73667	69.93395	0.32433	 	7.54958E13	 	4.90139E-14	 	-2653.52069	28.65807	 
480.0	1.0	0.0	8.0369	7.21003	-10.4828	13.64065	17.02307	1.08395	0.92255	185.53521	175.88248	70.05631	0.32419	 	9.93803E13	 	3.69886E-14	 	-2796.57157	28.61018	 
475.0	1.0	0.0	8.03877	7.20835	-10.50365	13.61645	16.95565	1.08104	0.92504	185.83871	176.02755	70.17845	0.32404	 	1.3130299999999998E14	 	2.78101E-14	 	-2939.38401	28.56249	 
470.0	1.0	0.0	8.04064	7.20668	-10.52444	13.59227	16.88819	1.0781	0.92756	186.14159	176.17189	70.30039	0.3239	 	1.7413E14	 	2.083E-14	 	-3081.95897	28.51499	 
465.0	1.0	0.0	8.0425	7.20501	-10.54516	13.56808	16.82068	1.07515	0.93011	186.44386	176.3155	70.42212	0.32376	 	2.31812E14	 	1.55416E-14	 	-3224.29747	28.4677	 
460.0	1.0	0.0	8.04436	7.20335	-10.56582	13.5439	16.75313	1.07217	0.93269	186.74551	176.45837	70.54363	0.32362	 	3.09808E14	 	1.15501E-14	 	-3366.40049	28.4206	 
455.0	1.0	0.0	8.04621	7.20169	-10.58641	13.51973	16.68552	1.06917	0.9353	187.04655	176.60052	70.66494	0.32347	 	4.15699E14	 	8.54926E-15	 	-3508.26901	28.3737	 
450.0	1.0	0.0	8.04806	7.20004	-10.60694	13.49556	16.61787	1.06615	0.93795	187.34697	176.74193	70.78603	0.32333	 	5.6005599999999994E14	 	6.30208E-15	 	-3649.90401	28.327	 
445.0	1.0	0.0	8.0499	7.19839	-10.62741	13.4714	16.55017	1.06311	0.94063	187.64678	176.88262	70.90692	0.32319	 	7.5768E14	 	4.62611E-15	 	-3791.30646	28.28049	 
440.0	1.0	0.0	8.05174	7.19674	-10.64781	13.44724	16.48241	1.06005	0.94335	187.94597	177.02259	71.02759	0.32305	 	1.02939E15	 	3.38132E-15	 	-3932.47731	28.23417	 
435.0	1.0	0.0	8.05357	7.19511	-10.66815	13.42309	16.4146	1.05697	0.9461	188.24454	177.16183	71.14805	0.32291	 	1.40461E15	 	2.46068E-15	 	-4073.41752	28.18804	 
430.0	1.0	0.0	8.0554	7.19347	-10.68842	13.39894	16.34673	1.05386	0.94889	188.5425	177.30036	71.2683	0.32277	 	1.92509E15	 	1.78272E-15	 	-4214.12802	28.1421	 
425.0	1.0	0.0	8.05722	7.19184	-10.70863	13.37479	16.27881	1.05073	0.95172	188.83985	177.43817	71.38834	0.32262	 	2.65036E15	 	1.28567E-15	 	-4354.60964	28.09632	 
420.0	1.0	0.0	8.05904	7.19022	-10.72877	13.35065	16.21084	1.04758	0.95458	189.13658	177.57526	71.50817	0.32248	 	3.66576E15	 	9.2289E-16	 	-4494.86351	28.05077	 
415.0	1.0	0.0	8.06085	7.1886	-10.74886	13.32652	16.1428	1.04441	0.95748	189.43269	177.71164	71.62779	0.32234	 	5.09412E15	 	6.59326E-16	 	-4634.88998	28.0053	 
410.0	1.0	0.0	8.06266	7.18699	-10.76887	13.30239	16.07471	1.04121	0.96042	189.72819	177.8473	71.7472	0.3222	 	7.11322E15	 	4.68745E-16	 	-4774.68926	27.95985	 
405.0	1.0	0.0	8.06446	7.18539	-10.78882	13.27826	16.00656	1.03799	0.9634	190.02308	177.98226	71.86639	0.32206	 	9.98164E15	 	3.31597E-16	 	-4914.26146	27.91444	 
400.0	1.0	0.0	8.06626	7.18378	-10.80871	13.25414	15.93834	1.03475	0.96642	190.31734	178.1165	71.98537	0.32192	 	1.40774E16	 	2.33386E-16	 	-5053.60674	27.86906	 
395.0	1.0	0.0	8.06806	7.18219	-10.82854	13.23003	15.87006	1.03148	0.96948	190.611	178.25004	72.10414	0.32178	 	1.99562E16	 	1.63411E-16	 	-5192.72524	27.8237	 
390.0	1.0	0.0	8.06984	7.1806	-10.8483	13.20591	15.80172	1.02819	0.97258	190.90404	178.38288	72.2227	0.32163	 	2.84394E16	 	1.13809E-16	 	-5331.61707	27.77837	 
385.0	1.0	0.0	8.07163	7.17901	-10.86799	13.18181	15.7333	1.02488	0.97573	191.19646	178.51501	72.34105	0.32149	 	4.07473E16	 	7.88338E-17	 	-5470.28236	27.73306	 
380.0	1.0	0.0	8.07341	7.17743	-10.88763	13.15771	15.66483	1.02154	0.97892	191.48828	178.64644	72.45919	0.32135	 	5.87042E16	 	5.43039E-17	 	-5608.72118	27.68776	 
375.0	1.0	0.0	8.07518	7.17585	-10.90719	13.13361	15.59628	1.01817	0.98215	191.77947	178.77718	72.57711	0.32121	 	8.50522E16	 	3.71943E-17	 	-5746.93365	27.6425	 
370.0	1.0	0.0	8.07695	7.17428	-10.9267	13.10952	15.52766	1.01478	0.98543	192.07005	178.90722	72.69482	0.32107	 	1.23938E17	 	2.53276E-17	 	-5884.91983	27.59724	 
365.0	1.0	0.0	8.07871	7.17272	-10.94614	13.08543	15.45896	1.01137	0.98876	192.36002	179.03656	72.81232	0.32093	 	1.81672E17	 	1.71444E-17	 	-6022.67981	27.55199	 
360.0	1.0	0.0	8.08047	7.17115	-10.96551	13.06135	15.3902	1.00793	0.99214	192.64937	179.16521	72.92961	0.32079	 	2.67913E17	 	1.15345E-17	 	-6160.21362	27.50676	 
355.0	1.0	0.0	8.08222	7.1696	-10.98483	13.03727	15.32135	1.00446	0.99556	192.93811	179.29316	73.04668	0.32065	 	3.97543E17	 	7.71197E-18	 	-6297.52131	27.46154	 
350.0	1.0	0.0	8.08397	7.16805	-11.00408	13.0132	15.25243	1.00097	0.99903	193.22623	179.42043	73.16355	0.32051	 	5.93644E17	 	5.12334E-18	 	-6434.60292	27.41632	 
345.0	1.0	0.0	8.08571	7.1665	-11.02326	12.98913	15.18343	0.99745	1.00256	193.51374	179.54701	73.2802	0.32037	 	8.92247E17	 	3.38139E-18	 	-6571.45844	27.3711	 
340.0	1.0	0.0	8.08745	7.16496	-11.04238	12.96507	15.11434	0.9939	1.00614	193.80063	179.6729	73.39664	0.32023	 	1.34999E18	 	2.21678E-18	 	-6708.08789	27.32589	 
335.0	1.0	0.0	8.08918	7.16343	-11.06144	12.94101	15.04517	0.99033	1.00977	194.08691	179.79811	73.51286	0.32009	 	2.05652E18	 	1.44333E-18	 	-6844.49124	27.28067	 
330.0	1.0	0.0	8.09091	7.1619	-11.08043	12.91696	14.97592	0.98673	1.01345	194.37257	179.92264	73.62887	0.31995	 	3.15475E18	 	9.3314E-19	 	-6980.66847	27.23545	 
325.0	1.0	0.0	8.09263	7.16037	-11.09936	12.89291	14.90657	0.9831	1.01719	194.65762	180.04648	73.74467	0.31981	 	4.87422E18	 	5.98952E-19	 	-7116.61952	27.19021	 
320.0	1.0	0.0	8.09435	7.15885	-11.11823	12.86886	14.83713	0.97945	1.02098	194.94206	180.16965	73.86026	0.31967	 	7.5863E18	 	3.81611E-19	 	-7252.34434	27.14496	 
315.0	1.0	0.0	8.09606	7.15734	-11.13703	12.84483	14.7676	0.97576	1.02484	195.22588	180.29214	73.97564	0.31953	 	1.18966E19	 	2.41298E-19	 	-7387.84283	27.0997	 
310.0	1.0	0.0	8.09777	7.15583	-11.15577	12.82079	14.69798	0.97205	1.02875	195.50908	180.41396	74.0908	0.31939	 	1.88003E19	 	1.51392E-19	 	-7523.1149	27.05442	 
305.0	1.0	0.0	8.09947	7.15433	-11.17444	12.79676	14.62825	0.96831	1.03273	195.79168	180.5351	74.20575	0.31925	 	2.99463E19	 	9.42288E-20	 	-7658.16042	27.0091	 
300.0	1.0	0.0	8.10117	7.15283	-11.19305	12.77274	14.55842	0.96454	1.03676	196.07365	180.65557	74.32048	0.31911	 	4.80896E19	 	5.81706E-20	 	-7792.97926	26.96377	 
295.0	1.0	0.0	8.10286	7.15133	-11.2116	12.74872	14.48849	0.96074	1.04086	196.35502	180.77537	74.43501	0.31897	 	7.78716E19	 	3.56099E-20	 	-7927.57126	26.9184	 
290.0	1.0	0.0	8.10455	7.14985	-11.23008	12.7247	14.41846	0.95691	1.04503	196.63577	180.8945	74.54931	0.31883	 	1.2718199999999998E20	 	2.16116E-20	 	-8061.93622	26.87299	 
285.0	1.0	0.0	8.10623	7.14836	-11.2485	12.70069	14.34831	0.95305	1.04926	196.9159	181.01296	74.66341	0.31869	 	2.09549E20	 	1.30002E-20	 	-8196.07393	26.82754	 
280.0	1.0	0.0	8.10791	7.14688	-11.26686	12.67669	14.27805	0.94916	1.05356	197.19542	181.13076	74.77729	0.31855	 	3.4839299999999997E20	 	7.74927E-21	 	-8329.98418	26.78205	 
275.0	1.0	0.0	8.10958	7.14541	-11.28515	12.65269	14.20767	0.94524	1.05793	197.47433	181.2479	74.89096	0.31841	 	5.8462799999999993E20	 	4.57622E-21	 	-8463.66671	26.73651	 
270.0	1.0	0.0	8.11125	7.14394	-11.30338	12.62869	14.13718	0.94129	1.06237	197.75262	181.36437	75.00442	0.31827	 	9.904419999999999E20	 	2.67656E-21	 	-8597.12122	26.6909	 
265.0	1.0	0.0	8.11291	7.14248	-11.32154	12.6047	14.06656	0.93731	1.06689	198.0303	181.48019	75.11766	0.31813	 	1.69447E21	 	1.55009E-21	 	-8730.34741	26.64524	 
260.0	1.0	0.0	8.11457	7.14102	-11.33965	12.58071	13.99582	0.93329	1.07148	198.30737	181.59535	75.23069	0.318	 	2.92827E21	 	8.88639E-22	 	-8863.34495	26.59951	 
255.0	1.0	0.0	8.11622	7.13957	-11.35768	12.55673	13.92494	0.92924	1.07614	198.58382	181.70985	75.3435	0.31786	 	5.11313E21	 	5.04147E-22	 	-8996.11347	26.5537	 
250.0	1.0	0.0	8.11786	7.13812	-11.37566	12.53276	13.85394	0.92516	1.08089	198.85966	181.82369	75.4561	0.31772	 	9.02381E21	 	2.82959E-22	 	-9128.65256	26.50782	 
245.0	1.0	0.0	8.11951	7.13668	-11.39357	12.50879	13.78279	0.92105	1.08571	199.13488	181.93689	75.56849	0.31758	 	1.6101099999999998E22	 	1.57068E-22	 	-9260.9618	26.46185	 
240.0	1.0	0.0	8.12114	7.13524	-11.41142	12.48482	13.71151	0.91691	1.09062	199.40949	182.04943	75.68066	0.31744	 	2.90549E22	 	8.62008E-23	 	-9393.04071	26.41578	 
235.0	1.0	0.0	8.12277	7.13381	-11.4292	12.46086	13.64007	0.91273	1.09562	199.68348	182.16132	75.79262	0.3173	 	5.30432E22	 	4.67572E-23	 	-9524.8888	26.36962	 
230.0	1.0	0.0	8.1244	7.13238	-11.44692	12.4369	13.56849	0.90851	1.1007	199.95686	182.27256	75.90436	0.31716	 	9.80022E22	 	2.50581E-23	 	-9656.50553	26.32334	 
225.0	1.0	0.0	8.12602	7.13096	-11.46458	12.41295	13.49675	0.90427	1.10587	200.22963	182.38316	76.01589	0.31702	 	1.8331299999999997E23	 	1.32634E-23	 	-9787.89031	26.27696	 
220.0	1.0	0.0	8.12763	7.12954	-11.48217	12.389	13.42485	0.89999	1.11113	200.50178	182.49311	76.12721	0.31689	 	3.4726899999999995E23	 	6.93107E-24	 	-9919.04253	26.23044	 
215.0	1.0	0.0	8.12924	7.12813	-11.4997	12.36506	13.35279	0.89567	1.11648	200.77332	182.60242	76.23831	0.31675	 	6.66533E23	 	3.57452E-24	 	-10049.96151	26.1838	 
210.0	1.0	0.0	8.13085	7.12672	-11.51717	12.34112	13.28056	0.89132	1.12194	201.04425	182.71109	76.3492	0.31661	 	1.2967E24	 	1.81857E-24	 	-10180.64655	26.13701	 
205.0	1.0	0.0	8.13245	7.12532	-11.53458	12.31718	13.20815	0.88693	1.12749	201.31456	182.81911	76.45987	0.31647	 	2.558E24	 	9.12327E-25	 	-10311.0969	26.09007	 
200.0	1.0	0.0	8.13404	7.12392	-11.55192	12.29326	13.13556	0.8825	1.13314	201.58426	182.9265	76.57033	0.31633	 	5.11915E24	 	4.51115E-25	 	-10441.31174	26.04297	 
195.0	1.0	0.0	8.13563	7.12253	-11.56919	12.26933	13.06278	0.87804	1.1389	201.85334	183.03326	76.68057	0.3162	 	1.03976E25	 	2.19756E-25	 	-10571.2902	25.99569	 
190.0	1.0	0.0	8.13721	7.12115	-11.58641	12.24541	12.98981	0.87354	1.14476	202.12181	183.13937	76.7906	0.31606	 	2.14442E25	 	1.05414E-25	 	-10701.03137	25.94823	 
185.0	1.0	0.0	8.13879	7.11976	-11.60356	12.2215	12.91664	0.86901	1.15074	202.38967	183.24486	76.90041	0.31592	 	4.493130000000001E25	 	4.97674E-26	 	-10830.53426	25.90058	 
180.0	1.0	0.0	8.14037	7.11839	-11.62065	12.19759	12.84326	0.86444	1.15682	202.65691	183.34971	77.01001	0.31578	 	9.569260000000001E25	 	2.31127E-26	 	-10959.79784	25.85272	 
175.0	1.0	0.0	8.14194	7.11702	-11.63767	12.17369	12.76966	0.85982	1.16303	202.92354	183.45393	77.11939	0.31565	 	2.0726900000000003E26	 	1.0553E-26	 	-11088.821	25.80463	 
170.0	1.0	0.0	8.1435	7.11565	-11.65463	12.14979	12.69585	0.85518	1.16935	203.18956	183.55752	77.22856	0.31551	 	4.5683900000000005E26	 	4.73451E-27	 	-11217.60257	25.75631	 
165.0	1.0	0.0	8.14506	7.11429	-11.67153	12.12589	12.6218	0.85049	1.1758	203.45496	183.66049	77.33752	0.31537	 	1.0252399999999999E27	 	2.08585E-27	 	-11346.14129	25.70774	 
160.0	1.0	0.0	8.14661	7.11293	-11.68836	12.102	12.54752	0.84576	1.18237	203.71975	183.76283	77.44625	0.31523	 	2.3441999999999999E27	 	9.01843E-28	 	-11474.43584	25.65891	 
155.0	1.0	0.0	8.14816	7.11158	-11.70514	12.07812	12.47299	0.84099	1.18907	203.98393	183.86454	77.55478	0.3151	 	5.4645E27	 	3.82412E-28	 	-11602.48481	25.60979	 
150.0	1.0	0.0	8.1497	7.11024	-11.72185	12.05424	12.39821	0.83618	1.19591	204.24749	183.96563	77.66308	0.31496	 	1.2995500000000001E28	 	1.58923E-28	 	-11730.28671	25.56038	 
145.0	1.0	0.0	8.15124	7.1089	-11.73849	12.03036	12.32316	0.83133	1.20288	204.51044	184.0661	77.77117	0.31482	 	3.15525E28	 	6.46821E-29	 	-11857.83993	25.51065	 
140.0	1.0	0.0	8.15277	7.10756	-11.75507	12.00649	12.24784	0.82645	1.21	204.77277	184.16596	77.87905	0.31468	 	7.82708E28	 	2.57629E-29	 	-11985.1428	25.46057	 
135.0	1.0	0.0	8.15429	7.10623	-11.77159	11.98262	12.17223	0.82152	1.21726	205.03449	184.26519	77.98671	0.31455	 	1.98533E29	 	1.0034E-29	 	-12112.19353	25.41015	 
130.0	1.0	0.0	8.15582	7.1049	-11.78805	11.95876	12.09633	0.81654	1.22467	205.2956	184.36381	78.09416	0.31441	 	5.153370000000001E29	 	3.81823E-30	 	-12238.99024	25.35934	 
125.0	1.0	0.0	8.15733	7.10358	-11.80444	11.93491	12.02012	0.81153	1.23224	205.5561	184.46181	78.20138	0.31427	 	1.37011E30	 	1.41833E-30	 	-12365.53089	25.30813	 
120.0	1.0	0.0	8.15884	7.10227	-11.82077	11.91105	11.94358	0.80647	1.23997	205.81598	184.5592	78.3084	0.31414	 	3.7344E30	 	5.13836E-31	 	-12491.81337	25.2565	 
115.0	1.0	0.0	8.16035	7.10096	-11.83704	11.88721	11.86672	0.80137	1.24786	206.07525	184.65598	78.4152	0.314	 	1.04449E31	 	1.81376E-31	 	-12617.83539	25.2044	 
110.0	1.0	0.0	8.16185	7.09965	-11.85324	11.86337	11.78951	0.79623	1.25592	206.33391	184.75214	78.52178	0.31386	 	3.0008799999999998E31	 	6.23171E-32	 	-12743.59456	25.15183	 
105.0	1.0	0.0	8.16334	7.09835	-11.86938	11.83953	11.71194	0.79105	1.26415	206.59195	184.8477	78.62814	0.31373	 	8.86567E31	 	2.0818E-32	 	-12869.08832	25.09875	 
100.0	1.0	0.0	8.16483	7.09706	-11.88546	11.8157	11.63399	0.78582	1.27256	206.84938	184.94265	78.73429	0.31359	 	2.6963899999999998E32	 	6.75441E-33	 	-12994.31396	25.04513	 
95.0	1.0	0.0	8.16632	7.09577	-11.90148	11.79187	11.55565	0.78054	1.28116	207.10619	185.037	78.84022	0.31346	 	8.452309999999999E32	 	2.12587E-33	 	-13119.2686	24.99093	 
90.0	1.0	0.0	8.1678	7.09448	-11.91743	11.76805	11.4769	0.77522	1.28995	207.3624	185.13074	78.94594	0.31332	 	2.73421E33	 	6.48248E-34	 	-13243.94919	24.93612	 
85.0	1.0	0.0	8.16927	7.0932	-11.93332	11.74423	11.39773	0.76986	1.29893	207.61799	185.22387	79.05144	0.31318	 	9.13953E33	 	1.91262E-34	 	-13368.35247	24.88066	 
80.0	1.0	0.0	8.17074	7.09193	-11.94915	11.72042	11.31811	0.76445	1.30812	207.87297	185.31641	79.15672	0.31305	 	3.1612300000000003E34	 	5.45242E-35	 	-13492.47498	24.8245	 
75.0	1.0	0.0	8.1722	7.09066	-11.96491	11.69661	11.23802	0.759	1.31752	208.12733	185.40834	79.26179	0.31291	 	1.1331E35	 	1.49963E-35	 	-13616.31308	24.76762	 
70.0	1.0	0.0	8.17366	7.08939	-11.98061	11.6728	11.15745	0.7535	1.32713	208.38108	185.49968	79.36664	0.31277	 	4.2154E35	 	3.97312E-36	 	-13739.86282	24.70995	 
65.0	1.0	0.0	8.17511	7.08814	-11.99625	11.649	11.07637	0.74796	1.33697	208.63422	185.59042	79.47128	0.31264	 	1.63035E36	 	1.01231E-36	 	-13863.12006	24.65145	 
60.0	1.0	0.0	8.17656	7.08688	-12.01182	11.62521	10.99475	0.74237	1.34704	208.88675	185.68057	79.57569	0.3125	 	6.566839999999999E36	 	2.47611E-37	 	-13986.08038	24.59206	 
55.0	1.0	0.0	8.178	7.08563	-12.02734	11.60142	10.91258	0.73673	1.35734	209.13867	185.77012	79.67989	0.31237	 	2.7597599999999996E37	 	5.80348E-38	 	-14108.73907	24.53174	 
50.0	1.0	0.0	8.17944	7.08439	-12.04279	11.57764	10.82982	0.73105	1.36789	209.38997	185.85907	79.78388	0.31223	 	1.2124999999999999E38	 	1.3008E-38	 	-14231.09109	24.4704	 
45.0	1.0	0.0	8.18087	7.08315	-12.05817	11.55386	10.74644	0.72533	1.37869	209.64066	185.94744	79.88765	0.3121	 	5.58077E38	 	2.78243E-39	 	-14353.13108	24.408	 
40.0	1.0	0.0	8.18229	7.08191	-12.0735	11.53008	10.66241	0.71955	1.38975	209.89074	186.03522	79.9912	0.31196	 	2.697E39	 	5.66707E-40	 	-14474.85334	24.34445	 
35.0	1.0	0.0	8.18371	7.08068	-12.08876	11.50631	10.5777	0.71373	1.40108	210.1402	186.12241	80.09453	0.31183	 	1.37173E40	 	1.09643E-40	 	-14596.25175	24.27968	 
30.0	1.0	0.0	8.18513	7.07946	-12.10396	11.48254	10.49228	0.70787	1.41269	210.38905	186.20901	80.19765	0.31169	 	7.3614E40	 	2.00994E-41	 	-14717.3198	24.21361	 
25.0	1.0	0.0	8.18654	7.07824	-12.1191	 	10.4061	0.70196	1.42458	210.6373	186.29503	80.30055	0.31156	 	4.17951E41	 	3.48174E-42	 	-14838.05051	 	 
