T (C)	Fraction solid (wt)-TOTAL	Fraction liquid (wt)-LIQUID	Density (g/(cm)^3)-TOTAL	Molar volume (cm^3)-TOTAL	Volume change (%)-  	Average expansion coeff. (10e-6 1/K)-  	Thermal conductivity (W/(m*K))-TOTAL	Electrical resistivity (10e-6 Ohm*m)-TOTAL	Electrical conductivity (10e6 1/(Ohm*m))-TOTAL	Young's modulus (GPa)-TOTAL	Bulk modulus (GPa)-TOTAL	Shear modulus(GPa)-TOTAL	Poisson's ratio-TOTAL	Liquid viscosity (mPa s)-  	Total viscosity (mPa s)-  	Liquid diffusivity (10e-9 (m^2)/s)-  	Total diffusivity (10e-9 (m^2)/s)-  	Surface Tension (mN/m)-  	Enthalpy (J/mole)-TOTAL	Specific heat (J/(mole K))-TOTAL	Latent heat (J/mole)-TOTAL
1400.0	0.0	1.0	7.42675	7.86108	0.0	29.73349	29.16143	1.4057	0.71139	0.0	124.8962	0.0	0.5	7.70932	7.70932	1.05927	1.05927	1817.16098	49910.3	 	0.0
1395.0	0.0	1.0	7.43081	7.85678	-0.0546621	29.6927	29.08737	1.40507	0.71171	0.0	125.04735	0.0	0.5	7.79358	7.79358	1.04468	1.04468	1820.6702	49706.232	40.8136	0.0
1390.0	0.0	1.0	7.43487	7.8525	-0.10917	29.65203	29.01331	1.40443	0.71203	0.0	125.1985	0.0	0.5	7.87927	7.87927	1.03023	1.03023	1824.20667	49502.639	40.7186	0.0
1385.0	0.0	1.0	7.43891	7.84823	-0.16351	29.61151	28.93925	1.40379	0.71236	0.0	125.34965	0.0	0.5	7.96643	7.96643	1.01589	1.01589	1827.77025	49299.519	40.624	0.0
1380.0	0.0	1.0	7.44295	7.84397	-0.2177	29.57112	28.86519	1.40315	0.71268	0.0	125.5008	0.0	0.5	8.05509	8.05509	1.00168	1.00168	1831.36078	49096.869	40.53	0.0
1375.0	0.0	1.0	7.44699	7.83972	-0.27174	29.53087	28.79113	1.4025	0.71301	0.0	125.65195	0.0	0.5	8.14528	8.14528	0.98759	0.98759	1834.9781	48894.686	40.4366	0.0
1370.0	0.0	1.0	7.45101	7.83548	-0.32561	29.49075	28.71706	1.40186	0.71334	0.0	125.8031	0.0	0.5	8.23704	8.23704	0.97363	0.97363	1838.62202	48692.967	40.3438	0.0
1365.0	0.0	1.0	7.45503	7.83126	-0.37933	29.45078	28.643	1.4012	0.71367	0.0	125.95424	0.0	0.5	8.3304	8.3304	0.95979	0.95979	1842.29237	48491.71	40.2514	0.0
1362.8	0.0	1.0	7.4568	7.82941	-0.40292	29.43323	28.6104	1.40092	0.71382	0.0	126.02078	0.0	0.5	8.37202	8.37202	0.95373	0.95373	1843.91632	48403.272	40.18265	0.0
1360.0	0.0908713	0.90913	7.48212	7.80295	-0.73949	28.5515	28.86946	1.38597	0.72152	0.00659023	127.12508	0.00221431	0.4881	8.41435	11.03084	0.94731	0.72261	1842.86787	46962.688	514.65971	1328.222
1355.0	0.22976	0.77024	7.52144	7.76219	-1.25804	27.19982	29.26705	1.36296	0.7337	0.27617	128.82561	0.0939548	0.46968	8.48997	78.38477	0.936	0.10138	1841.01251	44743.692	443.7992	3346.877
1350.0	0.34087	0.65913	7.55363	7.7291	-1.67894	26.11372	29.58448	1.34419	0.74394	1.3657	130.22366	0.4694	0.45473	8.56585	355.86922	0.92486	0.0222615	1839.23764	42941.097	360.519	4949.583
1345.0	0.431	0.569	7.58038	7.70183	-2.02576	25.2294	29.83997	1.32858	0.75269	3.55157	131.39656	1.23109	0.44245	8.64226	940.74058	0.91386	0.00839529	1837.56054	41452.903	297.6388	6238.338
1340.0	0.50501	0.49499	7.60291	7.67904	-2.31575	24.50008	30.04638	1.31537	0.76024	6.79655	132.39945	2.3727	0.43224	8.71911	1863.43693	0.903	0.0042252	1835.99431	40205.447	249.4912	7286.806
1335.0	0.56649	0.43351	7.62214	7.65974	-2.56122	23.89238	30.21261	1.30408	0.76682	10.90242	133.27165	3.82899	0.42367	8.79666	3114.81806	0.89227	0.00251988	1834.54765	39144.704	212.1486	8149.005
1331.47	0.60345	0.39655	7.634	7.64788	-2.71204	23.52496	30.30807	1.29712	0.77094	14.15596	133.82267	4.98989	0.41846	8.85189	4174.16982	0.88475	0.00187624	1833.60552	38490.703	 	8663.056
1330.0	0.63225	0.36775	7.64291	7.63899	-2.8252	23.22694	30.3927	1.29232	0.7738	17.17483	134.29923	6.07172	0.41433	8.90122	5118.00402	0.87905	0.00152883	1833.19089	38008.683	227.2042	9086.925
1325.0	0.71551	0.28449	7.6689	7.61318	-3.15348	22.37131	30.63624	1.27805	0.78244	28.76329	135.64608	10.25612	0.40225	9.07266	8920.63811	0.85975	8.74396E-4	1831.73416	36599.287	281.8792	10298.66
1320.0	0.77496	0.22504	7.68812	7.59422	-3.39466	21.76073	30.79727	1.26739	0.78902	40.22656	136.64294	14.43381	0.39348	9.24852	13063.78394	0.84076	5.95216E-4	1830.29276	35550.086	209.8402	11150.64
1315.0	0.81866	0.18134	7.70283	7.57979	-3.57829	21.31238	30.90017	1.25921	0.79415	50.73656	137.41984	18.2908	0.38694	9.42891	17325.59041	0.82209	4.47394E-4	1828.91067	34736.217	162.7738	11767.722
1310.0	0.8516	0.1484	7.71447	7.5684	-3.72322	20.97324	30.96156	1.25275	0.79824	60.02408	138.05324	21.71744	0.38193	9.614	21615.67997	0.80372	3.5747E-4	1827.6226	34081.285	130.9864	12226.3
1305.0	0.87697	0.12303	7.72395	7.55913	-3.84103	20.71077	30.99266	1.24754	0.80158	68.08654	138.59039	24.70467	0.37801	9.80397	25912.20958	0.78566	2.97256E-4	1826.45158	33536.89	108.879	12574.771
1300.0	0.89688	0.10312	7.73187	7.55142	-3.93921	20.50381	31.00129	1.24324	0.80435	75.04024	139.0616	27.28985	0.37487	9.99912	30230.27259	0.76788	2.53989E-4	1825.4111	33071.41	93.096	12844.756
1295.0	0.91278	0.0872163	7.73865	7.54482	-4.02311	20.33731	30.99295	1.23963	0.80669	81.03503	139.48609	29.52478	0.37232	10.19967	34600.64117	0.75039	2.21203E-4	1824.51184	32663.599	81.5622	13057.497
1290.0	0.92568	0.0743233	7.74457	7.53907	-4.09625	20.20132	30.97154	1.23653	0.80872	86.21437	139.87681	31.46025	0.37021	10.40582	39058.45412	0.73318	1.95332E-4	1823.75911	32298.829	72.954	13227.621
1285.0	0.93626	0.0637391	7.74984	7.53397	-4.16117	20.08869	30.93993	1.23383	0.81048	90.71102	140.24267	33.144	0.36844	10.61788	43643.00057	0.71624	1.74253E-4	1823.15447	31966.797	66.4064	13365.427
1280.0	0.94505	0.0549467	7.7546	7.52937	-4.2197	19.9942	30.90022	1.23145	0.81205	94.63643	140.58962	34.61644	0.36693	10.83601	48392.57463	0.69957	1.56647E-4	1822.69861	31660.101	61.3392	13478.316
1275.0	0.95244	0.0475647	7.75895	7.52516	-4.27322	19.91396	30.854	1.22933	0.81345	98.08418	140.92215	35.91174	0.36563	11.06048	53345.79329	0.68317	1.41644E-4	1822.39082	31373.321	57.356	13571.705
1270.0	0.95869	0.0413109	7.76298	7.52127	-4.32275	19.84505	30.80248	1.22741	0.81473	101.13085	141.24322	37.05798	0.3645	11.29142	58540.24572	0.66703	1.28659E-4	1822.22996	31102.426	54.179	13649.622
1265.0	0.96403	0.0359692	7.76674	7.51762	-4.36909	19.78523	30.74654	1.22566	0.81589	103.84065	141.55598	38.0788	0.3635	11.52901	64014.22438	0.65117	1.17276E-4	1825.78415	30843.82788	51.71962	13715.114
1260.0	0.97068	0.0293153	7.77044	7.51408	-4.4141	19.72895	30.6821	1.22424	0.81683	107.20049	141.84835	39.34668	0.36226	11.76701	70500.56707	0.63592	1.0614E-4	1829.26277	30558.60738	57.0441	13805.387
1255.0	0.97756	0.0224406	7.77442	7.51028	-4.46249	19.66192	30.6178	1.22281	0.81779	110.76045	142.16462	40.69151	0.36098	12.00267	77742.76559	0.62141	9.59385E-5	1832.68867	30267.83492	58.15449	13901.677
1250.0	0.98328	0.0167178	7.77815	7.50667	-4.50845	19.60176	30.55353	1.22137	0.81875	113.86696	142.48298	41.86652	0.35988	12.25517	85341.45465	0.60661	8.71103E-5	1836.10156	29995.78275	54.41043	13979.708
1245.0	0.98799	0.0120079	7.78175	7.50317	-4.553	19.54546	30.48759	1.21999	0.81968	116.54577	142.80142	42.88094	0.35895	12.50921	93306.70483	0.59234	7.94124E-5	1839.52007	29739.17017	51.32252	14042.756
1240.0	0.99191	0.0080884	7.78525	7.49975	-4.59647	19.49199	30.4204	1.21866	0.82057	118.88124	143.12029	43.76624	0.35814	12.76465	101703.6715	0.57858	7.2616E-5	1842.94172	29494.65247	48.90354	14094.165
1235.0	0.99521	0.00479447	7.78866	7.49639	-4.63915	19.44054	30.35217	1.21737	0.82145	120.9392	143.43955	44.54704	0.35743	13.02153	110597.6012	0.56529	6.65557E-5	1846.36639	29259.75397	46.9797	14136.407
1230.0	0.998	0.00200158	7.79202	7.49309	-4.68123	19.39053	30.28275	1.21611	0.82229	122.76958	143.75908	45.24207	0.35681	13.27972	120053.3166	0.55246	6.11104E-5	1849.79471	29032.61894	45.42701	14171.335
1225.0	1.0	0.0	7.79519	7.48996	-4.72101	19.34729	30.2121	1.2149	0.82311	124.20973	144.06998	45.78963	0.35631	 	129936.4327	 	5.62744E-5	 	28822.26746	42.0703	 
1220.0	1.0	0.0	7.79771	7.48754	-4.75178	19.33187	30.13158	1.21408	0.82367	124.60616	144.33806	45.94224	0.35612	 	139568.3987	 	5.22159E-5	 	28637.88919	36.87565	 
1215.0	1.0	0.0	7.80022	7.48512	-4.7825	19.31649	30.05106	1.21326	0.82423	125.00176	144.60466	46.09458	0.35593	 	149984.8387	 	4.84268E-5	 	28453.83999	36.80984	 
1210.0	1.0	0.0	7.80273	7.48271	-4.81316	19.30116	29.97053	1.21243	0.82479	125.39655	144.86977	46.24666	0.35574	 	161255.2564	 	4.48909E-5	 	28270.11868	36.74426	 
1205.0	1.0	0.0	7.80524	7.48031	-4.84377	19.28588	29.89	1.2116	0.82536	125.79053	145.13341	46.39847	0.35555	 	173455.7922	 	4.15926E-5	 	28086.72413	36.67891	 
1200.0	1.0	0.0	7.80775	7.47791	-4.87432	19.27064	29.80947	1.21076	0.82593	126.18368	145.39558	46.55002	0.35536	 	186669.9088	 	3.85176E-5	 	27903.6552	36.61379	 
1195.0	1.0	0.0	7.81026	7.47551	-4.90482	19.25546	29.72893	1.20992	0.8265	126.57602	145.65629	46.7013	0.35517	 	200989.1604	 	3.5652E-5	 	27720.91073	36.54889	 
1190.0	1.0	0.0	7.81276	7.47312	-4.93526	19.24032	29.64839	1.20908	0.82708	126.96754	145.91554	46.85232	0.35498	 	216514.0102	 	3.2983E-5	 	27538.48958	36.48423	 
1185.0	1.0	0.0	7.81525	7.47073	-4.96564	19.22523	29.56784	1.20823	0.82766	127.35824	146.17334	47.00307	0.35479	 	233354.7741	 	3.04981E-5	 	27356.3906	36.4198	 
1180.0	1.0	0.0	7.81775	7.46834	-4.99597	19.21019	29.48729	1.20737	0.82824	127.74813	146.4297	47.15356	0.3546	 	251632.6561	 	2.81858E-5	 	27174.61266	36.35559	 
1175.0	1.0	0.0	7.82024	7.46596	-5.02625	19.19521	29.40674	1.20652	0.82883	128.1372	146.68463	47.30379	0.35441	 	271480.9087	 	2.60352E-5	 	26993.15459	36.29161	 
1170.0	1.0	0.0	7.82273	7.46359	-5.05646	19.18027	29.32618	1.20565	0.82943	128.52546	146.93812	47.45375	0.35422	 	293046.0803	 	2.4036E-5	 	26812.01527	36.22786	 
1165.0	1.0	0.0	7.82522	7.46122	-5.08662	19.16539	29.24562	1.20478	0.83002	128.9129	147.19019	47.60345	0.35403	 	316489.4893	 	2.21785E-5	 	26631.19354	36.16435	 
1160.0	1.0	0.0	7.8277	7.45885	-5.11673	19.15056	29.16505	1.20391	0.83063	129.29953	147.44085	47.75288	0.35384	 	341988.7616	 	2.04534E-5	 	26450.68827	36.10105	 
1155.0	1.0	0.0	7.83018	7.45649	-5.14678	19.13578	29.08448	1.20304	0.83123	129.68535	147.69009	47.90204	0.35365	 	369739.666	 	1.88523E-5	 	26270.49829	36.038	 
1150.0	1.0	0.0	7.83266	7.45413	-5.17677	19.12106	29.0039	1.20215	0.83184	130.07035	147.93793	48.05095	0.35346	 	399958.0163	 	1.73669E-5	 	26090.62249	35.97516	 
1145.0	1.0	0.0	7.83513	7.45178	-5.20671	19.10639	28.92332	1.20127	0.83245	130.45453	148.18437	48.19958	0.35327	 	432881.9315	 	1.59897E-5	 	25911.0597	35.91256	 
1140.0	1.0	0.0	7.8376	7.44943	-5.23659	19.09179	28.84274	1.20038	0.83307	130.83791	148.42942	48.34796	0.35309	 	468774.3033	 	1.47133E-5	 	25731.80881	35.85018	 
1135.0	1.0	0.0	7.84007	7.44708	-5.26642	19.07723	28.76215	1.19948	0.83369	131.22048	148.67308	48.49606	0.3529	 	507925.4986	 	1.35312E-5	 	25552.86868	35.78803	 
1133.59	1.0	0.0	7.84076	7.44642	-5.27483	19.07312	28.73939	1.19923	0.83387	131.32833	148.74161	48.53783	0.35285	 	519610.6455	 	1.32136E-5	 	25502.40922	 	 
1130.0	1.0	0.0	7.84252	7.44475	-5.29605	19.06318	28.68157	1.19858	0.83432	131.60274	148.91626	48.64409	0.35271	 	550674.9744	 	1.24364E-5	 	25373.93938	35.78586	 
1125.0	1.0	0.0	7.84497	7.44243	-5.32559	19.04936	28.60099	1.19767	0.83495	131.98436	149.15837	48.7919	0.35252	 	597369.468	 	1.14235E-5	 	25195.22214	35.74345	 
1120.0	1.0	0.0	7.84741	7.44011	-5.35508	19.03557	28.52041	1.19676	0.83559	132.36514	149.39905	48.93944	0.35234	 	648395.0705	 	1.04868E-5	 	25016.83359	35.67771	 
1117.7	1.0	0.0	7.84853	7.43905	-5.36861	19.02924	28.48337	1.19634	0.83588	132.53988	149.5092	49.00716	0.35225	 	673419.6899	 	1.00805E-5	 	24934.94782	 	 
1115.0	1.0	0.0	7.84998	7.43768	-5.38606	19.0165	28.44436	1.19566	0.83636	132.73977	149.60673	49.08566	0.35212	 	704069.9874	 	9.62293E-6	 	24835.63173	36.24037	 
1110.0	1.0	0.0	7.85266	7.43514	-5.41831	18.99291	28.37368	1.19432	0.8373	133.10963	149.78684	49.23094	0.35189	 	764862.7426	 	8.82617E-6	 	24652.08486	36.70938	 
1105.0	1.0	0.0	7.85533	7.43261	-5.4505	18.96931	28.30368	1.19294	0.83826	133.47938	149.96644	49.37622	0.35166	 	831393.6701	 	8.09052E-6	 	24468.86169	36.64463	 
1100.0	1.0	0.0	7.858	7.43009	-5.48263	18.94569	28.23377	1.19156	0.83924	133.84904	150.14556	49.52152	0.35142	 	904249.7541	 	7.41167E-6	 	24285.96019	36.5803	 
1095.0	1.0	0.0	7.86067	7.42757	-5.5147	18.92207	28.16384	1.19017	0.84022	134.2186	150.3242	49.66682	0.35119	 	984082.5764	 	6.78561E-6	 	24103.37842	36.51635	 
1091.02	1.0	0.0	7.86279	7.42556	-5.54017	18.90325	28.10819	1.18906	0.841	134.5126	150.466	49.78244	0.351	 	1053064.433	 	6.32267E-6	 	23958.33448	 	 
1090.0	1.0	0.0	7.86329	7.42509	-5.5462	18.90021	28.09201	1.18885	0.84115	134.5898	150.51265	49.81246	0.35097	 	1071699.826	 	6.20808E-6	 	23922.05152	36.26538	 
1085.0	1.0	0.0	7.86574	7.42277	-5.57567	18.88533	28.01281	1.18784	0.84187	134.96721	150.74025	49.95925	0.35077	 	1168191.393	 	5.67441E-6	 	23744.71557	35.46719	 
1080.0	1.0	0.0	7.86819	7.42046	-5.60507	18.87054	27.93355	1.18682	0.84259	135.34385	150.96682	50.10579	0.35058	 	1274163.473	 	5.18331E-6	 	23567.75329	35.39246	 
1075.0	1.0	0.0	7.87064	7.41816	-5.63441	18.85585	27.85424	1.1858	0.84331	135.71972	151.19235	50.25206	0.35039	 	1390624.37	 	4.73168E-6	 	23391.16065	35.31853	 
1070.0	1.0	0.0	7.87308	7.41585	-5.66368	18.84126	27.77487	1.18478	0.84404	136.09482	151.41684	50.39808	0.3502	 	1518697.668	 	4.31658E-6	 	23214.93372	35.24539	 
1065.0	1.0	0.0	7.87552	7.41356	-5.69288	18.82676	27.69545	1.18376	0.84477	136.46915	151.64029	50.54384	0.35001	 	1659636.218	 	3.93531E-6	 	23039.06861	35.17302	 
1060.0	1.0	0.0	7.87795	7.41127	-5.72202	18.81237	27.61598	1.18273	0.8455	136.8427	151.8627	50.68933	0.34982	 	1814838.396	 	3.58532E-6	 	22863.56152	35.10142	 
1055.0	1.0	0.0	7.88038	7.40898	-5.75109	18.79807	27.53646	1.18169	0.84624	137.21548	152.08405	50.83457	0.34963	 	1985865.65	 	3.26425E-6	 	22688.40868	35.03057	 
1050.0	1.0	0.0	7.88281	7.4067	-5.78009	18.78386	27.4569	1.18066	0.84699	137.58748	152.30435	50.97955	0.34944	 	2174463.271	 	2.96991E-6	 	22513.60644	34.96045	 
1045.0	1.0	0.0	7.88523	7.40443	-5.80904	18.76976	27.37729	1.17962	0.84773	137.95871	152.52359	51.12427	0.34925	 	2382583.271	 	2.70025E-6	 	22339.15117	34.89105	 
1040.0	1.0	0.0	7.88765	7.40216	-5.83791	18.75576	27.29763	1.17857	0.84849	138.32916	152.74177	51.26872	0.34906	 	2612410.686	 	2.45335E-6	 	22165.03934	34.82237	 
1038.85	1.0	0.0	7.8882	7.40164	-5.84453	18.75255	27.27934	1.17833	0.84866	138.41409	152.7917	51.30185	0.34902	 	2668487.387	 	2.3997E-6	 	22125.11621	 	 
1035.0	1.0	0.0	7.8917	7.39836	-5.88623	18.66959	27.14516	1.18068	0.84697	138.99839	153.03956	51.53338	0.34862	 	2893053.507	 	2.20693E-6	 	21908.34699	51.33847	 
1030.0	1.0	0.0	7.89617	7.39417	-5.93953	18.56399	26.97583	1.18355	0.84492	139.73747	153.35139	51.82643	0.34813	 	3214923.485	 	1.97838E-6	 	21630.80874	55.50765	 
1025.0	1.0	0.0	7.90057	7.39005	-5.99195	18.46066	26.81149	1.18623	0.843	140.4559	153.65279	52.11149	0.34765	 	3575108.952	 	1.77224E-6	 	21357.42351	54.67705	 
1020.0	1.0	0.0	7.90491	7.386	-6.04351	18.3595	26.65166	1.18875	0.84122	141.15484	153.9445	52.38901	0.34718	 	3978472.369	 	1.58642E-6	 	21088.01864	53.88097	 
1015.0	1.0	0.0	7.90918	7.38201	-6.09426	18.2604	26.49604	1.19111	0.83955	141.83539	154.2272	52.65939	0.34672	 	4430532.107	 	1.41905E-6	 	20822.42931	53.11787	 
1010.0	1.0	0.0	7.91339	7.37808	-6.14422	18.16328	26.34441	1.19331	0.838	142.49855	154.50148	52.92302	0.34628	 	4937556.795	 	1.26839E-6	 	20560.49812	52.38624	 
1005.0	1.0	0.0	7.91754	7.37421	-6.19343	18.06805	26.19655	1.19537	0.83656	143.14527	154.76789	53.18026	0.34585	 	5506673.412	 	1.13287E-6	 	20302.07473	51.68468	 
1000.0	1.0	0.0	7.92164	7.3704	-6.24191	17.97463	26.05225	1.19729	0.83522	143.77642	155.02694	53.43146	0.34543	 	6145991.797	 	1.01105E-6	 	20047.01553	51.01184	 
995.0	1.0	0.0	7.92568	7.36664	-6.2897	17.88293	25.91133	1.19908	0.83397	144.39282	155.27906	53.67691	0.34502	 	6864748.74	 	9.01639E-7	 	19795.18329	50.36645	 
990.0	1.0	0.0	7.92966	7.36294	-6.33681	17.79287	25.77361	1.20073	0.83283	144.99525	155.52468	53.91693	0.34462	 	7673474.081	 	8.03433E-7	 	19546.44694	49.74727	 
985.0	1.0	0.0	7.9336	7.35929	-6.38329	17.70438	25.63892	1.20226	0.83177	145.58443	155.76419	54.15178	0.34423	 	8584182.187	 	7.15353E-7	 	19300.68118	49.15315	 
980.0	1.0	0.0	7.93749	7.35568	-6.42914	17.61738	25.5071	1.20367	0.83079	146.16101	155.99793	54.38173	0.34384	 	9610595.389	 	6.36414E-7	 	19057.76632	48.58297	 
975.0	1.0	0.0	7.94133	7.35212	-6.47441	17.53182	25.37801	1.20497	0.8299	146.72564	156.22622	54.60702	0.34347	 	1.076840053E7	 	5.65721E-7	 	18817.58798	48.03567	 
970.0	1.0	0.0	7.94513	7.34861	-6.5191	17.4476	25.25151	1.20615	0.82908	147.27892	156.44936	54.82787	0.3431	 	1.20755467E7	 	5.02462E-7	 	18580.03689	47.51022	 
965.0	1.0	0.0	7.94888	7.34514	-6.56324	17.36469	25.12745	1.20723	0.82834	147.82139	156.66764	55.04451	0.34274	 	1.355259307E7	 	4.459E-7	 	18345.00862	47.00565	 
960.0	1.0	0.0	7.95259	7.34171	-6.60685	17.283	25.00572	1.20821	0.82767	148.35359	156.8813	55.25714	0.34239	 	1.522311081E7	 	3.95366E-7	 	18112.40344	46.52104	 
955.0	1.0	0.0	7.95626	7.33832	-6.64995	17.20248	24.8862	1.20909	0.82707	148.876	157.09059	55.46595	0.34205	 	1.711414984E7	 	3.50254E-7	 	17882.12605	46.05548	 
950.0	1.0	0.0	7.9599	7.33497	-6.69257	17.12307	24.76877	1.20988	0.82653	149.3891	157.29572	55.67112	0.34171	 	1.925678625E7	 	3.10015E-7	 	17654.08544	45.60812	 
945.0	1.0	0.0	7.96349	7.33166	-6.73471	17.04472	24.65333	1.21057	0.82605	149.89333	157.4969	55.87282	0.34138	 	2.168675408E7	 	2.74153E-7	 	17428.19465	45.17816	 
940.0	1.0	0.0	7.96706	7.32838	-6.77639	16.96736	24.53979	1.21118	0.82564	150.38909	157.69433	56.07122	0.34105	 	2.444518906E7	 	2.42219E-7	 	17204.37065	44.7648	 
935.0	1.0	0.0	7.97058	7.32514	-6.81764	16.89096	24.42804	1.21171	0.82528	150.87678	157.88819	56.26646	0.34073	 	2.757949278E7	 	2.13807E-7	 	16982.53414	44.3673	 
930.0	1.0	0.0	7.97408	7.32193	-6.85847	16.81546	24.318	1.21215	0.82498	151.35676	158.07863	56.45869	0.34042	 	3.114434622E7	 	1.8855E-7	 	16762.60933	43.98496	 
925.0	1.0	0.0	7.97754	7.31875	-6.89889	16.7408	24.20959	1.21252	0.82473	151.8294	158.26584	56.64805	0.34011	 	3.520289014E7	 	1.66119E-7	 	16544.52392	43.61708	 
920.0	1.0	0.0	7.98097	7.31561	-6.93892	16.66695	24.10273	1.21282	0.82453	152.29501	158.44994	56.83466	0.33981	 	3.98281217E7	 	1.46215E-7	 	16328.20882	43.26302	 
915.0	1.0	0.0	7.98437	7.31249	-6.97858	16.59386	23.99734	1.21304	0.82438	152.75391	158.63109	57.01865	0.33951	 	4.510451442E7	 	1.2857E-7	 	16113.59804	42.92215	 
910.0	1.0	0.0	7.98775	7.3094	-7.01786	16.52149	23.89337	1.21319	0.82427	153.20639	158.80942	57.20013	0.33921	 	5.112994007E7	 	1.12941E-7	 	15900.62859	42.59389	 
905.0	1.0	0.0	7.99109	7.30634	-7.0568	16.44979	23.79073	1.21327	0.82422	153.65274	158.98505	57.37922	0.33892	 	5.801791588E7	 	9.91118E-8	 	15689.2403	42.27766	 
900.0	1.0	0.0	7.99441	7.30331	-7.0954	16.37872	23.68938	1.21329	0.8242	154.09322	159.15811	57.55601	0.33864	 	6.59002527E7	 	8.68867E-8	 	15479.37572	41.97292	 
895.0	1.0	0.0	7.99771	7.3003	-7.13366	16.30825	23.58925	1.21325	0.82423	154.52809	159.3287	57.7306	0.33836	 	7.493018732E7	 	7.60902E-8	 	15270.97996	41.67915	 
890.0	1.0	0.0	8.00098	7.29731	-7.17161	16.23833	23.49029	1.21315	0.8243	154.95758	159.49694	57.9031	0.33808	 	8.528606117E7	 	6.65648E-8	 	15064.00064	41.39586	 
885.0	1.0	0.0	8.00422	7.29435	-7.20926	16.16894	23.39245	1.21298	0.82441	155.38192	159.66293	58.07358	0.3378	 	9.717568814E7	 	5.81693E-8	 	14858.38769	41.12259	 
880.0	1.0	0.0	8.00744	7.29142	-7.24661	16.10003	23.29568	1.21276	0.82456	155.80133	159.82676	58.24214	0.33753	 	1.108415002E8	 	5.07774E-8	 	14654.09327	40.85888	 
875.0	1.0	0.0	8.01064	7.28851	-7.28367	16.03157	23.19994	1.21249	0.82475	156.21602	159.98854	58.40885	0.33726	 	1.265666745E8	 	4.42758E-8	 	14451.07147	40.60436	 
870.0	1.0	0.0	8.01382	7.28561	-7.32045	15.96354	23.10519	1.21216	0.82497	156.62617	160.14835	58.57379	0.337	 	1.446823656E8	 	3.85633E-8	 	14249.2791	40.35848	 
865.0	1.0	0.0	8.01698	7.28274	-7.35696	15.89589	23.01137	1.21178	0.82523	157.03198	160.30627	58.73703	0.33674	 	1.655763239E8	 	3.35496E-8	 	14048.67453	40.12091	 
860.0	1.0	0.0	8.02012	7.27989	-7.39322	15.8286	22.91847	1.21135	0.82553	157.43363	160.46241	58.89865	0.33648	 	1.897031159E8	 	2.91541E-8	 	13849.21801	39.8913	 
855.0	1.0	0.0	8.02324	7.27706	-7.42922	15.76164	22.82643	1.21086	0.82586	157.83129	160.61682	59.0587	0.33622	 	2.175963585E8	 	2.53047E-8	 	13650.87155	39.66929	 
850.0	1.0	0.0	8.02634	7.27425	-7.46497	15.69498	22.73524	1.21033	0.82622	158.22511	160.7696	59.21726	0.33597	 	2.49883212E8	 	2.19375E-8	 	13453.59887	39.45454	 
845.0	1.0	0.0	8.0286	7.27221	-7.49096	15.67206	22.66438	1.20871	0.82733	158.55834	160.95807	59.34877	0.33582	 	2.842046157E8	 	1.92024E-8	 	13294.40121	31.83953	 
840.0	1.0	0.0	8.03085	7.27017	-7.5169	15.64914	22.59352	1.20708	0.82845	158.89098	161.14565	59.48009	0.33567	 	3.236139981E8	 	1.67885E-8	 	13132.19363	32.44152	 
835.0	1.0	0.0	8.03309	7.26814	-7.54277	15.62621	22.52264	1.20544	0.82957	159.22305	161.33236	59.61122	0.33551	 	3.689201638E8	 	1.46606E-8	 	12970.22681	32.39336	 
830.0	1.0	0.0	8.03534	7.26611	-7.56858	15.60327	22.45175	1.20379	0.83071	159.55452	161.51819	59.74216	0.33536	 	4.210690579E8	 	1.2787E-8	 	12808.5001	32.34534	 
825.0	1.0	0.0	8.03758	7.26408	-7.59433	15.58033	22.38085	1.20213	0.83186	159.88542	161.70314	59.8729	0.33521	 	4.811684601E8	 	1.11391E-8	 	12647.0128	32.29746	 
820.0	1.0	0.0	8.03981	7.26206	-7.62003	15.55739	22.30994	1.20046	0.83301	160.21574	161.88722	60.00346	0.33505	 	5.505173856E8	 	9.6916E-9	 	12485.76422	32.24972	 
815.0	1.0	0.0	8.04204	7.26005	-7.64566	15.53444	22.23901	1.19878	0.83418	160.54547	162.07043	60.13382	0.3349	 	6.306411348E8	 	8.42157E-9	 	12324.75364	32.20212	 
810.0	1.0	0.0	8.04427	7.25804	-7.67123	15.51148	22.16807	1.19709	0.83536	160.87462	162.25277	60.264	0.33475	 	7.233331396E8	 	7.30865E-9	 	12163.98033	32.15466	 
805.0	1.0	0.0	8.04649	7.25603	-7.69674	15.48852	22.09713	1.19539	0.83655	161.20319	162.43425	60.39398	0.3346	 	8.307049949E8	 	6.3346E-9	 	12003.44355	32.10736	 
800.0	1.0	0.0	8.04871	7.25403	-7.72219	15.46555	22.02617	1.19368	0.83775	161.53117	162.61487	60.52377	0.33444	 	9.552463639E8	 	5.48317E-9	 	11843.1425	32.06021	 
795.0	1.0	0.0	8.05093	7.25204	-7.74758	15.44258	21.95519	1.19196	0.83896	161.85858	162.79463	60.65337	0.33429	 	1.099896811E9	 	4.73988E-9	 	11683.07642	32.01322	 
790.0	1.0	0.0	8.05314	7.25005	-7.77291	15.41961	21.88421	1.19023	0.84018	162.1854	162.97353	60.78278	0.33414	 	1.268132064E9	 	4.09182E-9	 	11523.24447	31.96639	 
785.0	1.0	0.0	8.05535	7.24806	-7.79818	15.39662	21.81321	1.18849	0.84141	162.51164	163.15158	60.912	0.33399	 	1.464067774E9	 	3.52755E-9	 	11363.64584	31.91973	 
780.0	1.0	0.0	8.05755	7.24608	-7.82339	15.37363	21.74219	1.18673	0.84265	162.8373	163.32878	61.04103	0.33383	 	1.692584487E9	 	3.03687E-9	 	11204.27964	31.87324	 
775.0	1.0	0.0	8.05975	7.2441	-7.84854	15.35064	21.67117	1.18497	0.8439	163.16238	163.50513	61.16986	0.33368	 	1.959478427E9	 	2.61078E-9	 	11045.14498	31.82693	 
770.0	1.0	0.0	8.06194	7.24213	-7.87363	15.32764	21.60013	1.1832	0.84517	163.48688	163.68063	61.29851	0.33353	 	2.271643696E9	 	2.24127E-9	 	10886.24097	31.7808	 
765.0	1.0	0.0	8.06413	7.24016	-7.89866	15.30464	21.52907	1.18141	0.84645	163.81079	163.85529	61.42696	0.33338	 	2.637292784E9	 	1.92127E-9	 	10727.56664	31.73487	 
760.0	1.0	0.0	8.06632	7.2382	-7.92363	15.28163	21.45801	1.17961	0.84773	164.13413	164.02911	61.55522	0.33323	 	3.066223887E9	 	1.64455E-9	 	10569.12101	31.68913	 
755.0	1.0	0.0	8.0685	7.23624	-7.94853	15.25862	21.38692	1.17781	0.84904	164.45688	164.2021	61.6833	0.33307	 	3.570145496E9	 	1.40559E-9	 	10410.90306	31.64359	 
750.0	1.0	0.0	8.07068	7.23429	-7.97338	15.2356	21.31583	1.17599	0.85035	164.77906	164.37424	61.81118	0.33292	 	4.163071185E9	 	1.19953E-9	 	10252.91175	31.59826	 
745.0	1.0	0.0	8.07286	7.23234	-7.99817	15.21257	21.24471	1.17416	0.85167	165.10065	164.54556	61.93886	0.33277	 	4.861800596E9	 	1.02212E-9	 	10095.14598	31.55315	 
740.0	1.0	0.0	8.07503	7.23039	-8.02289	15.18954	21.17359	1.17232	0.85301	165.42166	164.71604	62.06636	0.33262	 	5.686506438E9	 	8.69591E-10	 	9937.60461	31.50827	 
735.0	1.0	0.0	8.07719	7.22846	-8.04756	15.1665	21.10244	1.17047	0.85436	165.7421	164.8857	62.19366	0.33247	 	6.661452119E9	 	7.38657E-10	 	9780.28647	31.46363	 
730.0	1.0	0.0	8.07936	7.22652	-8.07217	15.14346	21.03128	1.1686	0.85572	166.06195	165.05453	62.32078	0.33232	 	7.815870624E9	 	6.26434E-10	 	9623.19032	31.41923	 
725.0	1.0	0.0	8.08151	7.22459	-8.09671	15.12042	20.96011	1.16672	0.8571	166.38122	165.22253	62.4477	0.33216	 	9.185042794E9	 	5.30397E-10	 	9466.3149	31.37508	 
720.0	1.0	0.0	8.08367	7.22267	-8.12119	15.09737	20.88891	1.16484	0.85849	166.69991	165.38972	62.57443	0.33201	 	1.08116E10	 	4.48343E-10	 	9309.65887	31.33121	 
715.0	1.0	0.0	8.08582	7.22075	-8.14562	15.07431	20.8177	1.16294	0.85989	167.01802	165.55609	62.70097	0.33186	 	1.2747299999999998E10	 	3.78349E-10	 	9153.22083	31.28761	 
710.0	1.0	0.0	8.08796	7.21883	-8.16998	15.05125	20.74648	1.16102	0.86131	167.33555	165.72165	62.82731	0.33171	 	1.5054699999999998E10	 	3.18739E-10	 	8996.99934	31.2443	 
705.0	1.0	0.0	8.0901	7.21692	-8.19428	15.02818	20.67523	1.1591	0.86274	167.6525	165.88639	62.95347	0.33156	 	1.781E10	 	2.68058E-10	 	8840.99286	31.20129	 
700.0	1.0	0.0	8.09224	7.21502	-8.21852	15.00511	20.60397	1.15716	0.86418	167.96887	166.05032	63.07943	0.33141	 	2.1106E10	 	2.2504E-10	 	8685.19983	31.15861	 
695.0	1.0	0.0	8.09437	7.21312	-8.2427	14.98203	20.53269	1.15521	0.86564	168.28467	166.21344	63.2052	0.33126	 	2.5055899999999996E10	 	1.8859E-10	 	8529.61856	31.11625	 
690.0	1.0	0.0	8.0965	7.21122	-8.26682	14.95894	20.4614	1.15325	0.86711	168.59988	166.37576	63.33078	0.33111	 	2.9798099999999996E10	 	1.57758E-10	 	8374.24731	31.07425	 
685.0	1.0	0.0	8.09862	7.20933	-8.29088	14.93586	20.39008	1.15128	0.8686	168.91451	166.53727	63.45617	0.33095	 	3.55019E10	 	1.31725E-10	 	8219.08425	31.03261	 
680.0	1.0	0.0	8.10074	7.20744	-8.31488	14.91276	20.31874	1.14929	0.8701	169.22856	166.69799	63.58136	0.3308	 	4.23753E10	 	1.09783E-10	 	8064.12742	30.99136	 
675.0	1.0	0.0	8.10286	7.20556	-8.33882	14.88966	20.24739	1.14729	0.87162	169.54203	166.8579	63.70636	0.33065	 	5.067399999999999E10	 	9.13227E-11	 	7909.37484	30.95052	 
670.0	1.0	0.0	8.10497	7.20368	-8.3627	14.86656	20.17602	1.14528	0.87315	169.85493	167.01702	63.83117	0.3305	 	6.071289999999999E10	 	7.58205E-11	 	7754.82435	30.9101	 
665.0	1.0	0.0	8.10708	7.20181	-8.38651	14.84345	20.10462	1.14325	0.8747	170.16724	167.17535	63.95579	0.33035	 	7.28808E10	 	6.28269E-11	 	7600.4737	30.87013	 
660.0	1.0	0.0	8.10918	7.19994	-8.41027	14.82033	20.03321	1.14121	0.87626	170.47898	167.33288	64.08022	0.3302	 	8.76588E10	 	5.19568E-11	 	7446.32617	30.82951	 
655.0	1.0	0.0	8.11128	7.19808	-8.43396	14.79721	19.96177	1.13916	0.87784	170.79013	167.48963	64.20445	0.33005	 	1.05643E11	 	4.28808E-11	 	7292.41303	30.78263	 
650.0	1.0	0.0	8.11337	7.19622	-8.45759	14.77409	19.89031	1.1371	0.87943	171.10071	167.64559	64.32849	0.3299	 	1.27575E11	 	3.53177E-11	 	7138.77579	30.72745	 
645.0	1.0	0.0	8.11546	7.19437	-8.48117	14.75095	19.81883	1.13502	0.88105	171.41071	167.80076	64.45234	0.32975	 	1.54377E11	 	2.9028E-11	 	6985.41357	30.67244	 
640.0	1.0	0.0	8.11755	7.19252	-8.50468	14.72782	19.74733	1.13292	0.88267	171.72013	167.95515	64.57599	0.3296	 	1.872E11	 	2.3808E-11	 	6832.32546	30.61762	 
635.0	1.0	0.0	8.11963	7.19068	-8.52813	14.70468	19.67581	1.13081	0.88432	172.02897	168.10877	64.69946	0.32945	 	2.27485E11	 	1.94846E-11	 	6679.5106	30.56297	 
630.0	1.0	0.0	8.12171	7.18884	-8.55152	14.68153	19.60426	1.12869	0.88598	172.33723	168.2616	64.82273	0.3293	 	2.77035E11	 	1.59115E-11	 	6526.96808	30.5085	 
625.0	1.0	0.0	8.12378	7.18701	-8.57485	14.65838	19.53269	1.12656	0.88766	172.64491	168.41366	64.9458	0.32915	 	3.38119E11	 	1.29648E-11	 	6374.69682	30.45425	 
620.0	1.0	0.0	8.12585	7.18518	-8.59811	14.63522	19.4611	1.12441	0.88936	172.95201	168.56495	65.06869	0.329	 	4.13594E11	 	1.05399E-11	 	6222.69541	30.40028	 
615.0	1.0	0.0	8.12791	7.18335	-8.62132	14.61205	19.38948	1.12224	0.89107	173.25854	168.71547	65.19138	0.32885	 	5.07066E11	 	8.54887E-12	 	6070.96325	30.34643	 
610.0	1.0	0.0	8.12997	7.18153	-8.64447	14.58889	19.31784	1.12006	0.89281	173.56449	168.86522	65.31388	0.3287	 	6.23097E11	 	6.91776E-12	 	5919.49945	30.29276	 
605.0	1.0	0.0	8.13202	7.17972	-8.66755	14.56571	19.24617	1.11787	0.89456	173.86985	169.0142	65.43619	0.32855	 	7.67479E11	 	5.58456E-12	 	5768.30317	30.23926	 
600.0	1.0	0.0	8.13407	7.17791	-8.69057	14.54253	19.17448	1.11566	0.89633	174.17464	169.16242	65.5583	0.3284	 	9.47576E11	 	4.4974E-12	 	5617.37355	30.18592	 
595.0	1.0	0.0	8.13612	7.1761	-8.71353	14.51935	19.10276	1.11343	0.89812	174.47886	169.30987	65.68022	0.32825	 	1.17278E12	 	3.61298E-12	 	5466.7097	30.13277	 
590.0	1.0	0.0	8.13816	7.1743	-8.73644	14.49616	19.03101	1.1112	0.89993	174.78249	169.45657	65.80195	0.3281	 	1.45509E12	 	2.89523E-12	 	5316.31077	30.07979	 
585.0	1.0	0.0	8.1402	7.17251	-8.75928	14.47296	18.95924	1.10894	0.90176	175.08554	169.60251	65.92348	0.32795	 	1.80991E12	 	2.31416E-12	 	5166.17589	30.02697	 
580.0	1.0	0.0	8.14223	7.17072	-8.78205	14.44976	18.88744	1.10667	0.90361	175.38802	169.7477	66.04482	0.3278	 	2.25701E12	 	1.84492E-12	 	5016.30424	29.97433	 
575.0	1.0	0.0	8.14426	7.16893	-8.80477	14.42656	18.81561	1.10439	0.90548	175.68992	169.89213	66.16597	0.32765	 	2.8219E12	 	1.46696E-12	 	4866.69493	29.92186	 
570.0	1.0	0.0	8.14628	7.16715	-8.82743	14.40335	18.74375	1.10208	0.90737	175.99124	170.03581	66.28693	0.3275	 	3.53753E12	 	1.1633E-12	 	4717.34714	29.86956	 
565.0	1.0	0.0	8.1483	7.16537	-8.85002	14.38013	18.67186	1.09977	0.90928	176.29199	170.17874	66.40769	0.32735	 	4.44661E12	 	9.19983E-13	 	4568.26001	29.81743	 
560.0	1.0	0.0	8.15032	7.1636	-8.87256	14.35691	18.59994	1.09743	0.91122	176.59215	170.32093	66.52825	0.3272	 	5.60467E12	 	7.25537E-13	 	4419.43268	29.76547	 
555.0	1.0	0.0	8.15233	7.16184	-8.89503	14.33368	18.528	1.09508	0.91317	176.89174	170.46237	66.64863	0.32705	 	7.08411E12	 	5.70572E-13	 	4270.86434	29.71367	 
550.0	1.0	0.0	8.15433	7.16007	-8.91744	14.31045	18.45602	1.09272	0.91515	177.19075	170.60307	66.76881	0.3269	 	8.97959E12	 	4.47414E-13	 	4122.55413	29.66204	 
545.0	1.0	0.0	8.15634	7.15832	-8.93979	14.28721	18.38401	1.09033	0.91715	177.48918	170.74303	66.8888	0.32675	 	1.14153E13	 	3.49811E-13	 	3974.50123	29.61058	 
540.0	1.0	0.0	8.15833	7.15656	-8.96208	14.26397	18.31196	1.08793	0.91917	177.78704	170.88226	67.00859	0.3266	 	1.45545E13	 	2.72684E-13	 	3826.70479	29.55929	 
535.0	1.0	0.0	8.16032	7.15482	-8.9843	14.24072	18.23989	1.08552	0.92122	178.08432	171.02074	67.12819	0.32645	 	1.86129E13	 	2.11916E-13	 	3679.164	29.50816	 
530.0	1.0	0.0	8.16231	7.15307	-9.00647	14.21747	18.16778	1.08308	0.92329	178.38102	171.1585	67.24759	0.3263	 	2.3876E13	 	1.64181E-13	 	3531.87802	29.4572	 
525.0	1.0	0.0	8.1643	7.15134	-9.02857	14.19421	18.09563	1.08063	0.92539	178.67714	171.29552	67.36681	0.32615	 	3.0723E13	 	1.26797E-13	 	3384.84605	29.4064	 
520.0	1.0	0.0	8.16627	7.1496	-9.05062	14.17094	18.02345	1.07816	0.92751	178.97269	171.43181	67.48582	0.326	 	3.96594E13	 	9.76103E-14	 	3238.06725	29.35576	 
515.0	1.0	0.0	8.16825	7.14788	-9.0726	14.14767	17.95124	1.07567	0.92965	179.26765	171.56738	67.60465	0.32585	 	5.13613E13	 	7.48962E-14	 	3091.54075	29.3053	 
510.0	1.0	0.0	8.17022	7.14615	-9.09452	14.1244	17.87899	1.07317	0.93182	179.56204	171.70221	67.72328	0.3257	 	6.67359E13	 	5.7276E-14	 	2945.26558	29.25503	 
505.0	1.0	0.0	8.17218	7.14444	-9.11637	14.10112	17.8067	1.07065	0.93402	179.85586	171.83633	67.84171	0.32556	 	8.7005E13	 	4.36522E-14	 	2799.24099	29.20492	 
500.0	1.0	0.0	8.17414	7.14272	-9.13817	14.07783	17.73437	1.06811	0.93624	180.1491	171.96972	67.95996	0.32541	 	1.1382E14	 	3.31537E-14	 	2653.46619	29.15496	 
495.0	1.0	0.0	8.1761	7.14101	-9.15991	14.05454	17.662	1.06555	0.93849	180.44176	172.1024	68.078	0.32526	 	1.49421E14	 	2.50912E-14	 	2507.9404	29.10516	 
490.0	1.0	0.0	8.17805	7.13931	-9.18158	14.03125	17.5896	1.06297	0.94076	180.73384	172.23436	68.19586	0.32511	 	1.96859E14	 	1.89209E-14	 	2362.66286	29.05551	 
485.0	1.0	0.0	8.18	7.13761	-9.20319	14.00795	17.51715	1.06037	0.94307	181.02534	172.3656	68.31352	0.32496	 	2.6030099999999997E14	 	1.42156E-14	 	2217.63277	29.00602	 
480.0	1.0	0.0	8.18194	7.13592	-9.22474	13.98464	17.44466	1.05775	0.9454	181.31627	172.49613	68.43098	0.32481	 	3.45469E14	 	1.06404E-14	 	2072.84938	28.95668	 
475.0	1.0	0.0	8.18388	7.13423	-9.24623	13.96133	17.37213	1.05512	0.94776	181.60662	172.62595	68.54825	0.32466	 	4.6024E14	 	7.93398E-15	 	1928.31192	28.90749	 
470.0	1.0	0.0	8.18581	7.13254	-9.26766	13.93801	17.29956	1.05246	0.95015	181.8964	172.75506	68.66533	0.32451	 	6.15512E14	 	5.89287E-15	 	1784.01963	28.85846	 
465.0	1.0	0.0	8.18774	7.13086	-9.28902	13.91469	17.22694	1.04979	0.95257	182.1856	172.88346	68.78221	0.32437	 	8.26416E14	 	4.35946E-15	 	1639.97176	28.80957	 
460.0	1.0	0.0	8.18966	7.12919	-9.31032	13.89136	17.15428	1.0471	0.95502	182.47422	173.01115	68.8989	0.32422	 	1.11405E15	 	3.21198E-15	 	1496.16756	28.76084	 
455.0	1.0	0.0	8.19158	7.12752	-9.33157	13.86803	17.08157	1.04438	0.9575	182.76227	173.13815	69.01539	0.32407	 	1.50798E15	 	2.35674E-15	 	1352.60627	28.71226	 
450.0	1.0	0.0	8.19349	7.12585	-9.35275	13.84469	17.00882	1.04165	0.96002	183.04974	173.26444	69.13169	0.32392	 	2.04976E15	 	1.72192E-15	 	1209.28719	28.66382	 
445.0	1.0	0.0	8.1954	7.12419	-9.37386	13.82134	16.93601	1.03889	0.96256	183.33663	173.39003	69.24779	0.32377	 	2.79812E15	 	1.25267E-15	 	1066.20956	28.61553	 
440.0	1.0	0.0	8.19731	7.12254	-9.39492	13.79799	16.86316	1.03612	0.96514	183.62294	173.51492	69.3637	0.32362	 	3.83641E15	 	9.07282E-16	 	923.37267	28.56738	 
435.0	1.0	0.0	8.19921	7.12089	-9.41592	13.77464	16.79026	1.03332	0.96776	183.90868	173.63912	69.47941	0.32348	 	5.28348E15	 	6.54172E-16	 	780.77579	28.51938	 
430.0	1.0	0.0	8.2011	7.11924	-9.43685	13.75128	16.7173	1.0305	0.9704	184.19385	173.76263	69.59493	0.32333	 	7.30955E15	 	4.69509E-16	 	638.41821	28.47152	 
425.0	1.0	0.0	8.20299	7.1176	-9.45772	13.72792	16.64429	1.02766	0.97308	184.47843	173.88544	69.71025	0.32318	 	1.01597E16	 	3.35393E-16	 	496.29931	28.42378	 
420.0	1.0	0.0	8.20488	7.11597	-9.47853	13.70454	16.57123	1.0248	0.9758	184.76244	174.00756	69.82538	0.32303	 	1.41884E16	 	2.3844E-16	 	354.41827	28.37621	 
415.0	1.0	0.0	8.20676	7.11433	-9.49928	13.68117	16.49812	1.02192	0.97855	185.04588	174.129	69.94031	0.32288	 	1.99111E16	 	1.68684E-16	 	212.77471	28.32871	 
410.0	1.0	0.0	8.20863	7.11271	-9.51996	13.65779	16.42495	1.01901	0.98135	185.32873	174.24975	70.05505	0.32274	 	2.80809E16	 	1.18739E-16	 	71.36844	28.28126	 
405.0	1.0	0.0	8.21051	7.11109	-9.54058	13.6344	16.35172	1.01608	0.98417	185.61102	174.36981	70.16959	0.32259	 	3.98041E16	 	8.31543E-17	 	-69.80077	28.23384	 
400.0	1.0	0.0	8.21237	7.10947	-9.56114	13.61101	16.27843	1.01313	0.98704	185.89272	174.4892	70.28394	0.32244	 	5.67147E16	 	5.79299E-17	 	-210.73313	28.18647	 
395.0	1.0	0.0	8.21423	7.10786	-9.58164	13.58761	16.20508	1.01016	0.98994	186.17385	174.6079	70.39809	0.32229	 	8.12391E16	 	4.01417E-17	 	-351.4288	28.13913	 
390.0	1.0	0.0	8.21609	7.10625	-9.60208	13.56421	16.13167	1.00716	0.99289	186.45441	174.72592	70.51204	0.32215	 	1.17001E17	 	2.76637E-17	 	-491.888	28.09184	 
385.0	1.0	0.0	8.21794	7.10465	-9.62246	13.5408	16.05819	1.00414	0.99588	186.73438	174.84327	70.6258	0.322	 	1.69441E17	 	1.89581E-17	 	-632.11088	28.04458	 
380.0	1.0	0.0	8.21979	7.10305	-9.64277	13.51739	15.98465	1.0011	0.99891	187.01379	174.95994	70.73937	0.32185	 	2.4678E17	 	1.29178E-17	 	-772.09764	27.99735	 
375.0	1.0	0.0	8.22163	7.10146	-9.66302	13.49397	15.91105	0.99803	1.00198	187.29261	175.07594	70.85274	0.3217	 	3.61511E17	 	8.75066E-18	 	-911.84842	27.95016	 
370.0	1.0	0.0	8.22347	7.09988	-9.68321	13.47055	15.83738	0.99494	1.00509	187.57086	175.19126	70.96591	0.32156	 	5.32735E17	 	5.89234E-18	 	-1051.36335	27.90299	 
365.0	1.0	0.0	8.22531	7.09829	-9.70334	13.44712	15.76363	0.99182	1.00825	187.84854	175.30592	71.07889	0.32141	 	7.89841E17	 	3.94339E-18	 	-1190.6426	27.85585	 
360.0	1.0	0.0	8.22713	7.09672	-9.7234	13.42369	15.68982	0.98868	1.01145	188.12563	175.41991	71.19167	0.32126	 	1.17834E18	 	2.62255E-18	 	-1329.68628	27.80874	 
355.0	1.0	0.0	8.22896	7.09514	-9.7434	13.40025	15.61593	0.98551	1.0147	188.40216	175.53323	71.30425	0.32111	 	1.76915E18	 	1.73295E-18	 	-1468.49451	27.76164	 
350.0	1.0	0.0	8.23078	7.09358	-9.76335	13.3768	15.54197	0.98232	1.018	188.6781	175.64589	71.41664	0.32097	 	2.67358E18	 	1.13759E-18	 	-1607.0674	27.71458	 
345.0	1.0	0.0	8.23259	7.09201	-9.78322	13.35335	15.46794	0.9791	1.02134	188.95347	175.75789	71.52883	0.32082	 	4.06744E18	 	7.41753E-19	 	-1745.40502	27.66752	 
340.0	1.0	0.0	8.2344	7.09046	-9.80304	13.3299	15.39382	0.97586	1.02474	189.22827	175.86922	71.64083	0.32067	 	6.23049E18	 	4.80321E-19	 	-1883.50748	27.62049	 
335.0	1.0	0.0	8.2362	7.0889	-9.82279	13.30644	15.31962	0.97259	1.02818	189.50249	175.9799	71.75263	0.32053	 	9.61099E18	 	3.08837E-19	 	-2021.37482	27.57347	 
330.0	1.0	0.0	8.238	7.08735	-9.84249	13.28297	15.24534	0.96929	1.03168	189.77613	176.08992	71.86424	0.32038	 	1.49326E19	 	1.97141E-19	 	-2159.00712	27.52646	 
325.0	1.0	0.0	8.23979	7.08581	-9.86211	13.2595	15.17098	0.96597	1.03523	190.0492	176.19929	71.97565	0.32023	 	2.33723E19	 	1.24909E-19	 	-2296.4044	27.47946	 
320.0	1.0	0.0	8.24158	7.08427	-9.88168	13.23602	15.09653	0.96262	1.03883	190.3217	176.308	72.08686	0.32009	 	3.68594E19	 	7.85422E-20	 	-2433.56668	27.43246	 
315.0	1.0	0.0	8.24337	7.08274	-9.90119	13.21254	15.02198	0.95924	1.04249	190.59362	176.41606	72.19787	0.31994	 	5.85813E19	 	4.90022E-20	 	-2570.49399	27.38546	 
310.0	1.0	0.0	8.24515	7.08121	-9.92063	13.18905	14.94735	0.95583	1.04621	190.86496	176.52347	72.30869	0.31979	 	9.38469E19	 	3.03282E-20	 	-2707.1863	27.33846	 
305.0	1.0	0.0	8.24692	7.07969	-9.94001	13.16556	14.87262	0.9524	1.04998	191.13573	176.63023	72.41931	0.31965	 	1.51573E20	 	1.86169E-20	 	-2843.64361	27.29146	 
300.0	1.0	0.0	8.24869	7.07817	-9.95933	13.14206	14.7978	0.94894	1.05381	191.40592	176.73634	72.52974	0.3195	 	2.4686199999999997E20	 	1.13318E-20	 	-2979.86586	27.24445	 
295.0	1.0	0.0	8.25045	7.07666	-9.97858	13.11856	14.72288	0.94545	1.0577	191.67553	176.84181	72.63997	0.31935	 	4.05524E20	 	6.83807E-21	 	-3115.85299	27.19743	 
290.0	1.0	0.0	8.25221	7.07515	-9.99777	13.09505	14.64785	0.94192	1.06166	191.94458	176.94664	72.75	0.31921	 	6.72057E20	 	4.08983E-21	 	-3251.60494	27.15039	 
285.0	1.0	0.0	8.25397	7.07364	-10.0169	13.07154	14.57272	0.93837	1.06567	192.21304	177.05082	72.85983	0.31906	 	1.1239E21	 	2.42388E-21	 	-3387.1216	27.10333	 
280.0	1.0	0.0	8.25572	7.07214	-10.03597	13.04802	14.49749	0.93479	1.06975	192.48093	177.15436	72.96947	0.31891	 	1.89707E21	 	1.42313E-21	 	-3522.40286	27.05625	 
275.0	1.0	0.0	8.25746	7.07065	-10.05498	13.02449	14.42214	0.93118	1.0739	192.74825	177.25727	73.07891	0.31877	 	3.23288E21	 	8.27555E-22	 	-3657.44856	27.00914	 
270.0	1.0	0.0	8.2592	7.06916	-10.07392	13.00096	14.34668	0.92754	1.07812	193.01499	177.35954	73.18816	0.31862	 	5.56361E21	 	4.76485E-22	 	-3792.25857	26.962	 
265.0	1.0	0.0	8.26094	7.06768	-10.0928	12.97743	14.2711	0.92387	1.0824	193.28116	177.46117	73.2972	0.31848	 	9.67176E21	 	2.71572E-22	 	-3926.83267	26.91482	 
260.0	1.0	0.0	8.26267	7.0662	-10.11162	12.95389	14.1954	0.92017	1.08676	193.54675	177.56217	73.40605	0.31833	 	1.69886E22	 	1.53171E-22	 	-4061.17067	26.8676	 
255.0	1.0	0.0	8.26439	7.06472	-10.13037	12.93034	14.11957	0.91644	1.09118	193.81176	177.66254	73.51471	0.31818	 	3.01609E22	 	8.54673E-23	 	-4195.27233	26.82033	 
250.0	1.0	0.0	8.26611	7.06325	-10.14907	12.90679	14.04362	0.91267	1.09569	194.0762	177.76228	73.62316	0.31804	 	5.4136999999999996E22	 	4.71649E-23	 	-4329.13739	26.77301	 
245.0	1.0	0.0	8.26782	7.06179	-10.1677	12.88323	13.96754	0.90887	1.10027	194.34007	177.86139	73.73142	0.31789	 	9.827609999999999E22	 	2.57332E-23	 	-4462.76555	26.72563	 
240.0	1.0	0.0	8.26953	7.06033	-10.18626	12.85967	13.89132	0.90504	1.10493	194.60336	177.95988	73.83948	0.31775	 	1.8048799999999998E23	 	1.38766E-23	 	-4596.1565	26.67819	 
235.0	1.0	0.0	8.27124	7.05888	-10.20477	12.8361	13.81496	0.90117	1.10966	194.86607	178.05774	73.94734	0.3176	 	3.3546099999999996E23	 	7.39326E-24	 	-4729.30987	26.63067	 
230.0	1.0	0.0	8.27294	7.05743	-10.22321	12.81253	13.73846	0.89727	1.11449	195.12822	178.15497	74.055	0.31745	 	6.3123E23	 	3.89042E-24	 	-4862.22529	26.58308	 
225.0	1.0	0.0	8.27463	7.05598	-10.24159	12.78895	13.66181	0.89334	1.11939	195.38978	178.25159	74.16247	0.31731	 	1.20294E24	 	2.02117E-24	 	-4994.90234	26.53541	 
220.0	1.0	0.0	8.27632	7.05454	-10.25991	12.76537	13.58501	0.88938	1.12438	195.65077	178.34758	74.26974	0.31716	 	2.3226300000000001E24	 	1.0363E-24	 	-5127.34057	26.48765	 
215.0	1.0	0.0	8.278	7.05311	-10.27816	12.74178	13.50804	0.88537	1.12947	195.91119	178.44296	74.37681	0.31702	 	4.54537E24	 	5.24169E-25	 	-5259.53947	26.43978	 
210.0	1.0	0.0	8.27968	7.05168	-10.29635	12.71819	13.43092	0.88134	1.13464	196.17103	178.53771	74.48369	0.31687	 	9.01972E24	 	2.61442E-25	 	-5391.49852	26.39181	 
205.0	1.0	0.0	8.28135	7.05025	-10.31448	12.69459	13.35363	0.87727	1.13991	196.4303	178.63186	74.59036	0.31673	 	1.81569E25	 	1.28531E-25	 	-5523.21715	26.34372	 
200.0	1.0	0.0	8.28302	7.04883	-10.33254	12.67099	13.27617	0.87316	1.14527	196.68899	178.72538	74.69684	0.31658	 	3.70947E25	 	6.22549E-26	 	-5654.69473	26.29552	 
195.0	1.0	0.0	8.28469	7.04742	-10.35055	12.64738	13.19852	0.86901	1.15073	196.94711	178.8183	74.80312	0.31644	 	7.695030000000001E25	 	2.96935E-26	 	-5785.93059	26.24717	 
190.0	1.0	0.0	8.28634	7.04601	-10.36849	12.62376	13.12069	0.86483	1.1563	197.20465	178.91061	74.9092	0.31629	 	1.62162E26	 	1.39398E-26	 	-5916.92405	26.19869	 
185.0	1.0	0.0	8.288	7.0446	-10.38636	12.60014	13.04268	0.86061	1.16196	197.46162	179.0023	75.01508	0.31615	 	3.473420000000001E26	 	6.4378E-27	 	-6047.67431	26.15005	 
180.0	1.0	0.0	8.28965	7.0432	-10.40418	12.57652	12.96446	0.85635	1.16774	197.71801	179.09339	75.12077	0.316	 	7.565950000000001E26	 	2.92324E-27	 	-6178.18057	26.10125	 
175.0	1.0	0.0	8.29129	7.0418	-10.42193	12.55289	12.88604	0.85206	1.17363	197.97383	179.18387	75.22625	0.31586	 	1.67693E27	 	1.30435E-27	 	-6308.44195	26.05228	 
170.0	1.0	0.0	8.29293	7.04041	-10.43962	12.52925	12.8074	0.84773	1.17963	198.22907	179.27375	75.33154	0.31571	 	3.78413E27	 	5.71573E-28	 	-6438.45752	26.00311	 
165.0	1.0	0.0	8.29456	7.03903	-10.45724	12.50561	12.72855	0.84335	1.18574	198.48374	179.36302	75.43663	0.31557	 	8.69929E27	 	2.45825E-28	 	-6568.22626	25.95375	 
160.0	1.0	0.0	8.29619	7.03765	-10.4748	12.48196	12.64948	0.83894	1.19198	198.73784	179.4517	75.54152	0.31542	 	2.03867E28	 	1.037E-28	 	-6697.74713	25.90417	 
155.0	1.0	0.0	8.29781	7.03627	-10.4923	12.45831	12.57016	0.83449	1.19834	198.99136	179.53977	75.64621	0.31528	 	4.87361E28	 	4.28778E-29	 	-6827.01898	25.85437	 
150.0	1.0	0.0	8.29942	7.0349	-10.50974	12.43465	12.49061	0.83	1.20482	199.2443	179.62724	75.7507	0.31513	 	1.18932E29	 	1.73653E-29	 	-6956.04058	25.80432	 
145.0	1.0	0.0	8.30104	7.03354	-10.52711	12.41099	12.4108	0.82546	1.21144	199.49667	179.71412	75.855	0.31499	 	2.96491E29	 	6.88346E-30	 	-7084.81066	25.75401	 
140.0	1.0	0.0	8.30264	7.03218	-10.54442	12.38732	12.33073	0.82089	1.21819	199.74847	179.8004	75.95909	0.31484	 	7.556620000000001E29	 	2.6685E-30	 	-7213.32783	25.70343	 
135.0	1.0	0.0	8.30424	7.03082	-10.56167	12.36365	12.25039	0.81627	1.22508	199.99969	179.88609	76.06299	0.3147	 	1.9706E30	 	1.0109E-30	 	-7341.59062	25.65256	 
130.0	1.0	0.0	8.30584	7.02947	-10.57885	12.33997	12.16977	0.81162	1.23211	200.25034	179.97118	76.16669	0.31455	 	5.26253E30	 	3.73903E-31	 	-7469.59747	25.60137	 
125.0	1.0	0.0	8.30743	7.02812	-10.59597	12.31629	12.08885	0.80691	1.23929	200.50042	180.05569	76.27018	0.31441	 	1.44047E31	 	1.34905E-31	 	-7597.3467	25.54985	 
120.0	1.0	0.0	8.30901	7.02678	-10.61303	12.2926	12.00763	0.80217	1.24662	200.74991	180.1396	76.37348	0.31426	 	4.04519E31	 	4.74358E-32	 	-7724.83655	25.49797	 
115.0	1.0	0.0	8.31059	7.02545	-10.63002	12.2689	11.9261	0.79738	1.2541	200.99884	180.22293	76.47658	0.31412	 	1.16661E32	 	1.62391E-32	 	-7852.06514	25.44572	 
110.0	1.0	0.0	8.31217	7.02411	-10.64696	12.2452	11.84424	0.79255	1.26175	201.24719	180.30567	76.57948	0.31398	 	3.45874E32	 	5.40677E-33	 	-7979.03044	25.39306	 
105.0	1.0	0.0	8.31374	7.02279	-10.66382	12.2215	11.76203	0.78768	1.26956	201.49497	180.38782	76.68218	0.31383	 	1.0553400000000001E33	 	1.74888E-33	 	-8105.73032	25.33998	 
100.0	1.0	0.0	8.3153	7.02147	-10.68063	12.19779	11.67947	0.78276	1.27754	201.74217	180.46939	76.78468	0.31369	 	3.31779E33	 	5.48935E-34	 	-8232.16249	25.28643	 
95.0	1.0	0.0	8.31686	7.02015	-10.69737	12.17407	11.59654	0.77779	1.28569	201.9888	180.55038	76.88699	0.31354	 	1.07602E34	 	1.66991E-34	 	-8358.32452	25.23241	 
90.0	1.0	0.0	8.31842	7.01884	-10.71405	12.15035	11.51322	0.77278	1.29403	202.23485	180.63078	76.98909	0.3134	 	3.60462E34	 	4.91715E-35	 	-8484.21383	25.17786	 
85.0	1.0	0.0	8.31996	7.01753	-10.73066	12.12662	11.4295	0.76772	1.30256	202.48033	180.71061	77.09099	0.31326	 	1.2489899999999998E35	 	1.39956E-35	 	-8609.82766	25.12277	 
80.0	1.0	0.0	8.32151	7.01623	-10.74721	12.10289	11.34536	0.76262	1.31127	202.72523	180.78986	77.19269	0.31311	 	4.4827199999999996E35	 	3.84507E-36	 	-8735.16308	25.06708	 
75.0	1.0	0.0	8.32304	7.01494	-10.7637	12.07916	11.26077	0.75747	1.32019	202.96956	180.86853	77.2942	0.31297	 	1.6690299999999998E36	 	1.0181E-36	 	-8860.21694	25.01077	 
70.0	1.0	0.0	8.32458	7.01365	-10.78013	12.05541	11.17573	0.75227	1.32931	203.21332	180.94663	77.3955	0.31282	 	6.45693E36	 	2.59385E-37	 	-8984.9859	24.95379	 
65.0	1.0	0.0	8.3261	7.01236	-10.79649	12.03167	11.09021	0.74703	1.33864	203.4565	181.02416	77.4966	0.31268	 	2.59994E37	 	6.34795E-38	 	-9109.46639	24.8961	 
60.0	1.0	0.0	8.32762	7.01108	-10.81279	12.00791	11.00419	0.74173	1.34819	203.69911	181.10111	77.5975	0.31254	 	1.09158E38	 	1.4896E-38	 	-9233.65461	24.83764	 
55.0	1.0	0.0	8.32914	7.0098	-10.82902	11.98415	10.91764	0.73639	1.35797	203.94114	181.17749	77.69821	0.31239	 	4.7878499999999995E38	 	3.34517E-39	 	-9357.54648	24.77838	 
50.0	1.0	0.0	8.33065	7.00853	-10.84519	11.96039	10.83054	0.731	1.36798	204.1826	181.2533	77.79871	0.31225	 	2.1983300000000002E39	 	7.1746E-40	 	-9481.13766	24.71824	 
45.0	1.0	0.0	8.33216	7.00727	-10.8613	11.93662	10.74286	0.72557	1.37823	204.42349	181.32854	77.89901	0.31211	 	1.05889E40	 	1.46645E-40	 	-9604.42349	24.65717	 
40.0	1.0	0.0	8.33366	7.006	-10.87734	11.91285	10.65457	0.72008	1.38873	204.6638	181.40322	77.99911	0.31196	 	5.36307E40	 	2.84987E-41	 	-9727.39902	24.5951	 
35.0	1.0	0.0	8.33515	7.00475	-10.89332	11.88907	10.56565	0.71455	1.39948	204.90354	181.47733	78.09901	0.31182	 	2.86312E41	 	5.25303E-42	 	-9850.05888	24.53197	 
30.0	1.0	0.0	8.33664	7.0035	-10.90924	11.86528	10.47605	0.70897	1.4105	205.1427	181.55087	78.19871	0.31168	 	1.61533E42	 	9.15974E-43	 	-9972.39739	24.4677	 
25.0	1.0	0.0	8.33812	7.00225	-10.92509	 	10.38576	0.70334	1.4218	205.38129	181.62386	78.29821	0.31153	 	9.657959999999999E42	 	1.50673E-43	 	-10094.40841	 	 
