T (C)	Fraction solid (wt)-TOTAL	Fraction liquid (wt)-LIQUID	Density (g/(cm)^3)-TOTAL	Molar volume (cm^3)-TOTAL	Volume change (%)-  	Average expansion coeff. (10e-6 1/K)-  	Thermal conductivity (W/(m*K))-TOTAL	Electrical resistivity (10e-6 Ohm*m)-TOTAL	Electrical conductivity (10e6 1/(Ohm*m))-TOTAL	Young's modulus (GPa)-TOTAL	Bulk modulus (GPa)-TOTAL	Shear modulus(GPa)-TOTAL	Poisson's ratio-TOTAL	Liquid viscosity (mPa s)-  	Total viscosity (mPa s)-  	Liquid diffusivity (10e-9 (m^2)/s)-  	Total diffusivity (10e-9 (m^2)/s)-  	Surface Tension (mN/m)-  	Enthalpy (J/mole)-TOTAL	Specific heat (J/(mole K))-TOTAL	Latent heat (J/mole)-TOTAL
1400.0	0.0	1.0	7.02592	7.89432	0.0	31.43383	28.83434	1.42164	0.70341	0.0	121.24254	0.0	0.5	6.50146	6.50146	1.25606	1.25606	1739.31767	51620.669	 	0.0
1395.0	0.0	1.0	7.02981	7.88995	-0.0553508	31.39641	28.75502	1.42131	0.70358	0.0	121.39748	0.0	0.5	6.56886	6.56886	1.23946	1.23946	1741.35866	51418.013	40.5312	0.0
1390.0	0.0	1.0	7.03369	7.8856	-0.11054	31.35916	28.6757	1.42097	0.70375	0.0	121.55242	0.0	0.5	6.63737	6.63737	1.22299	1.22299	1743.41579	51215.808	40.441	0.0
1385.0	0.0	1.0	7.03757	7.88125	-0.16558	31.32208	28.59638	1.42062	0.70392	0.0	121.70736	0.0	0.5	6.70701	6.70701	1.20665	1.20665	1745.48922	51014.05	40.3516	0.0
1380.0	0.0	1.0	7.04144	7.87692	-0.22045	31.28516	28.51707	1.42028	0.70409	0.0	121.86229	0.0	0.5	6.77782	6.77782	1.19044	1.19044	1747.57904	50812.738	40.2624	0.0
1375.0	0.0	1.0	7.0453	7.8726	-0.27517	31.24841	28.43775	1.41993	0.70426	0.0	122.01723	0.0	0.5	6.8498	6.8498	1.17437	1.17437	1749.68535	50611.87	40.1736	0.0
1370.0	0.0	1.0	7.04916	7.86829	-0.32972	31.21184	28.35843	1.41958	0.70443	0.0	122.17217	0.0	0.5	6.923	6.923	1.15843	1.15843	1751.80823	50411.442	40.0856	0.0
1365.0	0.0	1.0	7.05301	7.864	-0.38412	31.17544	28.27911	1.41923	0.70461	0.0	122.32711	0.0	0.5	6.99743	6.99743	1.14262	1.14262	1753.94776	50211.453	39.9978	0.0
1360.0	0.0	1.0	7.05685	7.85972	-0.43836	31.13921	28.19979	1.41888	0.70478	0.0	122.48205	0.0	0.5	7.07312	7.07312	1.12694	1.12694	1756.104	50011.901	39.9104	0.0
1355.0	0.0	1.0	7.06069	7.85545	-0.49244	31.10316	28.12047	1.41853	0.70496	0.0	122.63698	0.0	0.5	7.15011	7.15011	1.1114	1.1114	1758.27701	49812.783	39.8236	0.0
1350.0	0.0	1.0	7.06452	7.85119	-0.54636	31.06728	28.04115	1.41817	0.70513	0.0	122.79192	0.0	0.5	7.22841	7.22841	1.09598	1.09598	1760.46681	49614.097	39.7372	0.0
1345.0	0.0	1.0	7.06834	7.84695	-0.60013	31.03159	27.96183	1.41781	0.70531	0.0	122.94686	0.0	0.5	7.30807	7.30807	1.08069	1.08069	1762.67345	49415.841	39.6512	0.0
1340.0	0.0	1.0	7.07215	7.84272	-0.65373	30.99609	27.88251	1.41745	0.70549	0.0	123.1018	0.0	0.5	7.3891	7.3891	1.06554	1.06554	1764.89694	49218.013	39.5656	0.0
1335.0	0.0	1.0	7.07596	7.8385	-0.70718	30.96076	27.80319	1.41709	0.70567	0.0	123.25673	0.0	0.5	7.47155	7.47155	1.05052	1.05052	1767.13729	49020.611	39.4804	0.0
1331.67	0.0	1.0	7.07849	7.83569	-0.74272	30.93732	27.75032	1.41685	0.70579	0.0	123.36002	0.0	0.5	7.52731	7.52731	1.04057	1.04057	1768.64008	48889.257	39.40967	0.0
1330.0	0.04149	0.95851	7.08939	7.82352	-0.89689	30.53198	27.89506	1.40803	0.71021	2.69651E-4	123.53519	9.0216E-5	0.49448	7.55553	8.04646	1.03561	0.97243	1768.33125	48224.957	398.50986	598.673
1325.0	0.15482	0.84518	7.11953	7.7904	-1.31647	29.43407	28.29516	1.38379	0.72265	0.0534246	124.0536	0.0180579	0.47926	7.64036	22.50747	1.02092	0.34656	1767.50031	46401.119	364.7676	2225.953
1320.0	0.24992	0.75008	7.14535	7.76232	-1.67215	28.51348	28.63184	1.36324	0.73354	0.36964	124.55662	0.12604	0.46635	7.72605	104.9683	1.00644	0.0740773	1766.81304	44848.063	310.6112	3582.87
1317.05	0.29829	0.70171	7.15873	7.74779	-1.85622	28.04203	28.80236	1.35267	0.73928	0.75738	124.8453	0.25943	0.45972	7.777	209.14752	0.99799	0.0371097	1766.47283	44046.034	 	4269.535
1315.0	0.35676	0.64324	7.17456	7.73068	-2.07295	27.45405	29.01669	1.34094	0.74574	1.56604	125.3355	0.53945	0.45151	7.84481	428.48444	0.98809	0.0180902	1766.51839	43090.519	351.5088	5144.694
1310.0	0.47701	0.52299	7.20738	7.6954	-2.51989	26.25117	29.46992	1.31616	0.75979	5.14309	126.35847	1.79273	0.43443	8.00897	1431.3997	0.96479	0.00539819	1766.58798	41112.354	395.633	6927.551
1305.0	0.56708	0.43292	7.23252	7.66865	-2.85872	25.35692	29.8106	1.29701	0.771	10.51235	127.19602	3.69769	0.42148	8.17267	3026.00279	0.94248	0.00254546	1766.64158	39599.649	302.541	8245.363
1300.0	0.63626	0.36374	7.25232	7.64757	-3.1257	24.66786	30.07005	1.28175	0.78019	16.97861	127.91128	6.01479	0.4114	8.33609	5089.72048	0.92107	0.00150856	1768.6062	38405.27363	238.87507	9243.94
1295.0	0.69056	0.30944	7.26804	7.63156	-3.32847	24.16377	30.26173	1.26958	0.78766	23.92948	128.5048	8.52562	0.40339	8.4996	7501.97532	0.90048	0.00102023	1770.58086	37436.58124	193.73848	10016.95
1290.0	0.73398	0.26602	7.28104	7.61842	-3.49493	23.76378	30.40511	1.25956	0.79393	30.93624	129.047	11.0731	0.39691	8.66342	10177.84022	0.88064	7.49604E-4	1772.56533	36631.79078	160.95809	10626.502
1285.0	0.76924	0.23076	7.29202	7.60734	-3.63531	23.43855	30.5108	1.25119	0.79924	37.73805	129.55466	13.55929	0.39159	8.82788	13063.21421	0.86147	5.82165E-4	1774.55999	35948.54966	136.64822	11114.946
1280.0	0.79827	0.20173	7.30147	7.59777	-3.75654	23.1682	30.58687	1.24407	0.80381	44.19288	130.03874	15.92916	0.38717	8.99318	16128.55189	0.84292	4.70007E-4	1776.5651	35357.2513	118.25967	11511.886
1275.0	0.82247	0.17753	7.30975	7.58936	-3.86302	22.94011	30.63924	1.23794	0.80779	50.23186	130.50674	18.15466	0.38344	9.15973	19360.54553	0.82493	3.90285E-4	1778.58011	34836.73518	104.10322	11838.478
1270.0	0.84286	0.15714	7.3171	7.58183	-3.9585	22.74344	30.67252	1.23261	0.81129	55.83561	130.96303	20.22638	0.38027	9.32764	22758.50896	0.80746	3.30941E-4	1780.60594	34371.58063	93.03091	12110.144
1265.0	0.8602	0.1398	7.32373	7.57498	-4.04529	22.57159	30.69034	1.2279	0.8144	61.01431	131.41113	22.14624	0.37753	9.49727	26331.49603	0.79047	2.85108E-4	1782.64212	33950.34118	84.24789	12338.325
1260.0	0.87508	0.12492	7.32978	7.56868	-4.12502	22.41987	30.69537	1.22371	0.81719	65.78632	131.85336	23.91955	0.37516	9.66882	30091.87049	0.77392	2.48669E-4	1784.68826	33564.3873	77.19078	12531.648
1255.0	0.88793	0.11207	7.33536	7.56283	-4.19918	22.28398	30.68984	1.21994	0.81971	70.18298	132.291	25.55679	0.37308	9.84253	34058.07768	0.75778	2.18994E-4	1786.74458	33207.11532	71.4544	12696.716
1250.0	0.89913	0.10087	7.34055	7.55731	-4.26911	22.15997	30.67544	1.21652	0.82202	74.23727	132.72476	27.06938	0.37124	10.01863	38251.97556	0.74203	1.94346E-4	1788.81229	32873.40683	66.7417	12838.643
1245.0	0.90894	0.0910644	7.34542	7.55209	-4.33519	22.04684	30.65356	1.21339	0.82414	77.97845	133.15574	28.46745	0.36961	10.19731	42696.54119	0.72663	1.73544E-4	1790.88993	32559.24312	62.83274	12961.446
1240.0	0.91757	0.0824265	7.35002	7.54711	-4.39825	21.94215	30.6253	1.21051	0.8261	81.43693	133.58416	29.7618	0.36815	10.37886	47418.60705	0.71157	1.55747E-4	1792.97837	32261.43783	59.56106	13068.31
1235.0	0.92523	0.0747743	7.35439	7.54234	-4.45869	21.8447	30.59159	1.20784	0.82793	84.64145	134.01042	30.96271	0.36683	10.56349	52447.42803	0.69683	1.40348E-4	1795.07724	31977.43525	56.80052	13161.787
1230.0	0.93204	0.0679648	7.35857	7.53774	-4.51693	21.75337	30.5532	1.20535	0.82964	87.61757	134.43472	32.0794	0.36564	10.75131	57814.59278	0.68238	1.26897E-4	1797.18662	31705.16799	54.45345	13243.942
1225.0	0.93812	0.0618784	7.36259	7.53329	-4.57334	21.66699	30.51072	1.20301	0.83125	90.38819	134.85712	33.12016	0.36455	10.94265	63554.29796	0.66822	1.15053E-4	1799.30699	31442.94939	52.44372	13316.46
1220.0	0.94359	0.0564149	7.36647	7.52897	-4.62808	21.58515	30.46468	1.20081	0.83277	92.97382	135.27777	34.09244	0.36355	11.13772	69703.63419	0.65433	1.04553E-4	1801.43786	31189.39105	50.71167	13380.726
1215.0	0.94851	0.0514924	7.37022	7.52476	-4.68139	21.50715	30.41554	1.19872	0.83422	95.39334	135.69665	35.00312	0.36264	11.33668	76302.87778	0.64069	9.51903E-5	1803.57941	30943.34336	49.20954	13437.887
1210.0	0.95409	0.0459075	7.37439	7.52025	-4.73853	21.41632	30.36516	1.19667	0.83565	98.15154	136.15758	36.04202	0.36163	11.47227	83754.6585	0.63099	8.64297E-5	1805.74127	30681.4828	52.37211	13511.265
1205.0	0.95956	0.0404412	7.37869	7.51572	-4.79593	21.32392	30.31286	1.1947	0.83703	100.92509	136.63267	37.08765	0.36063	11.57751	91910.80699	0.62315	7.84944E-5	1807.92105	30419.15088	52.46638	13585.516
1200.0	0.96431	0.0356856	7.38283	7.5114	-4.85065	21.23927	30.25764	1.19283	0.83834	103.44552	137.09782	38.03881	0.35974	11.68774	100615.5817	0.61518	7.14609E-5	1810.11328	30167.86707	50.25676	13649.118
1195.0	0.97054	0.0294564	7.38735	7.50655	-4.9121	21.13227	30.21053	1.19063	0.83989	106.71572	137.61508	39.27399	0.35861	11.76687	110862.8173	0.60897	6.46355E-5	1812.25258	29892.33589	55.10624	13737.365
1190.0	0.97572	0.0242814	7.39165	7.50198	-4.96989	21.03617	30.15915	1.1886	0.84133	109.57271	138.11125	40.35433	0.35763	11.8512	121686.4795	0.60258	5.86858E-5	1814.40414	29633.61782	51.74361	13809.193
1185.0	0.98008	0.019916	7.39578	7.49765	-5.02478	20.94866	30.10435	1.18669	0.84268	112.103	138.59103	41.31211	0.35678	11.94095	133193.7458	0.59601	5.34324E-5	1816.56696	29387.80135	49.16329	13868.511
1180.0	0.98936	0.0106351	7.40211	7.49117	-5.10684	20.77184	30.04167	1.18509	0.84382	117.22825	139.29516	43.2527	0.35516	12.02366	148722.221	0.58988	4.76893E-5	1818.69936	29029.13901	71.73247	14041.065
1175.0	1.0	0.0	7.40939	7.48394	-5.19846	20.56212	29.96925	1.18387	0.84469	123.30219	140.08943	45.55594	0.35331	 	166971.832	 	4.23309E-5	 	28629.43829	79.94014	14255.044
1170.0	1.0	0.0	7.41196	7.48135	-5.23129	20.54397	29.88821	1.18298	0.84532	123.7887	140.46498	45.74194	0.35312	 	179892.1429	 	3.91549E-5	 	28450.72049	35.74356	 
1165.0	1.0	0.0	7.41452	7.47876	-5.26404	20.52589	29.80717	1.18209	0.84596	124.27428	140.83867	45.92764	0.35294	 	193911.8433	 	3.61982E-5	 	28275.04756	35.13459	 
1160.0	1.0	0.0	7.41708	7.47618	-5.29672	20.50789	29.72614	1.18119	0.8466	124.75892	141.21052	46.11305	0.35275	 	209132.7299	 	3.34469E-5	 	28099.6702	35.07547	 
1155.0	1.0	0.0	7.41964	7.47361	-5.32933	20.48998	29.6451	1.18029	0.84725	125.24263	141.58054	46.29816	0.35257	 	225666.7635	 	3.08882E-5	 	27924.58739	35.01656	 
1150.0	1.0	0.0	7.42219	7.47104	-5.36186	20.47214	29.56406	1.17938	0.84791	125.72542	141.94872	46.48297	0.35238	 	243637.1824	 	2.85098E-5	 	27749.79817	34.95784	 
1145.0	1.0	0.0	7.42473	7.46848	-5.39433	20.45439	29.48302	1.17846	0.84856	126.20728	142.31509	46.66748	0.3522	 	263179.7008	 	2.63E-5	 	27575.30155	34.89932	 
1140.0	1.0	0.0	7.42728	7.46592	-5.42672	20.43673	29.40198	1.17755	0.84922	126.68821	142.67965	46.85169	0.35201	 	284443.8657	 	2.42481E-5	 	27401.09655	34.841	 
1135.0	1.0	0.0	7.42982	7.46337	-5.45903	20.41915	29.32094	1.17662	0.84989	127.16822	143.04241	47.03561	0.35183	 	307594.5595	 	2.23438E-5	 	27227.18218	34.78287	 
1130.0	1.0	0.0	7.43235	7.46082	-5.49128	20.40166	29.23989	1.17569	0.85056	127.6473	143.40337	47.21923	0.35165	 	332813.7056	 	2.05774E-5	 	27053.55749	34.72494	 
1125.0	1.0	0.0	7.43488	7.45828	-5.52345	20.38425	29.15885	1.17476	0.85124	128.12546	143.76255	47.40255	0.35146	 	360302.1498	 	1.89397E-5	 	26880.22151	34.6672	 
1120.0	1.0	0.0	7.43741	7.45575	-5.55556	20.36694	29.0778	1.17382	0.85192	128.6027	144.11996	47.58558	0.35128	 	390281.7652	 	1.74223E-5	 	26707.17327	34.60965	 
1115.0	1.0	0.0	7.43993	7.45322	-5.58759	20.34971	28.99675	1.17288	0.8526	129.07902	144.4756	47.76831	0.35109	 	422997.8019	 	1.60171E-5	 	26534.41181	34.55229	 
1110.0	1.0	0.0	7.44245	7.4507	-5.61954	20.33258	28.9157	1.17193	0.85329	129.55442	144.82948	47.95074	0.35091	 	458721.5349	 	1.47166E-5	 	26361.93618	34.49513	 
1105.0	1.0	0.0	7.44497	7.44818	-5.65143	20.31554	28.83464	1.17098	0.85399	130.0289	145.18161	48.13288	0.35073	 	497753.2369	 	1.35135E-5	 	26189.74543	34.43815	 
1100.0	1.0	0.0	7.44748	7.44567	-5.68324	20.29859	28.75359	1.17002	0.85469	130.50246	145.532	48.31472	0.35055	 	540425.4653	 	1.24013E-5	 	26017.83863	34.38136	 
1095.0	1.0	0.0	7.44998	7.44316	-5.71498	20.28174	28.67252	1.16905	0.85539	130.9751	145.88066	48.49627	0.35036	 	587106.8193	 	1.13737E-5	 	25846.21482	34.32476	 
1090.0	1.0	0.0	7.45249	7.44066	-5.74665	20.26499	28.59146	1.16808	0.8561	131.44683	146.22759	48.67752	0.35018	 	638206.0665	 	1.04248E-5	 	25674.87309	34.26835	 
1086.73	1.0	0.0	7.45413	7.43903	-5.76737	20.25403	28.53836	1.16744	0.85657	131.7553	146.45387	48.79607	0.35006	 	674284.0554	 	9.84335E-6	 	25562.80273	 	 
1085.0	1.0	0.0	7.45579	7.43737	-5.78835	20.21247	28.47116	1.16872	0.85564	132.07449	146.66002	48.91979	0.34991	 	696132.9668	 	9.52231E-6	 	25458.38171	43.29828	 
1080.0	1.0	0.0	7.46055	7.43262	-5.84851	20.09352	28.28295	1.17216	0.85313	132.96716	147.22332	49.26635	0.34947	 	763967.8658	 	8.64485E-6	 	25159.35824	59.80469	 
1075.0	1.0	0.0	7.46523	7.42796	-5.90759	19.97732	28.10188	1.17535	0.85081	133.83304	147.76309	49.60286	0.34905	 	839113.6752	 	7.84159E-6	 	24865.54016	58.76361	 
1070.0	1.0	0.0	7.46984	7.42338	-5.96561	19.86384	27.92699	1.17833	0.84866	134.67808	148.28656	49.9315	0.34863	 	922420.8005	 	7.10693E-6	 	24576.70641	57.76675	 
1065.0	1.0	0.0	7.47437	7.41888	-6.02261	19.75298	27.75778	1.1811	0.84667	135.5043	148.79591	50.25299	0.34822	 	1014845.525	 	6.43564E-6	 	24292.64421	56.81244	 
1060.0	1.0	0.0	7.47883	7.41446	-6.07861	19.64464	27.59391	1.18367	0.84483	136.31293	149.29237	50.5678	0.34782	 	1117464.289	 	5.8228E-6	 	24013.14898	55.89905	 
1055.0	1.0	0.0	7.48321	7.41011	-6.13367	19.53871	27.43506	1.18606	0.84313	137.10497	149.7768	50.87632	0.34743	 	1231489.574	 	5.26384E-6	 	23738.0242	55.02496	 
1050.0	1.0	0.0	7.48753	7.40584	-6.18782	19.43509	27.28092	1.18827	0.84156	137.88128	150.24997	51.17885	0.34705	 	1358288.453	 	4.75449E-6	 	23467.08125	54.18859	 
1045.0	1.0	0.0	7.49179	7.40163	-6.2411	19.33367	27.13123	1.19031	0.84011	138.64266	150.71249	51.47569	0.34668	 	1499403.509	 	4.29075E-6	 	23200.13928	53.38839	 
1043.74	1.0	0.0	7.49285	7.40058	-6.25437	19.30849	27.09428	1.1908	0.83977	138.83175	150.82712	51.54944	0.34659	 	1537318.38	 	4.18094E-6	 	23133.66019	 	 
1040.0	1.0	0.0	7.49598	7.3975	-6.29348	19.23457	26.98575	1.19219	0.83879	139.3901	151.1654	51.76723	0.34632	 	1656608.256	 	3.86884E-6	 	22936.88531	52.65079	 
1035.0	1.0	0.0	7.5001	7.39343	-6.34504	19.13758	26.84423	1.19391	0.83758	140.12409	151.60892	52.05363	0.34596	 	1831858.762	 	3.4854E-6	 	22677.26019	51.92503	 
1030.0	1.0	0.0	7.50417	7.38942	-6.39584	19.04247	26.70643	1.19549	0.83648	140.84517	152.04336	52.33512	0.34561	 	2027373.103	 	3.13724E-6	 	22421.15142	51.22175	 
1025.0	1.0	0.0	7.50819	7.38546	-6.4459	18.94917	26.57216	1.19692	0.83548	141.55397	152.46917	52.61193	0.34526	 	2245675.844	 	2.8214E-6	 	22168.40622	50.54904	 
1020.0	1.0	0.0	7.51215	7.38157	-6.49526	18.85759	26.44121	1.19821	0.83458	142.25106	152.88679	52.88428	0.34493	 	2489628.575	 	2.53513E-6	 	21918.87865	49.90551	 
1015.0	1.0	0.0	7.51607	7.37772	-6.54395	18.76764	26.31339	1.19938	0.83377	142.93697	153.29659	53.15237	0.3446	 	2762478.153	 	2.27591E-6	 	21672.42949	49.28983	 
1010.0	1.0	0.0	7.51993	7.37393	-6.59199	18.67925	26.18853	1.20042	0.83304	143.61223	153.69895	53.41639	0.34427	 	3067911.716	 	2.04137E-6	 	21428.92589	48.70072	 
1005.0	1.0	0.0	7.52375	7.37019	-6.63941	18.59233	26.06646	1.20134	0.8324	144.27731	154.0942	53.67655	0.34395	 	3410120.628	 	1.82936E-6	 	21188.24121	48.13694	 
1000.0	1.0	0.0	7.52753	7.36649	-6.68624	18.50682	25.94703	1.20215	0.83184	144.93268	154.48266	53.933	0.34364	 	3793873.874	 	1.63788E-6	 	20950.25474	47.59729	 
995.0	1.0	0.0	7.53126	7.36284	-6.7325	18.42263	25.83009	1.20285	0.83136	145.57878	154.86463	54.18591	0.34333	 	4224603.348	 	1.46511E-6	 	20714.8514	47.08067	 
990.0	1.0	0.0	7.53495	7.35923	-6.77821	18.33971	25.71552	1.20344	0.83095	146.216	155.24038	54.43545	0.34302	 	4708501.477	 	1.30936E-6	 	20481.92159	46.58596	 
988.29	1.0	0.0	7.53621	7.35801	-6.7937	18.31167	25.6769	1.20362	0.83082	146.43167	155.36734	54.51993	0.34292	 	4887189.453	 	1.25978E-6	 	20402.91375	 	 
987.56	1.0	0.0	7.53806	7.35619	-6.81668	18.23576	25.64985	1.20419	0.83043	146.64254	155.45106	54.60419	0.34278	 	4982134.95	 	1.23505E-6	 	20317.32768	 	 
985.0	1.0	0.0	7.53993	7.35437	-6.83974	18.1939	25.5929	1.20442	0.83027	146.96404	155.64035	54.73014	0.34262	 	5270005.978	 	1.16522E-6	 	20199.32024	56.52027	 
980.0	1.0	0.0	7.54355	7.35084	-6.88443	18.11295	25.48315	1.2048	0.83001	147.58624	156.006	54.97397	0.34233	 	5885597.504	 	1.0392E-6	 	19970.4246	45.77913	 
975.0	1.0	0.0	7.54713	7.34736	-6.92862	18.0331	25.37539	1.20509	0.82981	148.20061	156.36613	55.21481	0.34204	 	6579207.741	 	9.25934E-7	 	19743.73949	45.33702	 
970.0	1.0	0.0	7.55068	7.3439	-6.97235	17.95428	25.26949	1.20529	0.82967	148.80748	156.72097	55.4528	0.34175	 	7361477.306	 	8.24224E-7	 	19519.1721	44.91348	 
965.0	1.0	0.0	7.55419	7.34049	-7.01562	17.87643	25.16537	1.20541	0.82959	149.40718	157.07072	55.68806	0.34147	 	8244601.167	 	7.32977E-7	 	19296.63408	44.5076	 
960.0	1.0	0.0	7.55767	7.33711	-7.05846	17.79951	25.06293	1.20545	0.82956	149.99998	157.41556	55.9207	0.34118	 	9242570.078	 	6.51193E-7	 	19076.04144	44.11853	 
955.0	1.0	0.0	7.56113	7.33376	-7.10088	17.72346	24.96209	1.20541	0.82959	150.58617	157.75568	56.15083	0.34091	 	1.037145303E7	 	5.77961E-7	 	18857.31421	43.74545	 
950.0	1.0	0.0	7.56455	7.33044	-7.14289	17.64822	24.86277	1.2053	0.82967	151.16602	158.09124	56.37855	0.34063	 	1.164972484E7	 	5.12449E-7	 	18640.37628	43.38759	 
945.0	1.0	0.0	7.56794	7.32715	-7.18452	17.57376	24.76488	1.20512	0.82979	151.73977	158.42239	56.60395	0.34036	 	1.309865189E7	 	4.53901E-7	 	18425.15515	43.04423	 
940.0	1.0	0.0	7.5713	7.3239	-7.22577	17.50001	24.66836	1.20487	0.82996	152.30765	158.74928	56.82713	0.3401	 	1.474273978E7	 	4.01627E-7	 	18211.58176	42.71468	 
935.0	1.0	0.0	7.57464	7.32067	-7.26667	17.42695	24.57314	1.20455	0.83018	152.86989	159.07205	57.04817	0.33983	 	1.661026086E7	 	3.55002E-7	 	17999.5903	42.39829	 
930.0	1.0	0.0	7.57796	7.31747	-7.30722	17.35451	24.47916	1.20417	0.83044	153.4267	159.39083	57.26716	0.33957	 	1.873386956E7	 	3.13458E-7	 	17789.11802	42.09446	 
925.0	1.0	0.0	7.58125	7.31429	-7.34743	17.28267	24.38635	1.20373	0.83075	153.97827	159.70575	57.48416	0.33931	 	2.115132451E7	 	2.76478E-7	 	17580.10505	41.80259	 
920.0	1.0	0.0	7.58451	7.31114	-7.38732	17.21138	24.29467	1.20323	0.83109	154.5248	160.01691	57.69925	0.33905	 	2.390634307E7	 	2.43595E-7	 	17372.4943	41.52215	 
915.0	1.0	0.0	7.58775	7.30802	-7.42691	17.1406	24.20406	1.20268	0.83148	155.06645	160.32443	57.91251	0.3388	 	2.704959511E7	 	2.14386E-7	 	17166.23126	41.25261	 
910.0	1.0	0.0	7.59098	7.30492	-7.46619	17.0703	24.11448	1.20207	0.8319	155.6034	160.62842	58.12398	0.33855	 	3.063988918E7	 	1.88469E-7	 	16961.26387	40.99348	 
905.0	1.0	0.0	7.59418	7.30184	-7.50518	17.00043	24.02587	1.2014	0.83236	156.1358	160.92896	58.33375	0.3383	 	3.474555407E7	 	1.65496E-7	 	16757.5424	40.74429	 
900.0	1.0	0.0	7.59736	7.29878	-7.5439	16.93097	23.93819	1.20068	0.83286	156.66381	161.22615	58.54185	0.33805	 	3.944608918E7	 	1.45156E-7	 	16555.01936	40.50461	 
895.0	1.0	0.0	7.60052	7.29575	-7.58234	16.86188	23.85141	1.19992	0.83339	157.18756	161.52009	58.74836	0.3378	 	4.483409603E7	 	1.27168E-7	 	16353.6493	40.27401	 
890.0	1.0	0.0	7.60366	7.29274	-7.62052	16.79313	23.76548	1.1991	0.83396	157.7072	161.81085	58.95331	0.33756	 	5.101758876E7	 	1.11276E-7	 	16153.38882	40.0521	 
885.0	1.0	0.0	7.60678	7.28974	-7.65845	16.72469	23.68037	1.19824	0.83456	158.22284	162.09851	59.15677	0.33732	 	5.812271024E7	 	9.72536E-8	 	15954.19639	39.83849	 
880.0	1.0	0.0	7.60989	7.28677	-7.69614	16.65652	23.59605	1.19733	0.83519	158.73462	162.38315	59.35877	0.33708	 	6.629697586E7	 	8.48944E-8	 	15756.03214	39.63285	 
875.0	1.0	0.0	7.61298	7.28381	-7.73359	16.5886	23.51248	1.19637	0.83586	159.24263	162.66484	59.55936	0.33684	 	7.571312234E7	 	7.40141E-8	 	15558.85787	39.43486	 
870.0	1.0	0.0	7.61605	7.28087	-7.77081	16.52089	23.42963	1.19537	0.83656	159.747	162.94365	59.75858	0.3366	 	8.657368635E7	 	6.44472E-8	 	15362.63768	39.24404	 
865.0	1.0	0.0	7.6191	7.27795	-7.80781	16.45338	23.34749	1.19433	0.83729	160.24783	163.21965	59.95648	0.33637	 	9.911647237E7	 	5.60455E-8	 	15167.33682	39.06017	 
860.0	1.0	0.0	7.62214	7.27505	-7.84459	16.38603	23.26601	1.19325	0.83805	160.74521	163.49291	60.15309	0.33613	 	1.136210824E8	 	4.8676E-8	 	14972.922	38.88296	 
855.0	1.0	0.0	7.62517	7.27216	-7.88116	16.31882	23.18518	1.19213	0.83884	161.23924	163.76348	60.34844	0.3359	 	1.304167053E8	 	4.22202E-8	 	14779.36141	38.71212	 
850.0	1.0	0.0	7.62818	7.26929	-7.91753	16.25172	23.10498	1.19096	0.83966	161.73	164.03142	60.54257	0.33567	 	1.498914703E8	 	3.65719E-8	 	14586.6246	38.54736	 
845.0	1.0	0.0	7.63045	7.26713	-7.94492	16.22502	23.03374	1.18933	0.84081	162.13359	164.29031	60.70049	0.33552	 	1.700948057E8	 	3.20845E-8	 	14431.26533	31.07185	 
840.0	1.0	0.0	7.63272	7.26497	-7.97224	16.19833	22.96249	1.18768	0.84197	162.53645	164.54805	60.85817	0.33537	 	1.932406568E8	 	2.81152E-8	 	14272.96833	31.6594	 
835.0	1.0	0.0	7.63498	7.26282	-7.99949	16.17165	22.89123	1.18603	0.84315	162.93856	164.80464	61.0156	0.33522	 	2.197890026E8	 	2.46082E-8	 	14114.90579	31.61251	 
830.0	1.0	0.0	7.63723	7.26067	-8.02667	16.14497	22.81997	1.18437	0.84433	163.33994	165.06008	61.17279	0.33507	 	2.502765788E8	 	2.1513E-8	 	13957.07694	31.56577	 
825.0	1.0	0.0	7.63949	7.25853	-8.05377	16.11831	22.74869	1.18269	0.84553	163.74058	165.31438	61.32974	0.33492	 	2.853304898E8	 	1.87845E-8	 	13799.48099	31.51919	 
820.0	1.0	0.0	7.64173	7.2564	-8.0808	16.09166	22.67741	1.18101	0.84674	164.14049	165.56755	61.48644	0.33477	 	3.256843756E8	 	1.63821E-8	 	13642.11716	31.47277	 
815.0	1.0	0.0	7.64397	7.25427	-8.10776	16.06501	22.60612	1.17931	0.84795	164.53965	165.81958	61.64289	0.33462	 	3.721976401E8	 	1.42693E-8	 	13484.98463	31.42651	 
810.0	1.0	0.0	7.64621	7.25215	-8.13464	16.03838	22.53482	1.17761	0.84918	164.93809	166.07048	61.79911	0.33447	 	4.258783534E8	 	1.24134E-8	 	13328.08257	31.38041	 
805.0	1.0	0.0	7.64844	7.25003	-8.16145	16.01176	22.46351	1.17589	0.85042	165.33578	166.32025	61.95508	0.33432	 	4.879105673E8	 	1.07851E-8	 	13171.41013	31.33449	 
800.0	1.0	0.0	7.65067	7.24792	-8.18819	15.98514	22.39219	1.17417	0.85167	165.73274	166.5689	62.1108	0.33417	 	5.596869426E8	 	9.35841E-9	 	13014.96643	31.28874	 
795.0	1.0	0.0	7.65289	7.24582	-8.21486	15.95853	22.32086	1.17243	0.85293	166.12897	166.81643	62.26629	0.33402	 	6.428477765E8	 	8.10981E-9	 	12858.75059	31.24317	 
790.0	1.0	0.0	7.65511	7.24372	-8.24145	15.93194	22.24952	1.17068	0.8542	166.52445	167.06284	62.42152	0.33387	 	7.393277558E8	 	7.0185E-9	 	12702.76168	31.19778	 
785.0	1.0	0.0	7.65732	7.24162	-8.26797	15.90535	22.17817	1.16893	0.85548	166.91921	167.30815	62.57652	0.33372	 	8.514120469E8	 	6.06588E-9	 	12546.99878	31.15258	 
780.0	1.0	0.0	7.65953	7.23954	-8.29442	15.87877	22.10681	1.16716	0.85678	167.31323	167.55234	62.73127	0.33357	 	9.818036915E8	 	5.23543E-9	 	12391.4609	31.10758	 
775.0	1.0	0.0	7.66174	7.23745	-8.3208	15.8522	22.03544	1.16538	0.85809	167.70652	167.79543	62.88578	0.33342	 	1.133704709E9	 	4.51243E-9	 	12236.14706	31.06277	 
770.0	1.0	0.0	7.66394	7.23538	-8.3471	15.82565	21.96406	1.16359	0.85941	168.09907	168.03741	63.04004	0.33327	 	1.310913845E9	 	3.88382E-9	 	12081.05626	31.01816	 
765.0	1.0	0.0	7.66613	7.23331	-8.37333	15.7991	21.89267	1.16179	0.86074	168.49089	168.2783	63.19406	0.33312	 	1.517944572E9	 	3.33804E-9	 	11926.1874	30.97377	 
760.0	1.0	0.0	7.66832	7.23124	-8.39949	15.77256	21.82127	1.15998	0.86209	168.88197	168.51809	63.34784	0.33297	 	1.760167756E9	 	2.86481E-9	 	11771.53941	30.9296	 
755.0	1.0	0.0	7.6705	7.22918	-8.42558	15.74603	21.74986	1.15815	0.86344	169.27233	168.75679	63.50137	0.33282	 	2.043984442E9	 	2.45508E-9	 	11617.11119	30.88565	 
750.0	1.0	0.0	7.67268	7.22713	-8.45159	15.71951	21.67843	1.15632	0.86481	169.66195	168.99441	63.65466	0.33267	 	2.377035437E9	 	2.10083E-9	 	11462.90154	30.84193	 
745.0	1.0	0.0	7.67486	7.22508	-8.47753	15.693	21.60699	1.15447	0.8662	170.05084	169.23094	63.80771	0.33253	 	2.768455968E9	 	1.79499E-9	 	11308.90929	30.79845	 
740.0	1.0	0.0	7.67703	7.22304	-8.5034	15.66649	21.53555	1.15261	0.86759	170.43899	169.46639	63.96051	0.33238	 	3.229185636E9	 	1.53133E-9	 	11155.13318	30.75522	 
735.0	1.0	0.0	7.67919	7.221	-8.5292	15.64	21.46409	1.15074	0.869	170.82642	169.70076	64.11307	0.33223	 	3.772346288E9	 	1.30437E-9	 	11001.57191	30.71225	 
730.0	1.0	0.0	7.68135	7.21897	-8.55492	15.61352	21.39261	1.14886	0.87043	171.21311	169.93406	64.26538	0.33208	 	4.413703534E9	 	1.1093E-9	 	10848.22416	30.66955	 
725.0	1.0	0.0	7.68351	7.21695	-8.58058	15.58705	21.32113	1.14697	0.87186	171.59907	170.16629	64.41745	0.33193	 	5.172231374E9	 	9.419E-10	 	10695.08851	30.62713	 
720.0	1.0	0.0	7.68566	7.21493	-8.60616	15.56058	21.24963	1.14506	0.87331	171.9843	170.39745	64.56928	0.33178	 	6.070804237E9	 	7.98464E-10	 	10542.16353	30.585	 
715.0	1.0	0.0	7.6878	7.21291	-8.63167	15.53413	21.17812	1.14315	0.87478	172.3688	170.62755	64.72086	0.33163	 	7.137046696E9	 	6.75758E-10	 	10389.44771	30.54317	 
710.0	1.0	0.0	7.68995	7.2109	-8.65711	15.50768	21.10659	1.14122	0.87626	172.75257	170.85659	64.8722	0.33148	 	8.404378729E9	 	5.70954E-10	 	10236.93945	30.50165	 
705.0	1.0	0.0	7.69208	7.2089	-8.68247	15.48125	21.03505	1.13927	0.87775	173.13561	171.08457	65.0233	0.33134	 	9.913303887E9	 	4.81586E-10	 	10084.63713	30.46046	 
700.0	1.0	0.0	7.69421	7.2069	-8.70776	15.45482	20.9635	1.13732	0.87926	173.51792	171.3115	65.17415	0.33119	 	1.1712999999999998E10	 	4.05507E-10	 	9932.53904	30.41962	 
695.0	1.0	0.0	7.69634	7.20491	-8.73299	15.42841	20.89193	1.13535	0.88078	173.8995	171.53738	65.32476	0.33104	 	1.3863299999999998E10	 	3.4085E-10	 	9780.64335	30.37914	 
690.0	1.0	0.0	7.69846	7.20293	-8.75814	15.402	20.82035	1.13337	0.88232	174.28035	171.76221	65.47512	0.33089	 	1.6437099999999998E10	 	2.85994E-10	 	9628.94821	30.33903	 
685.0	1.0	0.0	7.70058	7.20095	-8.78321	15.3756	20.74875	1.13138	0.88388	174.66047	171.98599	65.62524	0.33074	 	1.95233E10	 	2.39533E-10	 	9477.45164	30.29932	 
680.0	1.0	0.0	7.70269	7.19897	-8.80822	15.34921	20.67714	1.12937	0.88545	175.03986	172.20874	65.77512	0.33059	 	2.3231E10	 	2.00253E-10	 	9326.15157	30.26001	 
675.0	1.0	0.0	7.7048	7.19701	-8.83315	15.32283	20.60552	1.12735	0.88703	175.41853	172.43045	65.92475	0.33045	 	2.7693499999999996E10	 	1.67103E-10	 	9175.04584	30.22115	 
670.0	1.0	0.0	7.7069	7.19504	-8.85802	15.29647	20.53387	1.12532	0.88864	175.79646	172.65112	66.07414	0.3303	 	3.3074899999999996E10	 	1.39178E-10	 	9024.13217	30.18274	 
665.0	1.0	0.0	7.70899	7.19309	-8.88281	15.27011	20.46221	1.12327	0.89025	176.17367	172.87077	66.22329	0.33015	 	3.95767E10	 	1.15696E-10	 	8873.40815	30.1448	 
660.0	1.0	0.0	7.71109	7.19113	-8.90753	15.24376	20.39054	1.12121	0.89189	176.55015	173.08938	66.37219	0.33	 	4.744779999999999E10	 	9.59891E-11	 	8722.87713	30.1062	 
655.0	1.0	0.0	7.71317	7.18919	-8.93218	15.21742	20.31885	1.11914	0.89354	176.9259	173.30697	66.52085	0.32985	 	5.699569999999999E10	 	7.9481E-11	 	8572.57158	30.06111	 
650.0	1.0	0.0	7.71526	7.18725	-8.95675	15.19108	20.24714	1.11706	0.89521	177.30092	173.52354	66.66926	0.32971	 	6.860089999999999E10	 	6.56794E-11	 	8422.53463	30.00739	 
645.0	1.0	0.0	7.71733	7.18531	-8.98126	15.16476	20.17541	1.11496	0.8969	177.67522	173.73909	66.81743	0.32956	 	8.2736E10	 	5.41634E-11	 	8272.76531	29.95386	 
640.0	1.0	0.0	7.7194	7.18339	-9.00569	15.13845	20.10367	1.11284	0.8986	178.04879	173.95363	66.96536	0.32941	 	9.998859999999998E10	 	4.45737E-11	 	8123.26263	29.90054	 
635.0	1.0	0.0	7.72147	7.18146	-9.03005	15.11215	20.0319	1.11071	0.90032	178.42163	174.16716	67.11304	0.32926	 	1.21091E11	 	3.66043E-11	 	7974.02559	29.84741	 
630.0	1.0	0.0	7.72353	7.17954	-9.05434	15.08585	19.96012	1.10857	0.90206	178.79375	174.37967	67.26048	0.32911	 	1.46958E11	 	2.99953E-11	 	7825.05324	29.79447	 
625.0	1.0	0.0	7.72559	7.17763	-9.07856	15.05957	19.88832	1.10641	0.90382	179.16514	174.59118	67.40767	0.32897	 	1.78736E11	 	2.45258E-11	 	7676.34432	29.74178	 
620.0	1.0	0.0	7.72764	7.17573	-9.10271	15.0333	19.8165	1.10424	0.9056	179.5358	174.80169	67.55462	0.32882	 	2.17863E11	 	2.00091E-11	 	7527.89722	29.68942	 
615.0	1.0	0.0	7.72969	7.17383	-9.12679	15.00703	19.74466	1.10205	0.9074	179.90574	175.0112	67.70133	0.32867	 	2.66147E11	 	1.62874E-11	 	7379.71131	29.63718	 
610.0	1.0	0.0	7.73173	7.17193	-9.15079	14.98078	19.67281	1.09985	0.90921	180.27495	175.21971	67.84779	0.32852	 	3.2587E11	 	1.32275E-11	 	7231.78564	29.58513	 
605.0	1.0	0.0	7.73377	7.17004	-9.17473	14.95453	19.60093	1.09764	0.91105	180.64343	175.42722	67.99401	0.32838	 	3.99915E11	 	1.07174E-11	 	7084.11924	29.53328	 
600.0	1.0	0.0	7.7358	7.16816	-9.19859	14.92829	19.52903	1.0954	0.91291	181.01119	175.63375	68.13998	0.32823	 	4.91938E11	 	8.66294E-12	 	6936.71118	29.48161	 
595.0	1.0	0.0	7.73783	7.16628	-9.22238	14.90207	19.45711	1.09316	0.91478	181.37823	175.83929	68.28571	0.32808	 	6.06581E11	 	6.98542E-12	 	6789.5605	29.43014	 
590.0	1.0	0.0	7.73985	7.16441	-9.24611	14.87585	19.38516	1.09089	0.91668	181.74454	176.04384	68.4312	0.32794	 	7.49758E11	 	5.61891E-12	 	6642.66627	29.37885	 
585.0	1.0	0.0	7.74187	7.16254	-9.26976	14.84964	19.3132	1.08862	0.9186	182.11012	176.24741	68.57644	0.32779	 	9.29022E11	 	4.50842E-12	 	6496.02754	29.32774	 
580.0	1.0	0.0	7.74388	7.16068	-9.29333	14.82344	19.24121	1.08632	0.92054	182.47498	176.45	68.72144	0.32764	 	1.15404E12	 	3.60819E-12	 	6349.64338	29.27683	 
575.0	1.0	0.0	7.74589	7.15882	-9.31684	14.79725	19.1692	1.08401	0.9225	182.83912	176.65162	68.86619	0.3275	 	1.43724E12	 	2.88025E-12	 	6203.51287	29.2261	 
570.0	1.0	0.0	7.74789	7.15697	-9.34028	14.77107	19.09716	1.08169	0.92448	183.20253	176.85226	69.0107	0.32735	 	1.79459E12	 	2.29311E-12	 	6057.63506	29.17556	 
565.0	1.0	0.0	7.74989	7.15513	-9.36365	14.7449	19.0251	1.07935	0.92649	183.56522	177.05194	69.15496	0.3272	 	2.24675E12	 	1.82077E-12	 	5912.00905	29.1252	 
560.0	1.0	0.0	7.75188	7.15329	-9.38694	14.71874	18.95302	1.07699	0.92852	183.92718	177.25064	69.29898	0.32706	 	2.82041E12	 	1.44177E-12	 	5766.63389	29.07503	 
555.0	1.0	0.0	7.75387	7.15145	-9.41017	14.69259	18.88091	1.07461	0.93057	184.28843	177.44838	69.44276	0.32691	 	3.5503E12	 	1.1385E-12	 	5621.5087	29.02504	 
550.0	1.0	0.0	7.75585	7.14963	-9.43332	14.66645	18.80878	1.07222	0.93264	184.64894	177.64516	69.58629	0.32676	 	4.48157E12	 	8.96469E-13	 	5476.63254	28.97523	 
545.0	1.0	0.0	7.75783	7.1478	-9.4564	14.64032	18.73662	1.06981	0.93474	185.00874	177.84098	69.72958	0.32662	 	5.67326E12	 	7.03861E-13	 	5332.00453	28.9256	 
540.0	1.0	0.0	7.7598	7.14599	-9.47942	14.6142	18.66443	1.06739	0.93687	185.36781	178.03585	69.87262	0.32647	 	7.20269E12	 	5.51014E-13	 	5187.62373	28.87616	 
535.0	1.0	0.0	7.76177	7.14418	-9.50236	14.58808	18.59222	1.06494	0.93902	185.72615	178.22976	70.01542	0.32632	 	9.17147E12	 	4.30071E-13	 	5043.48927	28.82689	 
530.0	1.0	0.0	7.76373	7.14237	-9.52523	14.56198	18.51997	1.06248	0.94119	186.08378	178.42272	70.15797	0.32618	 	1.17136E13	 	3.34652E-13	 	4899.60025	28.7778	 
525.0	1.0	0.0	7.76569	7.14057	-9.54803	14.53588	18.4477	1.06001	0.94339	186.44068	178.61473	70.30028	0.32603	 	1.50063E13	 	2.59597E-13	 	4755.95578	28.72889	 
520.0	1.0	0.0	7.76764	7.13878	-9.57076	14.5098	18.3754	1.05751	0.94562	186.79686	178.8058	70.44234	0.32588	 	1.92846E13	 	2.00739E-13	 	4612.55499	28.68016	 
515.0	1.0	0.0	7.76959	7.13699	-9.59342	14.48372	18.30307	1.055	0.94787	187.15232	178.99593	70.58416	0.32574	 	2.48618E13	 	1.54726E-13	 	4469.39697	28.6316	 
510.0	1.0	0.0	7.77153	7.13521	-9.61601	14.45766	18.23071	1.05246	0.95015	187.50706	179.18512	70.72574	0.32559	 	3.2156E13	 	1.18869E-13	 	4326.48088	28.58322	 
505.0	1.0	0.0	7.77347	7.13343	-9.63853	14.4316	18.15832	1.04991	0.95246	187.86107	179.37337	70.86707	0.32545	 	4.17279E13	 	9.10171E-14	 	4183.80584	28.53501	 
500.0	1.0	0.0	7.7754	7.13166	-9.66098	14.40556	18.0859	1.04734	0.9548	188.21436	179.56069	71.00815	0.3253	 	5.4332E13	 	6.94536E-14	 	4041.37098	28.48697	 
495.0	1.0	0.0	7.77732	7.12989	-9.68335	14.37952	18.01344	1.04476	0.95716	188.56693	179.74707	71.14899	0.32516	 	7.09867E13	 	5.28148E-14	 	3899.17545	28.4391	 
490.0	1.0	0.0	7.77925	7.12813	-9.70566	14.35349	17.94096	1.04215	0.95955	188.91878	179.93253	71.28959	0.32501	 	9.30723E13	 	4.00199E-14	 	3757.2184	28.39141	 
485.0	1.0	0.0	7.78116	7.12637	-9.7279	14.32747	17.86843	1.03952	0.96198	189.26991	180.11706	71.42994	0.32486	 	1.22466E14	 	3.02153E-14	 	3615.499	28.34388	 
480.0	1.0	0.0	7.78307	7.12462	-9.75007	14.30146	17.79588	1.03688	0.96443	189.62031	180.30067	71.57004	0.32472	 	1.61731E14	 	2.27288E-14	 	3474.01639	28.29652	 
475.0	1.0	0.0	7.78498	7.12288	-9.77216	14.27546	17.72328	1.03421	0.96692	189.97	180.48336	71.70991	0.32457	 	2.1438E14	 	1.7033E-14	 	3332.76976	28.24933	 
470.0	1.0	0.0	7.78688	7.12114	-9.79419	14.24947	17.65065	1.03153	0.96943	190.31896	180.66513	71.84952	0.32443	 	2.85248E14	 	1.27157E-14	 	3191.75826	28.2023	 
465.0	1.0	0.0	7.78878	7.11941	-9.81615	14.22349	17.57799	1.02883	0.97198	190.66721	180.84599	71.98889	0.32428	 	3.81014E14	 	9.45562E-15	 	3050.9811	28.15543	 
460.0	1.0	0.0	7.79067	7.11768	-9.83803	14.19752	17.50528	1.0261	0.97456	191.01473	181.02593	72.12802	0.32414	 	5.1094599999999994E14	 	7.00333E-15	 	2910.43746	28.10873	 
455.0	1.0	0.0	7.79255	7.11596	-9.85985	14.17156	17.43254	1.02335	0.97718	191.36154	181.20496	72.2669	0.32399	 	6.87953E14	 	5.16593E-15	 	2770.12654	28.06218	 
450.0	1.0	0.0	7.79443	7.11424	-9.8816	14.14561	17.35976	1.02059	0.97983	191.70762	181.38309	72.40553	0.32385	 	9.30099E14	 	3.79477E-15	 	2630.04755	28.0158	 
445.0	1.0	0.0	7.79631	7.11253	-9.90327	14.11966	17.28693	1.0178	0.98251	192.05298	181.56031	72.54392	0.3237	 	1.26277E15	 	2.77574E-15	 	2490.1997	27.96957	 
440.0	1.0	0.0	7.79818	7.11082	-9.92488	14.09373	17.21407	1.01499	0.98523	192.39763	181.73663	72.68207	0.32356	 	1.72179E15	 	2.02157E-15	 	2350.58221	27.9235	 
435.0	1.0	0.0	7.80004	7.10912	-9.94642	14.06781	17.14116	1.01216	0.98798	192.74155	181.91205	72.81997	0.32341	 	2.35796E15	 	1.4658E-15	 	2211.19431	27.87758	 
430.0	1.0	0.0	7.8019	7.10743	-9.96788	14.04189	17.06821	1.00931	0.99077	193.08475	182.08657	72.95762	0.32327	 	3.24367E15	 	1.05803E-15	 	2072.03524	27.83181	 
425.0	1.0	0.0	7.80376	7.10574	-9.98928	14.01599	16.99521	1.00644	0.9936	193.42724	182.2602	73.09503	0.32312	 	4.4825E15	 	7.60178E-16	 	1933.10435	27.78618	 
420.0	1.0	0.0	7.80561	7.10405	-10.01061	13.99009	16.92217	1.00355	0.99647	193.769	182.43293	73.23219	0.32298	 	6.22344E15	 	5.43605E-16	 	1794.40075	27.74072	 
415.0	1.0	0.0	7.80745	7.10238	-10.03186	13.96421	16.84908	1.00063	0.99937	194.11005	182.60478	73.36911	0.32283	 	8.68183E15	 	3.86864E-16	 	1655.92407	27.69534	 
410.0	1.0	0.0	7.80929	7.1007	-10.05305	13.93833	16.77594	0.99769	1.00232	194.45037	182.77574	73.50578	0.32269	 	1.21705E16	 	2.73964E-16	 	1517.67406	27.65	 
405.0	1.0	0.0	7.81112	7.09904	-10.07417	13.91246	16.70276	0.99473	1.0053	194.78998	182.94581	73.64221	0.32254	 	1.7146300000000002E16	 	1.93038E-16	 	1379.6505	27.60471	 
400.0	1.0	0.0	7.81295	7.09737	-10.09522	13.88661	16.62952	0.99174	1.00833	195.12887	183.11501	73.77839	0.3224	 	2.42796E16	 	1.35318E-16	 	1241.85318	27.55946	 
395.0	1.0	0.0	7.81478	7.09572	-10.1162	13.86076	16.55623	0.98873	1.0114	195.46704	183.28332	73.91432	0.32225	 	3.4560100000000004E16	 	9.43595E-17	 	1104.28189	27.51426	 
390.0	1.0	0.0	7.8166	7.09407	-10.13711	13.83492	16.48289	0.9857	1.01451	195.80449	183.45075	74.05001	0.32211	 	4.94562E16	 	6.54453E-17	 	966.93644	27.46909	 
385.0	1.0	0.0	7.81841	7.09242	-10.15795	13.80909	16.4095	0.98264	1.01766	196.14123	183.61731	74.18545	0.32197	 	7.1159100000000008E16	 	4.5142E-17	 	829.81666	27.42396	 
380.0	1.0	0.0	7.82022	7.09078	-10.17872	13.78327	16.33605	0.97956	1.02086	196.47724	183.783	74.32065	0.32182	 	1.02958E17	 	3.09628E-17	 	692.92238	27.37886	 
375.0	1.0	0.0	7.82202	7.08915	-10.19942	13.75746	16.26254	0.97646	1.02411	196.81254	183.94782	74.4556	0.32168	 	1.49818E17	 	2.11153E-17	 	556.25343	27.33379	 
370.0	1.0	0.0	7.82382	7.08752	-10.22005	13.73166	16.18897	0.97333	1.0274	197.14712	184.11177	74.59031	0.32153	 	2.19282E17	 	1.43152E-17	 	419.8097	27.28875	 
365.0	1.0	0.0	7.82561	7.0859	-10.24061	13.70587	16.11535	0.97017	1.03074	197.48098	184.27486	74.72476	0.32139	 	3.22873E17	 	9.64666E-18	 	283.59105	27.24373	 
360.0	1.0	0.0	7.8274	7.08428	-10.2611	13.68009	16.04166	0.96699	1.03413	197.81412	184.43708	74.85898	0.32125	 	4.78317E17	 	6.46066E-18	 	147.59738	27.19873	 
355.0	1.0	0.0	7.82918	7.08267	-10.28153	13.65432	15.96791	0.96379	1.03757	198.14655	184.59845	74.99294	0.3211	 	7.13046E17	 	4.29965E-18	 	11.82858	27.15376	 
350.0	1.0	0.0	7.83095	7.08106	-10.30188	13.62855	15.89409	0.96056	1.04106	198.47826	184.75895	75.12666	0.32096	 	1.0698E18	 	2.84301E-18	 	-123.71541	27.1088	 
345.0	1.0	0.0	7.83273	7.07946	-10.32217	13.6028	15.82021	0.9573	1.04461	198.80925	184.9186	75.26014	0.32081	 	1.6156E18	 	1.86743E-18	 	-259.03467	27.06385	 
340.0	1.0	0.0	7.83449	7.07786	-10.34238	13.57706	15.74626	0.95402	1.0482	199.13952	185.0774	75.39337	0.32067	 	2.45634E18	 	1.21833E-18	 	-394.12924	27.01891	 
335.0	1.0	0.0	7.83625	7.07627	-10.36253	13.55132	15.67224	0.9507	1.05185	199.46908	185.23535	75.52635	0.32053	 	3.76041E18	 	7.89337E-19	 	-528.99913	26.97398	 
330.0	1.0	0.0	7.83801	7.07469	-10.38261	13.5256	15.59815	0.94737	1.05556	199.79792	185.39245	75.65908	0.32038	 	5.79758E18	 	5.07768E-19	 	-663.64435	26.92904	 
325.0	1.0	0.0	7.83976	7.07311	-10.40261	13.49988	15.52398	0.944	1.05932	200.12604	185.5487	75.79157	0.32024	 	9.00331E18	 	3.24261E-19	 	-798.06491	26.88411	 
320.0	1.0	0.0	7.8415	7.07153	-10.42255	13.47418	15.44974	0.94061	1.06314	200.45345	185.7041	75.92381	0.3201	 	1.40858E19	 	2.05528E-19	 	-932.26074	26.83917	 
315.0	1.0	0.0	7.84324	7.06997	-10.44242	13.44848	15.37542	0.93719	1.06702	200.78014	185.85867	76.05581	0.31995	 	2.22056E19	 	1.29274E-19	 	-1066.23182	26.79422	 
310.0	1.0	0.0	7.84498	7.0684	-10.46223	13.42279	15.30102	0.93374	1.07096	201.10611	186.0124	76.18756	0.31981	 	3.52806E19	 	8.06734E-20	 	-1199.97805	26.74925	 
305.0	1.0	0.0	7.84671	7.06684	-10.48196	13.39712	15.22654	0.93026	1.07497	201.43137	186.16529	76.31906	0.31967	 	5.6505E19	 	4.9939E-20	 	-1333.49935	26.70426	 
300.0	1.0	0.0	7.84843	7.06529	-10.50162	13.37145	15.15197	0.92676	1.07903	201.75591	186.31734	76.45031	0.31952	 	9.12445E19	 	3.06583E-20	 	-1466.79557	26.65924	 
295.0	1.0	0.0	7.85015	7.06375	-10.52122	13.34579	15.07731	0.92322	1.08317	202.07973	186.46857	76.58132	0.31938	 	1.4859E20	 	1.86621E-20	 	-1599.86658	26.6142	 
290.0	1.0	0.0	7.85186	7.0622	-10.54074	13.32014	15.00257	0.91965	1.08737	202.40284	186.61896	76.71208	0.31924	 	2.4407999999999997E20	 	1.1261E-20	 	-1732.71219	26.56912	 
285.0	1.0	0.0	7.85357	7.06067	-10.5602	13.2945	14.92773	0.91606	1.09163	202.72523	186.76852	76.8426	0.31909	 	4.04518E20	 	6.73441E-21	 	-1865.3322	26.524	 
280.0	1.0	0.0	7.85527	7.05914	-10.57959	13.26887	14.8528	0.91243	1.09597	203.04691	186.91726	76.97287	0.31895	 	6.765659999999999E20	 	3.99043E-21	 	-1997.72639	26.47884	 
275.0	1.0	0.0	7.85697	7.05761	-10.59891	13.24325	14.77777	0.90878	1.10038	203.36787	187.06517	77.10289	0.31881	 	1.14224E21	 	2.34223E-21	 	-2129.89449	26.43362	 
270.0	1.0	0.0	7.85866	7.05609	-10.61816	13.21764	14.70263	0.90509	1.10487	203.68811	187.21227	77.23266	0.31867	 	1.94711E21	 	1.36149E-21	 	-2261.8362	26.38834	 
265.0	1.0	0.0	7.86035	7.05458	-10.63734	13.19204	14.6274	0.90137	1.10942	204.00764	187.35854	77.36219	0.31852	 	3.3522000000000003E21	 	7.83539E-22	 	-2393.5512	26.343	 
260.0	1.0	0.0	7.86203	7.05307	-10.65645	13.16645	14.55206	0.89762	1.11406	204.32645	187.504	77.49147	0.31838	 	5.83033E21	 	4.46316E-22	 	-2525.03912	26.29758	 
255.0	1.0	0.0	7.86371	7.05157	-10.6755	13.14086	14.4766	0.89383	1.11878	204.64455	187.64864	77.6205	0.31824	 	1.0247299999999998E22	 	2.51557E-22	 	-2656.29958	26.25209	 
250.0	1.0	0.0	7.86538	7.05007	-10.69448	13.11529	14.40104	0.89002	1.12357	204.96193	187.79247	77.74928	0.3181	 	1.8205599999999999E22	 	1.40252E-22	 	-2787.33212	26.20651	 
245.0	1.0	0.0	7.86705	7.04857	-10.71339	13.08973	14.32535	0.88617	1.12845	205.2786	187.93549	77.87782	0.31795	 	3.2705299999999996E22	 	7.73257E-23	 	-2918.13629	26.16083	 
240.0	1.0	0.0	7.86871	7.04709	-10.73223	13.06417	14.24955	0.88229	1.13342	205.59455	188.0777	78.00611	0.31781	 	5.942779999999999E22	 	4.21446E-23	 	-3048.71156	26.11505	 
235.0	1.0	0.0	7.87036	7.04561	-10.751	13.03863	14.17362	0.87837	1.13847	205.90979	188.21911	78.13415	0.31767	 	1.09261E23	 	2.26993E-23	 	-3179.05736	26.06916	 
230.0	1.0	0.0	7.87201	7.04413	-10.7697	13.01309	14.09756	0.87442	1.14362	206.22432	188.35971	78.26194	0.31753	 	2.0332799999999998E23	 	1.20778E-23	 	-3309.17312	26.02315	 
225.0	1.0	0.0	7.87366	7.04266	-10.78834	12.98757	14.02137	0.87043	1.14885	206.53812	188.49951	78.38949	0.31738	 	3.8312799999999994E23	 	6.34604E-24	 	-3439.05815	25.97701	 
220.0	1.0	0.0	7.87529	7.04119	-10.8069	12.96205	13.94505	0.86641	1.15418	206.85122	188.63851	78.51679	0.31724	 	7.312569999999999E23	 	3.29151E-24	 	-3568.71177	25.93072	 
215.0	1.0	0.0	7.87693	7.03973	-10.8254	12.93654	13.86858	0.86236	1.15961	207.1636	188.77671	78.64384	0.3171	 	1.41432E24	 	1.68459E-24	 	-3698.1332	25.88429	 
210.0	1.0	0.0	7.87856	7.03828	-10.84383	12.91105	13.79196	0.85827	1.16514	207.47526	188.91412	78.77064	0.31696	 	2.7730200000000003E24	 	8.50385E-25	 	-3827.32166	25.83769	 
205.0	1.0	0.0	7.88018	7.03683	-10.86219	12.88556	13.71519	0.85414	1.17077	207.78622	189.05073	78.8972	0.31682	 	5.5141E24	 	4.2323E-25	 	-3956.27625	25.79092	 
200.0	1.0	0.0	7.8818	7.03538	-10.88049	12.86008	13.63827	0.84997	1.17651	208.09645	189.18655	79.02351	0.31667	 	1.11251E25	 	2.07577E-25	 	-4084.99605	25.74396	 
195.0	1.0	0.0	7.88341	7.03394	-10.89871	12.83461	13.56119	0.84577	1.18235	208.40598	189.32158	79.14957	0.31653	 	2.27849E25	 	1.00282E-25	 	-4213.48008	25.6968	 
190.0	1.0	0.0	7.88502	7.03251	-10.91687	12.80915	13.48393	0.84153	1.18831	208.71478	189.45583	79.27538	0.31639	 	4.739280000000001E25	 	4.76975E-26	 	-4341.72725	25.64943	 
185.0	1.0	0.0	7.88662	7.03108	-10.93496	12.7837	13.40651	0.83726	1.19438	209.02288	189.58929	79.40094	0.31625	 	1.0016600000000001E26	 	2.23241E-26	 	-4469.73642	25.60184	 
180.0	1.0	0.0	7.88821	7.02966	-10.95298	12.75826	13.3289	0.83294	1.20057	209.33026	189.72197	79.52626	0.31611	 	2.15228E26	 	1.02761E-26	 	-4597.50639	25.55399	 
175.0	1.0	0.0	7.8898	7.02824	-10.97094	12.73283	13.25111	0.82858	1.20688	209.63693	189.85386	79.65132	0.31597	 	4.704240000000001E26	 	4.64965E-27	 	-4725.03587	25.5059	 
170.0	1.0	0.0	7.89139	7.02683	-10.98882	12.70741	13.17313	0.82419	1.21331	209.94288	189.98498	79.77614	0.31583	 	1.04651E27	 	2.06677E-27	 	-4852.32349	25.45752	 
165.0	1.0	0.0	7.89297	7.02542	-11.00664	12.68199	13.09495	0.81976	1.21987	210.24813	190.11532	79.90071	0.31568	 	2.3709599999999998E27	 	9.01956E-28	 	-4979.36774	25.40885	 
160.0	1.0	0.0	7.89454	7.02402	-11.02439	12.65659	13.01656	0.81528	1.22657	210.55265	190.24488	80.02503	0.31554	 	5.47399E27	 	3.86208E-28	 	-5106.16711	25.35987	 
155.0	1.0	0.0	7.89611	7.02263	-11.04207	12.6312	12.93796	0.81077	1.2334	210.85647	190.37367	80.14911	0.3154	 	1.28876E28	 	1.62148E-28	 	-5232.71991	25.31056	 
150.0	1.0	0.0	7.89768	7.02124	-11.05969	12.60582	12.85914	0.80621	1.24037	211.15957	190.5017	80.27293	0.31526	 	3.0961800000000003E28	 	6.67045E-29	 	-5359.02438	25.26089	 
145.0	1.0	0.0	7.89924	7.01985	-11.07723	12.58044	12.78008	0.80161	1.24749	211.46196	190.62895	80.39651	0.31512	 	7.5959900000000005E28	 	2.68679E-29	 	-5485.07863	25.21085	 
140.0	1.0	0.0	7.90079	7.01847	-11.09471	12.55508	12.70079	0.79697	1.25475	211.76364	190.75543	80.51984	0.31498	 	1.9044800000000002E29	 	1.05881E-29	 	-5610.88067	25.16041	 
135.0	1.0	0.0	7.90234	7.0171	-11.11212	12.52972	12.62125	0.79229	1.26217	212.0646	190.88115	80.64292	0.31484	 	4.88371E29	 	4.07903E-30	 	-5736.42838	25.10954	 
130.0	1.0	0.0	7.90388	7.01573	-11.12947	12.50438	12.54144	0.78756	1.26974	212.36485	191.00611	80.76575	0.3147	 	1.28194E30	 	1.53492E-30	 	-5861.71948	25.05822	 
125.0	1.0	0.0	7.90542	7.01436	-11.14674	12.47904	12.46137	0.78279	1.27748	212.66439	191.13031	80.88833	0.31456	 	3.44755E30	 	5.63667E-31	 	-5986.7516	25.00642	 
120.0	1.0	0.0	7.90695	7.01301	-11.16395	12.45371	12.38102	0.77798	1.28538	212.96322	191.25375	81.01066	0.31441	 	9.507859999999999E30	 	2.01819E-31	 	-6111.52215	24.95411	 
115.0	1.0	0.0	7.90847	7.01165	-11.1811	12.42839	12.30038	0.77312	1.29346	213.26133	191.37643	81.13274	0.31427	 	2.69157E31	 	7.03851E-32	 	-6236.02845	24.90126	 
110.0	1.0	0.0	7.90999	7.0103	-11.19817	12.40309	12.21944	0.76822	1.30172	213.55873	191.49835	81.25458	0.31413	 	7.8293E31	 	2.38854E-32	 	-6360.26759	24.84783	 
105.0	1.0	0.0	7.91151	7.00896	-11.21518	12.37779	12.13818	0.76327	1.31016	213.85542	191.61953	81.37616	0.31399	 	2.34263E32	 	7.87857E-33	 	-6484.23651	24.79378	 
100.0	1.0	0.0	7.91302	7.00762	-11.23212	12.3525	12.05659	0.75827	1.31879	214.1514	191.73995	81.4975	0.31385	 	7.21837E32	 	2.52308E-33	 	-6607.93195	24.73909	 
95.0	1.0	0.0	7.91452	7.00629	-11.24899	12.32722	11.97465	0.75323	1.32761	214.44667	191.85962	81.61859	0.31371	 	2.29325E33	 	7.83539E-34	 	-6731.35043	24.6837	 
90.0	1.0	0.0	7.91602	7.00497	-11.26579	12.30195	11.89236	0.74814	1.33664	214.74122	191.97854	81.73943	0.31357	 	7.52118E33	 	2.3566E-34	 	-6854.48827	24.62757	 
85.0	1.0	0.0	7.91751	7.00364	-11.28253	12.27669	11.8097	0.74301	1.34588	215.03507	192.09672	81.86002	0.31343	 	2.5499100000000004E34	 	6.85531E-35	 	-6977.34153	24.57065	 
80.0	1.0	0.0	7.919	7.00233	-11.2992	12.25144	11.72664	0.73782	1.35534	215.3282	192.21416	81.98036	0.31329	 	8.94905E34	 	1.92606E-35	 	-7099.90603	24.5129	 
75.0	1.0	0.0	7.92049	7.00102	-11.3158	12.2262	11.64318	0.73259	1.36502	215.62062	192.33086	82.10045	0.31315	 	3.2560499999999997E35	 	5.2187E-36	 	-7222.1773	24.45425	 
70.0	1.0	0.0	7.92196	6.99971	-11.33234	12.20096	11.55929	0.72731	1.37493	215.91233	192.44681	82.22029	0.31301	 	1.2301299999999999E36	 	1.36151E-36	 	-7344.1506	24.39466	 
65.0	1.0	0.0	7.92343	6.99841	-11.34881	12.17574	11.47495	0.72198	1.38508	216.20334	192.56203	82.33988	0.31287	 	4.83373E36	 	3.4144E-37	 	-7465.82086	24.33405	 
60.0	1.0	0.0	7.9249	6.99712	-11.36521	12.15053	11.39014	0.7166	1.39548	216.49363	192.67651	82.45923	0.31273	 	1.97903E37	 	8.21624E-38	 	-7587.18268	24.27236	 
55.0	1.0	0.0	7.92636	6.99583	-11.38154	12.12533	11.30485	0.71117	1.40613	216.7832	192.79026	82.57832	0.31259	 	8.458229999999999E37	 	1.89356E-38	 	-7708.2303	24.20952	 
50.0	1.0	0.0	7.92782	6.99454	-11.39781	12.10013	11.21904	0.70569	1.41705	217.07207	192.90328	82.69717	0.31245	 	3.78118E38	 	4.17123E-39	 	-7828.95757	24.14545	 
45.0	1.0	0.0	7.92927	6.99326	-11.41401	12.07495	11.13268	0.70016	1.42824	217.36023	193.01557	82.81576	0.31231	 	1.7718E39	 	8.76401E-40	 	-7949.35789	24.08007	 
40.0	1.0	0.0	7.93071	6.99199	-11.43015	12.04977	11.04577	0.69458	1.43972	217.64768	193.12713	82.93411	0.31217	 	8.722190000000001E39	 	1.75232E-40	 	-8069.42426	24.01327	 
35.0	1.0	0.0	7.93215	6.99072	-11.44621	12.0246	10.95825	0.68895	1.45149	217.93442	193.23796	83.0522	0.31203	 	4.52166E40	 	3.32622E-41	 	-8189.14914	23.94498	 
30.0	1.0	0.0	7.93358	6.98946	-11.46221	11.99945	10.87011	0.68327	1.46356	218.22045	193.34807	83.17005	0.31189	 	2.47483E41	 	5.97858E-42	 	-8308.5245	23.87507	 
25.0	1.0	0.0	7.93501	6.9882	-11.47815	 	10.78131	0.67753	1.47595	218.50578	193.45746	83.28765	0.31175	 	1.4340199999999998E42	 	1.01477E-42	 	-8427.54169	 	 
