T (C)	Fraction solid (wt)-TOTAL	Fraction liquid (wt)-LIQUID	Density (g/(cm)^3)-TOTAL	Molar volume (cm^3)-TOTAL	Volume change (%)-  	Average expansion coeff. (10e-6 1/K)-  	Thermal conductivity (W/(m*K))-TOTAL	Electrical resistivity (10e-6 Ohm*m)-TOTAL	Electrical conductivity (10e6 1/(Ohm*m))-TOTAL	Young's modulus (GPa)-TOTAL	Bulk modulus (GPa)-TOTAL	Shear modulus(GPa)-TOTAL	Poisson's ratio-TOTAL	Liquid viscosity (mPa s)-  	Total viscosity (mPa s)-  	Liquid diffusivity (10e-9 (m^2)/s)-  	Total diffusivity (10e-9 (m^2)/s)-  	Surface Tension (mN/m)-  	Enthalpy (J/mole)-TOTAL	Specific heat (J/(mole K))-TOTAL	Latent heat (J/mole)-TOTAL
1400.0	0.0	1.0	7.35921	7.73681	0.0	29.59032	30.20777	1.35701	0.73692	0.0	126.05173	0.0	0.5	7.12619	7.12619	1.14595	1.14595	1769.26113	50465.541	 	0.0
1395.0	0.0	1.0	7.36325	7.73256	-0.0548676	29.54852	30.13162	1.35637	0.73726	0.0	126.20091	0.0	0.5	7.20358	7.20358	1.13025	1.13025	1771.5171	50258.993	41.3096	0.0
1390.0	0.0	1.0	7.36728	7.72833	-0.10957	29.50685	30.05547	1.35573	0.73761	0.0	126.35009	0.0	0.5	7.28229	7.28229	1.11468	1.11468	1773.77718	50052.945	41.2096	0.0
1385.0	0.0	1.0	7.37131	7.72411	-0.16412	29.46532	29.97932	1.35509	0.73796	0.0	126.49926	0.0	0.5	7.36234	7.36234	1.09925	1.09925	1776.0411	49847.393	41.1104	0.0
1380.0	0.0	1.0	7.37533	7.7199	-0.21851	29.42393	29.90317	1.35444	0.73831	0.0	126.64844	0.0	0.5	7.44376	7.44376	1.08394	1.08394	1778.30861	49642.335	41.0116	0.0
1375.0	0.0	1.0	7.37934	7.71571	-0.27273	29.38267	29.82702	1.3538	0.73866	0.0	126.79762	0.0	0.5	7.52659	7.52659	1.06877	1.06877	1780.57942	49437.768	40.9134	0.0
1370.0	0.0	1.0	7.38334	7.71152	-0.3268	29.34156	29.75087	1.35314	0.73902	0.0	126.9468	0.0	0.5	7.61085	7.61085	1.05373	1.05373	1782.85326	49233.688	40.816	0.0
1365.0	0.0	1.0	7.38734	7.70735	-0.3807	29.30058	29.67472	1.35249	0.73938	0.0	127.09597	0.0	0.5	7.69658	7.69658	1.03883	1.03883	1785.12985	49030.093	40.719	0.0
1360.0	0.0	1.0	7.39132	7.70319	-0.43445	29.25975	29.59857	1.35183	0.73974	0.0	127.24515	0.0	0.5	7.7838	7.7838	1.02405	1.02405	1787.40892	48826.98	40.6226	0.0
1356.68	0.0	1.0	7.39397	7.70044	-0.47006	29.23271	29.54799	1.35139	0.73998	0.0	127.34424	0.0	0.5	7.84259	7.84259	1.01431	1.01431	1788.92394	48692.339	40.54194	0.0
1355.0	0.0467301	0.95327	7.40713	7.68675	-0.64704	28.77191	29.65574	1.34509	0.74344	4.21569E-4	127.13301	1.41109E-4	0.49378	7.87325	8.56014	1.00932	0.92833	1788.7927	47930.434	453.7931	693.91
1350.0	0.17106	0.82894	7.44258	7.65018	-1.11967	27.54635	29.93847	1.3283	0.75284	0.0774295	126.61397	0.0262103	0.47708	7.96515	44.71346	0.99461	0.17718	1788.4204	45892.55	407.5768	2529.636
1345.0	0.27256	0.72744	7.47218	7.61986	-1.51157	26.54024	30.16065	1.31445	0.76077	0.50861	126.26392	0.17379	0.4633	8.05816	249.30276	0.9801	0.0316795	1788.09762	44203.545	337.801	4016.956
1340.0	0.35658	0.64342	7.49722	7.59441	-1.84052	25.70554	30.33612	1.30281	0.76757	1.51466	126.04694	0.52166	0.45177	8.15235	753.25107	0.96578	0.0104525	1787.824	42781.754	284.3582	5237.532
1335.0	0.42697	0.57303	7.51869	7.57271	-2.12096	25.00296	30.47475	1.29286	0.77348	3.15952	125.93421	1.09552	0.44202	8.24772	1632.61265	0.95165	0.00480762	1787.59944	41567.879	242.775	6250.661
1330.0	0.48659	0.51341	7.53733	7.55395	-2.36352	24.40357	30.58352	1.28426	0.77866	5.39899	125.90432	1.88291	0.43368	8.34433	2919.45832	0.93771	0.00268015	1787.42387	40518.074	209.961	7100.184
1325.0	0.53757	0.46243	7.55366	7.5376	-2.57476	23.88968	30.66749	1.27675	0.78324	8.13713	125.94208	2.85213	0.4265	8.44223	4620.68432	0.92395	0.0016881	1787.29523	39599.399	183.735	7819.04
1320.0	0.58154	0.41846	7.56812	7.52315	-2.76152	23.44252	30.73098	1.27012	0.78732	11.26333	126.03395	3.96526	0.42025	8.54139	6731.58152	0.91036	0.00115512	1787.21367	38786.738	162.5322	8432.34
1315.0	0.61974	0.38026	7.58103	7.51032	-2.92744	23.05232	30.77698	1.26425	0.79099	14.67024	126.17091	5.18462	0.41478	8.64191	9243.59014	0.89695	8.38567E-4	1787.17689	38060.688	145.21	8959.487
1310.0	0.65316	0.34684	7.59265	7.49873	-3.07715	22.70624	30.80823	1.25899	0.79429	18.26528	126.34386	6.47725	0.40996	8.74371	12149.75274	0.88372	6.35977E-4	1787.18547	37406.078	130.922	9415.648
1305.0	0.68259	0.31741	7.60319	7.48829	-3.21208	22.40068	30.82699	1.25425	0.79729	21.97141	126.54835	7.81524	0.40568	8.84689	15447.54192	0.87065	4.98627E-4	1787.23571	36810.913	119.033	9812.815
1300.0	0.70862	0.29138	7.61281	7.47879	-3.33487	22.12831	30.83481	1.24996	0.80003	25.72462	126.77873	9.17517	0.40186	8.95148	19136.77051	0.85775	4.01225E-4	1787.32731	36265.614	109.0598	10160.565
1298.93	0.71374	0.28626	7.61473	7.47687	-3.35968	22.07412	30.83486	1.2491	0.80057	26.51759	126.83131	9.46309	0.40111	8.97414	19969.80639	0.855	3.84226E-4	1787.35444	36155.496	 	10228.357
1295.0	0.75159	0.24841	7.62766	7.46401	-3.52593	21.65275	30.89132	1.2437	0.80405	32.96676	127.14043	11.81214	0.39546	9.12974	25881.52336	0.83833	2.95723E-4	1788.88941	35464.125	160.2978	10764.952
1290.0	0.79021	0.20979	7.64126	7.45048	-3.70086	21.22113	30.93516	1.23798	0.80777	40.76539	127.52599	14.66746	0.38965	9.32736	33829.04646	0.81795	2.25527E-4	1790.65986	34728.188	147.1874	11304.231
1285.0	0.82056	0.17944	7.6524	7.43937	-3.84445	20.87911	30.95388	1.23328	0.81085	47.88211	127.90807	17.28541	0.38504	9.52512	42089.69443	0.79841	1.80684E-4	1792.26868	34114.928	122.652	11721.273
1280.0	0.84495	0.15505	7.66179	7.42998	-3.96579	20.60067	30.9541	1.22931	0.81346	54.31096	128.28845	19.65937	0.3813	9.72345	50651.11689	0.77961	1.49662E-4	1793.74643	33589.555	105.0746	12050.867
1275.0	0.86488	0.13512	7.66987	7.42189	-4.0704	20.37006	30.94024	1.2259	0.81573	60.09278	128.66861	21.80112	0.3782	9.92289	59536.64352	0.76149	1.26916E-4	1795.1157	33128.892	92.1326	12316.188
1270.0	0.88143	0.11857	7.67695	7.41477	-4.16244	20.17537	30.91551	1.22292	0.81772	65.29543	129.04896	23.73345	0.3756	10.12389	68796.7439	0.74396	1.09478E-4	1796.39586	32717.021	82.3742	12533.15
1265.0	0.89538	0.10462	7.68327	7.40841	-4.24463	20.0088	30.88222	1.22027	0.81949	69.98668	129.42983	25.47976	0.37338	10.3269	78491.58004	0.72697	9.5645E-5	1797.6015	32342.711	74.862	12712.983
1260.0	0.90726	0.09274	7.68899	7.40265	-4.31908	19.86433	30.84216	1.21788	0.8211	74.23337	129.81132	27.06367	0.37146	10.53229	88691.56037	0.71047	8.43702E-5	1798.74484	31997.847	68.9728	12863.798
1255.0	0.91749	0.0825075	7.69423	7.39735	-4.38749	19.73707	30.79656	1.21571	0.82256	78.09197	130.19299	28.50532	0.36978	10.74032	99467.23641	0.69444	7.49847E-5	1799.83752	31676.449	64.2796	12991.574
1250.0	0.92638	0.0736209	7.69908	7.39246	-4.45074	19.62451	30.74643	1.21371	0.82392	81.61378	130.57516	29.82311	0.3683	10.95149	110898.9464	0.67882	6.70351E-5	1800.88581	31374.02	60.4858	13100.805
1245.0	0.93416	0.0658368	7.70361	7.38787	-4.51004	19.52315	30.69254	1.21185	0.82519	84.84317	130.95724	31.03315	0.36698	11.16604	123068.6557	0.66359	6.0208E-5	1801.89942	31087.128	57.3784	13194.921
1240.0	0.94103	0.0589707	7.70788	7.38356	-4.5658	19.43184	30.6355	1.21011	0.82637	87.81598	131.33947	32.14841	0.36579	11.38423	136063.0047	0.64873	5.42786E-5	1802.88221	30813.111	54.8034	13276.58
1235.0	0.94713	0.052874	7.71192	7.37947	-4.61863	19.34884	30.57579	1.20846	0.8275	90.56424	131.72157	33.18059	0.36472	11.60645	149974.6924	0.63421	4.9081E-5	1803.83997	30549.88	52.6462	13347.871
1230.0	0.95257	0.0474303	7.71578	7.37557	-4.669	19.27277	30.51379	1.2069	0.82857	93.11516	132.10344	34.13964	0.36374	11.83298	164903.3602	0.62	4.44897E-5	1804.77735	30295.773	50.8214	13410.453
1225.0	0.95746	0.0425429	7.71948	7.37184	-4.7173	19.20252	30.44983	1.20541	0.82959	95.49188	132.48485	35.03406	0.36284	12.06401	180954.9864	0.60611	4.04084E-5	1805.69906	30049.452	49.2642	13465.661
1220.0	0.96186	0.038137	7.72304	7.36825	-4.76369	19.13769	30.38415	1.20399	0.83057	97.71384	132.8658	35.87098	0.36202	12.29996	198244.8897	0.5925	3.67611E-5	1806.60711	29809.833	47.9238	13514.576
1215.0	0.96585	0.0341462	7.72648	7.36478	-4.80849	19.07728	30.317	1.20261	0.83152	99.79769	133.24617	36.65654	0.36125	12.54098	216895.6618	0.57916	3.34875E-5	1807.50574	29576.026	46.7614	13558.088
1210.0	0.96948	0.0305185	7.72982	7.36143	-4.85188	19.02084	30.24852	1.20129	0.83244	101.75884	133.62583	37.39644	0.36054	12.78744	237044.2545	0.56609	3.05381E-5	1808.39753	29347.295	45.7462	13596.928
1205.0	0.97279	0.0272096	7.73306	7.35817	-4.894	18.96793	30.17888	1.2	0.83333	103.60902	134.00471	38.09499	0.35988	13.03951	258835.375	0.55328	2.78729E-5	1809.28535	29123.028	44.8534	13631.708
1200.0	0.97582	0.0241822	7.73623	7.355	-4.93497	18.91823	30.10821	1.19875	0.8342	105.35984	134.38272	38.7565	0.35925	13.29755	282430.9973	0.54071	2.54578E-5	1810.17093	28902.711	44.0634	13662.939
1195.0	0.9786	0.0214047	7.73932	7.35191	-4.97493	18.87131	30.0366	1.19753	0.83505	107.02045	134.7598	39.38436	0.35867	13.56183	308004.6413	0.52837	2.32648E-5	1811.05732	28685.908	43.3606	13691.054
1190.0	0.98115	0.0188493	7.74235	7.34888	-5.014	18.82687	29.96417	1.19633	0.83589	108.59941	135.13594	39.98174	0.35811	13.8326	335748.1339	0.51626	2.12697E-5	1811.94668	28472.251	42.7314	13716.421
1187.69	0.98225	0.0177495	7.74373	7.34751	-5.0317	18.80731	29.93042	1.19579	0.83626	109.29716	135.30924	40.24585	0.35787	13.95988	349327.8419	0.51075	2.04106E-5	1812.36052	28374.723	 	13727.154
1185.0	0.98411	0.0158855	7.74536	7.34575	-5.05452	18.77739	29.89375	1.19505	0.83678	110.39343	135.51765	40.66084	0.35749	14.13156	366826.8518	0.50362	1.94012E-5	1813.40371	28253.191	43.812	13747.585
1182.57	0.9857	0.0142969	7.74681	7.34417	-5.07486	18.75106	29.8604	1.1944	0.83724	111.34626	135.70499	41.02167	0.35716	14.28859	383255.9937	0.49725	1.85386E-5	1814.33199	28144.883	 	13764.819
1180.0	0.98738	0.0126188	7.74841	7.34242	-5.09749	18.71953	29.82343	1.19377	0.83769	112.36171	135.9062	41.40645	0.35681	14.43381	401492.1317	0.49138	1.76653E-5	1815.69173	28026.72941	45.29232	13784.532
1175.0	0.99045	0.00954799	7.75177	7.33947	-5.13571	18.6766	29.74889	1.19264	0.83848	114.25061	136.28515	42.12254	0.35617	14.7209	439785.0864	0.48014	1.60716E-5	1818.3366	27801.19316	45.10725	13820.165
1170.0	0.99321	0.00678728	7.75496	7.33639	-5.17553	18.6281	29.67542	1.19146	0.8393	116.02132	136.66826	42.79427	0.35557	15.01452	481238.0639	0.46912	1.46365E-5	1820.98418	27580.30171	44.17829	13851.601
1165.0	0.9957	0.00429604	7.75801	7.33319	-5.21679	18.57442	29.60274	1.19025	0.84016	117.68753	137.05512	43.42675	0.35501	15.31516	526163.8634	0.45832	1.33404E-5	1823.63423	27363.49009	43.36232	13879.401
1160.0	0.99796	0.00204327	7.76092	7.3299	-5.25933	18.51606	29.53076	1.189	0.84104	119.26042	137.4452	44.02416	0.35449	15.62311	574905.4976	0.44772	1.2167E-5	1826.28752	27150.28376	42.64127	13904.038
1155.0	1.0	0.0	7.76373	7.32652	-5.303	18.45344	29.45958	1.18772	0.84195	120.74989	137.83808	44.59021	0.354	 	627840.87	 	1.11022E-5	 	26940.28179	42.00039	13925.909
1150.0	1.0	0.0	7.76615	7.32424	-5.33252	18.43733	29.37662	1.1869	0.84253	121.22236	138.20667	44.77065	0.35382	 	680533.2091	 	1.02068E-5	 	26736.72098	40.71216	 
1145.0	1.0	0.0	7.76856	7.32196	-5.36198	18.42125	29.29365	1.18608	0.84311	121.69393	138.57343	44.95079	0.35363	 	738057.5599	 	9.37818E-6	 	26554.60579	36.42304	 
1140.0	1.0	0.0	7.77098	7.31968	-5.3914	18.40519	29.21067	1.18526	0.8437	122.16458	138.93839	45.13065	0.35345	 	800893.8115	 	8.61192E-6	 	26372.82651	36.35586	 
1135.0	1.0	0.0	7.77339	7.31741	-5.42076	18.38916	29.12768	1.18443	0.84429	122.63433	139.30153	45.31021	0.35327	 	869573.13	 	7.90368E-6	 	26191.38197	36.28891	 
1130.0	1.0	0.0	7.7758	7.31514	-5.45007	18.37315	29.04468	1.1836	0.84488	123.10318	139.66288	45.48949	0.35309	 	944683.8127	 	7.24944E-6	 	26010.27098	36.2222	 
1125.0	1.0	0.0	7.77821	7.31288	-5.47933	18.35718	28.96167	1.18276	0.84548	123.57112	140.02244	45.66847	0.35292	 	1026877.825	 	6.64541E-6	 	25829.49234	36.15573	 
1120.0	1.0	0.0	7.78061	7.31062	-5.50854	18.34123	28.87866	1.18192	0.84608	124.03815	140.38022	45.84716	0.35274	 	1116878.176	 	6.08806E-6	 	25649.04485	36.0895	 
1115.0	1.0	0.0	7.78302	7.30837	-5.5377	18.32531	28.79564	1.18107	0.84669	124.50428	140.73622	46.02556	0.35256	 	1215487.234	 	5.57407E-6	 	25468.92732	36.02351	 
1110.0	1.0	0.0	7.78541	7.30611	-5.5668	18.30943	28.7126	1.18022	0.8473	124.96951	141.09046	46.20367	0.35238	 	1323595.973	 	5.10036E-6	 	25289.13855	35.95775	 
1105.0	1.0	0.0	7.78781	7.30387	-5.59586	18.29357	28.62956	1.17936	0.84791	125.43384	141.44294	46.38149	0.3522	 	1442194.459	 	4.66401E-6	 	25109.67735	35.89224	 
1100.0	1.0	0.0	7.7902	7.30162	-5.62486	18.27775	28.54652	1.1785	0.84853	125.89727	141.79366	46.55902	0.35202	 	1572383.662	 	4.26232E-6	 	24930.54253	35.82696	 
1095.0	1.0	0.0	7.79259	7.29938	-5.65381	18.26195	28.46346	1.17764	0.84916	126.35981	142.14265	46.73626	0.35184	 	1715388.621	 	3.89276E-6	 	24751.73289	35.76193	 
1090.0	1.0	0.0	7.79498	7.29715	-5.68272	18.24619	28.3804	1.17677	0.84978	126.82144	142.4899	46.91321	0.35166	 	1872573.527	 	3.55297E-6	 	24573.24725	35.69713	 
1085.0	1.0	0.0	7.79737	7.29491	-5.71156	18.23046	28.29732	1.17589	0.85042	127.28218	142.83542	47.08987	0.35148	 	2045458.56	 	3.24074E-6	 	24395.08441	35.63257	 
1080.0	1.0	0.0	7.79975	7.29269	-5.74036	18.21477	28.21424	1.17502	0.85105	127.74202	143.17923	47.26624	0.3513	 	2235738.794	 	2.95401E-6	 	24217.24319	35.56825	 
1075.0	1.0	0.0	7.80213	7.29046	-5.76911	18.19911	28.13115	1.17413	0.85169	128.20098	143.52132	47.44233	0.35112	 	2445305.925	 	2.69086E-6	 	24039.72239	35.50416	 
1070.0	1.0	0.0	7.80451	7.28824	-5.7978	18.18349	28.04805	1.17324	0.85234	128.65904	143.86171	47.61813	0.35095	 	2676272.518	 	2.44952E-6	 	23862.52084	35.44031	 
1065.0	1.0	0.0	7.80688	7.28603	-5.82645	18.1679	27.96495	1.17235	0.85299	129.11621	144.20041	47.79364	0.35077	 	2930999.315	 	2.22831E-6	 	23685.63734	35.3767	 
1060.0	1.0	0.0	7.80925	7.28381	-5.85504	18.15235	27.88183	1.17145	0.85364	129.57249	144.53742	47.96887	0.35059	 	3212126.892	 	2.02569E-6	 	23509.07071	35.31333	 
1055.0	1.0	0.0	7.81162	7.28161	-5.88357	18.13684	27.79871	1.17055	0.8543	130.02789	144.87274	48.14381	0.35041	 	3522610.582	 	1.84022E-6	 	23332.81979	35.25019	 
1050.0	1.0	0.0	7.81398	7.2794	-5.91206	18.12136	27.71558	1.16964	0.85497	130.4824	145.20639	48.31846	0.35023	 	3865760.614	 	1.67056E-6	 	23156.88339	35.18728	 
1045.0	1.0	0.0	7.81635	7.2772	-5.94049	18.10593	27.63244	1.16872	0.85563	130.93602	145.53838	48.49283	0.35006	 	4245287.849	 	1.51546E-6	 	22981.26032	35.12461	 
1040.0	1.0	0.0	7.81871	7.27501	-5.96888	18.09053	27.54929	1.1678	0.85631	131.38876	145.86871	48.66691	0.34988	 	4665355.412	 	1.37378E-6	 	22805.94943	35.06218	 
1035.0	1.0	0.0	7.82106	7.27281	-5.99721	18.07518	27.46613	1.16688	0.85699	131.84063	146.1974	48.84071	0.3497	 	5130637.033	 	1.24444E-6	 	22630.94953	34.99998	 
1031.0	1.0	0.0	7.82295	7.27106	-6.01985	18.06288	27.39958	1.16614	0.85753	132.20155	146.45918	48.97957	0.34956	 	5538997.577	 	1.14917E-6	 	22491.15261	 	 
1030.0	1.0	0.0	7.82341	7.27063	-6.02547	18.05994	27.38297	1.16595	0.85767	132.2917	146.52458	49.01425	0.34952	 	5646419.096	 	1.12644E-6	 	22456.2061	34.94869	 
1025.0	1.0	0.0	7.82575	7.26845	-6.05356	18.04518	27.29983	1.16501	0.85836	132.74231	146.85085	49.18766	0.34935	 	6218773.208	 	1.01884E-6	 	22281.5329	34.93464	 
1020.0	1.0	0.0	7.82809	7.26628	-6.0816	18.03043	27.21669	1.16407	0.85905	133.19202	147.17544	49.36077	0.34917	 	6854179.836	 	9.20831E-7	 	22107.1855	34.86948	 
1015.0	1.0	0.0	7.83042	7.26412	-6.1096	18.0157	27.13353	1.16312	0.85975	133.64082	147.49836	49.53359	0.34899	 	7560130.118	 	8.31618E-7	 	21933.16175	34.80475	 
1010.0	1.0	0.0	7.83276	7.26196	-6.13756	18.001	27.05036	1.16217	0.86046	134.08873	147.81962	49.70612	0.34881	 	8345069.775	 	7.50471E-7	 	21759.45953	34.74044	 
1005.0	1.0	0.0	7.83509	7.2598	-6.16547	17.98632	26.96718	1.16121	0.86117	134.53573	148.13924	49.87836	0.34864	 	9218527.476	 	6.76717E-7	 	21586.07679	34.67655	 
1003.35	1.0	0.0	7.83585	7.25908	-6.17466	17.98148	26.93978	1.1609	0.8614	134.68281	148.24418	49.93505	0.34858	 	9527468.615	 	6.53929E-7	 	21529.02436	 	 
1000.0	1.0	0.0	7.83834	7.25678	-6.20441	17.92916	26.83918	1.16219	0.86045	135.24434	148.608	50.15288	0.34832	 	1.026916143E7	 	6.05106E-7	 	21355.3289	46.14958	 
995.0	1.0	0.0	7.84202	7.25338	-6.24838	17.85205	26.69221	1.164	0.85911	136.06961	149.14215	50.4731	0.34794	 	1.149066143E7	 	5.38657E-7	 	21098.39664	51.38645	 
990.0	1.0	0.0	7.84566	7.25002	-6.29187	17.77598	26.54827	1.16569	0.85786	136.88082	149.66661	50.78797	0.34757	 	1.286665487E7	 	4.79155E-7	 	20843.92685	50.89396	 
985.0	1.0	0.0	7.84926	7.24669	-6.3349	17.70095	26.40731	1.16728	0.85669	137.67849	150.18178	51.09767	0.34721	 	1.44178656E7	 	4.2591E-7	 	20591.85866	50.41364	 
980.0	1.0	0.0	7.85283	7.24339	-6.37746	17.62691	26.26921	1.16875	0.85561	138.46312	150.68801	51.4024	0.34685	 	1.616795825E7	 	3.78298E-7	 	20342.13342	49.94505	 
978.24	1.0	0.0	7.85408	7.24224	-6.39237	17.60102	26.22116	1.16925	0.85525	138.73688	150.86452	51.50875	0.34673	 	1.683771152E7	 	3.6274E-7	 	20254.58957	 	 
975.0	1.0	0.0	7.85782	7.23879	-6.43697	17.48539	26.14738	1.16951	0.85506	139.37478	151.19369	51.75978	0.34636	 	1.821339782E7	 	3.34474E-7	 	20033.89554	61.64758	 
974.82	1.0	0.0	7.85802	7.23861	-6.43935	17.47926	26.14341	1.16953	0.85505	139.40883	151.21129	51.77318	0.34634	 	1.829097163E7	 	3.33009E-7	 	20022.08459	 	 
970.0	1.0	0.0	7.86141	7.23549	-6.47963	17.40908	26.01641	1.17069	0.8542	140.14357	151.68436	52.05873	0.34601	 	2.046329114E7	 	2.96507E-7	 	19784.44323	49.89046	 
965.0	1.0	0.0	7.86488	7.23229	-6.52094	17.33729	25.88721	1.1718	0.85339	140.89341	152.16674	52.35023	0.34568	 	2.300405541E7	 	2.62697E-7	 	19540.39303	48.81004	 
960.0	1.0	0.0	7.86832	7.22913	-6.56183	17.26644	25.76038	1.17282	0.85265	141.63189	152.64142	52.63739	0.34535	 	2.588010192E7	 	2.32561E-7	 	19298.53871	48.37086	 
955.0	1.0	0.0	7.87173	7.226	-6.60231	17.19649	25.6358	1.17374	0.85198	142.35939	153.10867	52.92035	0.34503	 	2.913835649E7	 	2.05718E-7	 	19058.82562	47.94262	 
950.0	1.0	0.0	7.87511	7.2229	-6.64238	17.12742	25.51341	1.17457	0.85138	143.0763	153.56874	53.19926	0.34472	 	3.283270201E7	 	1.81828E-7	 	18821.20117	47.52489	 
945.0	1.0	0.0	7.87846	7.21983	-6.68205	17.0592	25.3931	1.17531	0.85084	143.78296	154.02185	53.47426	0.34441	 	3.702505579E7	 	1.6058E-7	 	18585.61469	47.1173	 
940.0	1.0	0.0	7.88178	7.21679	-6.72134	16.99182	25.2748	1.17596	0.85037	144.47972	154.46825	53.74547	0.34411	 	4.178664502E7	 	1.41698E-7	 	18352.01728	46.71948	 
935.0	1.0	0.0	7.88507	7.21378	-6.76026	16.92523	25.15842	1.17653	0.84996	145.1669	154.90813	54.01302	0.34381	 	4.719948147E7	 	1.24931E-7	 	18120.36174	46.33111	 
930.0	1.0	0.0	7.88833	7.2108	-6.79881	16.85944	25.0439	1.17702	0.8496	145.8448	155.34169	54.27702	0.34352	 	5.335808569E7	 	1.10054E-7	 	17890.60245	45.95186	 
925.0	1.0	0.0	7.89156	7.20784	-6.83699	16.7944	24.93114	1.17743	0.84931	146.51372	155.76914	54.53758	0.34324	 	6.037150458E7	 	9.68648E-8	 	17662.6953	45.58143	 
920.0	1.0	0.0	7.89477	7.20491	-6.87483	16.7301	24.8201	1.17776	0.84907	147.17396	156.19064	54.79483	0.34295	 	6.836567031E7	 	8.51812E-8	 	17436.59761	45.21954	 
915.0	1.0	0.0	7.89795	7.20201	-6.91232	16.66653	24.71069	1.17802	0.84888	147.82577	156.60637	55.04885	0.34268	 	7.748615806E7	 	7.484E-8	 	17212.26799	44.86592	 
910.0	1.0	0.0	7.9011	7.19914	-6.94948	16.60365	24.60286	1.1782	0.84875	148.46943	157.01649	55.29976	0.34241	 	8.790142744E7	 	6.56947E-8	 	16989.66635	44.52033	 
905.0	1.0	0.0	7.90423	7.19629	-6.98631	16.54146	24.49653	1.17832	0.84867	149.10518	157.42117	55.54764	0.34214	 	9.980662962E7	 	5.7614E-8	 	16768.7538	44.18251	 
900.0	1.0	0.0	7.90733	7.19346	-7.02282	16.47992	24.39166	1.17836	0.84864	149.73327	157.82055	55.7926	0.34187	 	1.134280615E8	 	5.048E-8	 	16549.49258	43.85224	 
895.0	1.0	0.0	7.91041	7.19066	-7.05901	16.41904	24.28817	1.17834	0.84865	150.35393	158.21478	56.03472	0.34161	 	1.290284341E8	 	4.41875E-8	 	16331.84604	43.52931	 
890.0	1.0	0.0	7.91347	7.18789	-7.0949	16.35878	24.18602	1.17825	0.84872	150.96739	158.60399	56.27408	0.34136	 	1.469130423E8	 	3.86422E-8	 	16115.77855	43.2135	 
885.0	1.0	0.0	7.9165	7.18513	-7.13048	16.29913	24.08516	1.1781	0.84883	151.57385	158.98831	56.51077	0.34111	 	1.674370952E8	 	3.37598E-8	 	15901.25546	42.90462	 
880.0	1.0	0.0	7.91951	7.1824	-7.16577	16.24007	23.98553	1.17788	0.84898	152.17354	159.36788	56.74487	0.34086	 	1.910142936E8	 	2.9465E-8	 	15688.24309	42.60247	 
875.0	1.0	0.0	7.9225	7.1797	-7.20077	16.18159	23.88708	1.17761	0.84918	152.76665	159.74282	56.97646	0.34061	 	2.181270542E8	 	2.56907E-8	 	15476.70814	42.30699	 
870.0	1.0	0.0	7.92546	7.17701	-7.23549	16.12367	23.78977	1.17728	0.84942	153.35338	160.11324	57.20562	0.34037	 	2.493385408E8	 	2.23769E-8	 	15266.61937	42.01775	 
865.0	1.0	0.0	7.92841	7.17435	-7.26993	16.0663	23.69354	1.17689	0.8497	153.9339	160.47926	57.43241	0.34013	 	2.853069419E8	 	1.94704E-8	 	15057.94573	41.73473	 
860.0	1.0	0.0	7.93133	7.1717	-7.3041	16.00945	23.59837	1.17644	0.85002	154.50842	160.84098	57.6569	0.3399	 	3.268024544E8	 	1.69234E-8	 	14850.65699	41.45775	 
855.0	1.0	0.0	7.93423	7.16908	-7.338	15.95312	23.50419	1.17595	0.85038	155.07709	161.19852	57.87917	0.33966	 	3.747273852E8	 	1.46939E-8	 	14644.72371	41.18666	 
850.0	1.0	0.0	7.93711	7.16648	-7.37164	15.89729	23.41099	1.1754	0.85078	155.64008	161.55197	58.09927	0.33943	 	4.301400979E8	 	1.27443E-8	 	14440.11718	40.92131	 
845.0	1.0	0.0	7.93935	7.16446	-7.39773	15.87524	23.33595	1.17393	0.85184	156.04514	161.81327	58.25734	0.33927	 	4.903756759E8	 	1.1129E-8	 	14279.8045	32.06254	 
840.0	1.0	0.0	7.94158	7.16244	-7.42376	15.85318	23.26091	1.17245	0.85292	156.44951	162.07337	58.41519	0.33912	 	5.597050719E8	 	9.70691E-9	 	14116.47189	32.66652	 
835.0	1.0	0.0	7.94381	7.16043	-7.44973	15.83111	23.18586	1.17096	0.854	156.85318	162.33228	58.57282	0.33896	 	6.395990635E8	 	8.45624E-9	 	13953.39305	32.61577	 
830.0	1.0	0.0	7.94603	7.15843	-7.47565	15.80902	23.1108	1.16946	0.85509	157.25616	162.58999	58.73023	0.3388	 	7.317819565E8	 	7.35766E-9	 	13790.56744	32.56512	 
825.0	1.0	0.0	7.94826	7.15643	-7.50151	15.78691	23.03573	1.16795	0.8562	157.65845	162.84652	58.88741	0.33864	 	8.382779659E8	 	6.39382E-9	 	13627.99454	32.51458	 
820.0	1.0	0.0	7.95047	7.15443	-7.52732	15.76479	22.96066	1.16644	0.85731	158.06005	163.10186	59.04437	0.33849	 	9.614665681E8	 	5.54922E-9	 	13465.67377	32.46415	 
815.0	1.0	0.0	7.95269	7.15244	-7.55307	15.74265	22.88557	1.16491	0.85843	158.46095	163.35603	59.20111	0.33833	 	1.104148656E9	 	4.81003E-9	 	13303.6046	32.41383	 
810.0	1.0	0.0	7.9549	7.15045	-7.57877	15.72049	22.81048	1.16338	0.85957	158.86116	163.60902	59.35762	0.33817	 	1.269625715E9	 	4.16389E-9	 	13141.78643	32.36364	 
805.0	1.0	0.0	7.95711	7.14847	-7.60441	15.69832	22.73538	1.16183	0.86071	159.26068	163.86084	59.51391	0.33801	 	1.461794734E9	 	3.59981E-9	 	12980.2187	32.31355	 
800.0	1.0	0.0	7.95931	7.14649	-7.62999	15.67613	22.66027	1.16028	0.86186	159.65951	164.11149	59.66998	0.33785	 	1.68526212E9	 	3.10799E-9	 	12818.90079	32.26358	 
795.0	1.0	0.0	7.96151	7.14451	-7.65552	15.65393	22.58515	1.15871	0.86303	160.05765	164.36097	59.82582	0.3377	 	1.945480662E9	 	2.67974E-9	 	12657.83212	32.21373	 
790.0	1.0	0.0	7.96371	7.14254	-7.68099	15.63171	22.51003	1.15714	0.8642	160.4551	164.6093	59.98145	0.33754	 	2.248914431E9	 	2.30732E-9	 	12497.01207	32.16401	 
785.0	1.0	0.0	7.9659	7.14058	-7.7064	15.60947	22.43489	1.15555	0.86539	160.85186	164.85647	60.13684	0.33738	 	2.603237627E9	 	1.9839E-9	 	12336.44001	32.11441	 
780.0	1.0	0.0	7.96809	7.13861	-7.73176	15.58722	22.35975	1.15396	0.86658	161.24793	165.10248	60.29202	0.33722	 	3.01757474E9	 	1.70341E-9	 	12176.11528	32.06495	 
775.0	1.0	0.0	7.97028	7.13666	-7.75706	15.56495	22.28459	1.15235	0.86779	161.6433	165.34735	60.44697	0.33707	 	3.502791071E9	 	1.46048E-9	 	12016.03725	32.01561	 
770.0	1.0	0.0	7.97246	7.1347	-7.78231	15.54267	22.20943	1.15074	0.86901	162.03799	165.59107	60.60171	0.33691	 	4.07184472E9	 	1.25038E-9	 	11856.20522	31.96641	 
765.0	1.0	0.0	7.97464	7.13276	-7.8075	15.52037	22.13425	1.14911	0.87024	162.43199	165.83366	60.75621	0.33675	 	4.740213761E9	 	1.06893E-9	 	11696.6185	31.91734	 
760.0	1.0	0.0	7.97681	7.13081	-7.83263	15.49805	22.05907	1.14747	0.87148	162.8253	166.0751	60.9105	0.33659	 	5.526415495E9	 	9.12445E-10	 	11537.27639	31.86842	 
755.0	1.0	0.0	7.97898	7.12887	-7.85771	15.47572	21.98387	1.14583	0.87273	163.21792	166.31541	61.06456	0.33644	 	6.452638714E9	 	7.77689E-10	 	11378.17815	31.81965	 
750.0	1.0	0.0	7.98115	7.12693	-7.88273	15.45338	21.90867	1.14417	0.874	163.60985	166.55459	61.2184	0.33628	 	7.545514838E9	 	6.61816E-10	 	11219.32304	31.77102	 
745.0	1.0	0.0	7.98331	7.125	-7.90769	15.43101	21.83345	1.1425	0.87528	164.0011	166.79264	61.37202	0.33612	 	8.837060076E9	 	5.62329E-10	 	11060.71028	31.72255	 
740.0	1.0	0.0	7.98547	7.12308	-7.9326	15.40863	21.75823	1.14082	0.87656	164.39165	167.02957	61.52541	0.33597	 	1.03658E10	 	4.77042E-10	 	10902.33907	31.67424	 
735.0	1.0	0.0	7.98763	7.12115	-7.95745	15.38624	21.68299	1.13913	0.87787	164.78152	167.26538	61.67858	0.33581	 	1.2178299999999998E10	 	4.0404E-10	 	10744.2086	31.62609	 
730.0	1.0	0.0	7.98978	7.11924	-7.98224	15.36383	21.60774	1.13742	0.87918	165.1707	167.50007	61.83153	0.33565	 	1.4330699999999998E10	 	3.41652E-10	 	10586.31801	31.57812	 
725.0	1.0	0.0	7.99193	7.11732	-8.00698	15.3414	21.53249	1.13571	0.88051	165.55919	167.73365	61.98425	0.33549	 	1.6891099999999998E10	 	2.88419E-10	 	10428.66642	31.53032	 
720.0	1.0	0.0	7.99407	7.11541	-8.03166	15.31895	21.45722	1.13399	0.88185	165.947	167.96612	62.13676	0.33534	 	1.99419E10	 	2.43072E-10	 	10271.25293	31.4827	 
715.0	1.0	0.0	7.99621	7.11351	-8.05628	15.29649	21.38194	1.13225	0.8832	166.33411	168.19749	62.28903	0.33518	 	2.3583299999999996E10	 	2.04506E-10	 	10114.07659	31.43527	 
710.0	1.0	0.0	7.99835	7.11161	-8.08085	15.27402	21.30664	1.1305	0.88456	166.72055	168.42776	62.44109	0.33502	 	2.7937199999999996E10	 	1.71761E-10	 	9957.13643	31.38803	 
705.0	1.0	0.0	8.00048	7.10971	-8.10535	15.25153	21.23134	1.12874	0.88594	167.10629	168.65692	62.59292	0.33487	 	3.3152299999999996E10	 	1.44005E-10	 	9800.43143	31.341	 
700.0	1.0	0.0	8.00261	7.10782	-8.12981	15.22902	21.15602	1.12697	0.88734	167.49135	168.88499	62.74454	0.33471	 	3.94102E10	 	1.2052E-10	 	9643.96054	31.29418	 
695.0	1.0	0.0	8.00474	7.10593	-8.1542	15.2065	21.08069	1.12518	0.88874	167.87572	169.11197	62.89592	0.33455	 	4.693309999999999E10	 	1.00682E-10	 	9487.72266	31.24758	 
690.0	1.0	0.0	8.00686	7.10405	-8.17853	15.18396	21.00535	1.12339	0.89016	168.25941	169.33787	63.04709	0.33439	 	5.599349999999999E10	 	8.39544E-11	 	9331.71664	31.2012	 
685.0	1.0	0.0	8.00898	7.10217	-8.20281	15.1614	20.93	1.12158	0.8916	168.64241	169.56267	63.19803	0.33424	 	6.692609999999999E10	 	6.98755E-11	 	9175.94129	31.15507	 
680.0	1.0	0.0	8.01109	7.1003	-8.22703	15.13883	20.85463	1.11976	0.89305	169.02473	169.7864	63.34875	0.33408	 	8.01431E10	 	5.80472E-11	 	9020.39537	31.10918	 
675.0	1.0	0.0	8.0132	7.09843	-8.2512	15.11624	20.77925	1.11793	0.89451	169.40636	170.00905	63.49925	0.33392	 	9.615299999999998E10	 	4.81283E-11	 	8865.07758	31.06356	 
670.0	1.0	0.0	8.01531	7.09656	-8.2753	15.09364	20.70385	1.11608	0.89599	169.7873	170.23062	63.64952	0.33377	 	1.15584E11	 	3.98263E-11	 	8709.98655	31.01821	 
665.0	1.0	0.0	8.01741	7.0947	-8.29935	15.07102	20.62845	1.11422	0.89749	170.16756	170.45113	63.79957	0.33361	 	1.39215E11	 	3.28908E-11	 	8555.12085	30.97314	 
660.0	1.0	0.0	8.01951	7.09285	-8.32334	15.04839	20.55303	1.11235	0.899	170.54714	170.67056	63.9494	0.33345	 	1.68011E11	 	2.71082E-11	 	8400.48221	30.92773	 
655.0	1.0	0.0	8.0216	7.09099	-8.34727	15.02573	20.47759	1.11047	0.90052	170.92603	170.88894	64.099	0.3333	 	2.03175E11	 	2.22964E-11	 	8246.08835	30.87877	 
650.0	1.0	0.0	8.02369	7.08915	-8.37115	15.00307	20.40214	1.10857	0.90206	171.30424	171.10625	64.24838	0.33314	 	2.46205E11	 	1.83005E-11	 	8091.96286	30.8251	 
645.0	1.0	0.0	8.02578	7.0873	-8.39496	14.98038	20.32668	1.10666	0.90362	171.68176	171.3225	64.39754	0.33298	 	2.98973E11	 	1.49888E-11	 	7938.10508	30.77156	 
640.0	1.0	0.0	8.02786	7.08547	-8.41872	14.95769	20.2512	1.10473	0.9052	172.0586	171.5377	64.54647	0.33283	 	3.63824E11	 	1.225E-11	 	7784.51437	30.71814	 
635.0	1.0	0.0	8.02994	7.08363	-8.44242	14.93497	20.1757	1.1028	0.90679	172.43475	171.75185	64.69519	0.33267	 	4.43699E11	 	9.98977E-12	 	7631.19007	30.66486	 
630.0	1.0	0.0	8.03201	7.0818	-8.46607	14.91224	20.10019	1.10084	0.90839	172.81023	171.96495	64.84368	0.33251	 	5.42301E11	 	8.12842E-12	 	7478.13154	30.61171	 
625.0	1.0	0.0	8.03408	7.07998	-8.48965	14.88949	20.02467	1.09888	0.91002	173.18501	172.177	64.99194	0.33236	 	6.64298E11	 	6.59892E-12	 	7325.33787	30.55873	 
620.0	1.0	0.0	8.03615	7.07816	-8.51318	14.86673	19.94913	1.0969	0.91166	173.55912	172.38802	65.13998	0.3322	 	8.1559E11	 	5.34489E-12	 	7172.8077	30.50603	 
615.0	1.0	0.0	8.03821	7.07634	-8.53664	14.84395	19.87357	1.09491	0.91332	173.93254	172.59799	65.2878	0.33204	 	1.00365E12	 	4.31905E-12	 	7020.54078	30.45338	 
610.0	1.0	0.0	8.04027	7.07453	-8.56005	14.82115	19.798	1.0929	0.915	174.30528	172.80693	65.4354	0.33189	 	1.23799E12	 	3.4818E-12	 	6868.53647	30.40086	 
605.0	1.0	0.0	8.04232	7.07272	-8.5834	14.79834	19.72241	1.09087	0.9167	174.67734	173.01484	65.58277	0.33173	 	1.53069E12	 	2.80006E-12	 	6716.79413	30.34847	 
600.0	1.0	0.0	8.04437	7.07092	-8.6067	14.77552	19.6468	1.08884	0.91841	175.04871	173.22172	65.72992	0.33158	 	1.8972E12	 	2.24627E-12	 	6565.31316	30.29619	 
595.0	1.0	0.0	8.04642	7.06913	-8.62993	14.75267	19.57118	1.08679	0.92014	175.41941	173.42758	65.87685	0.33142	 	2.35729E12	 	1.7975E-12	 	6414.09293	30.24405	 
590.0	1.0	0.0	8.04846	7.06733	-8.6531	14.72981	19.49553	1.08472	0.9219	175.78942	173.63241	66.02356	0.33126	 	2.93634E12	 	1.43472E-12	 	6263.13281	30.19202	 
585.0	1.0	0.0	8.05049	7.06554	-8.67622	14.70694	19.41987	1.08264	0.92367	176.15874	173.83623	66.17004	0.33111	 	3.66699E12	 	1.14219E-12	 	6112.43221	30.14012	 
580.0	1.0	0.0	8.05253	7.06376	-8.69928	14.68405	19.34419	1.08054	0.92546	176.52739	174.03902	66.31629	0.33095	 	4.5914E12	 	9.06915E-13	 	5961.99047	30.08835	 
575.0	1.0	0.0	8.05456	7.06198	-8.72228	14.66114	19.2685	1.07843	0.92728	176.89536	174.24081	66.46233	0.33079	 	5.7641E12	 	7.18171E-13	 	5811.80702	30.03669	 
570.0	1.0	0.0	8.05658	7.06021	-8.74522	14.63822	19.19278	1.0763	0.92911	177.26264	174.44158	66.60814	0.33064	 	7.25587E12	 	5.67155E-13	 	5661.88122	29.98516	 
565.0	1.0	0.0	8.0586	7.05844	-8.7681	14.61528	19.11705	1.07416	0.93096	177.62924	174.64135	66.75373	0.33048	 	9.15883E12	 	4.46651E-13	 	5512.21248	29.93375	 
560.0	1.0	0.0	8.06062	7.05667	-8.79092	14.59232	19.04129	1.072	0.93284	177.99516	174.84012	66.89909	0.33033	 	1.15932E13	 	3.50756E-13	 	5362.80019	29.88246	 
555.0	1.0	0.0	8.06263	7.05491	-8.81368	14.56935	18.96552	1.06982	0.93474	178.36041	175.03788	67.04423	0.33017	 	1.47165E13	 	2.74657E-13	 	5213.64375	29.83129	 
550.0	1.0	0.0	8.06464	7.05315	-8.83638	14.54637	18.88972	1.06763	0.93666	178.72497	175.23464	67.18915	0.33001	 	1.87355E13	 	2.14438E-13	 	5064.74254	29.78024	 
545.0	1.0	0.0	8.06664	7.0514	-8.85903	14.52336	18.8139	1.06542	0.9386	179.08885	175.43041	67.33384	0.32986	 	2.39225E13	 	1.66922E-13	 	4916.09599	29.72931	 
540.0	1.0	0.0	8.06864	7.04965	-8.88161	14.50034	18.73807	1.06319	0.94056	179.45204	175.62519	67.47831	0.3297	 	3.06374E13	 	1.2954E-13	 	4767.70348	29.6785	 
535.0	1.0	0.0	8.07064	7.04791	-8.90414	14.47731	18.66221	1.06095	0.94255	179.81456	175.81898	67.62256	0.32955	 	3.93575E13	 	1.00219E-13	 	4619.56445	29.62781	 
530.0	1.0	0.0	8.07263	7.04617	-8.9266	14.45426	18.58633	1.05869	0.94456	180.1764	176.01179	67.76658	0.32939	 	5.07175E13	 	7.72903E-14	 	4471.67827	29.57724	 
525.0	1.0	0.0	8.07461	7.04444	-8.94901	14.43119	18.51042	1.05641	0.9466	180.53756	176.20361	67.91038	0.32923	 	6.55644E13	 	5.94159E-14	 	4324.04438	29.52678	 
520.0	1.0	0.0	8.0766	7.04271	-8.97136	14.40811	18.4345	1.05412	0.94866	180.89804	176.39445	68.05395	0.32908	 	8.50323E13	 	4.55258E-14	 	4176.6622	29.47644	 
515.0	1.0	0.0	8.07857	7.04099	-8.99364	14.38501	18.35855	1.05181	0.95074	181.25784	176.58432	68.19731	0.32892	 	1.10645E14	 	3.47667E-14	 	4029.53113	29.42621	 
510.0	1.0	0.0	8.08055	7.03927	-9.01587	14.3619	18.28258	1.04948	0.95285	181.61696	176.77321	68.34043	0.32877	 	1.44458E14	 	2.646E-14	 	3882.65061	29.3761	 
505.0	1.0	0.0	8.08252	7.03755	-9.03804	14.33876	18.20658	1.04713	0.95499	181.9754	176.96113	68.48334	0.32861	 	1.89251E14	 	2.00683E-14	 	3736.02006	29.32611	 
500.0	1.0	0.0	8.08448	7.03584	-9.06015	14.31562	18.13056	1.04477	0.95715	182.33316	177.14808	68.62602	0.32846	 	2.48801E14	 	1.51669E-14	 	3589.63892	29.27623	 
495.0	1.0	0.0	8.08644	7.03413	-9.0822	14.29245	18.05451	1.04238	0.95934	182.69024	177.33407	68.76848	0.3283	 	3.28256E14	 	1.14214E-14	 	3443.50661	29.22646	 
490.0	1.0	0.0	8.0884	7.03243	-9.10418	14.26928	17.97844	1.03998	0.96156	183.04665	177.51909	68.91071	0.32814	 	4.34662E14	 	8.5693E-15	 	3297.62259	29.1768	 
485.0	1.0	0.0	8.09035	7.03074	-9.12611	14.24608	17.90234	1.03756	0.9638	183.40237	177.70315	69.05272	0.32799	 	5.77694E14	 	6.40537E-15	 	3151.98627	29.12726	 
480.0	1.0	0.0	8.0923	7.02904	-9.14798	14.22287	17.82622	1.03511	0.96608	183.75742	177.88626	69.1945	0.32783	 	7.70698E14	 	4.76962E-15	 	3006.59711	29.07783	 
475.0	1.0	0.0	8.09424	7.02736	-9.16979	14.19964	17.75006	1.03265	0.96838	184.11178	178.06841	69.33606	0.32768	 	1.03215E15	 	3.53778E-15	 	2861.45458	29.02851	 
470.0	1.0	0.0	8.09618	7.02567	-9.19154	14.1764	17.67389	1.03017	0.97071	184.46547	178.24961	69.4774	0.32752	 	1.38775E15	 	2.61368E-15	 	2716.5581	28.9793	 
465.0	1.0	0.0	8.09811	7.024	-9.21322	14.15314	17.59768	1.02767	0.97307	184.81848	178.42987	69.61851	0.32737	 	1.87336E15	 	1.92314E-15	 	2571.90716	28.93019	 
460.0	1.0	0.0	8.10004	7.02232	-9.23485	14.12987	17.52144	1.02515	0.97546	185.17082	178.60918	69.7594	0.32721	 	2.53926E15	 	1.4092E-15	 	2427.50121	28.88119	 
455.0	1.0	0.0	8.10197	7.02066	-9.25642	14.10658	17.44517	1.02261	0.97789	185.52247	178.78754	69.90007	0.32705	 	3.45626E15	 	1.02825E-15	 	2283.3397	28.8323	 
450.0	1.0	0.0	8.10389	7.01899	-9.27793	14.08327	17.36888	1.02005	0.98034	185.87345	178.96497	70.04051	0.3269	 	4.72453E15	 	7.47061E-16	 	2139.42213	28.78351	 
445.0	1.0	0.0	8.1058	7.01733	-9.29937	14.05995	17.29255	1.01747	0.98283	186.22375	179.14145	70.18073	0.32674	 	6.48636E15	 	5.40382E-16	 	1995.74797	28.73483	 
440.0	1.0	0.0	8.10772	7.01568	-9.32076	14.03661	17.21619	1.01487	0.98535	186.57337	179.31701	70.32072	0.32659	 	8.94485E15	 	3.8913E-16	 	1852.31669	28.68626	 
435.0	1.0	0.0	8.10962	7.01403	-9.34208	14.01325	17.13981	1.01224	0.9879	186.92231	179.49163	70.46049	0.32643	 	1.23913E16	 	2.7893E-16	 	1709.1278	28.63778	 
430.0	1.0	0.0	8.11153	7.01238	-9.36334	13.98988	17.06338	1.0096	0.99049	187.27058	179.66532	70.60003	0.32628	 	1.7245400000000002E16	 	1.99004E-16	 	1566.18077	28.58941	 
425.0	1.0	0.0	8.11342	7.01074	-9.38455	13.9665	16.98693	1.00693	0.99312	187.61817	179.83809	70.73935	0.32612	 	2.41149E16	 	1.41303E-16	 	1423.47518	28.54112	 
420.0	1.0	0.0	8.11532	7.00911	-9.40569	13.94309	16.91044	1.00424	0.99578	187.96508	180.00993	70.87845	0.32597	 	3.3884300000000004E16	 	9.98426E-17	 	1281.01042	28.49295	 
415.0	1.0	0.0	8.11721	7.00748	-9.42677	13.91968	16.83391	1.00153	0.99847	188.31132	180.18085	71.01732	0.32581	 	4.78473E16	 	7.0196E-17	 	1138.78623	28.44484	 
410.0	1.0	0.0	8.11909	7.00585	-9.44779	13.89624	16.75735	0.9988	1.00121	188.65688	180.35085	71.15596	0.32566	 	6.7906400000000008E16	 	4.91012E-17	 	996.80238	28.39677	 
405.0	1.0	0.0	8.12097	7.00423	-9.46875	13.87279	16.68076	0.99604	1.00398	189.00176	180.51994	71.29438	0.3255	 	9.68738E16	 	3.41669E-17	 	855.05865	28.34875	 
400.0	1.0	0.0	8.12285	7.00261	-9.48965	13.84932	16.60413	0.99326	1.00679	189.34596	180.68811	71.43258	0.32535	 	1.38929E17	 	2.36486E-17	 	713.55485	28.30076	 
395.0	1.0	0.0	8.12472	7.001	-9.51049	13.82584	16.52746	0.99045	1.00964	189.68949	180.85538	71.57055	0.32519	 	2.0032E17	 	1.62793E-17	 	572.29079	28.25281	 
390.0	1.0	0.0	8.12658	6.99939	-9.53126	13.80234	16.45075	0.98763	1.01253	190.03235	181.02173	71.7083	0.32504	 	2.90438E17	 	1.11441E-17	 	431.26626	28.2049	 
385.0	1.0	0.0	8.12844	6.99779	-9.55198	13.77883	16.374	0.98477	1.01546	190.37452	181.18718	71.84583	0.32488	 	4.23479E17	 	7.58542E-18	 	290.48111	28.15703	 
380.0	1.0	0.0	8.1303	6.99619	-9.57263	13.7553	16.29721	0.9819	1.01844	190.71602	181.35173	71.98312	0.32473	 	6.21039E17	 	5.13312E-18	 	149.93515	28.10919	 
375.0	1.0	0.0	8.13215	6.9946	-9.59322	13.73175	16.22038	0.979	1.02146	191.05685	181.51538	72.1202	0.32457	 	9.16159E17	 	3.45296E-18	 	9.62821	28.06139	 
370.0	1.0	0.0	8.134	6.99301	-9.61375	13.70819	16.14351	0.97607	1.02452	191.397	181.67813	72.25705	0.32442	 	1.35972E18	 	2.30861E-18	 	-130.43985	28.01361	 
365.0	1.0	0.0	8.13584	6.99143	-9.63422	13.68461	16.06659	0.97312	1.02763	191.73647	181.83999	72.39367	0.32426	 	2.03055E18	 	1.5339E-18	 	-270.26918	27.96587	 
360.0	1.0	0.0	8.13768	6.98985	-9.65463	13.66102	15.98963	0.97014	1.03078	192.07527	182.00095	72.53007	0.32411	 	3.0516E18	 	1.01266E-18	 	-409.85993	27.91815	 
355.0	1.0	0.0	8.13951	6.98827	-9.67497	13.63741	15.91263	0.96714	1.03398	192.41339	182.16102	72.66624	0.32395	 	4.61594E18	 	6.64186E-19	 	-549.21221	27.87046	 
350.0	1.0	0.0	8.14134	6.9867	-9.69526	13.61378	15.83558	0.96411	1.03723	192.75083	182.32021	72.80219	0.3238	 	7.02872E18	 	4.32716E-19	 	-688.32615	27.82279	 
345.0	1.0	0.0	8.14316	6.98514	-9.71548	13.59014	15.75848	0.96105	1.04053	193.0876	182.47851	72.93792	0.32364	 	1.07757E19	 	2.79985E-19	 	-827.20185	27.77514	 
340.0	1.0	0.0	8.14498	6.98358	-9.73564	13.56648	15.68133	0.95797	1.04388	193.4237	182.63593	73.07342	0.32349	 	1.66358E19	 	1.79891E-19	 	-965.83941	27.72751	 
335.0	1.0	0.0	8.1468	6.98202	-9.75574	13.54281	15.60414	0.95485	1.04728	193.75912	182.79247	73.20869	0.32333	 	2.58667E19	 	1.14751E-19	 	-1104.23891	27.6799	 
330.0	1.0	0.0	8.14861	6.98047	-9.77578	13.51911	15.52689	0.95172	1.05073	194.09387	182.94813	73.34374	0.32318	 	4.05152E19	 	7.26598E-20	 	-1242.40044	27.6323	 
325.0	1.0	0.0	8.15041	6.97893	-9.79575	13.49541	15.44959	0.94855	1.05424	194.42794	183.10292	73.47856	0.32302	 	6.39369E19	 	4.56609E-20	 	-1380.32405	27.58472	 
320.0	1.0	0.0	8.15221	6.97739	-9.81566	13.47169	15.37224	0.94535	1.05781	194.76133	183.25683	73.61316	0.32287	 	1.01678E20	 	2.84724E-20	 	-1518.00978	27.53715	 
315.0	1.0	0.0	8.154	6.97585	-9.83551	13.44795	15.29483	0.94213	1.06143	195.09405	183.40988	73.74753	0.32272	 	1.62977E20	 	1.76136E-20	 	-1655.45769	27.48958	 
310.0	1.0	0.0	8.15579	6.97432	-9.8553	13.42419	15.21737	0.93887	1.06511	195.4261	183.56206	73.88168	0.32256	 	2.6335399999999997E20	 	1.08075E-20	 	-1792.66778	27.44202	 
305.0	1.0	0.0	8.15758	6.97279	-9.87502	13.40042	15.13984	0.93559	1.06885	195.75747	183.71337	74.0156	0.32241	 	4.2910099999999997E20	 	6.57609E-21	 	-1929.64007	27.39446	 
300.0	1.0	0.0	8.15936	6.97127	-9.89469	13.37664	15.06226	0.93228	1.07264	196.08817	183.86382	74.1493	0.32225	 	7.051429999999999E20	 	3.96714E-21	 	-2066.37453	27.34689	 
295.0	1.0	0.0	8.16113	6.96976	-9.91429	13.35284	14.98462	0.92893	1.07651	196.41819	184.01341	74.28277	0.3221	 	1.16894E21	 	2.37224E-21	 	-2202.87117	27.29933	 
290.0	1.0	0.0	8.1629	6.96825	-9.93383	13.32902	14.90692	0.92555	1.08043	196.74754	184.16215	74.41601	0.32194	 	1.9552600000000001E21	 	1.40574E-21	 	-2339.12994	27.25175	 
285.0	1.0	0.0	8.16467	6.96674	-9.9533	13.30518	14.82916	0.92215	1.08442	197.07622	184.31002	74.54903	0.32179	 	3.30081E21	 	8.25311E-22	 	-2475.15078	27.20417	 
280.0	1.0	0.0	8.16643	6.96524	-9.97271	13.28133	14.75133	0.91871	1.08848	197.40422	184.45705	74.68183	0.32163	 	5.62532E21	 	4.79935E-22	 	-2610.93361	27.15657	 
275.0	1.0	0.0	8.16819	6.96374	-9.99206	13.25747	14.67343	0.91524	1.09261	197.73154	184.60322	74.8144	0.32148	 	9.68049E21	 	2.76369E-22	 	-2746.47834	27.10895	 
270.0	1.0	0.0	8.16994	6.96225	-10.01135	13.23358	14.59546	0.91173	1.09681	198.0582	184.74855	74.94674	0.32133	 	1.68263E22	 	1.5755E-22	 	-2881.78487	27.06131	 
265.0	1.0	0.0	8.17168	6.96076	-10.03058	13.20969	14.51742	0.9082	1.10108	198.38418	184.89303	75.07885	0.32117	 	2.95489E22	 	8.88893E-23	 	-3016.85306	27.01364	 
260.0	1.0	0.0	8.17342	6.95928	-10.04974	13.18577	14.43931	0.90463	1.10543	198.70948	185.03667	75.21074	0.32102	 	5.24421E22	 	4.96199E-23	 	-3151.68276	26.96594	 
255.0	1.0	0.0	8.17516	6.9578	-10.06884	13.16184	14.36113	0.90102	1.10985	199.03412	185.17946	75.34241	0.32086	 	9.408849999999999E22	 	2.73973E-23	 	-3286.27378	26.9182	 
250.0	1.0	0.0	8.17689	6.95633	-10.08787	13.1379	14.28287	0.89738	1.11435	199.35808	185.32142	75.47385	0.32071	 	1.70705E23	 	1.49578E-23	 	-3420.62595	26.87043	 
245.0	1.0	0.0	8.17862	6.95486	-10.10684	13.11393	14.20453	0.89371	1.11894	199.68136	185.46254	75.60506	0.32056	 	3.13291E23	 	8.07225E-24	 	-3554.73901	26.82261	 
240.0	1.0	0.0	8.18034	6.9534	-10.12575	13.08996	14.12611	0.89	1.1236	200.00397	185.60283	75.73605	0.3204	 	5.8182E23	 	4.3047E-24	 	-3688.61275	26.77475	 
235.0	1.0	0.0	8.18205	6.95194	-10.1446	13.06596	14.0476	0.88625	1.12835	200.32591	185.74228	75.86681	0.32025	 	1.09375E24	 	2.26756E-24	 	-3822.24687	26.72682	 
230.0	1.0	0.0	8.18376	6.95048	-10.16338	13.04195	13.96901	0.88247	1.13319	200.64718	185.88091	75.99734	0.32009	 	2.08209E24	 	1.17946E-24	 	-3955.64107	26.67884	 
225.0	1.0	0.0	8.18547	6.94904	-10.1821	13.01793	13.89034	0.87864	1.13812	200.96777	186.01871	76.12765	0.31994	 	4.01505E24	 	6.05558E-25	 	-4088.79502	26.63079	 
220.0	1.0	0.0	8.18717	6.94759	-10.20076	12.99388	13.81157	0.87479	1.14314	201.28769	186.15568	76.25773	0.31979	 	7.84633E24	 	3.0676E-25	 	-4221.70836	26.58267	 
215.0	1.0	0.0	8.18886	6.94615	-10.21935	12.96983	13.73271	0.87089	1.14825	201.60694	186.29183	76.38758	0.31963	 	1.55454E25	 	1.53263E-25	 	-4354.38068	26.53447	 
210.0	1.0	0.0	8.19055	6.94472	-10.23788	12.94575	13.65375	0.86695	1.15346	201.92551	186.42716	76.51721	0.31948	 	3.12381E25	 	7.54892E-26	 	-4486.81157	26.48618	 
205.0	1.0	0.0	8.19224	6.94329	-10.25635	12.92166	13.57469	0.86298	1.15878	202.24341	186.56167	76.64661	0.31932	 	6.369490000000001E25	 	3.66392E-26	 	-4619.00055	26.4378	 
200.0	1.0	0.0	8.19392	6.94187	-10.27475	12.89756	13.49553	0.85896	1.16419	202.56064	186.69537	76.77579	0.31917	 	1.3184500000000001E26	 	1.75154E-26	 	-4750.94711	26.38931	 
195.0	1.0	0.0	8.1956	6.94045	-10.29309	12.87343	13.41626	0.85491	1.16972	202.8772	186.82825	76.90474	0.31902	 	2.7718700000000003E26	 	8.24325E-27	 	-4882.65073	26.34072	 
190.0	1.0	0.0	8.19727	6.93904	-10.31136	12.8493	13.33689	0.85081	1.17535	203.19308	186.96032	77.03346	0.31886	 	5.9217500000000004E26	 	3.81732E-27	 	-5014.1108	26.29201	 
185.0	1.0	0.0	8.19893	6.93763	-10.32957	12.82514	13.2574	0.84667	1.18109	203.5083	187.09158	77.16195	0.31871	 	1.28624E27	 	1.73849E-27	 	-5145.32669	26.24318	 
180.0	1.0	0.0	8.20059	6.93622	-10.34772	12.80097	13.1778	0.84249	1.18696	203.82284	187.22203	77.29022	0.31856	 	2.84203E27	 	7.78214E-28	 	-5276.29773	26.19421	 
175.0	1.0	0.0	8.20224	6.93482	-10.3658	12.77679	13.09808	0.83827	1.19294	204.1367	187.35168	77.41826	0.3184	 	6.39174E27	 	3.42209E-28	 	-5407.0232	26.14509	 
170.0	1.0	0.0	8.20389	6.93343	-10.38382	12.75258	13.01823	0.834	1.19904	204.4499	187.48053	77.54608	0.31825	 	1.46403E28	 	1.47736E-28	 	-5537.50231	26.09582	 
165.0	1.0	0.0	8.20554	6.93204	-10.40177	12.72837	12.93826	0.82968	1.20528	204.76242	187.60857	77.67366	0.31809	 	3.41742E28	 	6.25765E-29	 	-5667.73423	26.04638	 
160.0	1.0	0.0	8.20718	6.93066	-10.41966	12.70413	12.85816	0.82533	1.21164	205.07427	187.73582	77.80102	0.31794	 	8.13476E28	 	2.59884E-29	 	-5797.71807	25.99677	 
155.0	1.0	0.0	8.20881	6.92928	-10.43749	12.67988	12.77791	0.82092	1.21814	205.38545	187.86227	77.92816	0.31779	 	1.9760100000000003E29	 	1.05753E-29	 	-5927.45287	25.94696	 
150.0	1.0	0.0	8.21044	6.9279	-10.45525	12.65562	12.69753	0.81647	1.22478	205.69596	187.98793	78.05506	0.31763	 	4.90163E29	 	4.21347E-30	 	-6056.93762	25.89695	 
145.0	1.0	0.0	8.21206	6.92653	-10.47295	12.63134	12.617	0.81197	1.23157	206.0058	188.11279	78.18174	0.31748	 	1.24259E30	 	1.64244E-30	 	-6186.17123	25.84672	 
140.0	1.0	0.0	8.21368	6.92517	-10.49058	12.60704	12.53632	0.80743	1.2385	206.31496	188.23687	78.30819	0.31733	 	3.22177E30	 	6.25892E-31	 	-6315.15255	25.79626	 
135.0	1.0	0.0	8.21529	6.92381	-10.50815	12.58272	12.45548	0.80283	1.24559	206.62345	188.36015	78.43442	0.31717	 	8.55065E30	 	2.32974E-31	 	-6443.88031	25.74555	 
130.0	1.0	0.0	8.2169	6.92246	-10.52565	12.55839	12.37448	0.79819	1.25284	206.93128	188.48266	78.56041	0.31702	 	2.32497E31	 	8.46322E-32	 	-6572.35322	25.69458	 
125.0	1.0	0.0	8.2185	6.92111	-10.54309	12.53405	12.29332	0.79349	1.26025	207.23843	188.60437	78.68618	0.31687	 	6.48257E31	 	2.99768E-32	 	-6700.56987	25.64333	 
120.0	1.0	0.0	8.2201	6.91976	-10.56047	12.50969	12.21197	0.78875	1.26783	207.5449	188.72531	78.81172	0.31671	 	1.85526E32	 	1.03429E-32	 	-6828.52874	25.59177	 
115.0	1.0	0.0	8.22169	6.91842	-10.57778	12.48531	12.13045	0.78395	1.27559	207.85071	188.84547	78.93704	0.31656	 	5.4553999999999995E32	 	3.47264E-33	 	-6956.22824	25.5399	 
110.0	1.0	0.0	8.22327	6.91709	-10.59502	12.46092	12.04874	0.7791	1.28353	208.15585	188.96484	79.06212	0.31641	 	1.64996E33	 	1.1334E-33	 	-7083.66666	25.48768	 
105.0	1.0	0.0	8.22485	6.91576	-10.6122	12.43651	11.96683	0.7742	1.29166	208.46031	189.08345	79.18698	0.31625	 	5.13844E33	 	3.59186E-34	 	-7210.8422	25.43511	 
100.0	1.0	0.0	8.22643	6.91444	-10.62932	12.41208	11.88472	0.76924	1.29999	208.76411	189.20128	79.31161	0.3161	 	1.6497200000000001E34	 	1.10398E-34	 	-7337.75288	25.38214	 
95.0	1.0	0.0	8.228	6.91312	-10.64637	12.38764	11.8024	0.76422	1.30852	209.06723	189.31834	79.43601	0.31595	 	5.4670200000000005E34	 	3.28671E-35	 	-7464.39669	25.32876	 
90.0	1.0	0.0	8.22956	6.9118	-10.66335	12.36318	11.71986	0.75915	1.31726	209.36968	189.43463	79.56019	0.31579	 	1.87248E35	 	9.46574E-36	 	-7590.77138	25.27494	 
85.0	1.0	0.0	8.23112	6.91049	-10.68027	12.33871	11.63709	0.75403	1.32621	209.67146	189.55015	79.68414	0.31564	 	6.6376599999999995E35	 	2.63352E-36	 	-7716.87462	25.22065	 
80.0	1.0	0.0	8.23268	6.90919	-10.69713	12.31422	11.55408	0.74884	1.3354	209.97257	189.66491	79.80785	0.31549	 	2.43879E36	 	7.0676E-37	 	-7842.7039	25.16586	 
75.0	1.0	0.0	8.23422	6.90789	-10.71392	12.28971	11.47082	0.7436	1.34481	210.27301	189.77891	79.93135	0.31534	 	9.30179E36	 	1.82678E-37	 	-7968.25655	25.11053	 
70.0	1.0	0.0	8.23577	6.9066	-10.73064	12.26519	11.38731	0.73829	1.35447	210.57278	189.89214	80.05461	0.31518	 	3.6889399999999997E37	 	4.54014E-38	 	-8093.5297	25.05463	 
65.0	1.0	0.0	8.2373	6.90531	-10.7473	12.24065	11.30352	0.73293	1.36439	210.87188	190.00462	80.17764	0.31503	 	1.52381E38	 	1.08309E-38	 	-8218.52032	24.99812	 
60.0	1.0	0.0	8.23884	6.90402	-10.7639	12.2161	11.21945	0.7275	1.37457	211.1703	190.11634	80.30045	0.31488	 	6.568289999999999E38	 	2.47556E-39	 	-8343.22516	24.94097	 
55.0	1.0	0.0	8.24036	6.90275	-10.78042	12.19153	11.13508	0.72201	1.38502	211.46806	190.2273	80.42303	0.31472	 	2.96012E39	 	5.41066E-40	 	-8467.6407	24.88311	 
50.0	1.0	0.0	8.24188	6.90147	-10.79689	12.16695	11.05041	0.71646	1.39575	211.76515	190.33751	80.54538	0.31457	 	1.39766E40	 	1.12847E-40	 	-8591.76325	24.82451	 
45.0	1.0	0.0	8.2434	6.9002	-10.81328	12.14234	10.96541	0.71084	1.40678	212.06156	190.44697	80.6675	0.31442	 	6.92913E40	 	2.24099E-41	 	-8715.58882	24.76511	 
40.0	1.0	0.0	8.24491	6.89894	-10.82961	12.11772	10.88008	0.70516	1.41812	212.35731	190.55568	80.78939	0.31426	 	3.6154300000000005E41	 	4.22745E-42	 	-8839.11315	24.70487	 
35.0	1.0	0.0	8.24641	6.89768	-10.84588	12.09309	10.79439	0.69941	1.42978	212.65238	190.66364	80.91105	0.31411	 	1.99033E42	 	7.55655E-43	 	-8962.33166	24.6437	 
30.0	1.0	0.0	8.24791	6.89643	-10.86208	12.06844	10.70833	0.69359	1.44178	212.94679	190.77086	81.03249	0.31396	 	1.15911E43	 	1.27649E-43	 	-9085.23947	24.58156	 
25.0	1.0	0.0	8.2494	6.89518	-10.87821	 	10.62187	0.6877	1.45412	213.24052	190.87734	81.15369	0.31381	 	7.16129E43	 	2.03203E-44	 	-9207.8313	 	 
