T (C)	Fraction solid (wt)-TOTAL	Fraction liquid (wt)-LIQUID	Density (g/(cm)^3)-TOTAL	Molar volume (cm^3)-TOTAL	Volume change (%)-  	Average expansion coeff. (10e-6 1/K)-  	Thermal conductivity (W/(m*K))-TOTAL	Electrical resistivity (10e-6 Ohm*m)-TOTAL	Electrical conductivity (10e6 1/(Ohm*m))-TOTAL	Young's modulus (GPa)-TOTAL	Bulk modulus (GPa)-TOTAL	Shear modulus(GPa)-TOTAL	Poisson's ratio-TOTAL	Liquid viscosity (mPa s)-  	Total viscosity (mPa s)-  	Liquid diffusivity (10e-9 (m^2)/s)-  	Total diffusivity (10e-9 (m^2)/s)-  	Surface Tension (mN/m)-  	Enthalpy (J/mole)-TOTAL	Specific heat (J/(mole K))-TOTAL	Latent heat (J/mole)-TOTAL
1400.0	0.0	1.0	7.42377	7.83366	0.0	27.4749	31.50252	1.30123	0.7685	0.0	124.40573	0.0	0.49999	7.40151	7.40151	1.10332	1.10332	1748.05256	61232.686	 	0.0
1395.0	0.0	1.0	7.42754	7.82968	-0.0507773	27.43762	31.41576	1.30093	0.76868	0.0	124.57389	0.0	0.49999	7.47862	7.47862	1.08868	1.08868	1750.12071	61030.341	40.469	0.0
1390.0	0.0	1.0	7.43131	7.82572	-0.1014	27.40048	31.32901	1.30062	0.76886	0.0	124.74206	0.0	0.49999	7.55701	7.55701	1.07416	1.07416	1752.20456	60828.441	40.38	0.0
1385.0	0.0	1.0	7.43506	7.82176	-0.15188	27.36348	31.24226	1.30031	0.76905	0.0	124.91022	0.0	0.49999	7.6367	7.6367	1.05975	1.05975	1754.30428	60626.985	40.2912	0.0
1380.0	0.0	1.0	7.43881	7.81782	-0.20221	27.32662	31.1555	1.3	0.76923	0.0	125.07839	0.0	0.49999	7.71772	7.71772	1.04547	1.04547	1756.42004	60425.971	40.2028	0.0
1375.0	0.0	1.0	7.44256	7.81389	-0.25238	27.2899	31.06875	1.29969	0.76942	0.0	125.24655	0.0	0.49999	7.8001	7.8001	1.0313	1.0313	1758.55202	60225.396	40.115	0.0
1370.0	0.0	1.0	7.44629	7.80997	-0.30241	27.25332	30.982	1.29937	0.7696	0.0	125.41471	0.0	0.49999	7.88387	7.88387	1.01724	1.01724	1760.70035	60025.259	40.0274	0.0
1365.0	0.0	1.0	7.45002	7.80606	-0.35228	27.21689	30.89524	1.29906	0.76979	0.0	125.58288	0.0	0.49999	7.96906	7.96906	1.00331	1.00331	1762.8652	59825.558	39.9402	0.0
1360.0	0.0	1.0	7.45374	7.80217	-0.40201	27.1806	30.80849	1.29874	0.76998	0.0	125.75104	0.0	0.49999	8.05569	8.05569	0.98949	0.98949	1765.04671	59626.289	39.8538	0.0
1355.0	0.0	1.0	7.45745	7.79828	-0.45158	27.14445	30.72174	1.29842	0.77017	0.0	125.91921	0.0	0.49999	8.14381	8.14381	0.97578	0.97578	1767.24501	59427.453	39.7672	0.0
1350.0	0.0	1.0	7.46115	7.79441	-0.501	27.10846	30.63499	1.2981	0.77036	0.0	126.08737	0.0	0.49999	8.23345	8.23345	0.9622	0.9622	1769.46023	59229.045	39.6816	0.0
1345.0	0.0	1.0	7.46485	7.79055	-0.55027	27.07261	30.54823	1.29777	0.77055	0.0	126.25554	0.0	0.49999	8.32464	8.32464	0.94872	0.94872	1771.6925	59031.065	39.596	0.0
1340.0	0.0	1.0	7.46854	7.7867	-0.5994	27.03692	30.46148	1.29745	0.77074	0.0	126.4237	0.0	0.49999	8.41741	8.41741	0.93537	0.93537	1773.94193	58833.51	39.511	0.0
1335.0	0.0	1.0	7.47222	7.78287	-0.64837	27.00138	30.37473	1.29712	0.77094	0.0	126.59186	0.0	0.49999	8.5118	8.5118	0.92213	0.92213	1776.20863	58636.379	39.4262	0.0
1330.0	0.0	1.0	7.47589	7.77904	-0.69719	26.966	30.28797	1.29679	0.77113	0.0	126.76003	0.0	0.49999	8.60785	8.60785	0.90901	0.90901	1778.49269	58439.669	39.342	0.0
1325.0	0.0	1.0	7.47956	7.77523	-0.74586	26.93078	30.20122	1.29646	0.77133	0.0	126.92819	0.0	0.49999	8.70559	8.70559	0.896	0.896	1780.7942	58243.378	39.2582	0.0
1320.0	0.0	1.0	7.48322	7.77143	-0.79438	26.89571	30.11447	1.29613	0.77153	0.0	127.09636	0.0	0.49999	8.80507	8.80507	0.8831	0.8831	1783.11324	58047.505	39.1746	0.0
1315.92	0.0	1.0	7.4862	7.76834	-0.83388	26.8672	30.04365	1.29585	0.77169	0.0	127.23364	0.0	0.49999	8.88759	8.88759	0.87266	0.87266	1785.01943	57887.916	39.09837	0.0
1315.0	0.01664	0.98336	7.49003	7.76445	-0.88353	26.74348	30.10059	1.29265	0.7736	7.73529E-6	127.27216	2.58251E-6	0.49763	8.91157	9.11667	0.86981	0.85024	1784.8927	57600.206	313.31743	251.84
1310.0	0.10188	0.89812	7.50981	7.74402	-1.14422	26.09466	30.39021	1.2763	0.78351	0.0110328	127.4848	0.00371366	0.48543	9.04215	16.90882	0.85455	0.45698	1784.27571	56119.682	296.1048	1537.32
1305.0	0.17634	0.82366	7.52742	7.72591	-1.37549	25.52608	30.63768	1.262	0.79239	0.10024	127.72143	0.0339883	0.47469	9.17392	74.24987	0.83961	0.10374	1783.77973	54808.155	262.3054	2654.216
1300.0	0.24176	0.75824	7.54319	7.70972	-1.58217	25.02459	30.84988	1.24935	0.80042	0.35825	127.9788	0.12225	0.46519	9.30693	248.73101	0.82499	0.0308693	1783.39556	53637.953	234.0404	3630.194
1295.0	0.29957	0.70043	7.55741	7.69519	-1.76768	24.58105	31.03238	1.23805	0.80772	0.85358	128.25509	0.29298	0.45673	9.44117	607.01894	0.81068	0.0126088	1783.11456	52586.792	210.2322	4487.541
1290.0	0.35091	0.64909	7.57034	7.68213	-1.9343	24.18938	31.18959	1.22788	0.81441	1.62289	128.54876	0.55994	0.44918	9.57675	1206.14711	0.79665	0.00632539	1782.92857	51636.569	190.0446	5244.355
1285.0	0.39673	0.60327	7.58214	7.67007	-2.08826	23.83193	31.32398	1.2187	0.82054	2.67585	128.85299	0.92758	0.44238	9.71374	2092.771	0.78291	0.00363391	1782.83163	50772.467	172.8204	5915.451
1280.0	0.43781	0.56219	7.593	7.6591	-2.22832	23.5127	31.43928	1.21034	0.82622	4.00293	129.1707	1.39353	0.43626	9.85215	3305.62566	0.76943	0.00229322	1782.81609	49982.27	158.0394	6513.047
1275.0	0.47476	0.52524	7.60302	7.64904	-2.35672	23.22553	31.53737	1.20269	0.83147	5.58114	129.49916	1.95047	0.43071	9.99213	4876.56042	0.75621	0.00154948	1782.87612	49255.838	145.2864	7047.278
1270.0	0.50816	0.49184	7.61232	7.63967	-2.47636	22.9622	31.62002	1.19567	0.83635	7.38275	129.83533	2.58922	0.42567	10.13368	6835.14451	0.74324	0.00110191	1783.00671	48584.698	134.228	7526.614
1265.0	0.53844	0.46156	7.621	7.63089	-2.58847	22.71926	31.68872	1.18921	0.84089	9.37532	130.17823	3.29868	0.42107	10.27687	9207.69312	0.73051	8.15332E-4	1783.20303	47961.734	124.5928	7958.172
1260.0	0.56598	0.43402	7.62912	7.62273	-2.69255	22.49848	31.74525	1.18324	0.84514	11.52691	130.52851	4.06775	0.41687	10.42178	12021.69958	0.71801	6.22451E-4	1783.45976	47380.93	116.1608	8347.964
1255.0	0.5911	0.4089	7.63677	7.61514	-2.78954	22.29732	31.79087	1.17769	0.84912	13.80791	130.88566	4.88599	0.41301	10.56847	15306.56156	0.70573	4.87276E-4	1783.77266	46837.179	108.7502	8701.096
1250.0	0.6141	0.3859	7.64399	7.60788	-2.88218	22.10766	31.82625	1.17253	0.85286	16.19142	131.24607	5.74387	0.40945	10.71695	19092.90154	0.69368	3.89365E-4	1784.13894	46326.12	102.2118	9021.926
1245.0	0.63519	0.36481	7.65083	7.60104	-2.96954	21.93253	31.8525	1.16772	0.85637	18.6513	131.61105	6.63195	0.40617	10.86739	23414.21826	0.68183	3.16462E-4	1784.55427	45844.017	96.4206	9314.192
1240.0	0.65458	0.34542	7.65733	7.59456	-3.05223	21.7702	31.87057	1.16321	0.85969	21.16544	131.97995	7.54219	0.40314	11.01975	28308.31232	0.67019	2.60888E-4	1785.01544	45387.648	91.2738	9581.11
1235.31	0.67139	0.32861	7.66316	7.58879	-3.12583	21.62895	31.88067	1.15924	0.86264	23.55566	132.32956	8.40978	0.40049	11.16466	33457.8343	0.65944	2.2005E-4	1785.48714	44980.456	 	9810.858
1235.0	0.67278	0.32722	7.66361	7.58831	-3.13196	21.61563	31.8823	1.15894	0.86286	23.76159	132.35817	8.48465	0.40027	11.17681	33882.00191	0.65859	2.17251E-4	1785.51445	44948.766	87.7764	9830.927
1230.0	0.69436	0.30564	7.67075	7.5812	-3.22277	21.42566	31.90656	1.15422	0.86639	27.16604	132.82591	9.72427	0.39682	11.37434	41292.20854	0.645	1.77673E-4	1785.97416	44448.839	99.9854	10142.172
1225.0	0.71375	0.28625	7.67741	7.57457	-3.30739	21.25322	31.92049	1.14988	0.86966	30.54525	133.28337	10.95836	0.3937	11.57341	49531.59267	0.6318	1.47625E-4	1786.47564	43983.854	92.997	10418.858
1220.0	0.73124	0.26876	7.68367	7.5683	-3.38746	21.0935	31.92524	1.14587	0.8727	33.87789	133.73124	12.17874	0.39086	11.7741	58652.36622	0.61896	1.24252E-4	1787.0172	43548.783	87.0142	10666.011
1215.0	0.74707	0.25293	7.68959	7.56244	-3.46228	20.94879	31.92228	1.14214	0.87555	37.14809	134.17276	13.37918	0.38828	11.97671	68719.52765	0.60645	1.05695E-4	1787.59548	43139.492	81.8582	10887.762
1210.0	0.76147	0.23853	7.6952	7.55686	-3.53351	20.81412	31.91215	1.13866	0.87822	40.34422	134.60761	14.55509	0.38591	12.18139	79803.4866	0.59426	9.07089E-5	1788.20929	42752.554	77.3876	11087.537
1205.0	0.77461	0.22539	7.70055	7.55154	-3.60135	20.68896	31.89584	1.1354	0.88074	43.4604	135.03686	15.70396	0.38374	12.38834	91991.13027	0.58236	7.84259E-5	1788.85633	42385.107	73.4894	11268.195
1200.0	0.78665	0.21335	7.70566	7.54647	-3.6661	20.5725	31.87391	1.13234	0.88313	46.48918	135.46137	16.82276	0.38173	12.59772	105371.6781	0.57074	6.82354E-5	1789.53471	42034.75	70.0714	11432.138
1195.0	0.79771	0.20229	7.71057	7.5416	-3.7282	20.46342	31.84705	1.12945	0.88539	49.43028	135.88171	17.9111	0.37988	12.80966	120056.8089	0.5594	5.96857E-5	1790.24268	41699.447	67.0606	11581.397
1190.0	0.80789	0.19211	7.71531	7.53692	-3.78797	20.36084	31.81573	1.12671	0.88754	52.28303	136.29833	18.96849	0.37815	13.02428	136166.6752	0.5483	5.24451E-5	1790.97859	41377.472	64.395	11717.698
1185.0	0.81729	0.18271	7.71987	7.5324	-3.84569	20.26397	31.78034	1.12411	0.88959	55.04726	136.7113	19.99467	0.37655	13.242	153832.5067	0.53745	4.62637E-5	1791.74097	41067.344	62.0256	11842.523
1184.72	0.81779	0.18221	7.72012	7.53215	-3.84888	20.25861	31.77824	1.12397	0.8897	55.19807	136.73424	20.0507	0.37646	13.25421	154864.0403	0.53685	4.59468E-5	1791.78428	41050.463	 	11849.091
1180.0	0.82732	0.17268	7.725	7.52739	-3.9096	20.14635	31.72558	1.12219	0.89111	58.11267	137.19313	21.13415	0.37485	13.40598	174175.397	0.52905	4.07202E-5	1792.50965	40731.988	67.0712	11992.94
1175.0	0.8365	0.1635	7.72994	7.52259	-3.97088	20.03618	31.66787	1.12037	0.89256	61.05355	137.66987	22.22894	0.37329	13.56928	196403.1184	0.52089	3.59875E-5	1793.31181	40410.213	64.355	12130.14
1170.0	0.84483	0.15517	7.73468	7.51801	-4.02941	19.93396	31.60812	1.11861	0.89397	63.84906	138.13768	23.27104	0.37186	13.73563	220625.5181	0.5128	3.19258E-5	1794.14576	40102.229	61.5968	12253.912
1165.0	0.85245	0.14755	7.73926	7.51357	-4.0861	19.83684	31.54664	1.11691	0.89533	66.51584	138.59732	24.26645	0.37053	13.90508	247065.6098	0.5048	2.84105E-5	1795.00921	39806.177	59.2104	12366.112
1160.0	0.85944	0.14056	7.74367	7.5093	-4.14054	19.74623	31.48366	1.11525	0.89666	69.06336	139.05026	25.21846	0.3693	14.07778	275959.9134	0.49687	2.53473E-5	1795.89847	39520.527	57.13	12468.27
1155.0	0.8659	0.1341	7.74795	7.50518	-4.19318	19.66072	31.4193	1.11364	0.89796	71.49702	139.49704	26.12893	0.36816	14.25402	307547.9441	0.48902	2.26646E-5	1796.81158	39244.005	55.3044	12561.658
1151.05	0.87064	0.12936	7.75125	7.50199	-4.23385	19.59566	31.36755	1.11239	0.89897	73.34759	139.84593	26.82192	0.36731	14.39583	334607.8241	0.48286	2.07741E-5	1797.54919	39031.374	 	12629.833
1150.0	0.87457	0.12543	7.75295	7.50039	-4.25435	19.54631	31.35307	1.11208	0.89921	74.1968	139.99015	27.14474	0.36669	14.43432	346262.1857	0.48122	2.00601E-5	1797.77196	38912.84	66.233	12710.043
1145.0	0.89129	0.10871	7.76046	7.4933	-4.34485	19.3337	31.28319	1.11065	0.90037	77.93067	140.64256	28.56633	0.36403	14.61844	403822.9124	0.47349	1.71403E-5	1798.83238	38390.34	104.5	13050.118
1140.15	0.90446	0.095543	7.76683	7.48732	-4.42111	19.16404	31.21339	1.10932	0.90145	81.08898	141.22594	29.77045	0.3619	14.79972	462348.8451	0.46609	1.49194E-5	1799.87853	37947.451	 	13316.293
1140.0	0.90502	0.0949844	7.76703	7.4871	-4.42397	19.15706	31.21149	1.10928	0.90149	81.23729	141.24909	29.82695	0.36181	14.80483	464596.1508	0.46588	1.48457E-5	1799.93499	37930.29366	92.00927	13327.595
1135.0	0.92235	0.0776491	7.7735	7.48139	-4.49687	18.99965	31.14816	1.1076	0.90285	86.11083	141.95015	31.68181	0.359	14.97702	542496.5099	0.45889	1.26689E-5	1801.83409	37399.21118	106.2165	13675.902
1130.0	0.93568	0.0643158	7.7791	7.4764	-4.56054	18.87178	31.08166	1.10603	0.90414	90.86649	142.57372	33.48588	0.35679	15.14907	622460.284	0.45207	1.10022E-5	1803.73966	36951.58011	89.52621	13941.138
1125.0	0.94617	0.0538295	7.78411	7.47195	-4.61738	18.76579	31.01281	1.10453	0.90536	95.79869	143.1436	35.34965	0.35502	15.32173	705754.2089	0.44538	9.66912E-6	1805.65053	36562.9228	77.73146	14147.775
1120.0	0.95458	0.0454212	7.78868	7.46788	-4.66934	18.67537	30.94208	1.1031	0.90654	100.87907	143.67465	37.26431	0.35356	15.4956	793565.9324	0.43881	8.56844E-6	1807.56715	36217.12761	69.15904	14311.926
1115.0	0.96158	0.038416	7.79296	7.46405	-4.71822	18.5946	30.87038	1.10169	0.90769	105.94668	144.17894	39.17219	0.35232	15.67081	887576.3139	0.43235	7.63339E-6	1809.48988	35901.01188	63.22315	14446.769
1110.0	1.0	0.0	7.80503	7.45123	-4.88184	18.12066	30.83407	1.09902	0.9099	134.05132	145.13028	49.7941	0.34606	 	1127638.235	 	5.98668E-6	 	35124.23198	155.35598	15042.646
1105.0	1.0	0.0	7.80757	7.44881	-4.9128	18.09818	30.75001	1.09804	0.91072	134.54067	145.50775	49.98185	0.3459	 	1227947.104	 	5.47777E-6	 	34948.94905	35.05659	 
1100.0	1.0	0.0	7.81011	7.44639	-4.94368	18.07575	30.66595	1.09705	0.91153	135.02906	145.88341	50.1693	0.34573	 	1338001.834	 	5.00896E-6	 	34789.35276	31.91926	 
1095.0	1.0	0.0	7.81264	7.44397	-4.97449	18.05335	30.58188	1.09606	0.91236	135.51648	146.25728	50.35642	0.34557	 	1458827.449	 	4.57737E-6	 	34630.03504	31.86354	 
1090.0	1.0	0.0	7.81517	7.44157	-5.00523	18.031	30.49782	1.09507	0.91319	136.00294	146.62935	50.54324	0.34541	 	1591564.849	 	4.18029E-6	 	34470.99476	31.80806	 
1085.0	1.0	0.0	7.81769	7.43916	-5.03589	18.00869	30.41375	1.09407	0.91402	136.48844	146.99965	50.72973	0.34525	 	1737484.733	 	3.81517E-6	 	34312.2308	31.75279	 
1080.0	1.0	0.0	7.82021	7.43677	-5.06648	17.98643	30.32967	1.09306	0.91486	136.97297	147.36816	50.91592	0.34509	 	1898003.68	 	3.47965E-6	 	34153.74205	31.69775	 
1075.0	1.0	0.0	7.82273	7.43438	-5.09701	17.96421	30.2456	1.09205	0.91571	137.45654	147.73491	51.10179	0.34493	 	2074701.55	 	3.17153E-6	 	33995.52741	31.64293	 
1070.0	1.0	0.0	7.82524	7.43199	-5.12745	17.94203	30.16152	1.09103	0.91656	137.93915	148.09989	51.28734	0.34477	 	2269342.052	 	2.88876E-6	 	33837.58575	31.58833	 
1065.0	1.0	0.0	7.82775	7.42961	-5.15783	17.91989	30.07744	1.09001	0.91742	138.4208	148.46312	51.47259	0.34461	 	2483895.312	 	2.62941E-6	 	33679.91602	31.53395	 
1060.0	1.0	0.0	7.83025	7.42724	-5.18814	17.8978	29.99335	1.08898	0.91829	138.90149	148.82459	51.65752	0.34445	 	2720563.753	 	2.3917E-6	 	33522.5171	31.47978	 
1055.0	1.0	0.0	7.83274	7.42487	-5.21837	17.87575	29.90927	1.08795	0.91916	139.38123	149.18432	51.84213	0.34429	 	2981811.526	 	2.17397E-6	 	33365.38791	31.42584	 
1050.0	1.0	0.0	7.83524	7.42251	-5.24853	17.85375	29.82517	1.08691	0.92004	139.86001	149.54232	52.02644	0.34412	 	3270397.394	 	1.97467E-6	 	33208.52741	31.3721	 
1045.0	1.0	0.0	7.83773	7.42015	-5.27862	17.83179	29.74108	1.08586	0.92093	140.33784	149.89857	52.21043	0.34396	 	3589412.529	 	1.79237E-6	 	33051.9345	31.31858	 
1040.0	1.0	0.0	7.84021	7.4178	-5.30864	17.80988	29.65698	1.08481	0.92182	140.81471	150.25311	52.39411	0.3438	 	3942323.227	 	1.62573E-6	 	32895.60815	31.26527	 
1035.0	1.0	0.0	7.84269	7.41545	-5.33858	17.78801	29.57288	1.08375	0.92272	141.29062	150.60592	52.57748	0.34364	 	4333019.528	 	1.47351E-6	 	32739.54727	31.21217	 
1030.0	1.0	0.0	7.84517	7.41311	-5.36846	17.76619	29.48878	1.08269	0.92363	141.76559	150.95702	52.76054	0.34348	 	4765870.59	 	1.33456E-6	 	32583.75085	31.15928	 
1028.61	1.0	0.0	7.84586	7.41246	-5.37679	17.76009	29.46531	1.08239	0.92388	141.89791	151.05464	52.81154	0.34344	 	4894780.349	 	1.29802E-6	 	32540.33985	 	 
1025.0	1.0	0.0	7.84763	7.41079	-5.39815	17.74482	29.40467	1.08162	0.92454	142.24007	151.30714	52.94345	0.34332	 	5245961.851	 	1.20778E-6	 	32428.00736	31.1487	 
1020.0	1.0	0.0	7.85008	7.40847	-5.42773	17.72366	29.32055	1.08054	0.92546	142.71375	151.6558	53.1261	0.34316	 	5778748.547	 	1.0922E-6	 	32272.45702	31.11007	 
1015.0	1.0	0.0	7.85254	7.40616	-5.45725	17.70252	29.23644	1.07946	0.92639	143.18645	152.00273	53.30843	0.343	 	6370387.606	 	9.86932E-7	 	32117.18332	31.05474	 
1010.0	1.0	0.0	7.85498	7.40385	-5.48671	17.68141	29.15232	1.07838	0.92732	143.65818	152.34791	53.49044	0.34284	 	7027894.218	 	8.91126E-7	 	31962.18452	30.99976	 
1005.0	1.0	0.0	7.85743	7.40155	-5.5161	17.66032	29.06819	1.07728	0.92826	144.12893	152.69136	53.67213	0.34268	 	7759179.252	 	8.03994E-7	 	31807.45893	30.94512	 
1000.0	1.0	0.0	7.85987	7.39925	-5.54543	17.63926	28.98407	1.07618	0.92921	144.5987	153.03309	53.8535	0.34252	 	8573172.442	 	7.24811E-7	 	31653.00488	30.89081	 
995.0	1.0	0.0	7.8623	7.39696	-5.57469	17.61822	28.89993	1.07508	0.93017	145.06751	153.37311	54.03455	0.34236	 	9479962.219	 	6.52906E-7	 	31498.82075	30.83683	 
990.0	1.0	0.0	7.86473	7.39467	-5.60389	17.59722	28.8158	1.07397	0.93113	145.53534	153.71142	54.21528	0.3422	 	1.049095513E7	 	5.87661E-7	 	31344.90493	30.78316	 
985.0	1.0	0.0	7.86716	7.39239	-5.63302	17.57625	28.73166	1.07285	0.9321	146.00221	154.04803	54.3957	0.34204	 	1.16190608E7	 	5.28504E-7	 	31191.25587	30.72981	 
980.0	1.0	0.0	7.86959	7.39011	-5.66209	17.55531	28.64751	1.07172	0.93308	146.46811	154.38295	54.5758	0.34188	 	1.287890131E7	 	4.7491E-7	 	31037.87201	30.67677	 
975.0	1.0	0.0	7.87201	7.38784	-5.6911	17.5344	28.56336	1.07059	0.93406	146.93305	154.71618	54.75558	0.34172	 	1.428705547E7	 	4.26394E-7	 	30884.75187	30.62403	 
970.0	1.0	0.0	7.87442	7.38557	-5.72003	17.51353	28.47921	1.06945	0.93506	147.39702	155.04774	54.93504	0.34156	 	1.58623356E7	 	3.8251E-7	 	30731.89395	30.57158	 
965.0	1.0	0.0	7.87684	7.38331	-5.74891	17.4927	28.39505	1.06831	0.93606	147.86004	155.37763	55.11419	0.3414	 	1.762610977E7	 	3.42849E-7	 	30579.29681	30.51943	 
960.0	1.0	0.0	7.87924	7.38105	-5.77771	17.4719	28.31089	1.06716	0.93707	148.32209	155.70586	55.29303	0.34124	 	1.960267173E7	 	3.07035E-7	 	30426.95901	30.46756	 
955.0	1.0	0.0	7.88165	7.3788	-5.80646	17.45115	28.22672	1.066	0.93809	148.78319	156.03243	55.47155	0.34108	 	2.181966569E7	 	2.7472E-7	 	30274.87916	30.41597	 
950.0	1.0	0.0	7.88405	7.37655	-5.83513	17.43044	28.14255	1.06484	0.93911	149.24334	156.35736	55.64975	0.34092	 	2.430858116E7	 	2.45588E-7	 	30123.0559	30.36465	 
945.0	1.0	0.0	7.88644	7.37431	-5.86374	17.40977	28.05837	1.06366	0.94015	149.70253	156.68065	55.82765	0.34076	 	2.710532092E7	 	2.19348E-7	 	29971.48786	30.31361	 
940.0	1.0	0.0	7.88884	7.37208	-5.89228	17.38914	27.97419	1.06249	0.94119	150.16076	157.0023	56.00523	0.3406	 	3.025085991E7	 	1.95733E-7	 	29820.17374	30.26282	 
935.0	1.0	0.0	7.89122	7.36985	-5.92076	17.36855	27.89	1.0613	0.94224	150.61805	157.32232	56.18249	0.34044	 	3.379200938E7	 	1.74499E-7	 	29669.11224	30.2123	 
933.97	1.0	0.0	7.89172	7.36939	-5.92664	17.3643	27.87258	1.06105	0.94246	150.71255	157.38834	56.21913	0.3404	 	3.45789191E7	 	1.70382E-7	 	29637.88591	 	 
930.0	1.0	0.0	7.89448	7.3668	-5.95961	17.30517	27.77834	1.06116	0.94237	151.09813	157.65354	56.36881	0.34026	 	3.781398162E7	 	1.55294E-7	 	29468.11539	40.19937	 
925.0	1.0	0.0	7.89795	7.36357	-6.00087	17.23121	27.661	1.06123	0.9423	151.58301	157.98622	56.55709	0.34009	 	4.236549225E7	 	1.38034E-7	 	29255.55346	42.51239	 
920.0	1.0	0.0	7.90139	7.36037	-6.04176	17.15791	27.54518	1.06124	0.94229	152.06664	158.31719	56.74495	0.33991	 	4.751220936E7	 	1.22568E-7	 	29044.64102	42.18249	 
915.0	1.0	0.0	7.9048	7.35719	-6.0823	17.08527	27.43069	1.06121	0.94232	152.54912	158.64656	56.9324	0.33974	 	5.333782509E7	 	1.08723E-7	 	28835.35044	41.85812	 
910.0	1.0	0.0	7.90818	7.35404	-6.12249	17.01326	27.31746	1.06112	0.9424	153.03051	158.9744	57.11949	0.33956	 	5.993859723E7	 	9.63429E-8	 	28627.65436	41.53921	 
905.0	1.0	0.0	7.91154	7.35092	-6.16233	16.9419	27.20553	1.06099	0.94252	153.51081	159.30071	57.3062	0.33939	 	6.742535921E7	 	8.52833E-8	 	28421.52581	41.22571	 
900.0	1.0	0.0	7.91487	7.34783	-6.20184	16.87116	27.09484	1.0608	0.94269	153.99002	159.6255	57.49254	0.33922	 	7.592586425E7	 	7.54137E-8	 	28216.93811	40.91754	 
895.0	1.0	0.0	7.91818	7.34476	-6.241	16.80105	26.98537	1.06056	0.9429	154.46812	159.94876	57.6785	0.33904	 	8.558752706E7	 	6.66154E-8	 	28013.86493	40.61463	 
890.0	1.0	0.0	7.92146	7.34172	-6.27984	16.73155	26.87707	1.06028	0.94315	154.94511	160.27047	57.86408	0.33887	 	9.65806423E7	 	5.87804E-8	 	27812.28033	40.31692	 
885.0	1.0	0.0	7.92472	7.3387	-6.31835	16.66265	26.7699	1.05995	0.94344	155.42096	160.59062	58.04927	0.3387	 	1.091021526E8	 	5.18105E-8	 	27612.1587	40.02433	 
880.0	1.0	0.0	7.92795	7.33571	-6.35653	16.59436	26.66383	1.05957	0.94378	155.89564	160.90918	58.23406	0.33853	 	1.233800819E8	 	4.56171E-8	 	27413.47492	39.73676	 
875.0	1.0	0.0	7.93115	7.33274	-6.3944	16.52665	26.55907	1.05914	0.94417	156.36915	161.22615	58.41845	0.33835	 	1.396787366E8	 	4.01195E-8	 	27216.20343	39.4543	 
870.0	1.0	0.0	7.93434	7.3298	-6.43195	16.45952	26.45554	1.05865	0.9446	156.84146	161.54149	58.60242	0.33818	 	1.583048507E8	 	3.52449E-8	 	27020.32034	39.17662	 
865.0	1.0	0.0	7.9375	7.32688	-6.46919	16.39296	26.35243	1.05814	0.94505	157.31255	161.85521	58.78597	0.33801	 	1.796147933E8	 	3.09274E-8	 	26825.80153	38.90376	 
860.0	1.0	0.0	7.94063	7.32399	-6.50612	16.32697	26.25029	1.05759	0.94554	157.78241	162.16728	58.9691	0.33784	 	2.040231115E8	 	2.71078E-8	 	26632.62323	38.63566	 
855.0	1.0	0.0	7.94375	7.32112	-6.54276	16.26153	26.14908	1.057	0.94607	158.25103	162.47769	59.15179	0.33767	 	2.320126064E8	 	2.37324E-8	 	26440.76201	38.37224	 
850.0	1.0	0.0	7.94684	7.31828	-6.57909	16.19664	26.04879	1.05637	0.94664	158.71838	162.78642	59.33405	0.3375	 	2.641462569E8	 	2.0753E-8	 	26250.19485	38.11343	 
845.0	1.0	0.0	7.94915	7.31614	-6.60632	16.17218	25.96694	1.05498	0.94788	159.15608	163.07583	59.50474	0.33734	 	3.005961291E8	 	1.81553E-8	 	26106.57958	28.72305	 
840.0	1.0	0.0	7.95146	7.31402	-6.63348	16.14773	25.88509	1.05359	0.94914	159.59287	163.36376	59.67514	0.33718	 	3.424732312E8	 	1.5864E-8	 	25960.25705	29.26451	 
835.0	1.0	0.0	7.95377	7.31189	-6.66056	16.12331	25.80323	1.05218	0.95041	160.02876	163.65022	59.84525	0.33702	 	3.90643885E8	 	1.38454E-8	 	25814.15987	29.21944	 
830.0	1.0	0.0	7.95607	7.30978	-6.68758	16.0989	25.72136	1.05077	0.95169	160.46375	163.9352	60.01505	0.33686	 	4.461218878E8	 	1.20689E-8	 	25668.28746	29.17448	 
825.0	1.0	0.0	7.95837	7.30767	-6.71453	16.07451	25.63948	1.04935	0.95297	160.89783	164.21871	60.18455	0.3367	 	5.100951695E8	 	1.05074E-8	 	25522.63926	29.12964	 
820.0	1.0	0.0	7.96067	7.30556	-6.74141	16.05014	25.5576	1.04791	0.95428	161.331	164.50075	60.35376	0.33654	 	5.839575471E8	 	9.13661E-9	 	25377.21469	29.08491	 
815.0	1.0	0.0	7.96296	7.30346	-6.76822	16.02578	25.47571	1.04647	0.95559	161.76327	164.78134	60.52266	0.33639	 	6.693466041E8	 	7.93459E-9	 	25232.01319	29.0403	 
810.0	1.0	0.0	7.96524	7.30137	-6.79496	16.00144	25.3938	1.04503	0.95691	162.19463	165.06047	60.69127	0.33623	 	7.681889423E8	 	6.88188E-9	 	25087.03416	28.99581	 
805.0	1.0	0.0	7.96752	7.29928	-6.82163	15.97712	25.3119	1.04357	0.95825	162.62508	165.33814	60.85957	0.33607	 	8.827543164E8	 	5.96109E-9	 	24942.27703	28.95143	 
800.0	1.0	0.0	7.9698	7.29719	-6.84823	15.95281	25.22998	1.0421	0.9596	163.05462	165.61437	61.02758	0.33591	 	1.015720492E9	 	5.15671E-9	 	24797.74123	28.90716	 
795.0	1.0	0.0	7.97207	7.29511	-6.87476	15.92852	25.14805	1.04062	0.96096	163.48326	165.88915	61.19528	0.33575	 	1.170251066E9	 	4.45492E-9	 	24653.42617	28.86301	 
790.0	1.0	0.0	7.97433	7.29304	-6.90123	15.90425	25.06612	1.03914	0.96234	163.91099	166.16249	61.36269	0.33559	 	1.350088978E9	 	3.84343E-9	 	24509.33127	28.81898	 
785.0	1.0	0.0	7.97659	7.29097	-6.92762	15.88	24.98418	1.03764	0.96372	164.33781	166.43439	61.52979	0.33543	 	1.559669049E9	 	3.31132E-9	 	24365.45595	28.77506	 
780.0	1.0	0.0	7.97885	7.28891	-6.95395	15.85576	24.90223	1.03614	0.96512	164.76373	166.70486	61.6966	0.33527	 	1.804253632E9	 	2.84891E-9	 	24221.7996	28.73127	 
775.0	1.0	0.0	7.9811	7.28685	-6.9802	15.83155	24.82027	1.03463	0.96653	165.18873	166.9739	61.8631	0.33512	 	2.090096372E9	 	2.44762E-9	 	24078.36166	28.68759	 
770.0	1.0	0.0	7.98335	7.2848	-7.00639	15.80734	24.7383	1.0331	0.96796	165.61283	167.24151	62.0293	0.33496	 	2.424640206E9	 	2.09984E-9	 	23935.14154	28.64403	 
765.0	1.0	0.0	7.98559	7.28276	-7.03251	15.78316	24.65632	1.03157	0.9694	166.03601	167.5077	62.1952	0.3348	 	2.816757166E9	 	1.79886E-9	 	23792.13862	28.60058	 
760.0	1.0	0.0	7.98783	7.28072	-7.05856	15.75899	24.57434	1.03002	0.97085	166.45829	167.77247	62.3608	0.33464	 	3.277039268E9	 	1.53875E-9	 	23649.35232	28.55726	 
755.0	1.0	0.0	7.99007	7.27868	-7.08454	15.73484	24.49234	1.02847	0.97232	166.87966	168.03583	62.52609	0.33448	 	3.818151954E9	 	1.31429E-9	 	23506.78202	28.51406	 
750.0	1.0	0.0	7.99229	7.27665	-7.11046	15.71071	24.41034	1.02691	0.9738	167.30011	168.29778	62.69109	0.33432	 	4.455264267E9	 	1.12086E-9	 	23364.42715	28.47097	 
745.0	1.0	0.0	7.99452	7.27463	-7.1363	15.6866	24.32833	1.02533	0.97529	167.71966	168.55833	62.85578	0.33416	 	5.206573289E9	 	9.54435E-10	 	23222.28708	28.42801	 
740.0	1.0	0.0	7.99674	7.27261	-7.16208	15.6625	24.2463	1.02375	0.9768	168.13829	168.81747	63.02017	0.334	 	6.093944624E9	 	8.1145E-10	 	23080.3612	28.38518	 
735.0	1.0	0.0	7.99895	7.27059	-7.18779	15.63842	24.16427	1.02216	0.97832	168.55602	169.07521	63.18425	0.33385	 	7.143695934E9	 	6.88793E-10	 	22938.64889	28.34246	 
730.0	1.0	0.0	8.00116	7.26858	-7.21343	15.61435	24.08223	1.02055	0.97986	168.97283	169.33155	63.34804	0.33369	 	8.38755721E9	 	5.83737E-10	 	22797.14954	28.29987	 
725.0	1.0	0.0	8.00337	7.26658	-7.239	15.59031	24.00018	1.01894	0.98141	169.38873	169.58651	63.51151	0.33353	 	9.863849729E9	 	4.93897E-10	 	22655.86253	28.2574	 
720.0	1.0	0.0	8.00557	7.26458	-7.26451	15.56628	23.91812	1.01731	0.98298	169.80372	169.84008	63.67469	0.33337	 	1.16189E10	 	4.17191E-10	 	22514.78722	28.21506	 
715.0	1.0	0.0	8.00777	7.26259	-7.28995	15.54227	23.83604	1.01568	0.98457	170.21779	170.09226	63.83756	0.33321	 	1.3708999999999998E10	 	3.51806E-10	 	22373.92297	28.17285	 
710.0	1.0	0.0	8.00996	7.2606	-7.31532	15.51827	23.75396	1.01403	0.98617	170.63096	170.34306	64.00013	0.33305	 	1.6202299999999998E10	 	2.96163E-10	 	22233.26915	28.13076	 
705.0	1.0	0.0	8.01215	7.25862	-7.34062	15.49429	23.67187	1.01237	0.98778	171.04321	170.59249	64.16239	0.33289	 	1.91818E10	 	2.48888E-10	 	22092.8251	28.08881	 
700.0	1.0	0.0	8.01433	7.25664	-7.36585	15.47033	23.58977	1.0107	0.98941	171.45455	170.84054	64.32435	0.33273	 	2.27486E10	 	2.08791E-10	 	21952.59017	28.04699	 
695.0	1.0	0.0	8.01651	7.25467	-7.39102	15.44639	23.50766	1.00902	0.99106	171.86497	171.08723	64.48601	0.33258	 	2.7026199999999996E10	 	1.74841E-10	 	21812.5637	28.00529	 
690.0	1.0	0.0	8.01868	7.25271	-7.41611	15.42247	23.42554	1.00733	0.99273	172.27448	171.33255	64.64736	0.33242	 	3.2165699999999996E10	 	1.46146E-10	 	21672.74502	27.96374	 
685.0	1.0	0.0	8.02085	7.25074	-7.44115	15.39856	23.3434	1.00562	0.99441	172.68307	171.5765	64.8084	0.33226	 	3.83521E10	 	1.21936E-10	 	21533.13344	27.92232	 
680.0	1.0	0.0	8.02301	7.24879	-7.46611	15.37467	23.26126	1.00391	0.99611	173.09076	171.8191	64.96914	0.3321	 	4.58129E10	 	1.01545E-10	 	21393.72827	27.88103	 
675.0	1.0	0.0	8.02517	7.24684	-7.491	15.35079	23.1791	1.00218	0.99782	173.49752	172.06035	65.12957	0.33194	 	5.482769999999999E10	 	8.44042E-11	 	21254.52883	27.83989	 
670.0	1.0	0.0	8.02733	7.24489	-7.51583	15.32694	23.09694	1.00044	0.99956	173.90337	172.30024	65.2897	0.33178	 	6.574149999999999E10	 	7.0021E-11	 	21115.5344	27.79889	 
665.0	1.0	0.0	8.02948	7.24295	-7.54059	15.3031	23.01476	0.99869	1.00131	174.30831	172.53878	65.44952	0.33162	 	7.89804E10	 	5.79749E-11	 	20976.74425	27.75803	 
660.0	1.0	0.0	8.03162	7.24102	-7.56529	15.27927	22.93258	0.99693	1.00308	174.71233	172.77598	65.60904	0.33147	 	9.507209999999998E10	 	4.79055E-11	 	20838.1582	27.71721	 
655.0	1.0	0.0	8.03376	7.23909	-7.58992	15.25547	22.85038	0.99516	1.00487	175.11543	173.01184	65.76824	0.33131	 	1.14671E11	 	3.95048E-11	 	20699.77878	27.67588	 
650.0	1.0	0.0	8.0359	7.23717	-7.61448	15.23168	22.76817	0.99337	1.00668	175.51762	173.24637	65.92715	0.33115	 	1.38592E11	 	3.25103E-11	 	20561.60949	27.63386	 
645.0	1.0	0.0	8.03803	7.23525	-7.63897	15.20791	22.68595	0.99157	1.0085	175.91889	173.47956	66.08574	0.33099	 	1.67848E11	 	2.66983E-11	 	20423.64975	27.59195	 
640.0	1.0	0.0	8.04015	7.23333	-7.66339	15.18416	22.60371	0.98976	1.01035	176.31925	173.71142	66.24403	0.33083	 	2.03708E11	 	2.18787E-11	 	20285.89895	27.55016	 
635.0	1.0	0.0	8.04228	7.23143	-7.68775	15.16042	22.52147	0.98793	1.01222	176.71868	173.94195	66.40201	0.33067	 	2.47756E11	 	1.78904E-11	 	20148.35653	27.50849	 
630.0	1.0	0.0	8.04439	7.22952	-7.71205	15.1367	22.43921	0.98609	1.0141	177.1172	174.17116	66.55968	0.33051	 	3.01982E11	 	1.45971E-11	 	20011.02185	27.46694	 
625.0	1.0	0.0	8.0465	7.22763	-7.73627	15.113	22.35694	0.98424	1.01601	177.5148	174.39905	66.71704	0.33036	 	3.68889E11	 	1.18834E-11	 	19873.89412	27.42555	 
620.0	1.0	0.0	8.04861	7.22573	-7.76043	15.08932	22.27466	0.98238	1.01794	177.91149	174.62562	66.8741	0.3302	 	4.51631E11	 	9.65222E-12	 	19736.97217	27.38439	 
615.0	1.0	0.0	8.05072	7.22385	-7.78452	15.06565	22.19237	0.9805	1.01989	178.30725	174.85089	67.03085	0.33004	 	5.54193E11	 	7.82189E-12	 	19600.2557	27.34329	 
610.0	1.0	0.0	8.05281	7.22196	-7.80855	15.042	22.11006	0.97861	1.02186	178.7021	175.07484	67.18729	0.32988	 	6.81624E11	 	6.32377E-12	 	19463.74411	27.30232	 
605.0	1.0	0.0	8.05491	7.22009	-7.83251	15.01837	22.02774	0.97671	1.02385	179.09602	175.29748	67.34342	0.32972	 	8.40335E11	 	5.10039E-12	 	19327.43682	27.26146	 
600.0	1.0	0.0	8.057	7.21822	-7.8564	14.99475	21.94541	0.97479	1.02586	179.48903	175.51883	67.49924	0.32956	 	1.03849E12	 	4.10369E-12	 	19191.33322	27.22072	 
595.0	1.0	0.0	8.05908	7.21635	-7.88023	14.97115	21.86307	0.97286	1.0279	179.88112	175.73887	67.65475	0.3294	 	1.2865E12	 	3.29362E-12	 	19055.43272	27.1801	 
590.0	1.0	0.0	8.06116	7.21449	-7.90399	14.94757	21.78071	0.97091	1.02996	180.27228	175.95762	67.80995	0.32925	 	1.59769E12	 	2.63681E-12	 	18919.73473	27.1396	 
585.0	1.0	0.0	8.06323	7.21263	-7.92768	14.92401	21.69834	0.96895	1.03204	180.66253	176.17508	67.96485	0.32909	 	1.98918E12	 	2.1056E-12	 	18784.23864	27.09922	 
580.0	1.0	0.0	8.0653	7.21078	-7.95131	14.90046	21.61596	0.96698	1.03415	181.05186	176.39124	68.11943	0.32893	 	2.48297E12	 	1.67703E-12	 	18648.94386	27.05896	 
575.0	1.0	0.0	8.06737	7.20893	-7.97488	14.87694	21.53356	0.96499	1.03628	181.44026	176.60612	68.2737	0.32877	 	3.10745E12	 	1.33216E-12	 	18513.84977	27.01882	 
570.0	1.0	0.0	8.06943	7.20709	-7.99837	14.85342	21.45115	0.96299	1.03844	181.82775	176.81972	68.42766	0.32861	 	3.89935E12	 	1.05536E-12	 	18378.95577	26.9788	 
565.0	1.0	0.0	8.07148	7.20526	-8.0218	14.82993	21.36872	0.96097	1.04062	182.21431	177.03204	68.58131	0.32845	 	4.90633E12	 	8.3378E-13	 	18244.26125	26.93891	 
560.0	1.0	0.0	8.07353	7.20343	-8.04517	14.80645	21.28629	0.95894	1.04282	182.59995	177.24308	68.73465	0.3283	 	6.1904E12	 	6.56888E-13	 	18109.76559	26.89913	 
555.0	1.0	0.0	8.07558	7.2016	-8.06847	14.78299	21.20383	0.95689	1.04506	182.98467	177.45285	68.88768	0.32814	 	7.83249E12	 	5.16055E-13	 	17975.46818	26.85948	 
550.0	1.0	0.0	8.07762	7.19978	-8.0917	14.75955	21.12137	0.95482	1.04731	183.36846	177.66136	69.0404	0.32798	 	9.93852E12	 	4.04244E-13	 	17841.36839	26.81996	 
545.0	1.0	0.0	8.07966	7.19797	-8.11487	14.73612	21.03889	0.95274	1.0496	183.75134	177.86859	69.19281	0.32782	 	1.26476E13	 	3.15727E-13	 	17707.46561	26.78056	 
540.0	1.0	0.0	8.08169	7.19616	-8.13797	14.71271	20.95639	0.95065	1.05191	184.13329	178.07456	69.3449	0.32766	 	1.61429E13	 	2.45853E-13	 	17573.7592	26.74128	 
535.0	1.0	0.0	8.08372	7.19435	-8.16101	14.68932	20.87388	0.94854	1.05425	184.51431	178.27928	69.49668	0.3275	 	2.06665E13	 	1.90859E-13	 	17440.24853	26.70213	 
530.0	1.0	0.0	8.08574	7.19255	-8.18398	14.66595	20.79135	0.94641	1.05662	184.89442	178.48273	69.64816	0.32735	 	2.65392E13	 	1.47705E-13	 	17306.93295	26.66311	 
525.0	1.0	0.0	8.08776	7.19076	-8.20689	14.64259	20.70881	0.94427	1.05902	185.2736	178.68493	69.79931	0.32719	 	3.41877E13	 	1.13947E-13	 	17173.81184	26.62422	 
520.0	1.0	0.0	8.08977	7.18897	-8.22973	14.61925	20.62626	0.94211	1.06145	185.65185	178.88589	69.95016	0.32703	 	4.41813E13	 	8.76202E-14	 	17040.88453	26.58546	 
515.0	1.0	0.0	8.09178	7.18719	-8.2525	14.59593	20.54368	0.93993	1.06391	186.02918	179.08559	70.10069	0.32687	 	5.72822E13	 	6.71547E-14	 	16908.15037	26.54683	 
510.0	1.0	0.0	8.09378	7.18541	-8.27521	14.57263	20.4611	0.93774	1.06639	186.40559	179.28406	70.25091	0.32671	 	7.45145E13	 	5.12968E-14	 	16775.6087	26.50833	 
505.0	1.0	0.0	8.09578	7.18363	-8.29786	14.54934	20.37849	0.93553	1.06891	186.78107	179.48128	70.40081	0.32655	 	9.72591E13	 	3.90499E-14	 	16643.25884	26.46997	 
500.0	1.0	0.0	8.09778	7.18186	-8.32044	14.52607	20.29587	0.9333	1.07146	187.15562	179.67726	70.55041	0.3264	 	1.2738399999999998E14	 	2.96234E-14	 	16511.10012	26.43174	 
495.0	1.0	0.0	8.09977	7.1801	-8.34296	14.50281	20.21324	0.93106	1.07405	187.52925	179.87201	70.69968	0.32624	 	1.67428E14	 	2.23926E-14	 	16379.13187	26.39365	 
490.0	1.0	0.0	8.10175	7.17834	-8.36541	14.47958	20.13059	0.92879	1.07666	187.90195	180.06553	70.84865	0.32608	 	2.20848E14	 	1.68656E-14	 	16247.35337	26.3557	 
485.0	1.0	0.0	8.10373	7.17659	-8.38779	14.45636	20.04792	0.92651	1.07931	188.27373	180.25782	70.9973	0.32592	 	2.9238E14	 	1.26559E-14	 	16115.76394	26.31789	 
480.0	1.0	0.0	8.1057	7.17484	-8.41012	14.43316	19.96523	0.92422	1.082	188.64458	180.44889	71.14563	0.32576	 	3.88525E14	 	9.46127E-15	 	15984.36284	26.28022	 
475.0	1.0	0.0	8.10767	7.1731	-8.43237	14.40997	19.88253	0.9219	1.08472	189.0145	180.63873	71.29365	0.32561	 	5.1825099999999994E14	 	7.04588E-15	 	15853.14936	26.2427	 
470.0	1.0	0.0	8.10964	7.17136	-8.45457	14.38681	19.79981	0.91956	1.08747	189.3835	180.82736	71.44136	0.32545	 	6.93977E14	 	5.22658E-15	 	15722.12278	26.20532	 
465.0	1.0	0.0	8.1116	7.16962	-8.47669	14.36366	19.71707	0.91721	1.09026	189.75156	181.01477	71.58875	0.32529	 	9.32971E14	 	3.86156E-15	 	15591.28232	26.16809	 
460.0	1.0	0.0	8.11356	7.1679	-8.49876	14.34052	19.63431	0.91484	1.09309	190.1187	181.20097	71.73582	0.32513	 	1.25934E15	 	2.84142E-15	 	15460.62725	26.13101	 
455.0	1.0	0.0	8.11551	7.16617	-8.52076	14.31741	19.55154	0.91244	1.09596	190.48492	181.38596	71.88258	0.32497	 	1.7069E15	 	2.08208E-15	 	15330.15677	26.09409	 
450.0	1.0	0.0	8.11745	7.16445	-8.54269	14.29431	19.46875	0.91003	1.09886	190.8502	181.56974	72.02902	0.32481	 	2.32328E15	 	1.5192E-15	 	15199.87011	26.05733	 
445.0	1.0	0.0	8.1194	7.16274	-8.56456	14.27123	19.38594	0.9076	1.10181	191.21456	181.75232	72.17515	0.32466	 	3.17582E15	 	1.10369E-15	 	15069.76645	26.02073	 
440.0	1.0	0.0	8.12133	7.16103	-8.58637	14.24817	19.30311	0.90515	1.10479	191.57798	181.93369	72.32096	0.3245	 	4.3603E15	 	7.98273E-16	 	14939.84497	25.9843	 
435.0	1.0	0.0	8.12327	7.15933	-8.60811	14.22512	19.22026	0.90268	1.10782	191.94048	182.11387	72.46645	0.32434	 	6.01339E15	 	5.74768E-16	 	14810.10483	25.94803	 
430.0	1.0	0.0	8.12519	7.15763	-8.62979	14.20209	19.13739	0.90018	1.11088	192.30205	182.29286	72.61163	0.32418	 	8.33121E15	 	4.11933E-16	 	14680.54517	25.91193	 
425.0	1.0	0.0	8.12712	7.15594	-8.65141	14.17908	19.0545	0.89767	1.11399	192.66269	182.47066	72.75649	0.32402	 	1.15964E16	 	2.9384E-16	 	14551.16509	25.87601	 
420.0	1.0	0.0	8.12903	7.15425	-8.67296	14.15608	18.97159	0.89514	1.11715	193.02239	182.64726	72.90103	0.32387	 	1.62186E16	 	2.08593E-16	 	14421.96371	25.84028	 
415.0	1.0	0.0	8.13095	7.15257	-8.69445	14.13311	18.88867	0.89258	1.12035	193.38117	182.82269	73.04526	0.32371	 	2.27939E16	 	1.4735E-16	 	14292.94011	25.80472	 
410.0	1.0	0.0	8.13285	7.15089	-8.71587	14.11015	18.80572	0.89	1.12359	193.73902	182.99692	73.18917	0.32355	 	3.2195E16	 	1.03565E-16	 	14164.09338	25.76935	 
405.0	1.0	0.0	8.13476	7.14921	-8.73723	14.0872	18.72275	0.88741	1.12688	194.09594	183.16998	73.33276	0.32339	 	4.57056E16	 	7.24174E-17	 	14035.42258	25.73416	 
400.0	1.0	0.0	8.13666	7.14755	-8.75852	14.06428	18.63976	0.88478	1.13022	194.45192	183.34187	73.47603	0.32323	 	6.52246E16	 	5.03718E-17	 	13906.92674	25.69917	 
395.0	1.0	0.0	8.13855	7.14588	-8.77976	14.04137	18.55675	0.88214	1.13361	194.80698	183.51258	73.61898	0.32308	 	9.3576E16	 	3.48495E-17	 	13778.60486	25.66438	 
390.0	1.0	0.0	8.14044	7.14422	-8.80093	14.01848	18.47372	0.87948	1.13704	195.1611	183.68212	73.76162	0.32292	 	1.34984E17	 	2.39782E-17	 	13650.45589	25.62979	 
385.0	1.0	0.0	8.14232	7.14257	-8.82203	13.9956	18.39066	0.87679	1.14053	195.51429	183.85049	73.90393	0.32276	 	1.95801E17	 	1.64057E-17	 	13522.47879	25.59542	 
380.0	1.0	0.0	8.1442	7.14092	-8.84308	13.97275	18.30759	0.87407	1.14407	195.86655	184.0177	74.04593	0.3226	 	2.85643E17	 	1.11603E-17	 	13394.67241	25.56127	 
375.0	1.0	0.0	8.14608	7.13928	-8.86406	13.94991	18.22449	0.87134	1.14766	196.21788	184.18374	74.18761	0.32244	 	4.19142E17	 	7.54746E-18	 	13267.03563	25.52736	 
370.0	1.0	0.0	8.14795	7.13764	-8.88497	13.92709	18.14137	0.86858	1.15131	196.56827	184.34863	74.32897	0.32229	 	6.18712E17	 	5.07353E-18	 	13139.56721	25.49368	 
365.0	1.0	0.0	8.14981	7.13601	-8.90583	13.90428	18.05822	0.86579	1.15501	196.91774	184.51236	74.47001	0.32213	 	9.18896E17	 	3.38956E-18	 	13012.26592	25.46026	 
360.0	1.0	0.0	8.15167	7.13438	-8.92662	13.88149	17.97505	0.86298	1.15877	197.26627	184.67494	74.61073	0.32197	 	1.37327E18	 	2.25028E-18	 	12885.13046	25.42709	 
355.0	1.0	0.0	8.15353	7.13275	-8.94734	13.85872	17.89186	0.86015	1.16259	197.61386	184.83637	74.75113	0.32181	 	2.0655E18	 	1.48431E-18	 	12758.15946	25.3942	 
350.0	1.0	0.0	8.15538	7.13114	-8.96801	13.83597	17.80864	0.85729	1.16647	197.96053	184.99665	74.89121	0.32165	 	3.12708E18	 	9.72613E-19	 	12631.35151	25.36159	 
345.0	1.0	0.0	8.15723	7.12952	-8.98861	13.81323	17.7254	0.85441	1.1704	198.30626	185.15578	75.03097	0.3215	 	4.76614E18	 	6.33015E-19	 	12504.70512	25.32928	 
340.0	1.0	0.0	8.15907	7.12791	-9.00915	13.79052	17.64213	0.85149	1.17441	198.65105	185.31378	75.17041	0.32134	 	7.3144E18	 	4.09143E-19	 	12378.21872	25.29728	 
335.0	1.0	0.0	8.1609	7.12631	-9.02962	13.76781	17.55884	0.84856	1.17847	198.99491	185.47064	75.30953	0.32118	 	1.13044E19	 	2.62572E-19	 	12251.89069	25.2656	 
330.0	1.0	0.0	8.16274	7.12471	-9.05004	13.74513	17.47552	0.84559	1.1826	199.33784	185.62636	75.44833	0.32102	 	1.75977E19	 	1.67285E-19	 	12125.71932	25.23427	 
325.0	1.0	0.0	8.16456	7.12312	-9.07039	13.72246	17.39218	0.8426	1.1868	199.67984	185.78095	75.5868	0.32086	 	2.75978E19	 	1.05785E-19	 	11999.70282	25.2033	 
320.0	1.0	0.0	8.16639	7.12153	-9.09068	13.69981	17.30881	0.83958	1.19107	200.0209	185.9344	75.72496	0.32071	 	4.36101E19	 	6.63841E-20	 	11873.83927	25.17271	 
315.0	1.0	0.0	8.1682	7.11994	-9.11091	13.67718	17.22541	0.83654	1.19541	200.36102	186.08673	75.86279	0.32055	 	6.94511E19	 	4.13329E-20	 	11748.12668	25.14252	 
310.0	1.0	0.0	8.17002	7.11836	-9.13107	13.65456	17.14199	0.83346	1.19982	200.70021	186.23794	76.0003	0.32039	 	1.1148999999999998E20	 	2.55288E-20	 	11622.56296	25.11274	 
305.0	1.0	0.0	8.17182	7.11679	-9.15117	13.63197	17.05853	0.83036	1.2043	201.03847	186.38803	76.13749	0.32023	 	1.80447E20	 	1.56379E-20	 	11497.14586	25.08342	 
300.0	1.0	0.0	8.17363	7.11522	-9.17121	13.60939	16.97505	0.82722	1.20886	201.37579	186.537	76.27436	0.32008	 	2.9451799999999997E20	 	9.49825E-21	 	11371.87305	25.05456	 
295.0	1.0	0.0	8.17542	7.11365	-9.19119	13.58682	16.89154	0.82406	1.2135	201.71218	186.68485	76.41091	0.31992	 	4.8486099999999997E20	 	5.71916E-21	 	11246.74203	25.0262	 
290.0	1.0	0.0	8.17722	7.11209	-9.2111	13.56428	16.808	0.82087	1.21822	202.04763	186.83159	76.54713	0.31976	 	8.0532E20	 	3.41305E-21	 	11121.75016	24.99837	 
285.0	1.0	0.0	8.17901	7.11054	-9.23096	13.54175	16.72442	0.81765	1.22302	202.38214	186.97721	76.68304	0.3196	 	1.34979E21	 	2.01823E-21	 	10996.89463	24.9711	 
280.0	1.0	0.0	8.18079	7.10899	-9.25075	13.51923	16.64082	0.81439	1.22791	202.71572	187.12174	76.81862	0.31944	 	2.28361E21	 	1.18225E-21	 	10872.17247	24.94443	 
275.0	1.0	0.0	8.18257	7.10744	-9.27048	13.49674	16.55719	0.81111	1.23288	203.04837	187.26515	76.95387	0.31929	 	3.9006800000000003E21	 	6.85876E-22	 	10747.58053	24.91839	 
270.0	1.0	0.0	8.18434	7.1059	-9.29015	13.47426	16.47352	0.80779	1.23794	203.38007	187.40747	77.08881	0.31913	 	6.728860000000001E21	 	3.93972E-22	 	10623.11542	24.89302	 
265.0	1.0	0.0	8.18611	7.10436	-9.30975	13.4518	16.38983	0.80444	1.2431	203.71085	187.54869	77.22342	0.31897	 	1.17258E22	 	2.24E-22	 	10498.77356	24.86837	 
260.0	1.0	0.0	8.18788	7.10283	-9.3293	13.42936	16.3061	0.80106	1.24834	204.04068	187.68881	77.3577	0.31881	 	2.0647499999999997E22	 	1.26029E-22	 	10374.5511	24.84449	 
255.0	1.0	0.0	8.18964	7.10131	-9.34878	13.40693	16.22233	0.79765	1.25369	204.36959	187.82784	77.49167	0.31866	 	3.67489E22	 	7.01455E-23	 	10250.44395	24.82143	 
250.0	1.0	0.0	8.19139	7.09979	-9.3682	13.38453	16.13854	0.7942	1.25913	204.69755	187.96578	77.62531	0.3185	 	6.61314E22	 	3.86105E-23	 	10126.44773	24.79925	 
245.0	1.0	0.0	8.19314	7.09827	-9.38756	13.36213	16.0547	0.79071	1.26468	205.02458	188.10263	77.75863	0.31834	 	1.20364E23	 	2.1011E-23	 	10002.55773	24.778	 
240.0	1.0	0.0	8.19489	7.09676	-9.40686	13.33976	15.97083	0.7872	1.27033	205.35067	188.2384	77.89162	0.31818	 	2.21642E23	 	1.13E-23	 	9878.76892	24.75776	 
235.0	1.0	0.0	8.19663	7.09525	-9.4261	13.3174	15.88693	0.78364	1.27609	205.67583	188.37308	78.02429	0.31802	 	4.1307299999999994E23	 	6.00416E-24	 	9755.07588	24.73861	 
230.0	1.0	0.0	8.19836	7.09375	-9.44528	13.29506	15.80299	0.78005	1.28196	206.00005	188.50669	78.15663	0.31787	 	7.794249999999999E23	 	3.15072E-24	 	9631.47282	24.72061	 
225.0	1.0	0.0	8.20009	7.09225	-9.46439	13.27274	15.71901	0.77643	1.28795	206.32334	188.63922	78.28866	0.31771	 	1.48956E24	 	1.63226E-24	 	9507.95344	24.70388	 
220.0	1.0	0.0	8.20182	7.09076	-9.48345	13.25044	15.63499	0.77277	1.29405	206.64569	188.77068	78.42035	0.31755	 	2.88433E24	 	8.34488E-25	 	9384.51101	24.68849	 
215.0	1.0	0.0	8.20354	7.08927	-9.50244	13.22815	15.55093	0.76906	1.30028	206.96711	188.90107	78.55173	0.31739	 	5.66124E24	 	4.20851E-25	 	9261.13824	24.67455	 
210.0	1.0	0.0	8.20526	7.08779	-9.52137	13.20588	15.46683	0.76533	1.30663	207.28759	189.03039	78.68278	0.31724	 	1.1267800000000001E25	 	2.09281E-25	 	9137.82724	24.6622	 
205.0	1.0	0.0	8.20697	7.08631	-9.54025	13.18362	15.3827	0.76155	1.31311	207.60713	189.15865	78.8135	0.31708	 	2.2752E25	 	1.02573E-25	 	9014.56947	24.65155	 
200.0	1.0	0.0	8.20868	7.08484	-9.55906	13.16139	15.29852	0.75773	1.31973	207.92574	189.28584	78.9439	0.31692	 	4.66283E25	 	4.95263E-26	 	8891.35569	24.64276	 
195.0	1.0	0.0	8.21038	7.08337	-9.57781	13.13917	15.21429	0.75388	1.32648	208.24341	189.41198	79.07398	0.31676	 	9.703660000000001E25	 	2.3547E-26	 	8768.17582	24.63597	 
190.0	1.0	0.0	8.21208	7.0819	-9.5965	13.11697	15.13002	0.74998	1.33337	208.56015	189.53706	79.20373	0.31661	 	2.0516100000000002E26	 	1.10183E-26	 	8645.01892	24.63138	 
185.0	1.0	0.0	8.21377	7.08044	-9.61512	13.09478	15.04571	0.74604	1.34041	208.87595	189.66109	79.33315	0.31645	 	4.4091E26	 	5.07159E-27	 	8521.87303	24.62918	 
180.0	1.0	0.0	8.21546	7.07899	-9.63369	13.07262	14.96135	0.74206	1.34761	209.19082	189.78407	79.46226	0.31629	 	9.636910000000002E26	 	2.29504E-27	 	8398.72513	24.62958	 
175.0	1.0	0.0	8.21714	7.07754	-9.6522	13.05047	14.87695	0.73803	1.35495	209.50476	189.906	79.59103	0.31613	 	2.1433999999999999E27	 	1.02048E-27	 	8275.5609	24.63285	 
170.0	1.0	0.0	8.21882	7.07609	-9.67065	13.02833	14.79249	0.73397	1.36246	209.81776	190.02689	79.71948	0.31598	 	4.85404E27	 	4.45589E-28	 	8152.36464	24.63925	 
165.0	1.0	0.0	8.22049	7.07465	-9.68904	13.00622	14.70799	0.72985	1.37014	210.12983	190.14674	79.84761	0.31582	 	1.11997E28	 	1.90943E-28	 	8029.11907	24.64911	 
160.0	1.0	0.0	8.22216	7.07322	-9.70736	12.98412	14.62344	0.7257	1.37799	210.44096	190.26555	79.97542	0.31566	 	2.63445E28	 	8.02483E-29	 	7905.8051	24.66279	 
155.0	1.0	0.0	8.22382	7.07179	-9.72563	12.96204	14.53883	0.72149	1.38601	210.75116	190.38333	80.10289	0.3155	 	6.3219400000000005E28	 	3.30546E-29	 	7782.40161	24.6807	 
150.0	1.0	0.0	8.22548	7.07036	-9.74384	12.93998	14.45417	0.71724	1.39422	211.06043	190.50008	80.23005	0.31535	 	1.5488000000000001E29	 	1.33348E-29	 	7658.88508	24.70331	 
145.0	1.0	0.0	8.22714	7.06894	-9.76198	12.91793	14.36946	0.71295	1.40263	211.36877	190.61579	80.35688	0.31519	 	3.87656E29	 	5.26468E-30	 	7535.22931	24.73115	 
140.0	1.0	0.0	8.22879	7.06752	-9.78007	12.8959	14.28469	0.7086	1.41123	211.67617	190.73048	80.48338	0.31503	 	9.92071E29	 	2.0326E-30	 	7411.40491	24.76488	 
135.0	1.0	0.0	8.23043	7.06611	-9.7981	12.87389	14.19986	0.70421	1.42003	211.98265	190.84415	80.60956	0.31487	 	2.59799E30	 	7.66778E-31	 	7287.3788	24.80522	 
130.0	1.0	0.0	8.23207	7.0647	-9.81607	12.85189	14.11497	0.69977	1.42905	212.28819	190.9568	80.73542	0.31472	 	6.967899999999999E30	 	2.82391E-31	 	7163.11352	24.85306	 
125.0	1.0	0.0	8.23371	7.0633	-9.83397	12.82992	14.03003	0.69527	1.43829	212.59281	191.06844	80.86095	0.31456	 	1.9157099999999999E31	 	1.01439E-31	 	7038.56646	24.90941	 
120.0	1.0	0.0	8.23534	7.0619	-9.85182	12.80796	13.94502	0.69073	1.44775	212.89649	191.17906	80.98616	0.3144	 	5.404149999999999E31	 	3.55073E-32	 	6913.68873	24.97555	 
115.0	1.0	0.0	8.23696	7.06051	-9.86961	12.78601	13.85994	0.68613	1.45746	213.19925	191.28867	81.11105	0.31424	 	1.5657699999999999E32	 	1.20992E-32	 	6788.42393	25.05296	 
110.0	1.0	0.0	8.23858	7.05912	-9.88734	12.76409	13.7748	0.68147	1.46741	213.50108	191.39728	81.23561	0.31409	 	4.6643299999999996E32	 	4.00928E-33	 	6662.7064	25.14351	 
105.0	1.0	0.0	8.2402	7.05773	-9.90501	12.74218	13.68959	0.67677	1.47761	213.80199	191.50488	81.35985	0.31393	 	1.43016E33	 	1.29052E-33	 	6536.45904	25.24947	 
100.0	1.0	0.0	8.24181	7.05635	-9.92262	12.72029	13.60432	0.67201	1.48808	214.10197	191.61149	81.48376	0.31377	 	4.5188E33	 	4.03039E-34	 	6409.59039	25.37373	 
95.0	1.0	0.0	8.24341	7.05498	-9.94017	12.69841	13.51897	0.66719	1.49883	214.40102	191.7171	81.60735	0.31361	 	1.4731000000000002E34	 	1.21978E-34	 	6281.99085	25.51991	 
90.0	1.0	0.0	8.24502	7.05361	-9.95766	12.67656	13.43354	0.66231	1.50987	214.69916	191.82172	81.73062	0.31346	 	4.96103E34	 	3.57274E-35	 	6153.52742	25.69268	 
85.0	1.0	0.0	8.24661	7.05224	-9.97509	12.65472	13.34804	0.65738	1.5212	214.99637	191.92534	81.85357	0.3133	 	1.72837E35	 	1.01138E-35	 	6024.03674	25.89814	 
80.0	1.0	0.0	8.2482	7.05088	-9.99247	12.6329	13.26245	0.65238	1.53285	215.29266	192.02799	81.9762	0.31314	 	6.23806E35	 	2.7631E-36	 	5893.31534	26.14428	 
75.0	1.0	0.0	8.24979	7.04953	-10.00978	12.61109	13.17679	0.64733	1.54482	215.58803	192.12965	82.0985	0.31298	 	2.3360099999999998E36	 	7.27409E-37	 	5761.10616	26.44184	 
70.0	1.0	0.0	8.25137	7.04818	-10.02704	12.5893	13.09104	0.64221	1.55713	215.88248	192.23034	82.22049	0.31283	 	9.090949999999999E36	 	1.8423E-37	 	5627.07949	26.80533	 
65.0	1.0	0.0	8.25295	7.04683	-10.04423	12.56753	13.0052	0.63703	1.56979	216.17602	192.33005	82.34215	0.31267	 	3.68296E37	 	4.48125E-38	 	5490.80583	27.25473	 
60.0	1.0	0.0	8.25452	7.04549	-10.06137	12.54578	12.91927	0.63178	1.58282	216.46864	192.4288	82.4635	0.31251	 	1.55604E38	 	1.04497E-38	 	5351.71666	27.81783	 
55.0	1.0	0.0	8.25609	7.04415	-10.07845	12.52404	12.83325	0.62647	1.59624	216.76035	192.52658	82.58452	0.31235	 	6.86937E38	 	2.33154E-39	 	5197.16412	30.91051	 
50.0	1.0	0.0	8.25765	7.04281	-10.09547	12.50232	12.74712	0.62109	1.61006	217.05115	192.6234	82.70523	0.3122	 	3.17519E39	 	4.96731E-40	 	5013.82822	36.66718	 
45.0	1.0	0.0	8.25921	7.04149	-10.11243	12.48062	12.6609	0.61565	1.6243	217.34105	192.71926	82.82562	0.31204	 	1.54E40	 	1.00832E-40	 	4836.64429	35.43679	 
40.0	1.0	0.0	8.26077	7.04016	-10.12933	12.45894	12.57457	0.61013	1.63898	217.63003	192.81417	82.94569	0.31188	 	7.8554E40	 	1.94568E-41	 	4664.99091	34.33068	 
35.0	1.0	0.0	8.26231	7.03884	-10.14618	12.43727	12.48813	0.60455	1.65413	217.91812	192.90814	83.06544	0.31173	 	4.22456E41	 	3.56015E-42	 	4498.33417	33.33135	 
30.0	1.0	0.0	8.26386	7.03753	-10.16296	12.41562	12.40157	0.59889	1.66976	218.2053	193.00116	83.18488	0.31157	 	2.40157E42	 	6.16098E-43	 	4336.2148	32.42388	 
25.0	1.0	0.0	8.2654	7.03622	-10.17969	 	12.3149	0.59316	1.68589	218.49159	193.09325	83.30401	0.31141	 	1.44718E43	 	1.00554E-43	 	4178.23721	 	 
