T (C)	Fraction solid (wt)-TOTAL	Fraction liquid (wt)-LIQUID	Density (g/(cm)^3)-TOTAL	Molar volume (cm^3)-TOTAL	Volume change (%)-  	Average expansion coeff. (10e-6 1/K)-  	Thermal conductivity (W/(m*K))-TOTAL	Electrical resistivity (10e-6 Ohm*m)-TOTAL	Electrical conductivity (10e6 1/(Ohm*m))-TOTAL	Young's modulus (GPa)-TOTAL	Bulk modulus (GPa)-TOTAL	Shear modulus(GPa)-TOTAL	Poisson's ratio-TOTAL	Liquid viscosity (mPa s)-  	Total viscosity (mPa s)-  	Liquid diffusivity (10e-9 (m^2)/s)-  	Total diffusivity (10e-9 (m^2)/s)-  	Surface Tension (mN/m)-  	Enthalpy (J/mole)-TOTAL	Specific heat (J/(mole K))-TOTAL	Latent heat (J/mole)-TOTAL
1400.0	0.83587	0.16413	8.28486	7.47278	0.0	19.14379	35.33609	1.16007	0.86202	55.68528	139.61141	20.10822	0.38464	8.93023	17344.89162	0.91445	4.70815E-4	1819.71252	48068.557	 	0.0
1395.0	0.88732	0.11268	8.30416	7.45498	-0.2383	18.58808	35.46341	1.15245	0.86772	71.57796	140.15575	25.98821	0.37712	9.17684	23352.12441	0.88721	3.48655E-4	1821.09026	47186.778	176.3558	678.278
1390.0	0.91909	0.0809131	8.31693	7.44315	-0.39649	18.23934	35.50953	1.1475	0.87146	83.13634	140.64761	30.28883	0.37239	9.41877	28513.65241	0.86183	2.84685E-4	1822.28528	46576.867	121.9822	1085.183
1385.0	0.94007	0.0599305	8.32612	7.4346	-0.51092	18.00379	35.50986	1.14404	0.8741	91.65445	141.10921	33.47014	0.3692	9.65723	33122.14432	0.83803	2.44339E-4	1823.35108	46113.288	92.7158	1346.25
1380.0	0.95468	0.0453215	8.33321	7.42799	-0.59943	17.8353	35.48244	1.14147	0.87606	98.094	141.55188	35.88157	0.36691	9.89378	37409.5673	0.81552	2.15683E-4	1824.32665	45735.046	75.6484	1522.47
1375.0	0.96529	0.0347142	8.33897	7.4226	-0.67148	17.7094	35.43729	1.13947	0.8776	103.09872	141.98214	37.75942	0.36521	10.12934	41540.46237	0.79415	1.93648E-4	1825.23911	45409.844	65.0404	1646.133
1370.0	0.97325	0.0267453	8.34386	7.41803	-0.73267	17.61161	35.38019	1.13785	0.87885	107.09248	142.40339	39.26032	0.36388	10.36478	45629.9411	0.77376	1.75758E-4	1826.10934	45119.358	58.0972	1735.562
1365.0	0.97941	0.0205877	8.34816	7.41402	-0.78636	17.53323	35.31476	1.13648	0.87991	110.35827	142.81792	40.48922	0.36281	10.60059	49762.2784	0.75424	1.60672E-4	1826.95294	44852.589	53.3538	1801.752
1360.0	0.98428	0.0157162	8.35203	7.41041	-0.83468	17.46871	35.2433	1.13531	0.88081	113.08741	143.22707	41.51733	0.36193	10.83779	54001.33572	0.73548	1.47607E-4	1827.7805	44602.618	49.9942	1851.619
1355.0	0.98821	0.0117856	8.35561	7.40709	-0.87905	17.4144	35.16734	1.13428	0.88162	115.41273	143.63177	42.39416	0.36119	11.07672	58398.3694	0.71741	1.36076E-4	1828.60049	44364.917	47.5402	1889.688
1350.0	0.99144	0.00855917	8.35895	7.404	-0.9204	17.36789	35.08794	1.13336	0.88233	117.4282	144.03273	43.15483	0.36055	11.31796	62997.01536	0.69997	1.25755E-4	1829.41777	44136.421	45.6992	1919.019
1345.0	0.99413	0.00587071	8.36212	7.40108	-0.95946	17.32724	35.00589	1.13251	0.88299	119.20234	144.43032	43.82495	0.35998	11.56154	67836.4634	0.68311	1.16424E-4	1830.23899	43914.994	44.2854	1941.746
1340.0	0.9964	0.00360308	8.36516	7.3983	-0.99671	17.29124	34.92175	1.13174	0.8836	120.7854	144.82489	44.42334	0.35948	11.80811	72953.32913	0.66678	1.07924E-4	1831.06637	43699.11	43.1768	1959.392
1335.0	0.99833	0.00166808	8.36808	7.39563	-1.03251	17.25896	34.83591	1.13101	0.88417	122.21479	145.2167	44.96403	0.35903	12.0582	78382.88827	0.65092	1.00136E-4	1831.90193	43487.653	42.2914	1973.068
1330.0	1.0	0.0	8.37093	7.39304	-1.06712	17.22969	34.74867	1.13032	0.8847	123.5191	145.60591	45.45773	0.35861	 	84160.5579	 	9.2972E-5	 	43279.794	41.5718	1983.602
1325.0	1.0	0.0	8.3735	7.39078	-1.09735	17.21232	34.65444	1.12986	0.88507	123.98447	145.9805	45.63466	0.35845	 	89807.92546	 	8.6854E-5	 	43094.15664	37.12747	 
1320.0	1.0	0.0	8.37604	7.38854	-1.12733	17.19551	34.56039	1.12939	0.88543	124.44881	146.35336	45.81124	0.35828	 	95879.03959	 	8.10998E-5	 	42906.86806	37.45772	 
1315.0	1.0	0.0	8.37858	7.3863	-1.15728	17.17867	34.46634	1.12892	0.8858	124.91237	146.72441	45.98757	0.35811	 	102402.7331	 	7.56949E-5	 	42719.84681	37.40425	 
1310.0	1.0	0.0	8.38111	7.38407	-1.18718	17.16182	34.37228	1.12844	0.88618	125.37515	147.09367	46.16367	0.35794	 	109415.789	 	7.06202E-5	 	42533.09257	37.35085	 
1305.0	1.0	0.0	8.38365	7.38184	-1.21705	17.14494	34.27823	1.12797	0.88655	125.83715	147.46115	46.33952	0.35777	 	116958.214	 	6.58574E-5	 	42346.60506	37.2975	 
1300.0	1.0	0.0	8.38618	7.37961	-1.24688	17.12803	34.18418	1.12749	0.88693	126.29837	147.82685	46.51512	0.35761	 	125073.5536	 	6.13891E-5	 	42160.38395	37.24422	 
1295.0	1.0	0.0	8.38871	7.37738	-1.27666	17.11111	34.09013	1.127	0.88731	126.75881	148.19077	46.69048	0.35744	 	133809.2177	 	5.7199E-5	 	41974.42896	37.191	 
1290.0	1.0	0.0	8.39124	7.37516	-1.30641	17.09416	33.99608	1.12652	0.88769	127.21848	148.55293	46.8656	0.35727	 	143216.8568	 	5.32713E-5	 	41788.73979	37.13783	 
1285.0	1.0	0.0	8.39377	7.37294	-1.33612	17.07719	33.90202	1.12603	0.88808	127.67737	148.91333	47.04048	0.3571	 	153352.7728	 	4.95912E-5	 	41603.31613	37.08473	 
1280.0	1.0	0.0	8.39629	7.37072	-1.36579	17.0602	33.80797	1.12554	0.88846	128.13547	149.27197	47.21511	0.35693	 	164278.3479	 	4.61445E-5	 	41418.15771	37.03168	 
1275.0	1.0	0.0	8.39881	7.36851	-1.39542	17.04319	33.71392	1.12504	0.88885	128.5928	149.62886	47.3895	0.35676	 	176060.5568	 	4.29178E-5	 	41233.26422	36.9787	 
1270.0	1.0	0.0	8.40133	7.36629	-1.42501	17.02615	33.61987	1.12455	0.88925	129.04935	149.98401	47.56364	0.3566	 	188772.5152	 	3.98985E-5	 	41048.63538	36.92577	 
1265.0	1.0	0.0	8.40385	7.36409	-1.45457	17.00909	33.52581	1.12405	0.88964	129.50512	150.33743	47.73755	0.35643	 	202494.0574	 	3.70743E-5	 	40864.27089	36.8729	 
1260.0	1.0	0.0	8.40637	7.36188	-1.48408	16.99201	33.43176	1.12355	0.89004	129.96012	150.68912	47.9112	0.35626	 	217312.4342	 	3.44339E-5	 	40680.17046	36.82009	 
1255.0	1.0	0.0	8.40889	7.35968	-1.51355	16.97491	33.33771	1.12304	0.89044	130.41433	151.03908	48.08462	0.35609	 	233323.0129	 	3.19665E-5	 	40496.33381	36.76733	 
1250.0	1.0	0.0	8.4114	7.35748	-1.54298	16.95778	33.24366	1.12254	0.89084	130.86777	151.38732	48.25778	0.35592	 	250630.1228	 	2.96617E-5	 	40312.76065	36.71463	 
1245.0	1.0	0.0	8.41391	7.35528	-1.57237	16.94063	33.14961	1.12202	0.89125	131.32042	151.73385	48.43071	0.35576	 	269347.9363	 	2.75098E-5	 	40129.45069	36.66199	 
1240.0	1.0	0.0	8.41642	7.35309	-1.60172	16.92347	33.05555	1.12151	0.89165	131.7723	152.07868	48.60339	0.35559	 	289601.4764	 	2.55016E-5	 	39946.40365	36.60941	 
1235.0	1.0	0.0	8.41893	7.3509	-1.63104	16.90627	32.9615	1.12099	0.89206	132.2234	152.42181	48.77582	0.35542	 	311527.6941	 	2.36284E-5	 	39763.61923	36.55688	 
1230.0	1.0	0.0	8.42144	7.34871	-1.66031	16.88906	32.86745	1.12048	0.89248	132.67372	152.76324	48.94802	0.35525	 	335276.7304	 	2.18819E-5	 	39581.09716	36.50441	 
1225.0	1.0	0.0	8.42394	7.34653	-1.68954	16.87182	32.7734	1.11995	0.89289	133.12326	153.10299	49.11996	0.35508	 	361013.2476	 	2.02544E-5	 	39398.83715	36.452	 
1220.0	1.0	0.0	8.42644	7.34435	-1.71873	16.85456	32.67934	1.11943	0.89331	133.57203	153.44105	49.29166	0.35491	 	388917.9422	 	1.87384E-5	 	39216.83893	36.39964	 
1215.0	1.0	0.0	8.42894	7.34217	-1.74788	16.83728	32.58529	1.1189	0.89374	134.02001	153.77744	49.46312	0.35475	 	419189.216	 	1.7327E-5	 	39035.10219	36.34735	 
1210.0	1.0	0.0	8.43144	7.33999	-1.77699	16.81998	32.49124	1.11837	0.89416	134.46722	154.11215	49.63433	0.35458	 	452045.035	 	1.60136E-5	 	38853.62667	36.2951	 
1205.0	1.0	0.0	8.43394	7.33782	-1.80605	16.80265	32.39719	1.11783	0.89459	134.91364	154.44521	49.8053	0.35441	 	487724.9944	 	1.47921E-5	 	38672.41209	36.24292	 
1200.0	1.0	0.0	8.43643	7.33565	-1.83508	16.7853	32.30313	1.1173	0.89502	135.35929	154.7766	49.97602	0.35424	 	526492.6172	 	1.36566E-5	 	38491.45815	36.19079	 
1195.0	1.0	0.0	8.43892	7.33349	-1.86407	16.76793	32.20908	1.11676	0.89545	135.80416	155.10634	50.1465	0.35407	 	568637.9121	 	1.26015E-5	 	38310.76459	36.13871	 
1190.0	1.0	0.0	8.44141	7.33132	-1.89301	16.75054	32.11503	1.11621	0.89589	136.24825	155.43443	50.31673	0.35391	 	614480.2225	 	1.16216E-5	 	38130.33113	36.08669	 
1185.0	1.0	0.0	8.4439	7.32916	-1.92192	16.73313	32.02098	1.11566	0.89633	136.69157	155.76088	50.48672	0.35374	 	664371.4033	 	1.07122E-5	 	37950.15748	36.03473	 
1180.0	1.0	0.0	8.44638	7.32701	-1.95078	16.71569	31.92693	1.11511	0.89677	137.1341	156.0857	50.65646	0.35357	 	718699.3617	 	9.86847E-6	 	37770.24336	35.98282	 
1175.0	1.0	0.0	8.44887	7.32485	-1.9796	16.69823	31.83287	1.11456	0.89721	137.57585	156.40888	50.82596	0.3534	 	777892.011	 	9.08617E-6	 	37590.58851	35.93097	 
1170.0	1.0	0.0	8.45135	7.3227	-2.00838	16.68075	31.73882	1.114	0.89766	138.01683	156.73044	50.99521	0.35323	 	842421.6842	 	8.3612E-6	 	37411.19264	35.87917	 
1165.0	1.0	0.0	8.45383	7.32055	-2.03712	16.66324	31.64477	1.11344	0.89811	138.45703	157.05038	51.16421	0.35307	 	912810.067	 	7.68972E-6	 	37232.05548	35.82743	 
1160.0	1.0	0.0	8.45631	7.31841	-2.06581	16.64571	31.55072	1.11288	0.89857	138.89645	157.36871	51.33297	0.3529	 	989633.7135	 	7.06812E-6	 	37053.17674	35.77575	 
1155.0	1.0	0.0	8.45878	7.31627	-2.09447	16.62817	31.45666	1.11231	0.89903	139.33509	157.68542	51.50149	0.35273	 	1073530.218	 	6.49301E-6	 	36874.55617	35.72411	 
1150.0	1.0	0.0	8.46125	7.31413	-2.12308	16.61059	31.36261	1.11174	0.89949	139.77295	158.00054	51.66975	0.35256	 	1165205.125	 	5.96122E-6	 	36696.19348	35.67254	 
1145.0	1.0	0.0	8.46372	7.31199	-2.15165	16.593	31.26856	1.11117	0.89995	140.21003	158.31406	51.83777	0.35239	 	1265439.673	 	5.46975E-6	 	36518.08841	35.62101	 
1140.0	1.0	0.0	8.46619	7.30986	-2.18018	16.57538	31.17451	1.11059	0.90042	140.64634	158.62598	52.00555	0.35222	 	1375099.478	 	5.01581E-6	 	36340.24066	35.56955	 
1135.0	1.0	0.0	8.46866	7.30773	-2.20867	16.55774	31.08046	1.11001	0.90089	141.08186	158.93632	52.17308	0.35206	 	1495144.271	 	4.59677E-6	 	36162.64999	35.51813	 
1130.0	1.0	0.0	8.47112	7.30561	-2.23711	16.54008	30.9864	1.10943	0.90137	141.51661	159.24508	52.34036	0.35189	 	1626638.838	 	4.21017E-6	 	35985.31611	35.46678	 
1125.0	1.0	0.0	8.47358	7.30349	-2.26552	16.5224	30.89235	1.10884	0.90184	141.95058	159.55227	52.50739	0.35172	 	1770765.313	 	3.85371E-6	 	35808.23875	35.41547	 
1122.68	1.0	0.0	8.47473	7.3025	-2.2787	16.51418	30.84865	1.10857	0.90207	142.15194	159.69445	52.58492	0.35164	 	1842386.007	 	3.69775E-6	 	35726.05547	35.37808	 
1120.0	1.0	0.0	8.47603	7.30138	-2.2937	16.50529	30.79833	1.10825	0.90233	142.38437	159.8589	52.67439	0.35155	 	1928913.897	 	3.5251E-6	 	35631.11818	35.46406	 
1115.0	1.0	0.0	8.47846	7.29929	-2.32169	16.48864	30.70435	1.10765	0.90281	142.81785	160.16477	52.84131	0.35138	 	2102549.077	 	3.22238E-6	 	35454.0145	35.42074	 
1110.0	1.0	0.0	8.48089	7.2972	-2.34966	16.47192	30.61036	1.10705	0.9033	143.25052	160.46901	53.00797	0.35122	 	2293234.791	 	2.94379E-6	 	35277.1925	35.3644	 
1105.0	1.0	0.0	8.48331	7.29511	-2.37759	16.45513	30.51636	1.10644	0.9038	143.68235	160.77161	53.17436	0.35105	 	2502781.737	 	2.68757E-6	 	35100.65085	35.30833	 
1100.0	1.0	0.0	8.48574	7.29302	-2.40551	16.43828	30.42237	1.10584	0.90429	144.11337	161.07257	53.34049	0.35088	 	2733207.07	 	2.45207E-6	 	34924.38827	35.25252	 
1095.0	1.0	0.0	8.48816	7.29094	-2.43339	16.42137	30.32838	1.10522	0.90479	144.54356	161.37192	53.50636	0.35071	 	2986759.755	 	2.23573E-6	 	34748.40351	35.19695	 
1090.0	1.0	0.0	8.49059	7.28886	-2.46125	16.4044	30.23438	1.10461	0.9053	144.97293	161.66966	53.67197	0.35055	 	3265948.627	 	2.03714E-6	 	34572.69533	35.14164	 
1085.0	1.0	0.0	8.49301	7.28678	-2.48907	16.38737	30.14039	1.10399	0.90581	145.40149	161.9658	53.83731	0.35038	 	3573574.86	 	1.85495E-6	 	34397.26255	35.08656	 
1080.0	1.0	0.0	8.49543	7.2847	-2.51687	16.37027	30.04639	1.10337	0.90632	145.82923	162.26034	54.0024	0.35021	 	3912768.073	 	1.68791E-6	 	34222.10401	35.03171	 
1075.0	1.0	0.0	8.49785	7.28263	-2.54463	16.35313	29.95239	1.10274	0.90683	146.25615	162.55329	54.16722	0.35004	 	4287027.418	 	1.53486E-6	 	34047.21858	34.97709	 
1070.0	1.0	0.0	8.50027	7.28056	-2.57237	16.33592	29.85839	1.10211	0.90735	146.68226	162.84466	54.33179	0.34988	 	4700268.359	 	1.39472E-6	 	33872.60516	34.92268	 
1065.0	1.0	0.0	8.50269	7.27849	-2.60007	16.31867	29.76439	1.10147	0.90788	147.10755	163.13446	54.4961	0.34971	 	5156875.439	 	1.2665E-6	 	33698.26268	34.8685	 
1060.0	1.0	0.0	8.50511	7.27642	-2.62773	16.30136	29.67039	1.10083	0.9084	147.53204	163.4227	54.66015	0.34954	 	5661761.941	 	1.14925E-6	 	33524.1901	34.81452	 
1055.0	1.0	0.0	8.50752	7.27435	-2.65537	16.28399	29.57638	1.10019	0.90893	147.95572	163.70938	54.82393	0.34937	 	6220438.665	 	1.04211E-6	 	33350.38639	34.76074	 
1050.0	1.0	0.0	8.50993	7.27229	-2.68297	16.26658	29.48238	1.09954	0.90947	148.37859	163.99451	54.98747	0.3492	 	6839090.303	 	9.44273E-7	 	33176.85058	34.70716	 
1045.0	1.0	0.0	8.51234	7.27023	-2.71053	16.24912	29.38837	1.09889	0.91001	148.80065	164.27809	55.15074	0.34904	 	7524664.756	 	8.54997E-7	 	33003.5817	34.65378	 
1040.0	1.0	0.0	8.51475	7.26817	-2.73807	16.23162	29.29436	1.09824	0.91055	149.2219	164.56015	55.31376	0.34887	 	8284972.025	 	7.73588E-7	 	32830.57882	34.60058	 
1035.0	1.0	0.0	8.51716	7.26612	-2.76556	16.21406	29.20035	1.09758	0.9111	149.64236	164.84067	55.47652	0.3487	 	9128799.51	 	6.99408E-7	 	32657.84102	34.54756	 
1030.0	1.0	0.0	8.51957	7.26407	-2.79302	16.19646	29.10634	1.09691	0.91165	150.062	165.11968	55.63902	0.34853	 	1.006604176E7	 	6.31862E-7	 	32485.36743	34.49472	 
1025.0	1.0	0.0	8.52197	7.26202	-2.82044	16.17882	29.01233	1.09625	0.9122	150.48085	165.39717	55.80126	0.34836	 	1.110785001E7	 	5.70403E-7	 	32313.15718	34.44205	 
1020.0	1.0	0.0	8.52437	7.25997	-2.84783	16.16113	28.91832	1.09557	0.91276	150.89889	165.67315	55.96325	0.3482	 	1.226680081E7	 	5.14522E-7	 	32141.20943	34.38955	 
1015.0	1.0	0.0	8.52677	7.25793	-2.87518	16.1434	28.82431	1.0949	0.91333	151.31614	165.94763	56.12499	0.34803	 	1.355709145E7	 	4.63753E-7	 	31969.52337	34.33721	 
1010.0	1.0	0.0	8.52917	7.25589	-2.90249	16.12563	28.73029	1.09422	0.9139	151.73258	166.22062	56.28647	0.34786	 	1.499476221E7	 	4.17662E-7	 	31798.09821	34.28503	 
1005.0	1.0	0.0	8.53157	7.25385	-2.92976	16.10782	28.63627	1.09353	0.91447	152.14823	166.49212	56.44769	0.34769	 	1.659795129E7	 	3.7585E-7	 	31626.93318	34.23301	 
1000.0	1.0	0.0	8.53396	7.25181	-2.95699	16.08996	28.54226	1.09284	0.91505	152.56308	166.76214	56.60866	0.34752	 	1.838718667E7	 	3.37949E-7	 	31456.02752	34.18113	 
995.0	1.0	0.0	8.53635	7.24978	-2.98418	16.07207	28.44824	1.09215	0.91563	152.97713	167.03069	56.76937	0.34736	 	2.038572308E7	 	3.03621E-7	 	31285.38051	34.1294	 
990.0	1.0	0.0	8.53874	7.24775	-3.01134	16.05414	28.35422	1.09145	0.91621	153.39039	167.29777	56.92983	0.34719	 	2.261992499E7	 	2.72553E-7	 	31114.99144	34.07781	 
985.0	1.0	0.0	8.54113	7.24573	-3.03845	16.03618	28.2602	1.09075	0.9168	153.80285	167.56338	57.09003	0.34702	 	2.511971247E7	 	2.44458E-7	 	30944.85962	34.02636	 
980.0	1.0	0.0	8.54352	7.2437	-3.06553	16.01817	28.16618	1.09004	0.9174	154.21452	167.82754	57.24998	0.34685	 	2.791907067E7	 	2.19073E-7	 	30774.98437	33.97505	 
975.0	1.0	0.0	8.5459	7.24168	-3.09256	16.00013	28.07216	1.08932	0.918	154.6254	168.09026	57.40967	0.34668	 	3.105663622E7	 	1.96155E-7	 	30605.36506	33.92386	 
970.0	1.0	0.0	8.54828	7.23967	-3.11955	15.98206	27.97813	1.08861	0.91861	155.03548	168.35152	57.56912	0.34652	 	3.457637832E7	 	1.75481E-7	 	30436.00103	33.87281	 
965.0	1.0	0.0	8.55066	7.23765	-3.1465	15.96395	27.88411	1.08788	0.91922	155.44477	168.61135	57.7283	0.34635	 	3.852837851E7	 	1.56848E-7	 	30266.89168	33.82187	 
960.0	1.0	0.0	8.55304	7.23564	-3.17341	15.94581	27.79009	1.08716	0.91983	155.85327	168.86975	57.88723	0.34618	 	4.296973927E7	 	1.40068E-7	 	30098.03641	33.77105	 
955.0	1.0	0.0	8.55541	7.23363	-3.20028	15.92764	27.69606	1.08642	0.92045	156.26098	169.12671	58.04591	0.34601	 	4.79656268E7	 	1.24971E-7	 	29929.43462	33.72036	 
950.0	1.0	0.0	8.55778	7.23163	-3.22711	15.90943	27.60204	1.08569	0.92108	156.6679	169.38226	58.20434	0.34584	 	5.359048652E7	 	1.11398E-7	 	29761.08575	33.66977	 
945.0	1.0	0.0	8.56015	7.22963	-3.25389	15.89119	27.50801	1.08494	0.92171	157.07404	169.6364	58.36251	0.34568	 	5.992944595E7	 	9.92081E-8	 	29592.98925	33.6193	 
940.0	1.0	0.0	8.56252	7.22763	-3.28063	15.87292	27.41398	1.0842	0.92234	157.47938	169.88912	58.52043	0.34551	 	6.707995056E7	 	8.82691E-8	 	29425.14457	33.56894	 
935.0	1.0	0.0	8.56488	7.22563	-3.30733	15.85461	27.31995	1.08345	0.92298	157.88393	170.14044	58.6781	0.34534	 	7.515365011E7	 	7.84617E-8	 	29257.5512	33.51867	 
930.0	1.0	0.0	8.56724	7.22364	-3.33398	15.83628	27.22592	1.08269	0.92363	158.2877	170.39036	58.83551	0.34517	 	8.427861342E7	 	6.96769E-8	 	29090.20862	33.46852	 
925.0	1.0	0.0	8.5696	7.22165	-3.36059	15.81792	27.1319	1.08192	0.92428	158.69068	170.63889	58.99267	0.345	 	9.460188206E7	 	6.18156E-8	 	28923.11632	33.41846	 
920.0	1.0	0.0	8.57196	7.21967	-3.38716	15.79953	27.03787	1.08116	0.92494	159.09287	170.88603	59.14957	0.34484	 	1.062924686E8	 	5.47872E-8	 	28756.27384	33.3685	 
915.0	1.0	0.0	8.57431	7.21769	-3.41369	15.78111	26.94383	1.08038	0.9256	159.49428	171.13179	59.30623	0.34467	 	1.195448516E8	 	4.85095E-8	 	28589.68069	33.31863	 
910.0	1.0	0.0	8.57667	7.21571	-3.44016	15.76266	26.8498	1.0796	0.92626	159.8949	171.37616	59.46263	0.3445	 	1.345830371E8	 	4.29078E-8	 	28423.3364	33.26886	 
905.0	1.0	0.0	8.57901	7.21373	-3.4666	15.74418	26.75577	1.07882	0.92694	160.29473	171.61917	59.61878	0.34433	 	1.516653377E8	 	3.79141E-8	 	28257.24054	33.21917	 
900.0	1.0	0.0	8.58136	7.21176	-3.49299	15.72567	26.66174	1.07803	0.92762	160.69378	171.86081	59.77467	0.34416	 	1.710899533E8	 	3.34669E-8	 	28091.39267	33.16957	 
895.0	1.0	0.0	8.5837	7.20979	-3.51933	15.70714	26.56771	1.07724	0.9283	161.09205	172.10109	59.93031	0.34399	 	1.932015213E8	 	2.95104E-8	 	27925.79234	33.12007	 
890.0	1.0	0.0	8.58604	7.20783	-3.54563	15.68858	26.47367	1.07643	0.92899	161.48953	172.34001	60.0857	0.34383	 	2.183987832E8	 	2.59939E-8	 	27760.43915	33.07064	 
885.0	1.0	0.0	8.58838	7.20586	-3.57189	15.66999	26.37964	1.07563	0.92969	161.88623	172.57757	60.24084	0.34366	 	2.471436259E8	 	2.28719E-8	 	27595.33268	33.02129	 
880.0	1.0	0.0	8.59072	7.2039	-3.5981	15.65138	26.28561	1.07482	0.93039	162.28214	172.81379	60.39572	0.34349	 	2.799716895E8	 	2.01029E-8	 	27430.47254	32.97203	 
875.0	1.0	0.0	8.59305	7.20195	-3.62426	15.63274	26.19157	1.074	0.9311	162.67727	173.04867	60.55035	0.34332	 	3.175049112E8	 	1.76496E-8	 	27265.85833	32.92284	 
870.0	1.0	0.0	8.59538	7.2	-3.65038	15.61407	26.09754	1.07317	0.93182	163.07162	173.2822	60.70473	0.34315	 	3.604662243E8	 	1.54784E-8	 	27101.48968	32.87373	 
865.0	1.0	0.0	8.5977	7.19805	-3.67645	15.59538	26.0035	1.07234	0.93254	163.46519	173.51441	60.85886	0.34299	 	4.096970328E8	 	1.35589E-8	 	26937.3662	32.8247	 
860.0	1.0	0.0	8.60003	7.1961	-3.70248	15.57666	25.90947	1.07151	0.93326	163.85797	173.74528	61.01273	0.34282	 	4.661778048E8	 	1.18638E-8	 	26773.48754	32.77573	 
855.0	1.0	0.0	8.60235	7.19416	-3.72846	15.55792	25.81543	1.07066	0.934	164.24997	173.97484	61.16635	0.34265	 	5.310524555E8	 	1.03685E-8	 	26609.85333	32.72684	 
850.0	1.0	0.0	8.60467	7.19223	-3.75439	15.53915	25.72139	1.06982	0.93474	164.64119	174.20307	61.31972	0.34248	 	6.056573194E8	 	9.05102E-9	 	26446.46322	32.67802	 
845.0	1.0	0.0	8.60698	7.19029	-3.78029	15.52034	25.62735	1.06896	0.93549	165.03159	174.42992	61.47282	0.34231	 	6.915535863E8	 	7.89152E-9	 	26286.59763	31.97312	 
840.0	1.0	0.0	8.6093	7.18836	-3.80613	15.5015	25.53331	1.0681	0.93624	165.4212	174.65546	61.62567	0.34215	 	7.905733057E8	 	6.87224E-9	 	26123.7091	32.57771	 
835.0	1.0	0.0	8.6116	7.18643	-3.83193	15.48264	25.43927	1.06724	0.937	165.81005	174.87971	61.77827	0.34198	 	9.048631423E8	 	5.97726E-9	 	25961.06239	32.52934	 
830.0	1.0	0.0	8.61391	7.18451	-3.85768	15.46376	25.34522	1.06636	0.93777	166.19811	175.10265	61.93062	0.34181	 	1.036943817E9	 	5.19237E-9	 	25798.65726	32.48103	 
825.0	1.0	0.0	8.61621	7.18259	-3.88338	15.44486	25.25118	1.06548	0.93854	166.58539	175.3243	62.08271	0.34164	 	1.189779252E9	 	4.50487E-9	 	25636.49347	32.43276	 
820.0	1.0	0.0	8.61852	7.18067	-3.90904	15.42593	25.15714	1.0646	0.93932	166.9719	175.54467	62.23456	0.34147	 	1.366859218E9	 	3.9034E-9	 	25474.57077	32.38454	 
815.0	1.0	0.0	8.62081	7.17876	-3.93464	15.40699	25.0631	1.0637	0.94011	167.35762	175.76374	62.38615	0.3413	 	1.572298285E9	 	3.37785E-9	 	25312.88893	32.33637	 
810.0	1.0	0.0	8.62311	7.17685	-3.9602	15.38802	24.96905	1.0628	0.94091	167.74257	175.98154	62.53748	0.34114	 	1.810954439E9	 	2.91923E-9	 	25151.44772	32.28824	 
805.0	1.0	0.0	8.6254	7.17494	-3.98571	15.36903	24.87501	1.0619	0.94171	168.12674	176.19806	62.68857	0.34097	 	2.088571501E9	 	2.51951E-9	 	24990.24688	32.24017	 
800.0	1.0	0.0	8.62769	7.17304	-4.01118	15.35002	24.78097	1.06098	0.94252	168.51012	176.41331	62.8394	0.3408	 	2.41195037E9	 	2.17159E-9	 	24829.28619	32.19214	 
795.0	1.0	0.0	8.62997	7.17114	-4.03659	15.33099	24.68692	1.06006	0.94334	168.89273	176.62729	62.98998	0.34063	 	2.789155251E9	 	1.86916E-9	 	24668.5654	32.14416	 
790.0	1.0	0.0	8.63225	7.16924	-4.06196	15.31193	24.59288	1.05913	0.94417	169.27457	176.84	63.14031	0.34046	 	3.22976237E9	 	1.60661E-9	 	24508.08428	32.09622	 
785.0	1.0	0.0	8.63453	7.16735	-4.08728	15.29286	24.49884	1.0582	0.945	169.65562	177.05146	63.29038	0.3403	 	3.745160426E9	 	1.379E-9	 	24347.84259	32.04834	 
780.0	1.0	0.0	8.63681	7.16546	-4.11255	15.27376	24.4048	1.05726	0.94584	170.03589	177.26165	63.44021	0.34013	 	4.348914095E9	 	1.18194E-9	 	24187.84009	32.0005	 
775.0	1.0	0.0	8.63908	7.16358	-4.13777	15.25464	24.31075	1.05631	0.94669	170.41539	177.4706	63.58977	0.33996	 	5.057204526E9	 	1.01158E-9	 	24028.07654	31.95271	 
770.0	1.0	0.0	8.64135	7.1617	-4.16294	15.2355	24.21671	1.05535	0.94755	170.7941	177.67829	63.73909	0.33979	 	5.889363999E9	 	8.645E-10	 	23868.55171	31.90497	 
765.0	1.0	0.0	8.64361	7.15982	-4.18806	15.21634	24.12267	1.05439	0.94842	171.17204	177.88474	63.88815	0.33962	 	6.868525952E9	 	7.37706E-10	 	23709.26536	31.85727	 
760.0	1.0	0.0	8.64588	7.15794	-4.21314	15.19715	24.02862	1.05342	0.94929	171.5492	178.08995	64.03696	0.33945	 	8.022416569E9	 	6.28557E-10	 	23550.21725	31.80962	 
755.0	1.0	0.0	8.64814	7.15607	-4.23816	15.17795	23.93458	1.05244	0.95017	171.92558	178.29392	64.18552	0.33929	 	9.384320389E9	 	5.34737E-10	 	23391.40714	31.76202	 
750.0	1.0	0.0	8.65039	7.15421	-4.26314	15.15872	23.84054	1.05145	0.95107	172.30118	178.49666	64.33382	0.33912	 	1.09943E10	 	4.54213E-10	 	23232.83479	31.71447	 
745.0	1.0	0.0	8.65265	7.15234	-4.28807	15.13947	23.74649	1.05046	0.95197	172.676	178.69817	64.48187	0.33895	 	1.2900399999999998E10	 	3.85207E-10	 	23074.49997	31.66696	 
740.0	1.0	0.0	8.6549	7.15049	-4.31294	15.1202	23.65245	1.04945	0.95288	173.05004	178.89846	64.62966	0.33878	 	1.5160999999999998E10	 	3.26161E-10	 	22916.40244	31.61951	 
735.0	1.0	0.0	8.65714	7.14863	-4.33777	15.10091	23.55841	1.04844	0.95379	173.42331	179.09752	64.7772	0.33861	 	1.78463E10	 	2.75717E-10	 	22758.54196	31.5721	 
730.0	1.0	0.0	8.65938	7.14678	-4.36255	15.08159	23.46436	1.04743	0.95472	173.79579	179.29536	64.92449	0.33845	 	2.10413E10	 	2.32691E-10	 	22600.91828	31.52474	 
725.0	1.0	0.0	8.66162	7.14493	-4.38728	15.06225	23.37032	1.0464	0.95566	174.1675	179.49199	65.07153	0.33828	 	2.4849399999999996E10	 	1.9605E-10	 	22443.53118	31.47742	 
720.0	1.0	0.0	8.66386	7.14309	-4.41196	15.0429	23.27628	1.04536	0.9566	174.53843	179.68741	65.2183	0.33811	 	2.9395799999999996E10	 	1.64898E-10	 	22286.3804	31.43016	 
715.0	1.0	0.0	8.66609	7.14125	-4.4366	15.02352	23.18223	1.04432	0.95756	174.90858	179.88163	65.36483	0.33794	 	3.48332E10	 	1.38458E-10	 	22129.46572	31.38294	 
710.0	1.0	0.0	8.66832	7.13941	-4.46118	15.00411	23.08819	1.04327	0.95853	175.27795	180.07464	65.5111	0.33777	 	4.13476E10	 	1.16053E-10	 	21972.78688	31.33577	 
705.0	1.0	0.0	8.67055	7.13758	-4.48571	14.98469	22.99414	1.04221	0.9595	175.64654	180.26645	65.65712	0.3376	 	4.916649999999999E10	 	9.71008E-11	 	21816.34366	31.28864	 
700.0	1.0	0.0	8.67277	7.13575	-4.51019	14.96525	22.9001	1.04114	0.96049	176.01435	180.45707	65.80288	0.33744	 	5.856809999999999E10	 	8.10971E-11	 	21660.1358	31.24157	 
695.0	1.0	0.0	8.67499	7.13392	-4.53462	14.94578	22.80606	1.04006	0.96148	176.38138	180.64649	65.94839	0.33727	 	6.98937E10	 	6.7607E-11	 	21504.16306	31.19455	 
690.0	1.0	0.0	8.67721	7.1321	-4.559	14.92629	22.71201	1.03897	0.96249	176.74764	180.83473	66.09364	0.3371	 	8.35625E10	 	5.6256E-11	 	21348.4252	31.14757	 
685.0	1.0	0.0	8.67942	7.13028	-4.58333	14.90678	22.61797	1.03788	0.96351	177.11311	181.02178	66.23864	0.33693	 	1.00091E11	 	4.67224E-11	 	21192.92198	31.10064	 
680.0	1.0	0.0	8.68163	7.12847	-4.60761	14.88725	22.52392	1.03677	0.96453	177.47781	181.20765	66.38338	0.33676	 	1.20116E11	 	3.873E-11	 	21037.65315	31.05377	 
675.0	1.0	0.0	8.68384	7.12666	-4.63184	14.8677	22.42988	1.03566	0.96557	177.84173	181.39235	66.52787	0.3366	 	1.44425E11	 	3.20422E-11	 	20882.61847	31.00694	 
670.0	1.0	0.0	8.68604	7.12485	-4.65602	14.84812	22.33584	1.03453	0.96662	178.20487	181.57587	66.6721	0.33643	 	1.73993E11	 	2.64567E-11	 	20727.81769	30.96016	 
665.0	1.0	0.0	8.68824	7.12305	-4.68015	14.82852	22.24179	1.0334	0.96768	178.56723	181.75822	66.81608	0.33626	 	2.10031E11	 	2.18009E-11	 	20573.25055	30.91343	 
660.0	1.0	0.0	8.69043	7.12125	-4.70423	14.80891	22.14775	1.03226	0.96875	178.92881	181.93941	66.9598	0.33609	 	2.54046E11	 	1.79278E-11	 	20418.91682	30.86675	 
655.0	1.0	0.0	8.69262	7.11945	-4.72826	14.78927	22.0537	1.0311	0.96983	179.28962	182.11943	67.10327	0.33592	 	3.07915E11	 	1.47121E-11	 	20264.81623	30.82012	 
650.0	1.0	0.0	8.69481	7.11766	-4.75224	14.7696	21.95966	1.02994	0.97093	179.64964	182.29829	67.24649	0.33575	 	3.73984E11	 	1.20477E-11	 	20110.94855	30.77354	 
645.0	1.0	0.0	8.697	7.11587	-4.77616	14.74992	21.86561	1.02877	0.97204	180.00889	182.476	67.38944	0.33559	 	4.55194E11	 	9.84474E-12	 	19957.31351	30.72701	 
640.0	1.0	0.0	8.69918	7.11409	-4.80004	14.73021	21.77157	1.02759	0.97315	180.36735	182.65256	67.53214	0.33542	 	5.55231E11	 	8.02704E-12	 	19803.91086	30.68053	 
635.0	1.0	0.0	8.70136	7.11231	-4.82386	14.71049	21.67753	1.02639	0.97429	180.72504	182.82797	67.67459	0.33525	 	6.78736E11	 	6.53046E-12	 	19650.74034	30.6341	 
630.0	1.0	0.0	8.70353	7.11053	-4.84763	14.69074	21.58348	1.02519	0.97543	181.08195	183.00223	67.81678	0.33508	 	8.3156E11	 	5.30094E-12	 	19497.80169	30.58773	 
625.0	1.0	0.0	8.7057	7.10876	-4.87136	14.67097	21.48944	1.02398	0.97659	181.43808	183.17536	67.95871	0.33491	 	1.0211E12	 	4.29306E-12	 	19345.09465	30.54141	 
620.0	1.0	0.0	8.70787	7.10699	-4.89503	14.65118	21.39539	1.02275	0.97775	181.79343	183.34734	68.10039	0.33475	 	1.25673E12	 	3.46872E-12	 	19192.61897	30.49514	 
615.0	1.0	0.0	8.71003	7.10522	-4.91865	14.63136	21.30135	1.02152	0.97894	182.148	183.51819	68.24181	0.33458	 	1.55035E12	 	2.79603E-12	 	19040.37437	30.44892	 
610.0	1.0	0.0	8.71219	7.10346	-4.94221	14.61153	21.2073	1.02027	0.98013	182.5018	183.68791	68.38298	0.33441	 	1.91713E12	 	2.24838E-12	 	18888.36058	30.40276	 
605.0	1.0	0.0	8.71434	7.1017	-4.96573	14.59167	21.11326	1.01901	0.98134	182.85481	183.85651	68.52389	0.33424	 	2.37642E12	 	1.80357E-12	 	18736.57734	30.35665	 
600.0	1.0	0.0	8.7165	7.09995	-4.98919	14.57179	21.01921	1.01774	0.98257	183.20705	184.02397	68.66454	0.33407	 	2.953E12	 	1.44315E-12	 	18585.02437	30.31059	 
595.0	1.0	0.0	8.71865	7.0982	-5.0126	14.55189	20.92517	1.01646	0.9838	183.55851	184.19032	68.80494	0.33391	 	3.67866E12	 	1.15184E-12	 	18433.7014	30.26459	 
590.0	1.0	0.0	8.72079	7.09646	-5.03596	14.53197	20.83112	1.01517	0.98505	183.90918	184.35555	68.94508	0.33374	 	4.59432E12	 	9.16963E-13	 	18282.60815	30.21865	 
585.0	1.0	0.0	8.72293	7.09471	-5.05927	14.51202	20.73708	1.01387	0.98632	184.25908	184.51967	69.08496	0.33357	 	5.75278E12	 	7.28068E-13	 	18131.74433	30.17276	 
580.0	1.0	0.0	8.72507	7.09298	-5.08253	14.49206	20.64303	1.01255	0.9876	184.60821	184.68268	69.22459	0.3334	 	7.22236E12	 	5.76544E-13	 	17981.10966	30.12693	 
575.0	1.0	0.0	8.7272	7.09124	-5.10573	14.47207	20.54899	1.01123	0.9889	184.95655	184.84458	69.36396	0.33323	 	9.09171E12	 	4.55317E-13	 	17830.70384	30.08116	 
570.0	1.0	0.0	8.72933	7.08951	-5.12888	14.45206	20.45494	1.00989	0.99021	185.30411	185.00537	69.50307	0.33306	 	1.14762E13	 	3.58586E-13	 	17680.52659	30.03545	 
565.0	1.0	0.0	8.73146	7.08779	-5.15198	14.43203	20.3609	1.00853	0.99154	185.6509	185.16507	69.64193	0.3329	 	1.45263E13	 	2.81613E-13	 	17530.57761	29.9898	 
560.0	1.0	0.0	8.73358	7.08606	-5.17503	14.41198	20.26685	1.00717	0.99288	185.9969	185.32366	69.78053	0.33273	 	1.84393E13	 	2.20529E-13	 	17380.85658	29.94421	 
555.0	1.0	0.0	8.7357	7.08435	-5.19802	14.3919	20.1728	1.00579	0.99424	186.34213	185.48117	69.91887	0.33256	 	2.34737E13	 	1.72192E-13	 	17231.36321	29.89867	 
550.0	1.0	0.0	8.73781	7.08263	-5.22096	14.37181	20.07876	1.0044	0.99562	186.68658	185.63758	70.05695	0.33239	 	2.99705E13	 	1.34052E-13	 	17082.09719	29.8532	 
545.0	1.0	0.0	8.73992	7.08092	-5.24385	14.35169	19.98471	1.003	0.99701	187.03025	185.79291	70.19478	0.33222	 	3.83798E13	 	1.04044E-13	 	16933.05819	29.8078	 
540.0	1.0	0.0	8.74203	7.07921	-5.26669	14.33155	19.89067	1.00158	0.99842	187.37314	185.94715	70.33235	0.33206	 	4.92983E13	 	8.05054E-14	 	16784.24588	29.76246	 
535.0	1.0	0.0	8.74413	7.07751	-5.28947	14.31139	19.79662	1.00015	0.99985	187.71525	186.10031	70.46966	0.33189	 	6.35196E13	 	6.20971E-14	 	16635.65995	29.71719	 
530.0	1.0	0.0	8.74623	7.07581	-5.3122	14.2912	19.70258	0.99871	1.00129	188.05658	186.2524	70.60671	0.33172	 	8.21019E13	 	4.77453E-14	 	16487.30004	29.67198	 
525.0	1.0	0.0	8.74833	7.07412	-5.33488	14.271	19.60853	0.99725	1.00275	188.39714	186.40341	70.74351	0.33155	 	1.06462E14	 	3.65912E-14	 	16339.16583	29.62684	 
520.0	1.0	0.0	8.75042	7.07243	-5.3575	14.25077	19.51448	0.99578	1.00424	188.73691	186.55335	70.88005	0.33138	 	1.3850299999999998E14	 	2.795E-14	 	16191.25695	29.58178	 
515.0	1.0	0.0	8.75251	7.07074	-5.38007	14.23053	19.42044	0.9943	1.00574	189.07591	186.70222	71.01633	0.33121	 	1.8079E14	 	2.12775E-14	 	16043.57305	29.53678	 
510.0	1.0	0.0	8.75459	7.06906	-5.40259	14.21026	19.32639	0.9928	1.00726	189.41413	186.85003	71.15235	0.33105	 	2.36792E14	 	1.61423E-14	 	15896.11377	29.49186	 
505.0	1.0	0.0	8.75667	7.06738	-5.42505	14.18996	19.23234	0.99128	1.00879	189.75156	186.99677	71.28811	0.33088	 	3.11218E14	 	1.22035E-14	 	15748.87871	29.44701	 
500.0	1.0	0.0	8.75874	7.06571	-5.44746	14.16965	19.1383	0.98975	1.01035	190.08822	187.14246	71.42362	0.33071	 	4.10485E14	 	9.19291E-15	 	15601.86751	29.40224	 
495.0	1.0	0.0	8.76081	7.06404	-5.46982	14.14932	19.04425	0.98821	1.01193	190.42411	187.28709	71.55886	0.33054	 	5.4336999999999994E14	 	6.8998E-15	 	15455.07976	29.35755	 
490.0	1.0	0.0	8.76288	7.06237	-5.49212	14.12896	18.95021	0.98665	1.01353	190.75921	187.43067	71.69385	0.33037	 	7.21922E14	 	5.15948E-15	 	15308.51506	29.31294	 
485.0	1.0	0.0	8.76495	7.06071	-5.51437	14.10858	18.85616	0.98507	1.01515	191.09353	187.5732	71.82858	0.33021	 	9.62748E14	 	3.84352E-15	 	15162.173	29.26841	 
480.0	1.0	0.0	8.76701	7.05905	-5.53656	14.08818	18.76211	0.98348	1.0168	191.42708	187.71469	71.96305	0.33004	 	1.28883E15	 	2.85216E-15	 	15016.05314	29.22397	 
475.0	1.0	0.0	8.76906	7.05739	-5.5587	14.06776	18.66807	0.98187	1.01846	191.75984	187.85513	72.09727	0.32987	 	1.73209E15	 	2.10817E-15	 	14870.15503	29.17962	 
470.0	1.0	0.0	8.77111	7.05574	-5.58079	14.04732	18.57402	0.98025	1.02015	192.09183	187.99454	72.23122	0.3297	 	2.33708E15	 	1.552E-15	 	14724.47824	29.13536	 
465.0	1.0	0.0	8.77316	7.0541	-5.60282	14.02685	18.47997	0.97861	1.02186	192.42304	188.1329	72.36491	0.32953	 	3.1662E15	 	1.13787E-15	 	14579.02229	29.09119	 
460.0	1.0	0.0	8.7752	7.05245	-5.6248	14.00637	18.38593	0.97695	1.02359	192.75347	188.27024	72.49835	0.32936	 	4.30727E15	 	8.30764E-16	 	14433.78669	29.04712	 
455.0	1.0	0.0	8.77724	7.05082	-5.64673	13.98586	18.29188	0.97528	1.02535	193.08312	188.40654	72.63153	0.3292	 	5.88439E15	 	6.03957E-16	 	14288.77094	29.00315	 
450.0	1.0	0.0	8.77928	7.04918	-5.6686	13.96533	18.19783	0.97359	1.02713	193.41199	188.54182	72.76444	0.32903	 	8.07375E15	 	4.3716E-16	 	14143.97454	28.95928	 
445.0	1.0	0.0	8.78131	7.04755	-5.69041	13.94477	18.10378	0.97188	1.02894	193.74009	188.67607	72.8971	0.32886	 	1.11266E16	 	3.15022E-16	 	13999.39694	28.91552	 
440.0	1.0	0.0	8.78333	7.04592	-5.71217	13.9242	18.00974	0.97015	1.03077	194.0674	188.8093	73.0295	0.32869	 	1.54028E16	 	2.25978E-16	 	13855.03759	28.87187	 
435.0	1.0	0.0	8.78536	7.0443	-5.73388	13.90361	17.91569	0.96841	1.03262	194.39394	188.94151	73.16164	0.32852	 	2.14207E16	 	1.61353E-16	 	13710.89591	28.82834	 
430.0	1.0	0.0	8.78737	7.04268	-5.75553	13.88299	17.82164	0.96664	1.03451	194.71969	189.07271	73.29351	0.32836	 	2.99299E16	 	1.14665E-16	 	13566.97131	28.78492	 
425.0	1.0	0.0	8.78939	7.04107	-5.77712	13.86235	17.7276	0.96486	1.03642	195.04467	189.20289	73.42513	0.32819	 	4.20201E16	 	8.10921E-17	 	13423.26317	28.74163	 
420.0	1.0	0.0	8.7914	7.03946	-5.79866	13.84169	17.63355	0.96306	1.03836	195.36887	189.33207	73.55649	0.32802	 	5.92836E16	 	5.70663E-17	 	13279.77085	28.69846	 
415.0	1.0	0.0	8.7934	7.03786	-5.82015	13.82101	17.5395	0.96124	1.04032	195.69229	189.46024	73.68759	0.32785	 	8.4059E16	 	3.99563E-17	 	13136.49367	28.65544	 
410.0	1.0	0.0	8.7954	7.03625	-5.84158	13.8003	17.44545	0.9594	1.04232	196.01493	189.5874	73.81843	0.32768	 	1.19799E17	 	2.78323E-17	 	12993.43094	28.61255	 
405.0	1.0	0.0	8.7974	7.03466	-5.86295	13.77958	17.35141	0.95754	1.04434	196.3368	189.71357	73.94901	0.32751	 	1.7163E17	 	1.9285E-17	 	12850.58193	28.5698	 
400.0	1.0	0.0	8.79939	7.03306	-5.88427	13.75883	17.25736	0.95566	1.0464	196.65788	189.83873	74.07933	0.32735	 	2.47201E17	 	1.32907E-17	 	12707.94588	28.52721	 
395.0	1.0	0.0	8.80138	7.03147	-5.90554	13.73806	17.16331	0.95376	1.04848	196.97819	189.96291	74.20939	0.32718	 	3.57997E17	 	9.10921E-18	 	12565.522	28.48478	 
390.0	1.0	0.0	8.80337	7.02989	-5.92675	13.71727	17.06926	0.95184	1.0506	197.29771	190.08609	74.33918	0.32701	 	5.21356E17	 	6.20817E-18	 	12423.30945	28.44251	 
385.0	1.0	0.0	8.80535	7.02831	-5.9479	13.69646	16.97521	0.9499	1.05275	197.61646	190.20828	74.46872	0.32684	 	7.63607E17	 	4.2067E-18	 	12281.30738	28.40041	 
380.0	1.0	0.0	8.80732	7.02673	-5.969	13.67563	16.88117	0.94793	1.05493	197.93443	190.32949	74.598	0.32667	 	1.12497E18	 	2.83372E-18	 	12139.51487	28.3585	 
375.0	1.0	0.0	8.80929	7.02516	-5.99004	13.65477	16.78712	0.94594	1.05714	198.25162	190.44971	74.72701	0.32651	 	1.66729E18	 	1.89736E-18	 	11997.93096	28.31678	 
370.0	1.0	0.0	8.81126	7.02359	-6.01103	13.63389	16.69307	0.94394	1.05939	198.56803	190.56895	74.85577	0.32634	 	2.48621E18	 	1.26259E-18	 	11856.55467	28.27526	 
365.0	1.0	0.0	8.81322	7.02203	-6.03196	13.61299	16.59902	0.9419	1.06168	198.88366	190.68722	74.98426	0.32617	 	3.73063E18	 	8.34886E-19	 	11715.38494	28.23395	 
360.0	1.0	0.0	8.81518	7.02047	-6.05283	13.59207	16.50497	0.93985	1.064	199.19852	190.80451	75.11249	0.326	 	5.63393E18	 	5.48507E-19	 	11574.42067	28.19285	 
355.0	1.0	0.0	8.81714	7.01891	-6.07365	13.57113	16.41092	0.93777	1.06636	199.51259	190.92083	75.24047	0.32583	 	8.56426E18	 	3.57981E-19	 	11433.6607	28.15199	 
350.0	1.0	0.0	8.81909	7.01736	-6.09441	13.55017	16.31688	0.93567	1.06876	199.82589	191.03618	75.36818	0.32566	 	1.31065E19	 	2.32056E-19	 	11293.10381	28.11138	 
345.0	1.0	0.0	8.82103	7.01581	-6.11511	13.52918	16.22283	0.93354	1.07119	200.13841	191.15056	75.49562	0.3255	 	2.01964E19	 	1.49385E-19	 	11152.74871	28.07102	 
340.0	1.0	0.0	8.82297	7.01427	-6.13576	13.50817	16.12878	0.93139	1.07366	200.45014	191.26398	75.62281	0.32533	 	3.13418E19	 	9.54838E-20	 	11012.59405	28.03093	 
335.0	1.0	0.0	8.82491	7.01273	-6.15635	13.48714	16.03473	0.92921	1.07618	200.7611	191.37644	75.74974	0.32516	 	4.89904E19	 	6.05879E-20	 	10872.63839	27.99113	 
330.0	1.0	0.0	8.82684	7.0112	-6.17689	13.46609	15.94068	0.92701	1.07874	201.07129	191.48795	75.8764	0.32499	 	7.71464E19	 	3.8159E-20	 	10732.88023	27.95163	 
325.0	1.0	0.0	8.82877	7.00967	-6.19737	13.44502	15.84663	0.92478	1.08134	201.38069	191.59849	76.00281	0.32482	 	1.2240999999999998E20	 	2.38496E-20	 	10593.31797	27.91245	 
320.0	1.0	0.0	8.83069	7.00814	-6.21779	13.42392	15.75258	0.92253	1.08398	201.68931	191.70809	76.12895	0.32466	 	1.95748E20	 	1.47895E-20	 	10453.9499	27.87361	 
315.0	1.0	0.0	8.83261	7.00662	-6.23815	13.40281	15.65853	0.92024	1.08667	201.99716	191.81673	76.25482	0.32449	 	3.1553299999999997E20	 	9.09766E-21	 	10314.77424	27.83513	 
310.0	1.0	0.0	8.83452	7.0051	-6.25846	13.38167	15.56448	0.91793	1.0894	202.30422	191.92443	76.38044	0.32432	 	5.1280099999999997E20	 	5.55033E-21	 	10175.7891	27.79703	 
305.0	1.0	0.0	8.83643	7.00359	-6.27871	13.36051	15.47044	0.9156	1.09218	202.61051	192.03119	76.5058	0.32415	 	8.404259999999999E20	 	3.35759E-21	 	10036.99245	27.75933	 
300.0	1.0	0.0	8.83833	7.00208	-6.29891	13.33933	15.37639	0.91323	1.09501	202.91602	192.137	76.63089	0.32398	 	1.38929E21	 	2.01354E-21	 	9898.38216	27.72206	 
295.0	1.0	0.0	8.84023	7.00057	-6.31904	13.31813	15.28234	0.91083	1.09789	203.22075	192.24188	76.75572	0.32382	 	2.31703E21	 	1.19679E-21	 	9759.95594	27.68524	 
290.0	1.0	0.0	8.84213	6.99907	-6.33912	13.2969	15.18829	0.90841	1.10083	203.5247	192.34581	76.88028	0.32365	 	3.89953E21	 	7.04853E-22	 	9621.71138	27.64891	 
285.0	1.0	0.0	8.84402	6.99758	-6.35914	13.27565	15.09424	0.90595	1.10381	203.82787	192.44882	77.00459	0.32348	 	6.62436E21	 	4.11238E-22	 	9483.6459	27.6131	 
280.0	1.0	0.0	8.8459	6.99609	-6.37911	13.25439	15.00019	0.90347	1.10685	204.13026	192.55089	77.12863	0.32331	 	1.1361499999999999E22	 	2.37626E-22	 	9345.75675	27.57783	 
275.0	1.0	0.0	8.84779	6.9946	-6.39901	13.2331	14.90614	0.90095	1.10994	204.43188	192.65204	77.25241	0.32314	 	1.9679E22	 	1.35951E-22	 	9208.041	27.54315	 
270.0	1.0	0.0	8.84966	6.99312	-6.41886	13.21178	14.81209	0.8984	1.11309	204.73271	192.75226	77.37593	0.32297	 	3.4431999999999996E22	 	7.69918E-23	 	9070.49552	27.5091	 
265.0	1.0	0.0	8.85153	6.99164	-6.43865	13.19045	14.71804	0.89582	1.1163	205.03277	192.85156	77.49918	0.32281	 	6.08745E22	 	4.31474E-23	 	8933.11695	27.47571	 
260.0	1.0	0.0	8.8534	6.99016	-6.45838	13.1691	14.62399	0.8932	1.11957	205.33205	192.94994	77.62217	0.32264	 	1.0878E23	 	2.39214E-23	 	8795.90171	27.44305	 
255.0	1.0	0.0	8.85526	6.98869	-6.47806	13.14772	14.52994	0.89055	1.1229	205.63055	193.0474	77.7449	0.32247	 	1.96535E23	 	1.31161E-23	 	8658.84596	27.41115	 
250.0	1.0	0.0	8.85712	6.98723	-6.49768	13.12632	14.43589	0.88787	1.12629	205.92827	193.14395	77.86736	0.3223	 	3.59119E23	 	7.11008E-24	 	8521.94556	27.38008	 
245.0	1.0	0.0	8.85897	6.98576	-6.51724	13.1049	14.34184	0.88515	1.12975	206.22521	193.23958	77.98956	0.32213	 	6.63881E23	 	3.80936E-24	 	8385.19611	27.34989	 
240.0	1.0	0.0	8.86082	6.98431	-6.53674	13.08346	14.24779	0.88239	1.13328	206.52137	193.3343	78.1115	0.32197	 	1.24206E24	 	2.01646E-24	 	8248.59281	27.32066	 
235.0	1.0	0.0	8.86267	6.98285	-6.55618	13.062	14.15374	0.8796	1.13688	206.81676	193.42812	78.23317	0.3218	 	2.3526E24	 	1.05422E-24	 	8112.13056	27.29245	 
230.0	1.0	0.0	8.86451	6.98141	-6.57556	13.04051	14.05969	0.87677	1.14054	207.11136	193.52103	78.35458	0.32163	 	4.51302E24	 	5.44148E-25	 	7975.8038	27.26535	 
225.0	1.0	0.0	8.86634	6.97996	-6.59489	13.019	13.96563	0.87391	1.14429	207.40519	193.61304	78.47573	0.32146	 	8.77133E24	 	2.77192E-25	 	7839.60655	27.23945	 
220.0	1.0	0.0	8.86817	6.97852	-6.61415	12.99748	13.87158	0.871	1.1481	207.69824	193.70415	78.59661	0.32129	 	1.72789E25	 	1.39299E-25	 	7703.53234	27.21484	 
215.0	1.0	0.0	8.86999	6.97709	-6.63336	12.97593	13.77753	0.86806	1.152	207.99051	193.79437	78.71723	0.32112	 	3.45143E25	 	6.90305E-26	 	7567.57415	27.19164	 
210.0	1.0	0.0	8.87181	6.97566	-6.65251	12.95435	13.68348	0.86507	1.15598	208.282	193.88369	78.83758	0.32096	 	6.993600000000001E25	 	3.37185E-26	 	7431.72435	27.16996	 
205.0	1.0	0.0	8.87363	6.97423	-6.6716	12.93276	13.58943	0.86204	1.16003	208.57271	193.97211	78.95767	0.32079	 	1.4381900000000002E26	 	1.62268E-26	 	7295.97465	27.14994	 
200.0	1.0	0.0	8.87544	6.97281	-6.69063	12.91114	13.49538	0.85897	1.16418	208.86264	194.05965	79.0775	0.32062	 	3.0029700000000003E26	 	7.69014E-27	 	7160.31598	27.13173	 
195.0	1.0	0.0	8.87724	6.97139	-6.7096	12.88951	13.40133	0.85586	1.16841	209.1518	194.1463	79.19706	0.32045	 	6.36964E26	 	3.58721E-27	 	7024.73845	27.11551	 
190.0	1.0	0.0	8.87904	6.96998	-6.72852	12.86785	13.30728	0.8527	1.17274	209.44017	194.23207	79.31636	0.32028	 	1.37319E27	 	1.64619E-27	 	6889.2312	27.10145	 
185.0	1.0	0.0	8.88084	6.96857	-6.74737	12.84617	13.21323	0.8495	1.17716	209.72777	194.31696	79.43539	0.32012	 	3.01041E27	 	7.42794E-28	 	6753.78229	27.08978	 
180.0	1.0	0.0	8.88263	6.96716	-6.76616	12.82447	13.11917	0.84626	1.18168	210.01459	194.40096	79.55416	0.31995	 	6.71499E27	 	3.2937E-28	 	6618.37854	27.08075	 
175.0	1.0	0.0	8.88441	6.96576	-6.7849	12.80274	13.02512	0.84296	1.18629	210.30062	194.48409	79.67266	0.31978	 	1.52489E28	 	1.4344E-28	 	6483.00537	27.07463	 
170.0	1.0	0.0	8.88619	6.96437	-6.80357	12.781	12.93107	0.83962	1.19102	210.58588	194.56634	79.7909	0.31961	 	3.52753E28	 	6.1315E-29	 	6347.64657	27.07176	 
165.0	1.0	0.0	8.88797	6.96298	-6.82219	12.75923	12.83702	0.83623	1.19585	210.87037	194.64773	79.90887	0.31944	 	8.31793E28	 	2.57096E-29	 	6212.28406	27.0725	 
160.0	1.0	0.0	8.88974	6.96159	-6.84075	12.73744	12.74297	0.83279	1.20079	211.15407	194.72824	80.02658	0.31927	 	2.0006E29	 	1.05673E-29	 	6076.89754	27.0773	 
155.0	1.0	0.0	8.8915	6.96021	-6.85924	12.71563	12.64891	0.82929	1.20584	211.43699	194.80788	80.14402	0.31911	 	4.91143E29	 	4.25476E-30	 	5941.46414	27.08668	 
150.0	1.0	0.0	8.89326	6.95883	-6.87768	12.6938	12.55486	0.82575	1.21102	211.71914	194.88666	80.2612	0.31894	 	1.23161E30	 	1.6769E-30	 	5805.95792	27.10124	 
145.0	1.0	0.0	8.89502	6.95746	-6.89605	12.67194	12.46081	0.82215	1.21632	212.0005	194.96458	80.37811	0.31877	 	3.15709E30	 	6.46446E-31	 	5670.34929	27.12173	 
140.0	1.0	0.0	8.89677	6.95609	-6.91437	12.65007	12.36676	0.8185	1.22175	212.28109	195.04164	80.49476	0.3186	 	8.27933E30	 	2.43556E-31	 	5534.60423	27.14901	 
135.0	1.0	0.0	8.89852	6.95472	-6.93263	12.62817	12.2727	0.81479	1.22731	212.5609	195.11784	80.61114	0.31843	 	2.22312E31	 	8.96074E-32	 	5398.68332	27.18418	 
130.0	1.0	0.0	8.90026	6.95336	-6.95082	12.60625	12.17865	0.81102	1.23301	212.83993	195.19318	80.72726	0.31827	 	6.11745E31	 	3.2165E-32	 	5262.54055	27.22855	 
125.0	1.0	0.0	8.90199	6.95201	-6.96896	12.58431	12.0846	0.8072	1.23885	213.11818	195.26768	80.84311	0.3181	 	1.72671E32	 	1.12542E-32	 	5126.12161	27.28379	 
120.0	1.0	0.0	8.90372	6.95066	-6.98703	12.56235	11.99055	0.80331	1.24484	213.39565	195.34132	80.95869	0.31793	 	5.00416E32	 	3.83455E-33	 	4989.36185	27.35195	 
115.0	1.0	0.0	8.90544	6.94931	-7.00505	12.54036	11.89649	0.79937	1.25099	213.67235	195.41411	81.07401	0.31776	 	1.49055E33	 	1.27098E-33	 	4852.18341	27.43569	 
110.0	1.0	0.0	8.90716	6.94797	-7.023	12.51836	11.80244	0.79536	1.25729	213.94826	195.48606	81.18906	0.31759	 	4.56811E33	 	4.09373E-34	 	4714.49145	27.53839	 
105.0	1.0	0.0	8.90888	6.94663	-7.04089	12.49633	11.70839	0.79129	1.26377	214.2234	195.55716	81.30385	0.31742	 	1.44207E34	 	1.27986E-34	 	4576.16899	27.66449	 
100.0	1.0	0.0	8.91059	6.9453	-7.05873	12.47428	11.61433	0.78715	1.27041	214.49775	195.62743	81.41836	0.31726	 	4.69481E34	 	3.87929E-35	 	4437.0699	27.81982	 
95.0	1.0	0.0	8.91229	6.94397	-7.0765	12.45221	11.52028	0.78294	1.27724	214.77133	195.69685	81.53262	0.31709	 	1.5782399999999999E35	 	1.13852E-35	 	4297.00919	28.01214	 
90.0	1.0	0.0	8.91399	6.94265	-7.09421	12.43011	11.42623	0.77866	1.28425	215.04413	195.76544	81.6466	0.31692	 	5.485629999999999E35	 	3.23107E-36	 	4155.74941	28.25196	 
85.0	1.0	0.0	8.91569	6.94133	-7.11186	12.408	11.33217	0.77432	1.29146	215.31615	195.83319	81.76032	0.31675	 	1.9741899999999998E36	 	8.85449E-37	 	4012.9815	28.55358	 
80.0	1.0	0.0	8.91737	6.94001	-7.12945	12.38586	11.23812	0.7699	1.29888	215.58739	195.90012	81.87378	0.31658	 	7.36712E36	 	2.33963E-37	 	3858.101	30.9761	 
75.0	1.0	0.0	8.91906	6.9387	-7.14697	12.3637	11.14407	0.7654	1.30651	215.85786	195.96621	81.98696	0.31642	 	2.85519E37	 	5.95139E-38	 	3690.58989	33.50222	 
70.0	1.0	0.0	8.92073	6.9374	-7.16444	12.34152	11.05001	0.76083	1.31436	216.12754	196.03147	82.09988	0.31625	 	1.15111E38	 	1.45497E-38	 	3526.45619	32.82674	 
65.0	1.0	0.0	8.92241	6.9361	-7.18184	12.31932	10.95596	0.75618	1.32244	216.39645	196.09591	82.21253	0.31608	 	4.8362099999999994E38	 	3.41264E-39	 	3365.38844	32.21355	 
60.0	1.0	0.0	8.92408	6.9348	-7.19919	12.2971	10.8619	0.75145	1.33076	216.66458	196.15953	82.32492	0.31591	 	2.12131E39	 	7.66517E-40	 	3207.11568	31.65455	 
55.0	1.0	0.0	8.92574	6.93351	-7.21647	12.27485	10.76785	0.74664	1.33934	216.93192	196.22233	82.43704	0.31574	 	9.73357E39	 	1.64546E-40	 	3051.40187	31.14276	 
50.0	1.0	0.0	8.92739	6.93223	-7.23369	12.25259	10.6738	0.74174	1.34818	217.19849	196.28431	82.54889	0.31557	 	4.68182E40	 	3.36881E-41	 	2898.04106	30.67216	 
45.0	1.0	0.0	8.92905	6.93094	-7.25085	12.2303	10.57974	0.73675	1.3573	217.46428	196.34547	82.66047	0.31541	 	2.36591E41	 	6.56327E-42	 	2746.8533	30.23755	 
40.0	1.0	0.0	8.93069	6.92967	-7.26794	12.20799	10.48569	0.73168	1.36672	217.7293	196.40582	82.77179	0.31524	 	1.2590699999999999E42	 	1.21392E-42	 	2597.68098	29.83446	 
35.0	1.0	0.0	8.93233	6.92839	-7.28497	12.18566	10.39163	0.72651	1.37643	217.99353	196.46535	82.88283	0.31507	 	7.07396E42	 	2.12611E-43	 	2450.38586	29.45902	 
30.0	1.0	0.0	8.93397	6.92712	-7.30195	12.1633	10.29758	0.72125	1.38647	218.25698	196.52408	82.99361	0.3149	 	4.2073000000000004E43	 	3.51674E-44	 	2304.84637	29.1079	 
25.0	1.0	0.0	8.9356	6.92586	-7.31886	 	10.20352	0.7159	1.39685	218.51966	196.582	83.10413	0.31473	 	2.6565400000000002E44	 	5.4778E-45	 	2160.95539	 	 
