T (C)	Fraction solid (wt)-TOTAL	Fraction liquid (wt)-LIQUID	Density (g/(cm)^3)-TOTAL	Molar volume (cm^3)-TOTAL	Volume change (%)-  	Average expansion coeff. (10e-6 1/K)-  	Thermal conductivity (W/(m*K))-TOTAL	Electrical resistivity (10e-6 Ohm*m)-TOTAL	Electrical conductivity (10e6 1/(Ohm*m))-TOTAL	Young's modulus (GPa)-TOTAL	Bulk modulus (GPa)-TOTAL	Shear modulus(GPa)-TOTAL	Poisson's ratio-TOTAL	Liquid viscosity (mPa s)-  	Total viscosity (mPa s)-  	Liquid diffusivity (10e-9 (m^2)/s)-  	Total diffusivity (10e-9 (m^2)/s)-  	Surface Tension (mN/m)-  	Enthalpy (J/mole)-TOTAL	Specific heat (J/(mole K))-TOTAL	Latent heat (J/mole)-TOTAL
1400.0	0.0	1.0	7.63151	7.73667	0.0	24.39606	28.35074	1.44589	0.69161	0.0	127.47842	0.0	0.5	9.11025	9.11025	0.89638	0.89638	1870.59358	62677.848	 	0.0
1395.0	0.0	1.0	7.63542	7.7327	-0.0512014	24.34798	28.27738	1.44531	0.69189	0.0	127.65749	0.0	0.5	9.20958	9.20958	0.88406	0.88406	1872.58392	62470.0	41.5696	0.0
1391.24	0.0	1.0	7.63836	7.72973	-0.089598	24.31188	28.22221	1.44487	0.6921	0.0	127.79214	0.0	0.5	9.28539	9.28539	0.87487	0.87487	1874.08119	62314.049	41.48151	0.0
1390.0	0.06326	0.93674	7.64888	7.71907	-0.22738	23.96365	28.44826	1.43233	0.69817	0.00164762	127.61992	5.52574E-4	0.49086	9.33971	10.63426	0.86913	0.76333	1875.0109	61395.798	740.24442	866.856
1385.0	0.28973	0.71027	7.68661	7.68122	-0.71668	22.73179	29.27593	1.38765	0.72064	0.74028	126.9732	0.2539	0.45781	9.56271	232.4993	0.84631	0.0348088	1878.76656	58105.795	658.0006	3950.005
1380.0	0.45243	0.54757	7.71436	7.65356	-1.07417	21.84774	29.88918	1.35508	0.73796	4.47356	126.55524	1.56011	0.43373	9.79179	1392.17575	0.82402	0.00579569	1882.52171	55701.485	480.862	6147.952
1375.0	0.57177	0.42823	7.73531	7.63288	-1.34149	21.20218	30.34741	1.33058	0.75155	11.55585	126.30688	4.08085	0.41586	10.02695	3733.29722	0.80226	0.00215472	1886.27486	53896.196	361.0578	7747.371
1370.0	0.6609	0.3391	7.75153	7.61689	-1.5481	20.71744	30.68709	1.31186	0.76228	20.83996	126.18205	7.43025	0.40237	10.2683	7045.55514	0.78103	0.00113828	1890.02566	52506.243	277.9906	8931.941
1365.0	0.72851	0.27149	7.7644	7.60427	-1.71131	20.3479	30.93528	1.29738	0.77079	31.02903	126.15178	11.14524	0.39203	10.51584	11017.56336	0.76032	7.25696E-4	1893.77305	51410.523	219.144	9822.762
1360.0	0.78051	0.21949	7.77485	7.59404	-1.84352	20.06076	31.113	1.28603	0.77759	41.18077	126.19281	14.87751	0.38399	10.76964	15392.89507	0.74014	5.17836E-4	1897.51619	50527.204	176.6638	10501.664
1355.0	0.82099	0.17901	7.78353	7.58556	-1.9531	19.8339	31.2364	1.27703	0.78307	50.73616	126.28931	18.41377	0.37767	11.02979	19998.31842	0.72047	3.97363E-4	1901.25446	49799.774	145.486	11025.156
1350.0	0.85285	0.14715	7.79089	7.57839	-2.04584	19.65195	31.3179	1.26979	0.78753	59.42638	126.42926	21.64687	0.37263	11.29629	24733.98414	0.70131	3.20296E-4	1904.98715	49188.461	122.2626	11433.004
1347.32	0.8666	0.1334	7.79435	7.57504	-2.08911	19.57179	31.3453	1.26658	0.78953	63.53364	126.52402	23.18005	0.37044	11.44198	27243.16192	0.69123	2.90315E-4	1906.98728	48904.811	 	11607.618
1345.0	0.93915	0.060854	7.80936	7.56047	-2.27746	19.08265	31.60144	1.25452	0.79712	88.56407	126.99781	32.57913	0.35921	11.50497	38354.06193	0.68647	2.05918E-4	1908.03993	47828.442	272.0038	12590.034
1340.72	1.0	1.4584E-9	7.82342	7.54688	-2.45301	18.65519	31.77815	1.24425	0.8037	115.07486	127.58839	42.63044	0.34968	11.62952	51764.73506	0.67732	1.52167E-4	1910.43714	46826.011	 	13419.099
1340.0	1.0	0.0	7.82381	7.54652	-2.45769	18.65236	31.76702	1.24413	0.80378	115.13791	127.63962	42.65449	0.34966	 	52237.5399	 	1.50723E-4	 	46798.75288	205.93782	 
1335.0	1.0	0.0	7.82653	7.5439	-2.49155	18.62874	31.68941	1.24331	0.80431	115.57269	127.98668	42.82059	0.3495	 	55651.89393	 	1.41037E-4	 	46610.16357	37.71786	 
1330.0	1.0	0.0	7.82924	7.54129	-2.52533	18.60513	31.6118	1.24248	0.80484	116.00693	128.33241	42.98653	0.34934	 	59312.83757	 	1.3192E-4	 	46421.89627	37.65346	 
1325.0	1.0	0.0	7.83195	7.53868	-2.55905	18.58153	31.53419	1.24166	0.80537	116.44062	128.67681	43.1523	0.34918	 	63239.81404	 	1.23343E-4	 	46233.95036	37.58918	 
1320.0	1.0	0.0	7.83465	7.53608	-2.5927	18.55794	31.45657	1.24083	0.80591	116.87377	129.01989	43.31791	0.34902	 	67453.92522	 	1.15275E-4	 	46046.3252	37.52503	 
1315.0	1.0	0.0	7.83736	7.53348	-2.62628	18.53437	31.37896	1.23999	0.80646	117.30637	129.36165	43.48336	0.34887	 	71978.08369	 	1.07691E-4	 	45859.02019	37.461	 
1310.0	1.0	0.0	7.84005	7.53089	-2.65979	18.51081	31.30134	1.23915	0.807	117.73843	129.70209	43.64865	0.34871	 	76837.17961	 	1.00563E-4	 	45672.03467	37.3971	 
1305.0	1.0	0.0	7.84275	7.5283	-2.69324	18.48726	31.22372	1.23831	0.80755	118.16995	130.04123	43.81377	0.34855	 	82058.26404	 	9.38669E-5	 	45485.36804	37.33333	 
1300.0	1.0	0.0	7.84544	7.52572	-2.72661	18.46372	31.1461	1.23746	0.8081	118.60092	130.37906	43.97873	0.34839	 	87670.75039	 	8.75794E-5	 	45299.01967	37.26967	 
1295.0	1.0	0.0	7.84813	7.52314	-2.75992	18.4402	31.06848	1.23661	0.80866	119.03135	130.71559	44.14353	0.34823	 	93706.63599	 	8.16778E-5	 	45112.98893	37.20615	 
1290.0	1.0	0.0	7.85081	7.52057	-2.79316	18.41668	30.99086	1.23576	0.80922	119.46124	131.05082	44.30816	0.34807	 	100200.7457	 	7.61406E-5	 	44927.27521	37.14274	 
1285.0	1.0	0.0	7.85349	7.518	-2.82633	18.39318	30.91324	1.2349	0.80978	119.89058	131.38475	44.47263	0.34791	 	107191.0004	 	7.09476E-5	 	44741.87789	37.07946	 
1280.0	1.0	0.0	7.85617	7.51544	-2.85943	18.3697	30.83561	1.23403	0.81035	120.31938	131.71739	44.63694	0.34776	 	114718.7119	 	6.60794E-5	 	44556.79633	37.01631	 
1275.0	1.0	0.0	7.85884	7.51288	-2.89246	18.34622	30.75799	1.23317	0.81092	120.74764	132.04875	44.80109	0.3476	 	122828.909	 	6.15176E-5	 	44372.02991	36.95328	 
1270.0	1.0	0.0	7.86151	7.51033	-2.92543	18.32276	30.68036	1.23229	0.8115	121.17535	132.37883	44.96507	0.34744	 	131570.696	 	5.72448E-5	 	44187.57803	36.89038	 
1265.0	1.0	0.0	7.86417	7.50779	-2.95833	18.29931	30.60273	1.23142	0.81207	121.60252	132.70762	45.12889	0.34728	 	140997.6486	 	5.32443E-5	 	44003.44006	36.82759	 
1260.0	1.0	0.0	7.86683	7.50525	-2.99116	18.27587	30.5251	1.23053	0.81266	122.02914	133.03514	45.29255	0.34712	 	151168.2506	 	4.95006E-5	 	43819.61537	36.76494	 
1255.0	1.0	0.0	7.86949	7.50271	-3.02392	18.25244	30.44747	1.22965	0.81324	122.45522	133.36139	45.45604	0.34696	 	162146.3764	 	4.59987E-5	 	43636.10335	36.7024	 
1250.0	1.0	0.0	7.87215	7.50019	-3.05661	18.22902	30.36983	1.22876	0.81383	122.88076	133.68638	45.61937	0.3468	 	174001.824	 	4.27244E-5	 	43452.90339	36.63999	 
1245.0	1.0	0.0	7.8748	7.49766	-3.08924	18.20562	30.2922	1.22786	0.81442	123.30575	134.0101	45.78253	0.34665	 	186810.9039	 	3.96642E-5	 	43270.01485	36.57771	 
1240.0	1.0	0.0	7.87744	7.49514	-3.12179	18.18223	30.21456	1.22696	0.81502	123.7302	134.33256	45.94554	0.34649	 	200657.091	 	3.68056E-5	 	43087.43713	36.51554	 
1235.0	1.0	0.0	7.88009	7.49263	-3.15428	18.15885	30.13692	1.22606	0.81562	124.1541	134.65376	46.10837	0.34633	 	215631.7454	 	3.41365E-5	 	42905.16961	36.4535	 
1230.0	1.0	0.0	7.88272	7.49012	-3.18671	18.13549	30.05928	1.22515	0.81623	124.57746	134.97371	46.27105	0.34617	 	231834.9114	 	3.16454E-5	 	42723.21166	36.39159	 
1225.0	1.0	0.0	7.88536	7.48762	-3.21906	18.11214	29.98164	1.22424	0.81683	125.00027	135.29242	46.43356	0.34601	 	249376.2023	 	2.93216E-5	 	42541.56269	36.32979	 
1220.0	1.0	0.0	7.88799	7.48512	-3.25135	18.08879	29.90399	1.22332	0.81745	125.42254	135.60988	46.5959	0.34585	 	268375.7808	 	2.71548E-5	 	42360.22206	36.26813	 
1215.0	1.0	0.0	7.89062	7.48263	-3.28357	18.06547	29.82635	1.2224	0.81806	125.84427	135.9261	46.75809	0.3457	 	288965.4481	 	2.51355E-5	 	42179.18917	36.20658	 
1210.0	1.0	0.0	7.89324	7.48014	-3.31572	18.04215	29.7487	1.22147	0.81869	126.26545	136.24108	46.9201	0.34554	 	311289.8508	 	2.32545E-5	 	41998.4634	36.14516	 
1205.0	1.0	0.0	7.89586	7.47766	-3.3478	18.01884	29.67105	1.22054	0.81931	126.68608	136.55483	47.08196	0.34538	 	335507.8231	 	2.15032E-5	 	41818.04413	36.08385	 
1200.0	1.0	0.0	7.89848	7.47518	-3.37982	17.99555	29.5934	1.2196	0.81994	127.10617	136.86735	47.24365	0.34522	 	361793.8768	 	1.98734E-5	 	41637.93077	36.02267	 
1195.0	1.0	0.0	7.90109	7.47271	-3.41177	17.97227	29.51575	1.21866	0.82057	127.52571	137.17865	47.40517	0.34506	 	390339.8599	 	1.83575E-5	 	41458.12268	35.96162	 
1190.0	1.0	0.0	7.9037	7.47024	-3.44365	17.949	29.4381	1.21771	0.82121	127.94471	137.48872	47.56653	0.3449	 	421356.7999	 	1.69483E-5	 	41278.61926	35.90068	 
1185.0	1.0	0.0	7.90631	7.46778	-3.47547	17.92575	29.36044	1.21676	0.82185	128.36317	137.79758	47.72772	0.34474	 	455076.9582	 	1.56388E-5	 	41099.4199	35.83987	 
1180.0	1.0	0.0	7.90891	7.46532	-3.50721	17.90251	29.28278	1.21581	0.8225	128.78107	138.10522	47.88875	0.34459	 	491756.1176	 	1.44227E-5	 	40920.52398	35.77918	 
1175.0	1.0	0.0	7.9115	7.46287	-3.53889	17.87928	29.20512	1.21484	0.82315	129.19844	138.41164	48.04962	0.34443	 	531676.1324	 	1.32939E-5	 	40741.93091	35.71861	 
1170.0	1.0	0.0	7.9141	7.46043	-3.57051	17.85606	29.12746	1.21388	0.82381	129.61525	138.71686	48.21032	0.34427	 	575147.7734	 	1.22467E-5	 	40563.64006	35.65817	 
1165.0	1.0	0.0	7.91669	7.45799	-3.60205	17.83285	29.0498	1.21291	0.82447	130.03152	139.02088	48.37085	0.34411	 	622513.9035	 	1.12757E-5	 	40385.65083	35.59785	 
1160.0	1.0	0.0	7.91927	7.45555	-3.63353	17.80966	28.97214	1.21193	0.82513	130.44725	139.3237	48.53122	0.34395	 	674153.024	 	1.03758E-5	 	40207.96261	35.53764	 
1155.0	1.0	0.0	7.92186	7.45312	-3.66494	17.78647	28.89447	1.21095	0.8258	130.86243	139.62531	48.69143	0.34379	 	730483.2397	 	9.54224E-6	 	40030.57479	35.47756	 
1150.0	1.0	0.0	7.92444	7.4507	-3.69629	17.7633	28.8168	1.20996	0.82647	131.27706	139.92574	48.85146	0.34363	 	791966.6916	 	8.77062E-6	 	39853.48677	35.4176	 
1145.0	1.0	0.0	7.92701	7.44828	-3.72757	17.74015	28.73913	1.20897	0.82715	131.69115	140.22497	49.01134	0.34348	 	859114.52	 	8.05671E-6	 	39676.69794	35.35777	 
1140.0	1.0	0.0	7.92958	7.44586	-3.75878	17.717	28.66146	1.20797	0.82784	132.10468	140.52302	49.17104	0.34332	 	932492.4211	 	7.39656E-6	 	39500.20769	35.29805	 
1135.0	1.0	0.0	7.93215	7.44345	-3.78992	17.69387	28.58379	1.20697	0.82852	132.51768	140.81989	49.33059	0.34316	 	1012726.876	 	6.78646E-6	 	39324.01542	35.23845	 
1130.0	1.0	0.0	7.93471	7.44105	-3.821	17.67075	28.50611	1.20596	0.82922	132.93012	141.11557	49.48996	0.343	 	1100512.134	 	6.22295E-6	 	39148.12053	35.17898	 
1125.0	1.0	0.0	7.93727	7.43865	-3.85201	17.64764	28.42844	1.20494	0.82991	133.34202	141.41008	49.64917	0.34284	 	1196618.056	 	5.70276E-6	 	38972.52239	35.11963	 
1120.0	1.0	0.0	7.93983	7.43625	-3.88296	17.62454	28.35076	1.20392	0.83062	133.75338	141.70342	49.80821	0.34268	 	1301898.913	 	5.22285E-6	 	38797.22043	35.06039	 
1115.0	1.0	0.0	7.94238	7.43386	-3.91383	17.60146	28.27308	1.2029	0.83132	134.16418	141.99558	49.96709	0.34253	 	1417303.286	 	4.78036E-6	 	38622.21402	35.00128	 
1110.0	1.0	0.0	7.94492	7.43148	-3.94465	17.57839	28.19539	1.20187	0.83204	134.57444	142.28658	50.1258	0.34237	 	1543885.19	 	4.37261E-6	 	38447.50259	34.94229	 
1105.0	1.0	0.0	7.94747	7.4291	-3.97539	17.55533	28.11771	1.20083	0.83276	134.98415	142.57642	50.28435	0.34221	 	1682816.604	 	3.99711E-6	 	38273.0855	34.88342	 
1100.0	1.0	0.0	7.95001	7.42673	-4.00607	17.53228	28.04002	1.19979	0.83348	135.39331	142.8651	50.44273	0.34205	 	1835401.579	 	3.65152E-6	 	38098.96219	34.82466	 
1095.0	1.0	0.0	7.95254	7.42436	-4.03668	17.50924	27.96233	1.19874	0.83421	135.80193	143.15262	50.60094	0.34189	 	2003092.139	 	3.33365E-6	 	37925.13202	34.76603	 
1090.0	1.0	0.0	7.95508	7.422	-4.06723	17.48622	27.88464	1.19769	0.83494	136.21	143.43899	50.75898	0.34173	 	2187506.221	 	3.04145E-6	 	37751.59442	34.70752	 
1085.0	1.0	0.0	7.9576	7.41964	-4.09771	17.46321	27.80695	1.19663	0.83568	136.61752	143.72421	50.91686	0.34157	 	2390447.931	 	2.77303E-6	 	37578.34878	34.64913	 
1080.0	1.0	0.0	7.96013	7.41729	-4.12812	17.44021	27.72925	1.19557	0.83642	137.02449	144.00829	51.07457	0.34142	 	2613930.418	 	2.52661E-6	 	37405.39449	34.59086	 
1075.0	1.0	0.0	7.96265	7.41494	-4.15847	17.41723	27.65156	1.1945	0.83717	137.43091	144.29122	51.23211	0.34126	 	2860201.75	 	2.30053E-6	 	37232.73098	34.5327	 
1070.0	1.0	0.0	7.96517	7.4126	-4.18875	17.39425	27.57386	1.19342	0.83793	137.83679	144.57301	51.38949	0.3411	 	3131774.184	 	2.09325E-6	 	37060.35763	34.47467	 
1065.0	1.0	0.0	7.96768	7.41026	-4.21896	17.37129	27.49616	1.19234	0.83869	138.24212	144.85367	51.5467	0.34094	 	3431457.32	 	1.90332E-6	 	36888.27387	34.41675	 
1060.0	1.0	0.0	7.97019	7.40793	-4.24911	17.34834	27.41846	1.19125	0.83946	138.6469	145.13319	51.70374	0.34078	 	3762395.665	 	1.72942E-6	 	36716.47907	34.35896	 
1055.0	1.0	0.0	7.97269	7.4056	-4.27919	17.3254	27.34075	1.19015	0.84023	139.05113	145.41159	51.86062	0.34062	 	4128111.257	 	1.5703E-6	 	36544.97266	34.30128	 
1050.0	1.0	0.0	7.97519	7.40328	-4.30921	17.30248	27.26304	1.18905	0.84101	139.45481	145.68885	52.01732	0.34047	 	4532552.039	 	1.4248E-6	 	36373.75404	34.24372	 
1045.0	1.0	0.0	7.97769	7.40096	-4.33916	17.27957	27.18533	1.18794	0.84179	139.85794	145.965	52.17386	0.34031	 	4980146.825	 	1.29184E-6	 	36202.82262	34.18628	 
1040.0	1.0	0.0	7.98018	7.39865	-4.36905	17.25666	27.10762	1.18683	0.84258	140.26052	146.24002	52.33023	0.34015	 	5475867.797	 	1.17044E-6	 	36032.1778	34.12896	 
1035.0	1.0	0.0	7.98267	7.39634	-4.39887	17.23378	27.02991	1.18571	0.84338	140.66256	146.51393	52.48644	0.33999	 	6025301.637	 	1.05966E-6	 	35861.81899	34.07176	 
1030.0	1.0	0.0	7.98516	7.39404	-4.42862	17.2109	26.95219	1.18459	0.84418	141.06404	146.78672	52.64247	0.33983	 	6634730.544	 	9.58645E-7	 	35691.74562	34.01468	 
1025.0	1.0	0.0	7.98764	7.39174	-4.45831	17.18804	26.87447	1.18345	0.84499	141.46498	147.0584	52.79834	0.33967	 	7311224.595	 	8.66606E-7	 	35521.95706	33.95771	 
1020.0	1.0	0.0	7.99012	7.38945	-4.48793	17.16518	26.79675	1.18231	0.8458	141.86536	147.32898	52.95404	0.33951	 	8062747.132	 	7.82803E-7	 	35352.45276	33.90086	 
1015.0	1.0	0.0	7.99259	7.38716	-4.51749	17.14235	26.71903	1.18117	0.84662	142.26519	147.59845	53.10957	0.33936	 	8898275.116	 	7.06557E-7	 	35183.23211	33.84413	 
1010.0	1.0	0.0	7.99506	7.38488	-4.54698	17.11952	26.64131	1.18002	0.84745	142.66448	147.86682	53.26493	0.3392	 	9827936.698	 	6.37238E-7	 	35014.29453	33.78752	 
1005.0	1.0	0.0	7.99752	7.3826	-4.5764	17.0967	26.56358	1.17886	0.84828	143.06321	148.13409	53.42012	0.33904	 	1.086316861E7	 	5.74265E-7	 	34845.63943	33.73102	 
1000.0	1.0	0.0	7.99999	7.38033	-4.60576	17.0739	26.48585	1.17769	0.84912	143.4614	148.40027	53.57515	0.33888	 	1.201689638E7	 	5.17099E-7	 	34677.26622	33.67464	 
995.0	1.0	0.0	8.00244	7.37807	-4.63506	17.05111	26.40812	1.17652	0.84996	143.85903	148.66535	53.73	0.33872	 	1.330374096E7	 	4.65247E-7	 	34509.17434	33.61838	 
990.0	1.0	0.0	8.0049	7.3758	-4.66429	17.02833	26.33039	1.17534	0.85082	144.25612	148.92934	53.88469	0.33856	 	1.474025564E7	 	4.18251E-7	 	34341.36317	33.56223	 
985.0	1.0	0.0	8.00735	7.37355	-4.69345	17.00557	26.25265	1.17415	0.85168	144.65265	149.19225	54.03921	0.3384	 	1.634519828E7	 	3.75689E-7	 	34173.83214	33.5062	 
980.0	1.0	0.0	8.00979	7.3713	-4.72255	16.98281	26.17491	1.17296	0.85254	145.04863	149.45408	54.19355	0.33825	 	1.813984408E7	 	3.37176E-7	 	34006.58068	33.45029	 
975.0	1.0	0.0	8.01223	7.36905	-4.75159	16.96007	26.09717	1.17176	0.85342	145.44406	149.71483	54.34773	0.33809	 	2.014834551E7	 	3.02353E-7	 	33839.60819	33.3945	 
970.0	1.0	0.0	8.01467	7.36681	-4.78055	16.93734	26.01943	1.17056	0.8543	145.83894	149.9745	54.50174	0.33793	 	2.23981468E7	 	2.70893E-7	 	33672.91411	33.33882	 
965.0	1.0	0.0	8.0171	7.36457	-4.80946	16.91462	25.94168	1.16934	0.85518	146.23327	150.23309	54.65558	0.33777	 	2.492046176E7	 	2.42496E-7	 	33506.49784	33.28325	 
960.0	1.0	0.0	8.01953	7.36234	-4.8383	16.89192	25.86393	1.16812	0.85608	146.62704	150.49062	54.80925	0.33761	 	2.775082519E7	 	2.16884E-7	 	33340.35882	33.22781	 
955.0	1.0	0.0	8.02196	7.36012	-4.86707	16.86923	25.78618	1.16689	0.85698	147.02027	150.74707	54.96275	0.33745	 	3.092972982E7	 	1.93804E-7	 	33174.49646	33.17247	 
950.0	1.0	0.0	8.02438	7.3579	-4.89578	16.84655	25.70843	1.16566	0.85789	147.41294	151.00246	55.11608	0.3373	 	3.450336275E7	 	1.73023E-7	 	33008.91017	33.11726	 
945.0	1.0	0.0	8.0268	7.35568	-4.92442	16.82388	25.63067	1.16441	0.8588	147.80506	151.25679	55.26924	0.33714	 	3.852445794E7	 	1.5433E-7	 	32843.5994	33.06215	 
940.0	1.0	0.0	8.02921	7.35347	-4.953	16.80122	25.55292	1.16316	0.85973	148.19663	151.51006	55.42223	0.33698	 	4.305328401E7	 	1.37529E-7	 	32678.56357	33.00717	 
935.0	1.0	0.0	8.03162	7.35126	-4.98151	16.77858	25.47516	1.1619	0.86066	148.58764	151.76228	55.57505	0.33682	 	4.815878991E7	 	1.22442E-7	 	32513.80208	32.9523	 
930.0	1.0	0.0	8.03403	7.34906	-5.00996	16.75595	25.39739	1.16064	0.8616	148.97811	152.01344	55.7277	0.33666	 	5.391993538E7	 	1.08907E-7	 	32349.31439	32.89754	 
925.0	1.0	0.0	8.03643	7.34686	-5.03835	16.73333	25.31963	1.15936	0.86254	149.36802	152.26355	55.88017	0.3365	 	6.042723744E7	 	9.67754E-8	 	32185.09991	32.8429	 
920.0	1.0	0.0	8.03883	7.34467	-5.06667	16.71072	25.24186	1.15808	0.8635	149.75737	152.51262	56.03248	0.33634	 	6.778457008E7	 	8.59114E-8	 	32021.15808	32.78837	 
915.0	1.0	0.0	8.04122	7.34249	-5.09492	16.68813	25.16409	1.15679	0.86446	150.14618	152.76063	56.18462	0.33619	 	7.611126085E7	 	7.61919E-8	 	31857.48831	32.73395	 
910.0	1.0	0.0	8.04361	7.34031	-5.12311	16.66555	25.08632	1.1555	0.86543	150.53443	153.00761	56.33658	0.33603	 	8.554453621E7	 	6.75047E-8	 	31694.09005	32.67965	 
905.0	1.0	0.0	8.04599	7.33813	-5.15124	16.64297	25.00854	1.15419	0.86641	150.92213	153.25355	56.48838	0.33587	 	9.624237671E7	 	5.97477E-8	 	31530.96272	32.62547	 
900.0	1.0	0.0	8.04837	7.33596	-5.1793	16.62042	24.93076	1.15288	0.86739	151.30927	153.49845	56.64	0.33571	 	1.083868547E8	 	5.28279E-8	 	31368.10577	32.57139	 
895.0	1.0	0.0	8.05075	7.33379	-5.2073	16.59787	24.85298	1.15156	0.86839	151.69586	153.74232	56.79145	0.33555	 	1.221880403E8	 	4.66613E-8	 	31205.51861	32.51743	 
890.0	1.0	0.0	8.05313	7.33163	-5.23523	16.57534	24.7752	1.15023	0.86939	152.0819	153.98516	56.94273	0.33539	 	1.378885788E8	 	4.11713E-8	 	31043.2007	32.46358	 
885.0	1.0	0.0	8.05549	7.32948	-5.2631	16.55282	24.69741	1.14889	0.8704	152.46738	154.22697	57.09384	0.33523	 	1.557690591E8	 	3.62886E-8	 	30881.15145	32.40985	 
880.0	1.0	0.0	8.05786	7.32733	-5.29091	16.53031	24.61962	1.14755	0.87142	152.85231	154.46776	57.24478	0.33508	 	1.761543209E8	 	3.19506E-8	 	30719.37032	32.35623	 
875.0	1.0	0.0	8.06022	7.32518	-5.31865	16.50781	24.54183	1.14619	0.87245	153.23668	154.70752	57.39555	0.33492	 	1.994208695E8	 	2.81005E-8	 	30557.85673	32.30272	 
870.0	1.0	0.0	8.06258	7.32304	-5.34632	16.48533	24.46403	1.14483	0.87349	153.6205	154.94627	57.54614	0.33476	 	2.260056083E8	 	2.46871E-8	 	30396.61014	32.24932	 
865.0	1.0	0.0	8.06493	7.3209	-5.37394	16.46285	24.38624	1.14346	0.87454	154.00376	155.18399	57.69656	0.3346	 	2.564161316E8	 	2.16641E-8	 	30235.62998	32.19603	 
860.0	1.0	0.0	8.06728	7.31877	-5.40148	16.44039	24.30844	1.14208	0.8756	154.38647	155.42071	57.84681	0.33444	 	2.912428754E8	 	1.89897E-8	 	30074.91568	32.14286	 
855.0	1.0	0.0	8.06962	7.31664	-5.42897	16.41795	24.23063	1.14069	0.87666	154.76863	155.65641	57.99689	0.33428	 	3.311734768E8	 	1.66264E-8	 	29914.46671	32.08979	 
850.0	1.0	0.0	8.07196	7.31452	-5.45639	16.39551	24.15283	1.13929	0.87774	155.15023	155.89111	58.14679	0.33413	 	3.770097693E8	 	1.45402E-8	 	29754.28248	32.03684	 
845.0	1.0	0.0	8.0743	7.31241	-5.48375	16.37309	24.07502	1.13789	0.87882	155.53127	156.1248	58.29652	0.33397	 	4.296879202E8	 	1.27009E-8	 	29597.55829	31.34484	 
840.0	1.0	0.0	8.07663	7.31029	-5.51104	16.35068	23.99721	1.13647	0.87992	155.91176	156.35748	58.44608	0.33381	 	4.90302326E8	 	1.10809E-8	 	29437.89666	31.93232	 
835.0	1.0	0.0	8.07896	7.30819	-5.53827	16.32828	23.91939	1.13505	0.88102	156.29169	156.58917	58.59547	0.33365	 	5.601340039E8	 	9.65591E-9	 	29278.49815	31.8797	 
830.0	1.0	0.0	8.08128	7.30609	-5.56543	16.30589	23.84157	1.13362	0.88213	156.67107	156.81986	58.74468	0.33349	 	6.406843719E8	 	8.40383E-9	 	29119.36219	31.82719	 
825.0	1.0	0.0	8.0836	7.30399	-5.59253	16.28352	23.76375	1.13217	0.88326	157.04989	157.04955	58.89372	0.33333	 	7.337154952E8	 	7.30501E-9	 	28960.48825	31.77479	 
820.0	1.0	0.0	8.08592	7.3019	-5.61957	16.26115	23.68593	1.13072	0.88439	157.42815	157.27825	59.04259	0.33317	 	8.412981055E8	 	6.34186E-9	 	28801.87578	31.72249	 
815.0	1.0	0.0	8.08823	7.29981	-5.64655	16.2388	23.6081	1.12926	0.88554	157.80586	157.50597	59.19128	0.33302	 	9.65868974E8	 	5.49866E-9	 	28643.52422	31.67031	 
810.0	1.0	0.0	8.09054	7.29773	-5.67346	16.21647	23.53027	1.12779	0.88669	158.18301	157.73269	59.3398	0.33286	 	1.11029956E9	 	4.76141E-9	 	28485.43304	31.61824	 
805.0	1.0	0.0	8.09284	7.29565	-5.7003	16.19414	23.45244	1.12631	0.88786	158.5596	157.95843	59.48815	0.3327	 	1.277978272E9	 	4.11758E-9	 	28327.60169	31.56627	 
800.0	1.0	0.0	8.09514	7.29358	-5.72709	16.17183	23.37461	1.12482	0.88903	158.93564	158.18319	59.63632	0.33254	 	1.472909178E9	 	3.55608E-9	 	28170.02963	31.51441	 
795.0	1.0	0.0	8.09744	7.29151	-5.75381	16.14953	23.29677	1.12332	0.89022	159.31112	158.40697	59.78432	0.33238	 	1.699830652E9	 	3.067E-9	 	28012.71631	31.46266	 
790.0	1.0	0.0	8.09973	7.28945	-5.78046	16.12724	23.21893	1.12181	0.89142	159.68604	158.62978	59.93215	0.33222	 	1.964358169E9	 	2.64156E-9	 	27855.66121	31.41102	 
785.0	1.0	0.0	8.10201	7.28739	-5.80706	16.10496	23.14108	1.12029	0.89263	160.06041	158.85161	60.0798	0.33207	 	2.273156459E9	 	2.27198E-9	 	27698.86378	31.35949	 
780.0	1.0	0.0	8.1043	7.28534	-5.83359	16.0827	23.06323	1.11876	0.89385	160.43421	159.07247	60.22728	0.33191	 	2.634147357E9	 	1.95136E-9	 	27542.32349	31.30806	 
775.0	1.0	0.0	8.10658	7.28329	-5.86006	16.06045	22.98538	1.11722	0.89508	160.80746	159.29236	60.37458	0.33175	 	3.056761153E9	 	1.67359E-9	 	27386.0398	31.25674	 
770.0	1.0	0.0	8.10885	7.28125	-5.88646	16.03821	22.90753	1.11567	0.89632	161.18015	159.51128	60.52171	0.33159	 	3.552241048E9	 	1.43328E-9	 	27230.01218	31.20552	 
765.0	1.0	0.0	8.11112	7.27921	-5.9128	16.01598	22.82967	1.11411	0.89758	161.55229	159.72925	60.66866	0.33143	 	4.134012505E9	 	1.22567E-9	 	27074.24009	31.15442	 
760.0	1.0	0.0	8.11339	7.27718	-5.93908	15.99376	22.75181	1.11253	0.89885	161.92386	159.94625	60.81544	0.33127	 	4.818132089E9	 	1.04658E-9	 	26918.72303	31.10341	 
755.0	1.0	0.0	8.11565	7.27515	-5.96529	15.97156	22.67395	1.11095	0.90013	162.29488	160.16229	60.96204	0.33111	 	5.623833805E9	 	8.923E-10	 	26763.46044	31.05252	 
750.0	1.0	0.0	8.11791	7.27313	-5.99145	15.94937	22.59608	1.10936	0.90142	162.66533	160.37737	61.10847	0.33096	 	6.574195238E9	 	7.59597E-10	 	26608.45181	31.00173	 
745.0	1.0	0.0	8.12016	7.27111	-6.01753	15.92719	22.51821	1.10776	0.90273	163.03523	160.59151	61.25473	0.3308	 	7.696951145E9	 	6.45624E-10	 	26453.69661	30.95104	 
740.0	1.0	0.0	8.12241	7.26909	-6.04356	15.90502	22.44033	1.10614	0.90404	163.40457	160.80469	61.40081	0.33064	 	9.025488892E9	 	5.47885E-10	 	26299.19433	30.90046	 
735.0	1.0	0.0	8.12465	7.26709	-6.06952	15.88287	22.36246	1.10452	0.90537	163.77335	161.01692	61.54671	0.33048	 	1.06001E10	 	4.64198E-10	 	26144.94443	30.84998	 
730.0	1.0	0.0	8.12689	7.26508	-6.09543	15.86073	22.28458	1.10288	0.90672	164.14157	161.22821	61.69244	0.33032	 	1.2469299999999998E10	 	3.92654E-10	 	25990.94642	30.7996	 
725.0	1.0	0.0	8.12913	7.26308	-6.12126	15.8386	22.20669	1.10123	0.90808	164.50923	161.43855	61.83799	0.33016	 	1.4692099999999998E10	 	3.31588E-10	 	25837.19975	30.74933	 
720.0	1.0	0.0	8.13136	7.26109	-6.14704	15.81648	22.1288	1.09957	0.90945	164.87634	161.64795	61.98336	0.33	 	1.73397E10	 	2.7955E-10	 	25683.70394	30.69916	 
715.0	1.0	0.0	8.13359	7.2591	-6.17275	15.79438	22.05091	1.0979	0.91083	165.24288	161.85642	62.12857	0.32985	 	2.04988E10	 	2.35278E-10	 	25530.45845	30.6491	 
710.0	1.0	0.0	8.13582	7.25712	-6.1984	15.77228	21.97302	1.09622	0.91223	165.60886	162.06394	62.27359	0.32969	 	2.4274699999999996E10	 	1.97676E-10	 	25377.46279	30.59913	 
705.0	1.0	0.0	8.13804	7.25514	-6.22399	15.7502	21.89512	1.09452	0.91364	165.97428	162.27054	62.41844	0.32953	 	2.8795799999999996E10	 	1.65792E-10	 	25224.71643	30.54927	 
700.0	1.0	0.0	8.14025	7.25316	-6.24952	15.72813	21.81722	1.09281	0.91507	166.33914	162.4762	62.56311	0.32937	 	3.4219099999999996E10	 	1.38803E-10	 	25072.21889	30.49951	 
695.0	1.0	0.0	8.14246	7.25119	-6.27498	15.70608	21.73931	1.0911	0.91651	166.70344	162.68093	62.70761	0.32921	 	4.07362E10	 	1.15997E-10	 	24919.96965	30.44985	 
690.0	1.0	0.0	8.14467	7.24923	-6.30038	15.68403	21.6614	1.08936	0.91797	167.06718	162.88474	62.85192	0.32905	 	4.858249999999999E10	 	9.67612E-11	 	24767.96821	30.40029	 
685.0	1.0	0.0	8.14687	7.24727	-6.32572	15.662	21.58349	1.08762	0.91944	167.43036	163.08763	62.99607	0.3289	 	5.804659999999999E10	 	8.05645E-11	 	24616.21408	30.35083	 
680.0	1.0	0.0	8.14907	7.24531	-6.35099	15.63998	21.50558	1.08587	0.92092	167.79297	163.28959	63.14003	0.32874	 	6.9484E10	 	6.6952E-11	 	24464.70675	30.30147	 
675.0	1.0	0.0	8.15127	7.24336	-6.37621	15.61798	21.42766	1.0841	0.92243	168.15503	163.49063	63.28382	0.32858	 	8.33329E10	 	5.55325E-11	 	24313.44574	30.2522	 
670.0	1.0	0.0	8.15346	7.24141	-6.40136	15.59598	21.34973	1.08232	0.92394	168.51652	163.69076	63.42743	0.32842	 	1.00135E11	 	4.59708E-11	 	24162.43055	30.20304	 
665.0	1.0	0.0	8.15564	7.23947	-6.42645	15.574	21.27181	1.08052	0.92548	168.87745	163.88997	63.57087	0.32826	 	1.2056E11	 	3.798E-11	 	24011.66069	30.15397	 
660.0	1.0	0.0	8.15783	7.23754	-6.45148	15.55203	21.19387	1.07872	0.92703	169.23782	164.08827	63.71412	0.3281	 	1.45441E11	 	3.13149E-11	 	23861.13568	30.105	 
655.0	1.0	0.0	8.16	7.2356	-6.47644	15.53007	21.11594	1.0769	0.92859	169.59763	164.28566	63.8572	0.32794	 	1.75812E11	 	2.57666E-11	 	23710.85503	30.05613	 
650.0	1.0	0.0	8.16218	7.23368	-6.50135	15.50812	21.038	1.07506	0.93018	169.95688	164.48214	64.00011	0.32779	 	2.12961E11	 	2.11572E-11	 	23560.81826	30.00735	 
645.0	1.0	0.0	8.16435	7.23176	-6.52619	15.48619	20.96006	1.07322	0.93178	170.31556	164.67772	64.14283	0.32763	 	2.585E11	 	1.73356E-11	 	23411.0249	29.95867	 
640.0	1.0	0.0	8.16651	7.22984	-6.55097	15.46427	20.88211	1.07136	0.9334	170.67368	164.87239	64.28538	0.32747	 	3.14443E11	 	1.41738E-11	 	23261.47446	29.91009	 
635.0	1.0	0.0	8.16867	7.22793	-6.57569	15.44236	20.80416	1.06948	0.93503	171.03124	165.06616	64.42775	0.32731	 	3.83319E11	 	1.15634E-11	 	23112.16648	29.8616	 
630.0	1.0	0.0	8.17083	7.22602	-6.60034	15.42046	20.72621	1.06759	0.93669	171.38823	165.25904	64.56994	0.32715	 	4.68307E11	 	9.41273E-12	 	22963.10048	29.8132	 
625.0	1.0	0.0	8.17298	7.22412	-6.62494	15.39858	20.64825	1.06569	0.93836	171.74466	165.45102	64.71195	0.32699	 	5.73416E11	 	7.64479E-12	 	22814.27601	29.7649	 
620.0	1.0	0.0	8.17513	7.22222	-6.64947	15.3767	20.57029	1.06378	0.94005	172.10053	165.6421	64.85378	0.32683	 	7.0371E11	 	6.19466E-12	 	22665.69259	29.71668	 
615.0	1.0	0.0	8.17727	7.22032	-6.67394	15.35484	20.49232	1.06185	0.94176	172.45584	165.8323	64.99544	0.32668	 	8.65602E11	 	5.00789E-12	 	22517.34976	29.66856	 
610.0	1.0	0.0	8.17941	7.21844	-6.69835	15.333	20.41435	1.0599	0.94349	172.81058	166.02161	65.13692	0.32652	 	1.06724E12	 	4.03887E-12	 	22369.24708	29.62054	 
605.0	1.0	0.0	8.18155	7.21655	-6.7227	15.31116	20.33638	1.05794	0.94523	173.16476	166.21002	65.27821	0.32636	 	1.31899E12	 	3.24949E-12	 	22221.38408	29.5726	 
600.0	1.0	0.0	8.18368	7.21467	-6.74699	15.28934	20.2584	1.05597	0.947	173.51837	166.39756	65.41933	0.3262	 	1.63408E12	 	2.60798E-12	 	22073.76032	29.52475	 
595.0	1.0	0.0	8.1858	7.2128	-6.77122	15.26752	20.18042	1.05398	0.94879	173.87142	166.58421	65.56027	0.32604	 	2.02944E12	 	2.08788E-12	 	21926.37534	29.477	 
590.0	1.0	0.0	8.18793	7.21093	-6.79538	15.24573	20.10243	1.05197	0.9506	174.2239	166.76998	65.70103	0.32588	 	2.52679E12	 	1.66726E-12	 	21779.22872	29.42932	 
585.0	1.0	0.0	8.19004	7.20906	-6.81948	15.22394	20.02444	1.04995	0.95243	174.57582	166.95488	65.84162	0.32573	 	3.15408E12	 	1.32794E-12	 	21632.32	29.38174	 
580.0	1.0	0.0	8.19216	7.2072	-6.84353	15.20216	19.94645	1.04791	0.95428	174.92718	167.1389	65.98202	0.32557	 	3.94734E12	 	1.05489E-12	 	21485.64876	29.33425	 
575.0	1.0	0.0	8.19427	7.20535	-6.86751	15.1804	19.86845	1.04586	0.95615	175.27797	167.32204	66.12224	0.32541	 	4.9532E12	 	8.35745E-13	 	21339.21455	29.28684	 
570.0	1.0	0.0	8.19637	7.2035	-6.89143	15.15865	19.79044	1.0438	0.95804	175.62819	167.50432	66.26228	0.32525	 	6.23212E12	 	6.60322E-13	 	21193.01697	29.23952	 
565.0	1.0	0.0	8.19847	7.20165	-6.91528	15.13691	19.71244	1.04171	0.95996	175.97785	167.68572	66.40215	0.32509	 	7.86277E12	 	5.20275E-13	 	21047.05558	29.19228	 
560.0	1.0	0.0	8.20057	7.19981	-6.93908	15.11519	19.63442	1.03961	0.9619	176.32695	167.86626	66.54183	0.32493	 	9.94781E12	 	4.08773E-13	 	20901.32997	29.14512	 
555.0	1.0	0.0	8.20266	7.19798	-6.96282	15.09347	19.55641	1.0375	0.96386	176.67548	168.04594	66.68133	0.32477	 	1.26215E13	 	3.20246E-13	 	20755.83971	29.09805	 
550.0	1.0	0.0	8.20475	7.19614	-6.98649	15.07177	19.47839	1.03536	0.96585	177.02344	168.22475	66.82066	0.32462	 	1.60603E13	 	2.50157E-13	 	20610.58441	29.05106	 
545.0	1.0	0.0	8.20683	7.19432	-7.01011	15.05008	19.40036	1.03321	0.96786	177.37084	168.4027	66.9598	0.32446	 	2.04962E13	 	1.94826E-13	 	20465.56365	29.00415	 
540.0	1.0	0.0	8.20891	7.19249	-7.03366	15.02841	19.32233	1.03104	0.96989	177.71767	168.5798	67.09876	0.3243	 	2.62359E13	 	1.51273E-13	 	20320.77704	28.95732	 
535.0	1.0	0.0	8.21099	7.19068	-7.05716	15.00674	19.2443	1.02886	0.97195	178.06394	168.75603	67.23755	0.32414	 	3.36857E13	 	1.17094E-13	 	20176.22417	28.91057	 
530.0	1.0	0.0	8.21306	7.18886	-7.08059	14.98509	19.16626	1.02666	0.97403	178.40964	168.93142	67.37615	0.32398	 	4.33857E13	 	9.03517E-14	 	20031.90467	28.8639	 
525.0	1.0	0.0	8.21512	7.18706	-7.10396	14.96345	19.08821	1.02444	0.97615	178.75477	169.10595	67.51457	0.32382	 	5.60564E13	 	6.94939E-14	 	19887.81815	28.8173	 
520.0	1.0	0.0	8.21719	7.18525	-7.12727	14.94182	19.01016	1.0222	0.97828	179.09933	169.27964	67.65281	0.32367	 	7.26617E13	 	5.32766E-14	 	19743.96423	28.77078	 
515.0	1.0	0.0	8.21924	7.18345	-7.15052	14.92021	18.93211	1.01994	0.98045	179.44333	169.45247	67.79087	0.32351	 	9.44966E13	 	4.07079E-14	 	19600.34253	28.72434	 
510.0	1.0	0.0	8.2213	7.18166	-7.17371	14.8986	18.85405	1.01767	0.98264	179.78676	169.62446	67.92874	0.32335	 	1.23306E14	 	3.0999E-14	 	19456.95269	28.67797	 
505.0	1.0	0.0	8.22335	7.17987	-7.19684	14.87701	18.77599	1.01538	0.98486	180.12963	169.79561	68.06644	0.32319	 	1.6145E14	 	2.35241E-14	 	19313.79434	28.63167	 
500.0	1.0	0.0	8.22539	7.17808	-7.21991	14.85543	18.69792	1.01306	0.98711	180.47193	169.96592	68.20395	0.32303	 	2.12131E14	 	1.77888E-14	 	19170.86713	28.58544	 
495.0	1.0	0.0	8.22743	7.1763	-7.24292	14.83387	18.61985	1.01073	0.98938	180.81366	170.13539	68.34129	0.32287	 	2.7971399999999997E14	 	1.34035E-14	 	19028.1707	28.53929	 
490.0	1.0	0.0	8.22947	7.17453	-7.26587	14.81231	18.54178	1.00838	0.99169	181.15482	170.30402	68.47844	0.32271	 	3.70168E14	 	1.00623E-14	 	18885.70473	28.49319	 
485.0	1.0	0.0	8.2315	7.17276	-7.28875	14.79077	18.46369	1.00601	0.99403	181.49541	170.47182	68.61541	0.32256	 	4.91686E14	 	7.52583E-15	 	18743.46886	28.44717	 
480.0	1.0	0.0	8.23353	7.17099	-7.31158	14.76924	18.38561	1.00362	0.99639	181.83544	170.63878	68.7522	0.3224	 	6.55562E14	 	5.60731E-15	 	18601.46277	28.40122	 
475.0	1.0	0.0	8.23555	7.16923	-7.33435	14.74772	18.30752	1.00121	0.99879	182.17489	170.80492	68.8888	0.32224	 	8.77425E14	 	4.16165E-15	 	18459.68613	28.35533	 
470.0	1.0	0.0	8.23757	7.16747	-7.35706	14.72622	18.22942	0.99878	1.00122	182.51378	170.97022	69.02522	0.32208	 	1.17899E15	 	3.07648E-15	 	18318.13863	28.3095	 
465.0	1.0	0.0	8.23958	7.16572	-7.3797	14.70472	18.15132	0.99633	1.00369	182.8521	171.1347	69.16147	0.32192	 	1.59055E15	 	2.26508E-15	 	18176.81997	28.26373	 
460.0	1.0	0.0	8.24159	7.16397	-7.40229	14.68324	18.07321	0.99386	1.00618	183.18986	171.29836	69.29752	0.32176	 	2.15456E15	 	1.66081E-15	 	18035.72985	28.21802	 
455.0	1.0	0.0	8.2436	7.16223	-7.42482	14.66177	17.9951	0.99136	1.00871	183.52704	171.46119	69.4334	0.3216	 	2.93076E15	 	1.21263E-15	 	17894.86797	28.17238	 
450.0	1.0	0.0	8.2456	7.16049	-7.44729	14.64032	17.91698	0.98885	1.01128	183.86365	171.62321	69.56909	0.32145	 	4.00359E15	 	8.81588E-16	 	17754.23404	28.12679	 
445.0	1.0	0.0	8.2476	7.15876	-7.46969	14.61887	17.83886	0.98631	1.01388	184.1997	171.7844	69.7046	0.32129	 	5.49294E15	 	6.38112E-16	 	17613.82779	28.08125	 
440.0	1.0	0.0	8.24959	7.15703	-7.49204	14.59744	17.76073	0.98375	1.01652	184.53517	171.94478	69.83993	0.32113	 	7.56984E15	 	4.59812E-16	 	17473.64896	28.03577	 
435.0	1.0	0.0	8.25158	7.15531	-7.51433	14.57602	17.6826	0.98117	1.01919	184.87008	172.10434	69.97507	0.32097	 	1.04794E16	 	3.2982E-16	 	17333.69729	27.99033	 
430.0	1.0	0.0	8.25356	7.15359	-7.53656	14.55461	17.60446	0.97857	1.0219	185.20442	172.2631	70.11004	0.32081	 	1.45745E16	 	2.35473E-16	 	17193.97253	27.94495	 
425.0	1.0	0.0	8.25554	7.15187	-7.55873	14.53322	17.52632	0.97594	1.02465	185.53818	172.42104	70.24481	0.32065	 	2.03658E16	 	1.67314E-16	 	17054.47445	27.89962	 
420.0	1.0	0.0	8.25751	7.15016	-7.58083	14.51183	17.44817	0.97329	1.02744	185.87138	172.57818	70.37941	0.3205	 	2.85962E16	 	1.18306E-16	 	16915.20282	27.85433	 
415.0	1.0	0.0	8.25948	7.14846	-7.60288	14.49046	17.37002	0.97062	1.03027	186.20401	172.7345	70.51382	0.32034	 	4.03511E16	 	8.32365E-17	 	16776.15741	27.80908	 
410.0	1.0	0.0	8.26145	7.14675	-7.62487	14.4691	17.29186	0.96792	1.03314	186.53606	172.89003	70.64805	0.32018	 	5.72259E16	 	5.82653E-17	 	16637.33803	27.76387	 
405.0	1.0	0.0	8.26341	7.14506	-7.6468	14.44776	17.21369	0.9652	1.03605	186.86755	173.04475	70.78209	0.32002	 	8.15769E16	 	4.05738E-17	 	16498.74447	27.71871	 
400.0	1.0	0.0	8.26537	7.14337	-7.66867	14.42642	17.13552	0.96246	1.03901	187.19847	173.19867	70.91595	0.31986	 	1.16904E17	 	2.81041E-17	 	16360.37658	27.67358	 
395.0	1.0	0.0	8.26732	7.14168	-7.69049	14.4051	17.05734	0.95968	1.04201	187.52881	173.3518	71.04962	0.3197	 	1.68434E17	 	1.93612E-17	 	16222.23414	27.62849	 
390.0	1.0	0.0	8.26927	7.14	-7.71224	14.38379	16.97916	0.95689	1.04505	187.85859	173.50413	71.18312	0.31954	 	2.44018E17	 	1.32641E-17	 	16084.31704	27.58342	 
385.0	1.0	0.0	8.27122	7.13832	-7.73393	14.36249	16.90097	0.95407	1.04814	188.18779	173.65566	71.31642	0.31939	 	3.55516E17	 	9.0355E-18	 	15946.6251	27.53839	 
380.0	1.0	0.0	8.27316	7.13664	-7.75556	14.34121	16.82278	0.95122	1.05128	188.51642	173.8064	71.44955	0.31923	 	5.20955E17	 	6.11927E-18	 	15809.15821	27.49338	 
375.0	1.0	0.0	8.27509	7.13497	-7.77714	14.31994	16.74458	0.94835	1.05447	188.84448	173.95636	71.58248	0.31907	 	7.67893E17	 	4.11966E-18	 	15671.91623	27.4484	 
370.0	1.0	0.0	8.27702	7.13331	-7.79865	14.29867	16.66637	0.94545	1.0577	189.17197	174.10552	71.71524	0.31891	 	1.13873E18	 	2.75662E-18	 	15534.89907	27.40343	 
365.0	1.0	0.0	8.27895	7.13165	-7.82011	14.27743	16.58816	0.94252	1.06099	189.49889	174.2539	71.84781	0.31875	 	1.69912E18	 	1.8331E-18	 	15398.10665	27.35848	 
360.0	1.0	0.0	8.28087	7.12999	-7.84151	14.25619	16.50995	0.93957	1.06432	189.82524	174.40149	71.98019	0.31859	 	2.55136E18	 	1.21122E-18	 	15261.5389	27.31355	 
355.0	1.0	0.0	8.28279	7.12834	-7.86285	14.23497	16.43172	0.93658	1.06771	190.15102	174.5483	72.11239	0.31844	 	3.85593E18	 	7.95099E-19	 	15125.19574	27.26863	 
350.0	1.0	0.0	8.2847	7.1267	-7.88412	14.21375	16.35349	0.93357	1.07115	190.47622	174.69433	72.2444	0.31828	 	5.86631E18	 	5.18459E-19	 	14989.07715	27.22372	 
345.0	1.0	0.0	8.28661	7.12505	-7.90535	14.19255	16.27526	0.93053	1.07465	190.80085	174.83959	72.37623	0.31812	 	8.98564E18	 	3.35762E-19	 	14853.1831	27.17881	 
340.0	1.0	0.0	8.28851	7.12342	-7.92651	14.17137	16.19702	0.92747	1.07821	191.12491	174.98406	72.50787	0.31796	 	1.38597E19	 	2.15924E-19	 	14717.51359	27.1339	 
335.0	1.0	0.0	8.29042	7.12179	-7.94761	14.15019	16.11877	0.92437	1.08182	191.4484	175.12776	72.63933	0.3178	 	2.15304E19	 	1.37862E-19	 	14582.06863	27.08899	 
330.0	1.0	0.0	8.29231	7.12016	-7.96865	14.12903	16.04052	0.92124	1.08549	191.77131	175.27069	72.7706	0.31764	 	3.36917E19	 	8.73753E-20	 	14446.84828	27.04407	 
325.0	1.0	0.0	8.2942	7.11853	-7.98964	14.10788	15.96226	0.91808	1.08923	192.09366	175.41285	72.90169	0.31748	 	5.31184E19	 	5.49606E-20	 	14311.85257	26.99914	 
320.0	1.0	0.0	8.29609	7.11691	-8.01057	14.08674	15.88399	0.91489	1.09302	192.41543	175.55423	73.03259	0.31733	 	8.43918E19	 	3.43045E-20	 	14177.08158	26.9542	 
315.0	1.0	0.0	8.29797	7.1153	-8.03143	14.06561	15.80572	0.91167	1.09688	192.73663	175.69486	73.16331	0.31717	 	1.3513699999999998E20	 	2.12423E-20	 	14042.53543	26.90923	 
310.0	1.0	0.0	8.29985	7.11369	-8.05224	14.0445	15.72744	0.90842	1.10081	193.05725	175.83471	73.29384	0.31701	 	2.1814999999999997E20	 	1.30471E-20	 	13908.21423	26.86424	 
305.0	1.0	0.0	8.30172	7.11208	-8.07299	14.0234	15.64915	0.90514	1.1048	193.37731	175.97381	73.42418	0.31685	 	3.5508499999999997E20	 	7.94686E-21	 	13774.11813	26.81922	 
300.0	1.0	0.0	8.30359	7.11048	-8.09369	14.00231	15.57086	0.90182	1.10886	193.69679	176.11214	73.55434	0.31669	 	5.8290899999999997E20	 	4.79904E-21	 	13640.2473	26.77417	 
295.0	1.0	0.0	8.30546	7.10889	-8.11432	13.98123	15.49256	0.89847	1.113	194.01569	176.24971	73.68431	0.31653	 	9.652919999999999E20	 	2.8727E-21	 	13506.60194	26.72907	 
290.0	1.0	0.0	8.30732	7.1073	-8.1349	13.96017	15.41425	0.89509	1.1172	194.33403	176.38652	73.81409	0.31637	 	1.6129000000000001E21	 	1.70414E-21	 	13373.18228	26.68393	 
285.0	1.0	0.0	8.30917	7.10571	-8.15541	13.93911	15.33594	0.89167	1.12148	194.65179	176.52258	73.94369	0.31622	 	2.71987E21	 	1.00159E-21	 	13239.98859	26.63874	 
280.0	1.0	0.0	8.31102	7.10413	-8.17587	13.91807	15.25762	0.88822	1.12584	194.96898	176.65789	74.0731	0.31606	 	4.63014E21	 	5.8309E-22	 	13107.02114	26.59349	 
275.0	1.0	0.0	8.31287	7.10255	-8.19627	13.89705	15.1793	0.88474	1.13028	195.28559	176.79244	74.20233	0.3159	 	7.95891E21	 	3.36149E-22	 	12974.28025	26.54818	 
270.0	1.0	0.0	8.31471	7.10097	-8.21662	13.87603	15.10096	0.88121	1.1348	195.60163	176.92625	74.33137	0.31574	 	1.3818E22	 	1.9185E-22	 	12841.76627	26.5028	 
265.0	1.0	0.0	8.31655	7.0994	-8.2369	13.85503	15.02262	0.87765	1.1394	195.9171	177.0593	74.46022	0.31558	 	2.42375E22	 	1.08368E-22	 	12709.4796	26.45733	 
260.0	1.0	0.0	8.31839	7.09784	-8.25713	13.83403	14.94428	0.87406	1.14409	196.232	177.19161	74.58888	0.31542	 	4.29645E22	 	6.05657E-23	 	12577.42065	26.41179	 
255.0	1.0	0.0	8.32021	7.09628	-8.2773	13.81305	14.86592	0.87043	1.14886	196.54632	177.32318	74.71736	0.31527	 	7.69906E22	 	3.34816E-23	 	12445.58989	26.36615	 
250.0	1.0	0.0	8.32204	7.09472	-8.29741	13.79209	14.78756	0.86675	1.15373	196.86007	177.454	74.84565	0.31511	 	1.39511E23	 	1.83023E-23	 	12313.98779	26.32042	 
245.0	1.0	0.0	8.32386	7.09317	-8.31746	13.77113	14.7092	0.86304	1.15869	197.17324	177.58408	74.97375	0.31495	 	2.5571799999999997E23	 	9.88965E-24	 	12182.61493	26.27457	 
240.0	1.0	0.0	8.32567	7.09162	-8.33746	13.75019	14.63082	0.85929	1.16375	197.48585	177.71343	75.10167	0.31479	 	4.74289E23	 	5.28066E-24	 	12051.47187	26.22861	 
235.0	1.0	0.0	8.32749	7.09008	-8.3574	13.72926	14.55244	0.8555	1.1689	197.79788	177.84204	75.2294	0.31463	 	8.904379999999999E23	 	2.78532E-24	 	11920.55925	26.18252	 
230.0	1.0	0.0	8.32929	7.08854	-8.37728	13.70834	14.47405	0.85167	1.17416	198.10933	177.96991	75.35694	0.31447	 	1.69278E24	 	1.45072E-24	 	11789.87774	26.1363	 
225.0	1.0	0.0	8.3311	7.08701	-8.3971	13.68744	14.39565	0.8478	1.17952	198.42021	178.09705	75.4843	0.31431	 	3.25987E24	 	7.45842E-25	 	11659.42807	26.08993	 
220.0	1.0	0.0	8.33289	7.08548	-8.41686	13.66654	14.31725	0.84389	1.18499	198.73052	178.22346	75.61146	0.31416	 	6.36165E24	 	3.78352E-25	 	11529.21103	26.04341	 
215.0	1.0	0.0	8.33469	7.08396	-8.43657	13.64566	14.23883	0.83993	1.19057	199.04025	178.34913	75.73844	0.314	 	1.2586000000000002E25	 	1.89301E-25	 	11399.22745	25.99672	 
210.0	1.0	0.0	8.33648	7.08244	-8.45622	13.62479	14.16041	0.83593	1.19627	199.34942	178.47409	75.86523	0.31384	 	2.52545E25	 	9.33749E-26	 	11269.47822	25.94985	 
205.0	1.0	0.0	8.33826	7.08092	-8.47581	13.60393	14.08199	0.83189	1.20208	199.658	178.59831	75.99184	0.31368	 	5.141800000000001E25	 	4.53875E-26	 	11139.9643	25.90278	 
200.0	1.0	0.0	8.34004	7.07941	-8.49534	13.58309	14.00355	0.8278	1.20802	199.96602	178.72182	76.11825	0.31352	 	1.0627200000000001E26	 	2.17304E-26	 	11010.6867	25.85552	 
195.0	1.0	0.0	8.34182	7.0779	-8.51482	13.56226	13.92511	0.82367	1.21408	200.27346	178.8446	76.24448	0.31336	 	2.2307700000000002E26	 	1.02428E-26	 	10881.64653	25.80803	 
190.0	1.0	0.0	8.34359	7.0764	-8.53424	13.54144	13.84666	0.81949	1.22027	200.58033	178.96666	76.37052	0.31321	 	4.75823E26	 	4.75076E-27	 	10752.84492	25.76032	 
185.0	1.0	0.0	8.34535	7.0749	-8.5536	13.52063	13.7682	0.81526	1.2266	200.88662	179.088	76.49638	0.31305	 	1.03185E27	 	2.16709E-27	 	10624.28313	25.71236	 
180.0	1.0	0.0	8.34712	7.07341	-8.57291	13.49983	13.68973	0.81099	1.23307	201.19235	179.20863	76.62204	0.31289	 	2.27618E27	 	9.71676E-28	 	10495.96246	25.66413	 
175.0	1.0	0.0	8.34887	7.07192	-8.59216	13.47905	13.61126	0.80666	1.23968	201.49749	179.32854	76.74752	0.31273	 	5.11051E27	 	4.28002E-28	 	10367.88432	25.61563	 
170.0	1.0	0.0	8.35063	7.07043	-8.61135	13.45828	13.53277	0.80229	1.24644	201.80207	179.44775	76.87281	0.31257	 	1.1685500000000001E28	 	1.85093E-28	 	10240.05018	25.56683	 
165.0	1.0	0.0	8.35238	7.06895	-8.63048	13.43752	13.45428	0.79786	1.25335	202.10608	179.56624	76.99791	0.31241	 	2.72288E28	 	7.85382E-29	 	10112.46164	25.51771	 
160.0	1.0	0.0	8.35412	7.06748	-8.64956	13.41677	13.37578	0.79339	1.26042	202.40951	179.68402	77.12283	0.31225	 	6.4698E28	 	3.26764E-29	 	9985.12037	25.46826	 
155.0	1.0	0.0	8.35586	7.06601	-8.66858	13.39604	13.29727	0.78886	1.26765	202.71237	179.8011	77.24755	0.3121	 	1.5686700000000002E29	 	1.33214E-29	 	9858.02815	25.41844	 
150.0	1.0	0.0	8.35759	7.06454	-8.68754	13.37532	13.21876	0.78428	1.27506	203.01465	179.91747	77.37209	0.31194	 	3.8838600000000004E29	 	5.31762E-30	 	9731.18689	25.36825	 
145.0	1.0	0.0	8.35933	7.06308	-8.70645	13.35461	13.14023	0.77964	1.28264	203.31637	180.03314	77.49644	0.31178	 	9.826780000000001E29	 	2.07686E-30	 	9604.5986	25.31766	 
140.0	1.0	0.0	8.36105	7.06162	-8.7253	13.33391	13.0617	0.77495	1.2904	203.61751	180.14811	77.6206	0.31162	 	2.54283E30	 	7.93009E-31	 	9478.2654	25.26664	 
135.0	1.0	0.0	8.36277	7.06016	-8.74409	13.31322	12.98316	0.7702	1.29836	203.91809	180.26238	77.74458	0.31146	 	6.73501E30	 	2.9578E-31	 	9352.18959	25.21516	 
130.0	1.0	0.0	8.36449	7.05871	-8.76282	13.29255	12.9046	0.7654	1.30651	204.21809	180.37596	77.86836	0.3113	 	1.82748E31	 	1.07671E-31	 	9226.37355	25.16321	 
125.0	1.0	0.0	8.3662	7.05727	-8.7815	13.27189	12.82604	0.76054	1.31486	204.51752	180.48884	77.99196	0.31114	 	5.084589999999999E31	 	3.82188E-32	 	9100.81986	25.11074	 
120.0	1.0	0.0	8.36791	7.05583	-8.80013	13.25124	12.74748	0.75561	1.32343	204.81638	180.60103	78.11537	0.31099	 	1.45199E32	 	1.32155E-32	 	8975.53124	25.05772	 
115.0	1.0	0.0	8.36962	7.05439	-8.81869	13.2306	12.6689	0.75063	1.33221	205.11467	180.71253	78.2386	0.31083	 	4.2599999999999996E32	 	4.4471E-33	 	8850.51057	25.00413	 
110.0	1.0	0.0	8.37132	7.05296	-8.8372	13.20998	12.59031	0.74559	1.34122	205.41239	180.82334	78.36163	0.31067	 	1.28545E33	 	1.45478E-33	 	8725.7609	24.94993	 
105.0	1.0	0.0	8.37301	7.05153	-8.85565	13.18937	12.51172	0.74048	1.35048	205.70954	180.93346	78.48448	0.31051	 	3.99382E33	 	4.62129E-34	 	8601.28553	24.89508	 
100.0	1.0	0.0	8.3747	7.05011	-8.87405	13.16877	12.43311	0.73531	1.35997	206.00612	181.0429	78.60714	0.31035	 	1.27913E34	 	1.42383E-34	 	8477.08789	24.83953	 
95.0	1.0	0.0	8.37639	7.04869	-8.89239	13.14818	12.3545	0.73007	1.36973	206.30214	181.15166	78.72962	0.31019	 	4.22834E34	 	4.24954E-35	 	8353.17169	24.78324	 
90.0	1.0	0.0	8.37807	7.04728	-8.91067	13.1276	12.27587	0.72477	1.37975	206.59758	181.25974	78.85191	0.31004	 	1.44452E35	 	1.22701E-35	 	8229.54081	24.72618	 
85.0	1.0	0.0	8.37974	7.04587	-8.9289	13.10704	12.19724	0.7194	1.39005	206.89246	181.36714	78.97401	0.30988	 	5.107139999999999E35	 	3.42274E-36	 	8106.19945	24.66827	 
80.0	1.0	0.0	8.38142	7.04446	-8.94707	13.08649	12.1186	0.71396	1.40064	207.18677	181.47387	79.09592	0.30972	 	1.87138E36	 	9.21054E-37	 	7983.15201	24.60949	 
75.0	1.0	0.0	8.38308	7.04306	-8.96519	13.06595	12.03994	0.70845	1.41154	207.48052	181.57992	79.21765	0.30956	 	7.117759999999999E36	 	2.38731E-37	 	7860.40323	24.54976	 
70.0	1.0	0.0	8.38475	7.04166	-8.98324	13.04542	11.96128	0.70287	1.42275	207.7737	181.68531	79.33919	0.3094	 	2.81471E37	 	5.95027E-38	 	7737.95812	24.48902	 
65.0	1.0	0.0	8.38641	7.04027	-9.00125	13.02491	11.88261	0.69721	1.43429	208.06632	181.79002	79.46054	0.30924	 	1.15926E38	 	1.42369E-38	 	7615.82205	24.42722	 
60.0	1.0	0.0	8.38806	7.03888	-9.01919	13.00441	11.80393	0.69148	1.44617	208.35837	181.89407	79.58171	0.30908	 	4.98175E38	 	3.26396E-39	 	7494.00072	24.36427	 
55.0	1.0	0.0	8.38971	7.0375	-9.03708	12.98392	11.72524	0.68567	1.45842	208.64986	181.99746	79.70269	0.30893	 	2.23809E39	 	7.15618E-40	 	7372.5002	24.3001	 
50.0	1.0	0.0	8.39136	7.03612	-9.05492	12.96344	11.64653	0.67979	1.47105	208.94079	182.10018	79.82349	0.30877	 	1.05333E40	 	1.49735E-40	 	7251.32701	24.23464	 
45.0	1.0	0.0	8.393	7.03474	-9.0727	12.94297	11.56782	0.67382	1.48407	209.23116	182.20225	79.9441	0.30861	 	5.20473E40	 	2.98346E-41	 	7130.48808	24.16779	 
40.0	1.0	0.0	8.39463	7.03337	-9.09042	12.92252	11.4891	0.66778	1.4975	209.52097	182.30366	80.06453	0.30845	 	2.7063600000000002E41	 	5.64746E-42	 	7009.99084	24.09945	 
35.0	1.0	0.0	8.39626	7.032	-9.10809	12.90208	11.41037	0.66165	1.51137	209.81022	182.40442	80.18478	0.30829	 	1.4846E42	 	1.01307E-42	 	6889.84321	24.02953	 
30.0	1.0	0.0	8.39789	7.03064	-9.1257	12.88165	11.33162	0.65544	1.5257	210.09891	182.50452	80.30484	0.30813	 	8.614259999999999E42	 	1.71762E-43	 	6770.05369	23.9579	 
25.0	1.0	0.0	8.39951	7.02928	-9.14325	 	11.25287	0.64914	1.5405	210.38705	182.60398	80.42471	0.30798	 	5.301970000000001E43	 	2.74463E-44	 	6650.63136	 	 
