T (C)	Fraction solid (wt)-TOTAL	Fraction liquid (wt)-LIQUID	Density (g/(cm)^3)-TOTAL	Molar volume (cm^3)-TOTAL	Volume change (%)-  	Average expansion coeff. (10e-6 1/K)-  	Thermal conductivity (W/(m*K))-TOTAL	Electrical resistivity (10e-6 Ohm*m)-TOTAL	Electrical conductivity (10e6 1/(Ohm*m))-TOTAL	Young's modulus (GPa)-TOTAL	Bulk modulus (GPa)-TOTAL	Shear modulus(GPa)-TOTAL	Poisson's ratio-TOTAL	Liquid viscosity (mPa s)-  	Total viscosity (mPa s)-  	Liquid diffusivity (10e-9 (m^2)/s)-  	Total diffusivity (10e-9 (m^2)/s)-  	Surface Tension (mN/m)-  	Enthalpy (J/mole)-TOTAL	Specific heat (J/(mole K))-TOTAL	Latent heat (J/mole)-TOTAL
1400.0	0.0	1.0	7.56339	7.70647	0.0	24.32538	28.56385	1.43511	0.69681	0.0	126.8249	0.0	0.5	8.8496	8.8496	0.92278	0.92278	1873.86777	63433.422	 	0.0
1395.0	0.0	1.0	7.56728	7.70251	-0.0513779	24.27661	28.49653	1.4342	0.69725	0.0	127.00592	0.0	0.5	8.94576	8.94576	0.91013	0.91013	1875.9537	63224.824	41.7196	0.0
1390.0	0.0	1.0	7.57116	7.69857	-0.1026	24.22789	28.42921	1.43329	0.6977	0.0	127.18693	0.0	0.5	9.04355	9.04355	0.89759	0.89759	1878.04243	63016.722	41.6204	0.0
1385.0	0.0	1.0	7.57503	7.69463	-0.15367	24.17924	28.3619	1.43237	0.69814	0.0	127.36795	0.0	0.5	9.14301	9.14301	0.88516	0.88516	1880.13402	62809.112	41.522	0.0
1380.0	0.0	1.0	7.57889	7.69071	-0.20458	24.13065	28.29458	1.43145	0.69859	0.0	127.54896	0.0	0.5	9.24418	9.24418	0.87283	0.87283	1882.22853	62601.993	41.4238	0.0
1375.0	0.0	1.0	7.58275	7.6868	-0.25534	24.08212	28.22726	1.43052	0.69905	0.0	127.72998	0.0	0.5	9.34709	9.34709	0.86061	0.86061	1884.32603	62395.361	41.3264	0.0
1374.82	0.0	1.0	7.58289	7.68666	-0.25714	24.0804	28.22487	1.43049	0.69906	0.0	127.73642	0.0	0.5	9.35078	9.35078	0.86018	0.86018	1884.40071	62388.017	41.28626	0.0020
1370.0	0.1665	0.8335	7.60844	7.66086	-0.5919	23.25384	28.84298	1.39574	0.71647	0.0797686	126.63294	0.0270368	0.47519	9.52989	42.59496	0.84154	0.18828	1888.08782	59850.731	526.17645	2338.484
1365.0	0.3004	0.6996	7.6294	7.63986	-0.86444	22.59464	29.34356	1.36775	0.73113	0.85612	125.77452	0.29419	0.45503	9.71906	359.83441	0.82265	0.0222197	1891.89359	57774.883	415.1696	4208.668
1360.0	0.40547	0.59453	7.64628	7.62293	-1.08409	22.07576	29.73808	1.34549	0.74323	2.87281	125.13823	0.99815	0.43906	9.91184	1234.45361	0.80419	0.00645711	1895.68187	56112.243	332.528	5666.124
1355.0	0.48934	0.51066	7.66016	7.60905	-1.26412	21.66228	30.05159	1.32737	0.75337	6.15004	124.67398	2.15608	0.42621	10.10834	2763.04404	0.78614	0.00287603	1899.45182	54753.465	271.7556	6820.196
1350.0	0.55729	0.44271	7.67182	7.5974	-1.41532	21.32549	30.30107	1.3124	0.76196	10.42897	124.34306	3.68329	0.41571	10.30861	4927.33159	0.7685	0.00160781	1903.2035	53622.405	226.212	7747.026
1345.0	0.61306	0.38694	7.68177	7.58741	-1.54495	21.04608	30.49877	1.29988	0.7693	15.38027	124.11753	5.4655	0.40703	10.51281	7662.2341	0.75125	0.00103074	1906.93702	52664.898	191.5014	8500.775
1340.0	0.65935	0.34065	7.69041	7.57875	-1.65737	20.81253	30.65455	1.28928	0.77563	20.7106	123.97735	7.39782	0.39978	10.72099	10897.9559	0.73439	7.22464E-4	1910.652	51841.682	164.6432	9120.703
1335.0	0.69815	0.30185	7.69803	7.57109	-1.75676	20.61371	30.77581	1.28022	0.78112	26.18782	123.90581	9.39543	0.39365	10.93336	14573.27229	0.71789	5.38587E-4	1914.34888	51123.805	143.5754	9635.762
1330.0	0.73099	0.26901	7.70484	7.56421	-1.84598	20.44191	30.8686	1.2724	0.78592	31.64578	123.89034	11.39631	0.38842	11.14994	18643.19384	0.70176	4.19702E-4	1918.02802	50489.587	126.8436	10067.627
1325.0	0.759	0.241	7.711	7.55795	-1.92723	20.29129	30.93785	1.26559	0.79014	36.97478	123.9208	13.35865	0.38393	11.37093	23079.87903	0.68598	3.37964E-4	1921.68987	49922.566	113.4042	10432.758
1320.0	0.78309	0.21691	7.71663	7.55221	-2.0017	20.15872	30.98742	1.25961	0.79389	42.10034	123.99016	15.25337	0.38003	11.5964	27866.24043	0.67053	2.79039E-4	1925.33443	49410.08	102.4972	10743.815
1315.0	0.80393	0.19607	7.72183	7.54688	-2.07091	20.04008	31.02056	1.25432	0.79725	46.98464	124.09147	17.06503	0.37663	11.82653	33000.62577	0.65542	2.34885E-4	1928.96233	48942.278	93.5604	11010.647
1310.0	0.82207	0.17793	7.72668	7.54192	-2.13533	19.93418	31.03988	1.24959	0.80026	51.60564	124.22048	18.78411	0.37365	12.06141	38488.50796	0.64064	2.0076E-4	1932.57327	48511.412	86.1732	11240.999
1305.0	0.83797	0.16203	7.73124	7.53722	-2.19627	19.83741	31.04746	1.24534	0.80299	55.96074	124.37222	20.40855	0.37101	12.30126	44345.90147	0.62616	1.73693E-4	1936.16854	48111.329	80.0166	11441.023
1300.0	0.85198	0.14802	7.73555	7.53277	-2.25395	19.74929	31.04509	1.24149	0.80548	60.0515	124.54389	21.93795	0.36867	12.54621	50593.35782	0.61199	1.51762E-4	1939.74783	47737.095	74.8468	11615.65
1297.12	0.85923	0.14077	7.73794	7.5303	-2.28609	19.70137	31.03945	1.23944	0.80682	62.27482	124.65163	22.77058	0.36744	12.68993	54366.94035	0.60395	1.4097E-4	1941.80759	47532.313	 	11705.543
1295.0	0.86954	0.13046	7.74079	7.52737	-2.3241	19.62444	31.03837	1.23781	0.80788	65.52238	124.86058	23.98717	0.36578	12.77612	58590.54695	0.59907	1.30631E-4	1942.99663	47309.392	85.5406	11844.196
1290.0	0.88972	0.11028	7.74685	7.52111	-2.40524	19.46674	31.02352	1.23446	0.81007	72.2989	125.3318	26.53159	0.36251	12.98273	68516.69944	0.58765	1.1135E-4	1945.74165	46840.455	93.7874	12114.424
1285.0	0.90533	0.0946728	7.75213	7.51564	-2.4763	19.33716	30.99559	1.23162	0.81194	77.97552	125.77735	28.66876	0.35994	13.19354	78451.2742	0.57641	9.69384E-5	1948.43765	46434.354	81.2202	12322.261
1280.0	0.91772	0.082276	7.75688	7.51071	-2.54024	19.22731	30.95837	1.22914	0.81358	82.79128	126.20424	30.48573	0.35787	13.40872	88549.14322	0.56534	8.56083E-5	1951.09344	46072.373	72.3962	12486.42
1275.0	0.92779	0.0722064	7.76122	7.50617	-2.59915	19.13137	30.9144	1.22693	0.81505	86.93156	126.61667	32.05062	0.35616	13.6284	98947.8064	0.55444	7.63649E-5	1953.71636	45742.495	65.9756	12618.919
1270.0	0.93612	0.0638801	7.76527	7.50193	-2.65424	19.04591	30.86538	1.22491	0.81639	90.53395	127.01798	33.41424	0.35472	13.85285	109767.098	0.5437	6.86156E-5	1956.31143	45436.673	61.1644	12727.799
1265.0	0.94311	0.0568881	7.7691	7.49792	-2.70625	18.96888	30.81247	1.22303	0.81764	93.70303	127.41056	34.61535	0.35349	14.08197	121116.4596	0.53312	6.19844E-5	1958.8819	45149.336	57.4674	12818.633
1260.0	0.94906	0.0509404	7.77274	7.49409	-2.75589	18.89824	30.75656	1.22127	0.81882	96.5203	127.79569	35.68431	0.35242	14.31602	133100.3425	0.5227	5.62202E-5	1961.43147	44876.507	54.5658	12895.393
1255.0	0.95418	0.0458206	7.77624	7.4904	-2.80373	18.83239	30.69822	1.2196	0.81994	99.04821	128.17467	36.64443	0.35148	14.55526	145819.5076	0.51243	5.1149E-5	1963.96363	44615.28	52.2454	12960.983
1250.0	0.95863	0.0413716	7.77962	7.48685	-2.84989	18.77107	30.63795	1.21801	0.82101	101.33496	128.54848	37.51369	0.35064	14.79961	159374.9422	0.50232	4.66455E-5	1966.4787	44363.482	50.3596	13017.575
1245.0	0.96253	0.0374706	7.7829	7.48338	-2.8949	18.71267	30.57606	1.21646	0.82205	103.42047	128.91759	38.30712	0.34989	15.04945	173871.001	0.49236	4.26162E-5	1968.98091	44119.462	48.804	13066.818
1240.0	0.96598	0.0340241	7.78611	7.48	-2.93872	18.6574	30.51287	1.21497	0.82307	105.33468	129.2828	39.03588	0.3492	15.30484	189415.1025	0.48255	3.89901E-5	1971.46927	43881.938	47.5048	13109.991
1235.0	0.96904	0.0309564	7.78924	7.47669	-2.98166	18.60434	30.44855	1.21351	0.82405	107.10307	129.64443	39.70959	0.34858	15.56595	206120.9597	0.47289	3.57116E-5	1973.94653	43649.906	46.4064	13148.098
1230.0	0.97179	0.0282106	7.79232	7.47345	-3.02378	18.55332	30.38331	1.21209	0.82502	108.74679	130.00277	40.3362	0.34801	15.83305	224111.2284	0.46337	3.2736E-5	1976.41312	43422.564	45.4684	13181.935
1225.0	0.97426	0.0257372	7.79534	7.47025	-3.06521	18.504	30.31727	1.21069	0.82598	110.28249	130.35812	40.92197	0.34747	16.10626	243516.2567	0.45399	3.00271E-5	1978.86985	43199.27	44.6588	13212.147
1220.0	0.9765	0.0234981	7.79832	7.46711	-3.10606	18.45603	30.25053	1.20931	0.82692	111.72396	130.71072	41.47211	0.34698	16.38576	264475.9836	0.44476	2.75552E-5	1981.31808	42979.498	43.9544	13239.255
1215.0	0.97854	0.0214616	7.80127	7.464	-3.14637	18.40935	30.18321	1.20795	0.82785	113.08347	131.0608	41.99124	0.34651	16.67185	287145.0385	0.43566	2.52948E-5	1983.75746	42762.816	43.3364	13263.689
1210.0	0.9804	0.0196014	7.80418	7.46093	-3.1862	18.36375	30.11536	1.2066	0.82878	114.37041	131.40858	42.48291	0.34608	16.96467	311688.321	0.4267	2.32248E-5	1986.18879	42548.868	42.7896	13285.804
1205.0	0.9821	0.0178951	7.80706	7.45789	-3.22559	18.3191	30.04706	1.20527	0.82969	115.59385	131.75403	42.95055	0.34566	17.26448	338289.8913	0.41788	2.13263E-5	1988.61208	42337.353	42.303	13305.899
1200.0	0.98368	0.0163239	7.80991	7.45489	-3.2646	18.27528	29.97836	1.20394	0.83061	116.76049	132.09736	43.39669	0.34527	17.57146	367147.1552	0.40919	1.95836E-5	1991.02778	42128.019	41.8668	13324.224
1195.0	0.98513	0.0148716	7.81274	7.45191	-3.30328	18.23215	29.9093	1.20262	0.83151	117.87713	132.43868	43.8239	0.3449	17.88599	398480.3262	0.40063	1.79825E-5	1993.43563	41920.653	41.4732	13340.99
1190.0	0.98647	0.0135258	7.81555	7.44895	-3.34162	18.18969	29.83993	1.20132	0.83242	118.94838	132.77805	44.23392	0.34454	18.20811	432526.9483	0.3922	1.65106E-5	1995.83543	41715.069	41.1168	13356.381
1185.0	0.98773	0.0122735	7.81833	7.44602	-3.37967	18.14778	29.77026	1.20001	0.83332	119.97909	133.11559	44.62861	0.34419	18.53836	469550.5567	0.3839	1.51568E-5	1998.22717	41511.112	40.7914	13370.551
1183.79	0.98801	0.0119852	7.819	7.44532	-3.38881	18.13774	29.75342	1.1997	0.83354	120.22183	133.19665	44.72158	0.34411	18.61933	478958.2617	0.38191	1.48468E-5	1998.80472	41462.158	 	13373.783
1180.0	0.99398	0.0060217	7.8222	7.4419	-3.43317	18.05645	29.72723	1.19763	0.83498	122.56696	133.44537	45.62849	0.3431	18.89618	519629.8063	0.37534	1.36491E-5	1996.58089	41239.085	54.4054	13453.194
1175.0	1.0	0.0	7.826	7.43776	-3.4869	17.96358	29.68318	1.19528	0.83662	126.7904	133.77425	47.23813	0.34203	 	574789.3582	 	1.22968E-5	 	40970.832	53.6506	13532.465
1170.0	1.0	0.0	7.82866	7.43523	-3.51962	17.9372	29.60794	1.19418	0.8374	127.20832	134.09148	47.39899	0.34189	 	621925.5859	 	1.13256E-5	 	40798.2993	34.50654	 
1165.0	1.0	0.0	7.8313	7.43272	-3.55223	17.91096	29.5327	1.19307	0.83817	127.62578	134.40777	47.55969	0.34174	 	673296.377	 	1.04252E-5	 	40621.2756	35.40474	 
1160.0	1.0	0.0	7.83394	7.43021	-3.58476	17.88473	29.45746	1.19196	0.83895	128.04268	134.72289	47.72023	0.3416	 	729314.1426	 	9.591E-6	 	40444.57068	35.34098	 
1155.0	1.0	0.0	7.83658	7.42771	-3.61722	17.85853	29.38222	1.19085	0.83974	128.45904	135.03686	47.8806	0.34145	 	790434.7469	 	8.8185E-6	 	40268.18379	35.27738	 
1150.0	1.0	0.0	7.83922	7.42522	-3.6496	17.83233	29.30697	1.18972	0.84053	128.87485	135.34968	48.0408	0.34131	 	857162.1844	 	8.10353E-6	 	40092.11424	35.21391	 
1145.0	1.0	0.0	7.84185	7.42273	-3.6819	17.80616	29.23172	1.18859	0.84133	129.2901	135.66135	48.20082	0.34116	 	930054.0152	 	7.44219E-6	 	39916.36127	35.15059	 
1140.0	1.0	0.0	7.84447	7.42025	-3.71412	17.78	29.15647	1.18746	0.84213	129.70481	135.97187	48.36068	0.34102	 	1009727.455	 	6.83079E-6	 	39740.92419	35.08742	 
1135.0	1.0	0.0	7.84709	7.41777	-3.74627	17.75386	29.08122	1.18632	0.84294	130.11897	136.28125	48.52037	0.34087	 	1096866.199	 	6.26588E-6	 	39565.80226	35.02439	 
1130.0	1.0	0.0	7.84971	7.4153	-3.77835	17.72773	29.00596	1.18518	0.84376	130.53258	136.58948	48.67989	0.34072	 	1192228.084	 	5.74423E-6	 	39390.99475	34.9615	 
1125.0	1.0	0.0	7.85232	7.41283	-3.81034	17.70163	28.9307	1.18403	0.84458	130.94564	136.89658	48.83923	0.34058	 	1296653.678	 	5.2628E-6	 	39216.50094	34.89876	 
1120.0	1.0	0.0	7.85492	7.41037	-3.84226	17.67554	28.85544	1.18287	0.8454	131.35814	137.20254	48.99841	0.34043	 	1411075.941	 	4.81875E-6	 	39042.32012	34.83617	 
1115.0	1.0	0.0	7.85753	7.40792	-3.87411	17.64946	28.78017	1.18171	0.84623	131.7701	137.50737	49.15741	0.34029	 	1536531.078	 	4.40942E-6	 	38868.45156	34.77371	 
1110.0	1.0	0.0	7.86012	7.40547	-3.90588	17.6234	28.7049	1.18054	0.84707	132.18151	137.81107	49.31625	0.34014	 	1674170.752	 	4.03233E-6	 	38694.89452	34.71141	 
1105.0	1.0	0.0	7.86272	7.40303	-3.93757	17.59736	28.62963	1.17936	0.84792	132.59237	138.11364	49.47491	0.34	 	1825275.83	 	3.68515E-6	 	38521.64832	34.64924	 
1100.0	1.0	0.0	7.8653	7.40059	-3.96919	17.57134	28.55436	1.17818	0.84877	133.00267	138.41509	49.6334	0.33985	 	1991271.874	 	3.36569E-6	 	38348.71221	34.58722	 
1095.0	1.0	0.0	7.86789	7.39816	-4.00073	17.54533	28.47908	1.17699	0.84962	133.41243	138.71542	49.79172	0.3397	 	2173746.605	 	3.07193E-6	 	38176.08547	34.52535	 
1090.0	1.0	0.0	7.87047	7.39573	-4.03219	17.51934	28.4038	1.1758	0.85049	133.82163	139.01463	49.94987	0.33956	 	2374469.606	 	2.80197E-6	 	38003.76738	34.46362	 
1085.0	1.0	0.0	7.87304	7.39332	-4.06358	17.49337	28.32852	1.1746	0.85135	134.23029	139.31273	50.10785	0.33941	 	2595414.573	 	2.55404E-6	 	37831.75724	34.40203	 
1080.0	1.0	0.0	7.87561	7.3909	-4.09489	17.46741	28.25323	1.17339	0.85223	134.63839	139.60971	50.26566	0.33927	 	2838784.465	 	2.32648E-6	 	37660.05432	34.34058	 
1075.0	1.0	0.0	7.87818	7.38849	-4.12613	17.44147	28.17794	1.17218	0.85311	135.04594	139.90559	50.42329	0.33912	 	3107039.932	 	2.11777E-6	 	37488.6579	34.27928	 
1070.0	1.0	0.0	7.88074	7.38609	-4.15729	17.41555	28.10265	1.17096	0.854	135.45294	140.20036	50.58076	0.33898	 	3402931.512	 	1.92645E-6	 	37317.56727	34.21813	 
1065.0	1.0	0.0	7.8833	7.3837	-4.18838	17.38964	28.02735	1.16974	0.85489	135.85938	140.49402	50.73805	0.33883	 	3729536.084	 	1.7512E-6	 	37146.7817	34.15711	 
1060.0	1.0	0.0	7.88585	7.38131	-4.21939	17.36375	27.95205	1.16851	0.85579	136.26528	140.78659	50.89517	0.33869	 	4090298.203	 	1.59078E-6	 	36976.30049	34.09624	 
1055.0	1.0	0.0	7.8884	7.37892	-4.25033	17.33788	27.87675	1.16727	0.8567	136.67062	141.07806	51.05212	0.33854	 	4489076.994	 	1.44403E-6	 	36806.12291	34.03551	 
1050.0	1.0	0.0	7.89094	7.37655	-4.28119	17.31202	27.80144	1.16602	0.85761	137.07541	141.36843	51.20889	0.33839	 	4930199.404	 	1.30988E-6	 	36636.24827	33.97493	 
1045.0	1.0	0.0	7.89348	7.37417	-4.31197	17.28618	27.72614	1.16477	0.85854	137.47965	141.65771	51.3655	0.33825	 	5418520.713	 	1.18733E-6	 	36466.67583	33.91449	 
1040.0	1.0	0.0	7.89602	7.37181	-4.34268	17.26036	27.65082	1.16352	0.85946	137.88334	141.9459	51.52193	0.3381	 	5959493.371	 	1.07545E-6	 	36297.40488	33.85419	 
1035.0	1.0	0.0	7.89854	7.36944	-4.37332	17.23455	27.57551	1.16225	0.8604	138.28647	142.23301	51.67819	0.33796	 	6559245.346	 	9.73398E-7	 	36128.43472	33.79403	 
1030.0	1.0	0.0	7.90107	7.36709	-4.40388	17.20876	27.50019	1.16098	0.86134	138.68905	142.51903	51.83427	0.33781	 	7224669.405	 	8.80366E-7	 	35959.76463	33.73402	 
1025.0	1.0	0.0	7.90359	7.36474	-4.43437	17.18299	27.42487	1.1597	0.86229	139.09108	142.80397	51.99019	0.33767	 	7963524.908	 	7.95621E-7	 	35791.39389	33.67415	 
1020.0	1.0	0.0	7.90611	7.3624	-4.46478	17.15724	27.34954	1.15842	0.86325	139.49255	143.08783	52.14593	0.33752	 	8784554.006	 	7.18482E-7	 	35623.32182	33.61441	 
1015.0	1.0	0.0	7.90862	7.36006	-4.49511	17.1315	27.27421	1.15713	0.86421	139.89348	143.37061	52.3015	0.33738	 	9697614.365	 	6.48318E-7	 	35455.54767	33.55483	 
1010.0	1.0	0.0	7.91112	7.35773	-4.52538	17.10577	27.19888	1.15583	0.86518	140.29384	143.65233	52.45689	0.33723	 	1.071383092E7	 	5.84547E-7	 	35288.07075	33.49538	 
1005.0	1.0	0.0	7.91363	7.3554	-4.55556	17.08007	27.12354	1.15452	0.86616	140.69366	143.93297	52.61211	0.33708	 	1.184576957E7	 	5.2663E-7	 	35120.89037	33.43608	 
1000.0	1.0	0.0	7.91612	7.35308	-4.58568	17.05438	27.0482	1.15321	0.86715	141.09292	144.21254	52.76716	0.33694	 	1.310763608E7	 	4.74069E-7	 	34954.00577	33.37692	 
995.0	1.0	0.0	7.91862	7.35077	-4.61571	17.02871	26.97286	1.15189	0.86814	141.49162	144.49105	52.92204	0.33679	 	1.451550419E7	 	4.26408E-7	 	34787.4163	33.3179	 
990.0	1.0	0.0	7.92111	7.34846	-4.64568	17.00305	26.89752	1.15056	0.86914	141.88977	144.7685	53.07674	0.33665	 	1.608757733E7	 	3.83222E-7	 	34621.12122	33.25902	 
985.0	1.0	0.0	7.92359	7.34615	-4.67557	16.97742	26.82217	1.14922	0.87015	142.28737	145.04489	53.23126	0.3365	 	1.784448931E7	 	3.44124E-7	 	34455.11983	33.20028	 
980.0	1.0	0.0	7.92607	7.34385	-4.70538	16.95179	26.74681	1.14788	0.87117	142.68441	145.32022	53.38562	0.33636	 	1.980964998E7	 	3.08754E-7	 	34289.41142	33.14168	 
975.0	1.0	0.0	7.92854	7.34156	-4.73512	16.92619	26.67145	1.14653	0.8722	143.0809	145.5945	53.5398	0.33621	 	2.200964309E7	 	2.76784E-7	 	34123.9953	33.08322	 
970.0	1.0	0.0	7.93101	7.33928	-4.76479	16.9006	26.59609	1.14517	0.87323	143.47684	145.86772	53.6938	0.33607	 	2.447468459E7	 	2.47909E-7	 	33958.87076	33.02491	 
965.0	1.0	0.0	7.93348	7.337	-4.79438	16.87503	26.52073	1.14381	0.87427	143.87221	146.1399	53.84763	0.33592	 	2.723915119E7	 	2.21854E-7	 	33794.03709	32.96673	 
960.0	1.0	0.0	7.93594	7.33472	-4.8239	16.84948	26.44536	1.14244	0.87532	144.26704	146.41103	54.00129	0.33577	 	3.034219038E7	 	1.98361E-7	 	33629.4936	32.9087	 
955.0	1.0	0.0	7.93839	7.33245	-4.85334	16.82394	26.36999	1.14106	0.87638	144.6613	146.68112	54.15477	0.33563	 	3.382842539E7	 	1.77197E-7	 	33465.23958	32.8508	 
950.0	1.0	0.0	7.94085	7.33019	-4.88272	16.79842	26.29461	1.13967	0.87745	145.05502	146.95016	54.30808	0.33548	 	3.774877052E7	 	1.58148E-7	 	33301.27433	32.79305	 
945.0	1.0	0.0	7.94329	7.32793	-4.91201	16.77291	26.21924	1.13827	0.87852	145.44817	147.21817	54.46122	0.33534	 	4.216137523E7	 	1.41017E-7	 	33137.59714	32.73544	 
940.0	1.0	0.0	7.94573	7.32568	-4.94124	16.74743	26.14385	1.13687	0.87961	145.84077	147.48514	54.61418	0.33519	 	4.713271836E7	 	1.25626E-7	 	32974.20733	32.67796	 
935.0	1.0	0.0	7.94817	7.32343	-4.97039	16.72196	26.06847	1.13546	0.8807	146.23282	147.75108	54.76696	0.33505	 	5.273887781E7	 	1.11809E-7	 	32811.1042	32.62063	 
930.0	1.0	0.0	7.9506	7.32119	-4.99946	16.6965	25.99307	1.13404	0.8818	146.6243	148.01598	54.91957	0.3349	 	5.906700529E7	 	9.94172E-8	 	32648.28704	32.56343	 
925.0	1.0	0.0	7.95303	7.31896	-5.02846	16.67106	25.91768	1.13261	0.88291	147.01523	148.27986	55.072	0.33475	 	6.621704119E7	 	8.83137E-8	 	32485.75517	32.50637	 
920.0	1.0	0.0	7.95545	7.31673	-5.05739	16.64564	25.84228	1.13118	0.88404	147.40561	148.54271	55.22426	0.33461	 	7.430371089E7	 	7.83739E-8	 	32323.50787	32.44946	 
915.0	1.0	0.0	7.95787	7.3145	-5.08625	16.62024	25.76688	1.12973	0.88517	147.79543	148.80454	55.37634	0.33446	 	8.345885109E7	 	6.94841E-8	 	32161.54447	32.39268	 
910.0	1.0	0.0	7.96029	7.31229	-5.11503	16.59485	25.69147	1.12828	0.8863	148.18469	149.06535	55.52825	0.33432	 	9.383412411E7	 	6.15412E-8	 	31999.86428	32.33604	 
905.0	1.0	0.0	7.9627	7.31007	-5.14374	16.56948	25.61606	1.12682	0.88745	148.57339	149.32514	55.67998	0.33417	 	1.056041881E8	 	5.4451E-8	 	31838.46658	32.27954	 
900.0	1.0	0.0	7.9651	7.30787	-5.17238	16.54413	25.54065	1.12535	0.88861	148.96154	149.58392	55.83154	0.33403	 	1.189704041E8	 	4.81284E-8	 	31677.35069	32.22318	 
895.0	1.0	0.0	7.9675	7.30566	-5.20094	16.51879	25.46523	1.12387	0.88978	149.34912	149.84168	55.98292	0.33388	 	1.341651767E8	 	4.24958E-8	 	31516.51593	32.16695	 
890.0	1.0	0.0	7.9699	7.30347	-5.22943	16.49348	25.38981	1.12239	0.89096	149.73615	150.09843	56.13412	0.33374	 	1.514570402E8	 	3.74829E-8	 	31355.9616	32.11087	 
885.0	1.0	0.0	7.97229	7.30128	-5.25785	16.46817	25.31438	1.12089	0.89215	150.12263	150.35417	56.28515	0.33359	 	1.711566295E8	 	3.30261E-8	 	31195.68702	32.05492	 
880.0	1.0	0.0	7.97467	7.29909	-5.28619	16.44289	25.23895	1.11939	0.89335	150.50854	150.6089	56.436	0.33344	 	1.936236936E8	 	2.90679E-8	 	31035.69149	31.99911	 
875.0	1.0	0.0	7.97705	7.29692	-5.31446	16.41762	25.16352	1.11788	0.89455	150.8939	150.86264	56.58668	0.3333	 	2.192753468E8	 	2.55562E-8	 	30875.97433	31.94343	 
870.0	1.0	0.0	7.97943	7.29474	-5.34266	16.39236	25.08808	1.11635	0.89577	151.27869	151.11537	56.73718	0.33315	 	2.485957876E8	 	2.24438E-8	 	30716.53486	31.88789	 
865.0	1.0	0.0	7.9818	7.29258	-5.37079	16.36713	25.01263	1.11482	0.897	151.66293	151.3671	56.8875	0.33301	 	2.821477597E8	 	1.96884E-8	 	30557.37237	31.8325	 
860.0	1.0	0.0	7.98417	7.29041	-5.39884	16.34191	24.93719	1.11328	0.89824	152.04661	151.61784	57.03764	0.33286	 	3.205860853E8	 	1.72516E-8	 	30398.48621	31.77723	 
855.0	1.0	0.0	7.98653	7.28826	-5.42682	16.31671	24.86173	1.11174	0.89949	152.42973	151.86758	57.18761	0.33272	 	3.646736662E8	 	1.5099E-8	 	30239.87569	31.72211	 
850.0	1.0	0.0	7.98889	7.28611	-5.45473	16.29152	24.78628	1.11018	0.90076	152.81229	152.11633	57.3374	0.33257	 	4.153004267E8	 	1.31996E-8	 	30081.54012	31.66711	 
845.0	1.0	0.0	7.99124	7.28396	-5.48256	16.26635	24.71082	1.10861	0.90203	153.19429	152.36409	57.48701	0.33243	 	4.735057687E8	 	1.15255E-8	 	29926.63736	30.98055	 
840.0	1.0	0.0	7.99359	7.28182	-5.51033	16.2412	24.63535	1.10703	0.90331	153.57574	152.61087	57.63645	0.33228	 	5.405052275E8	 	1.00517E-8	 	29768.84419	31.55863	 
835.0	1.0	0.0	7.99593	7.27969	-5.53802	16.21607	24.55988	1.10545	0.90461	153.95662	152.85666	57.78571	0.33213	 	6.177221532E8	 	8.75572E-9	 	29611.32394	31.50405	 
830.0	1.0	0.0	7.99827	7.27756	-5.56564	16.19095	24.48441	1.10385	0.90592	154.33694	153.10147	57.93479	0.33199	 	7.068254214E8	 	7.61744E-9	 	29454.07595	31.4496	 
825.0	1.0	0.0	8.0006	7.27544	-5.59318	16.16585	24.40893	1.10225	0.90724	154.7167	153.3453	58.08369	0.33184	 	8.097743794E8	 	6.61888E-9	 	29297.09954	31.39528	 
820.0	1.0	0.0	8.00293	7.27332	-5.62066	16.14076	24.33345	1.10063	0.90857	155.0959	153.58815	58.23242	0.3317	 	9.288724932E8	 	5.74395E-9	 	29140.39403	31.3411	 
815.0	1.0	0.0	8.00526	7.27121	-5.64806	16.11569	24.25796	1.09901	0.90991	155.47454	153.83003	58.38097	0.33155	 	1.06683147E9	 	4.97828E-9	 	28983.95876	31.28705	 
810.0	1.0	0.0	8.00758	7.2691	-5.67539	16.09064	24.18247	1.09737	0.91127	155.85262	154.07093	58.52934	0.33141	 	1.226848014E9	 	4.30908E-9	 	28827.79305	31.23314	 
805.0	1.0	0.0	8.00989	7.267	-5.70265	16.06561	24.10697	1.09573	0.91264	156.23014	154.31087	58.67753	0.33126	 	1.412695835E9	 	3.72492E-9	 	28671.89623	31.17936	 
800.0	1.0	0.0	8.0122	7.26491	-5.72984	16.04059	24.03147	1.09407	0.91402	156.6071	154.54984	58.82554	0.33111	 	1.628836108E9	 	3.21566E-9	 	28516.26763	31.12572	 
795.0	1.0	0.0	8.01451	7.26282	-5.75695	16.01559	23.95597	1.09241	0.91541	156.98349	154.78784	58.97338	0.33097	 	1.880550288E9	 	2.77226E-9	 	28360.90659	31.07221	 
790.0	1.0	0.0	8.01681	7.26073	-5.784	15.99061	23.88046	1.09073	0.91682	157.35933	155.02488	59.12103	0.33082	 	2.174100023E9	 	2.38672E-9	 	28205.81245	31.01883	 
785.0	1.0	0.0	8.0191	7.25865	-5.81097	15.96564	23.80494	1.08905	0.91823	157.7346	155.26096	59.26851	0.33068	 	2.516920032E9	 	2.05194E-9	 	28050.98453	30.96558	 
780.0	1.0	0.0	8.02139	7.25658	-5.83787	15.94069	23.72942	1.08735	0.91967	158.10931	155.49608	59.41581	0.33053	 	2.917851065E9	 	1.76163E-9	 	27896.42217	30.91247	 
775.0	1.0	0.0	8.02368	7.25451	-5.8647	15.91575	23.6539	1.08564	0.92111	158.48346	155.73024	59.56293	0.33039	 	3.387421748E9	 	1.51022E-9	 	27742.12471	30.85949	 
770.0	1.0	0.0	8.02596	7.25245	-5.89145	15.89084	23.57837	1.08392	0.92257	158.85704	155.96345	59.70987	0.33024	 	3.938190107E9	 	1.29282E-9	 	27588.0915	30.80664	 
765.0	1.0	0.0	8.02824	7.25039	-5.91814	15.86594	23.50284	1.0822	0.92405	159.23007	156.1957	59.85663	0.3301	 	4.585158077E9	 	1.10508E-9	 	27434.32188	30.75392	 
760.0	1.0	0.0	8.03051	7.24834	-5.94476	15.84105	23.4273	1.08046	0.92553	159.60253	156.42701	60.00321	0.32995	 	5.346275441E9	 	9.43189E-10	 	27280.81519	30.70134	 
755.0	1.0	0.0	8.03278	7.2463	-5.9713	15.81619	23.35175	1.07871	0.92704	159.97442	156.65737	60.14961	0.3298	 	6.243053489E9	 	8.03797E-10	 	27127.57077	30.64888	 
750.0	1.0	0.0	8.03504	7.24426	-5.99777	15.79134	23.2762	1.07694	0.92855	160.34576	156.88679	60.29583	0.32966	 	7.301313584E9	 	6.83951E-10	 	26974.58797	30.59656	 
745.0	1.0	0.0	8.0373	7.24222	-6.02417	15.7665	23.20065	1.07517	0.93008	160.71653	157.11526	60.44187	0.32951	 	8.552101834E9	 	5.81066E-10	 	26821.86616	30.54436	 
740.0	1.0	0.0	8.03955	7.24019	-6.05051	15.74169	23.12509	1.07339	0.93163	161.08673	157.34279	60.58773	0.32937	 	1.00328E10	 	4.92876E-10	 	26669.40466	30.4923	 
735.0	1.0	0.0	8.0418	7.23817	-6.07677	15.71689	23.04953	1.07159	0.93319	161.45638	157.56938	60.73342	0.32922	 	1.1788499999999998E10	 	4.17399E-10	 	26517.20284	30.44036	 
730.0	1.0	0.0	8.04404	7.23615	-6.10295	15.6921	22.97396	1.06978	0.93477	161.82545	157.79504	60.87892	0.32908	 	1.3873799999999998E10	 	3.52904E-10	 	26365.26005	30.38856	 
725.0	1.0	0.0	8.04628	7.23414	-6.12907	15.66734	22.89838	1.06797	0.93636	162.19397	158.01976	61.02424	0.32893	 	1.6354599999999998E10	 	2.97881E-10	 	26213.57564	30.33688	 
720.0	1.0	0.0	8.04851	7.23213	-6.15512	15.64259	22.8228	1.06613	0.93797	162.56192	158.24355	61.16938	0.32879	 	1.9311E10	 	2.51014E-10	 	26062.14898	30.28533	 
715.0	1.0	0.0	8.05074	7.23013	-6.1811	15.61786	22.74722	1.06429	0.93959	162.9293	158.46641	61.31434	0.32864	 	2.28401E10	 	2.1116E-10	 	25910.97943	30.23391	 
710.0	1.0	0.0	8.05296	7.22813	-6.207	15.59314	22.67163	1.06244	0.94123	163.29612	158.68835	61.45912	0.32849	 	2.7060399999999996E10	 	1.77326E-10	 	25760.06635	30.18262	 
705.0	1.0	0.0	8.05518	7.22614	-6.23284	15.56844	22.59603	1.06057	0.94289	163.66238	158.90935	61.60372	0.32835	 	3.2115999999999996E10	 	1.48652E-10	 	25609.40909	30.13145	 
700.0	1.0	0.0	8.0574	7.22416	-6.25861	15.54376	22.52043	1.05869	0.94456	164.02807	159.12944	61.74813	0.3282	 	3.81834E10	 	1.24392E-10	 	25459.00705	30.08041	 
695.0	1.0	0.0	8.05961	7.22218	-6.2843	15.51909	22.44483	1.0568	0.94625	164.3932	159.3486	61.89237	0.32806	 	4.54782E10	 	1.03902E-10	 	25308.85957	30.0295	 
690.0	1.0	0.0	8.06181	7.2202	-6.30992	15.49445	22.36922	1.05489	0.94796	164.75775	159.56685	62.03642	0.32791	 	5.426509999999999E10	 	8.66283E-11	 	25158.96602	29.97871	 
685.0	1.0	0.0	8.06401	7.21823	-6.33548	15.46981	22.2936	1.05298	0.94969	165.12175	159.78418	62.1803	0.32777	 	6.486919999999999E10	 	7.20911E-11	 	25009.32581	29.92804	 
680.0	1.0	0.0	8.0662	7.21627	-6.36096	15.4452	22.21798	1.05105	0.95143	165.48518	160.00059	62.32399	0.32762	 	7.76909E10	 	5.98795E-11	 	24859.93827	29.87751	 
675.0	1.0	0.0	8.06839	7.21431	-6.38638	15.4206	22.14235	1.04911	0.95319	165.84804	160.21609	62.4675	0.32747	 	9.3224E10	 	4.96405E-11	 	24710.80281	29.82709	 
670.0	1.0	0.0	8.07058	7.21236	-6.41172	15.39602	22.06672	1.04715	0.95497	166.21033	160.43068	62.61083	0.32733	 	1.12079E11	 	4.10718E-11	 	24561.91879	29.7768	 
665.0	1.0	0.0	8.07276	7.21041	-6.437	15.37145	21.99108	1.04518	0.95677	166.57206	160.64437	62.75397	0.32718	 	1.35012E11	 	3.39145E-11	 	24413.28561	29.72664	 
660.0	1.0	0.0	8.07493	7.20847	-6.4622	15.34691	21.91543	1.0432	0.95859	166.93322	160.85714	62.89693	0.32704	 	1.62963E11	 	2.79479E-11	 	24264.90265	29.67659	 
655.0	1.0	0.0	8.07711	7.20653	-6.48734	15.32237	21.83978	1.0412	0.96043	167.29382	161.06901	63.03972	0.32689	 	1.971E11	 	2.29837E-11	 	24116.76929	29.62667	 
650.0	1.0	0.0	8.07927	7.2046	-6.5124	15.29786	21.76413	1.0392	0.96228	167.65384	161.27998	63.18232	0.32675	 	2.38878E11	 	1.88618E-11	 	23968.88494	29.57687	 
645.0	1.0	0.0	8.08143	7.20267	-6.5374	15.27336	21.68847	1.03717	0.96416	168.0133	161.49005	63.32473	0.3266	 	2.9012E11	 	1.54463E-11	 	23821.24897	29.52719	 
640.0	1.0	0.0	8.08359	7.20075	-6.56232	15.24888	21.6128	1.03514	0.96606	168.37219	161.69923	63.46697	0.32646	 	3.53103E11	 	1.2622E-11	 	23673.8608	29.47763	 
635.0	1.0	0.0	8.08574	7.19883	-6.58718	15.22442	21.53713	1.03308	0.96797	168.73052	161.9075	63.60902	0.32631	 	4.30691E11	 	1.02915E-11	 	23526.71983	29.4282	 
630.0	1.0	0.0	8.08788	7.19692	-6.61196	15.19997	21.46145	1.03102	0.96991	169.08828	162.11489	63.75088	0.32616	 	5.26484E11	 	8.37263E-12	 	23379.82544	29.37888	 
625.0	1.0	0.0	8.09003	7.19502	-6.63668	15.17554	21.38576	1.02894	0.97187	169.44546	162.32138	63.89257	0.32602	 	6.45023E11	 	6.79611E-12	 	23233.17706	29.32968	 
620.0	1.0	0.0	8.09216	7.19312	-6.66133	15.15113	21.31007	1.02685	0.97386	169.80208	162.52698	64.03407	0.32587	 	7.92051E11	 	5.50374E-12	 	23086.77409	29.28059	 
615.0	1.0	0.0	8.09429	7.19123	-6.68591	15.12673	21.23438	1.02474	0.97586	170.15813	162.7317	64.17539	0.32573	 	9.74843E11	 	4.4467E-12	 	22940.61595	29.23163	 
610.0	1.0	0.0	8.09642	7.18934	-6.71042	15.10235	21.15867	1.02261	0.97789	170.51362	162.93552	64.31652	0.32558	 	1.20265E12	 	3.58413E-12	 	22794.70204	29.18278	 
605.0	1.0	0.0	8.09854	7.18745	-6.73486	15.07798	21.08296	1.02048	0.97993	170.86853	163.13847	64.45748	0.32544	 	1.48723E12	 	2.88188E-12	 	22649.03179	29.13405	 
600.0	1.0	0.0	8.10066	7.18558	-6.75923	15.05364	21.00725	1.01832	0.98201	171.22287	163.34053	64.59824	0.32529	 	1.84365E12	 	2.31152E-12	 	22503.60462	29.08543	 
595.0	1.0	0.0	8.10277	7.1837	-6.78353	15.02931	20.93153	1.01615	0.9841	171.57665	163.54172	64.73883	0.32514	 	2.29113E12	 	1.8494E-12	 	22358.41998	29.03693	 
590.0	1.0	0.0	8.10488	7.18184	-6.80777	15.00499	20.8558	1.01397	0.98622	171.92985	163.74203	64.87923	0.325	 	2.85441E12	 	1.4759E-12	 	22213.47727	28.98854	 
585.0	1.0	0.0	8.10698	7.17997	-6.83193	14.9807	20.78007	1.01177	0.98837	172.28249	163.94146	65.01944	0.32485	 	3.56529E12	 	1.17478E-12	 	22068.77593	28.94027	 
580.0	1.0	0.0	8.10908	7.17812	-6.85603	14.95642	20.70433	1.00956	0.99053	172.63455	164.14002	65.15947	0.32471	 	4.46483E12	 	9.32625E-13	 	21924.31541	28.8921	 
575.0	1.0	0.0	8.11117	7.17626	-6.88005	14.93216	20.62858	1.00732	0.99273	172.98605	164.3377	65.29932	0.32456	 	5.60619E12	 	7.384E-13	 	21780.09514	28.84405	 
570.0	1.0	0.0	8.11326	7.17442	-6.90401	14.90791	20.55283	1.00508	0.99495	173.33697	164.53452	65.43898	0.32442	 	7.05834E12	 	5.83027E-13	 	21636.11458	28.79611	 
565.0	1.0	0.0	8.11534	7.17258	-6.9279	14.88368	20.47707	1.00281	0.99719	173.68733	164.73047	65.57846	0.32427	 	8.9111E12	 	4.59068E-13	 	21492.37318	28.74828	 
560.0	1.0	0.0	8.11742	7.17074	-6.95172	14.85947	20.40131	1.00053	0.99947	174.03711	164.92555	65.71775	0.32413	 	1.12817E13	 	3.60442E-13	 	21348.87039	28.70056	 
555.0	1.0	0.0	8.11949	7.16891	-6.97548	14.83527	20.32553	0.99824	1.00177	174.38632	165.11977	65.85686	0.32398	 	1.43237E13	 	2.82189E-13	 	21205.60567	28.65294	 
550.0	1.0	0.0	8.12156	7.16709	-6.99916	14.81109	20.24975	0.99592	1.00409	174.73496	165.31313	65.99578	0.32383	 	1.82388E13	 	2.20277E-13	 	21062.57848	28.60544	 
545.0	1.0	0.0	8.12362	7.16527	-7.02278	14.78693	20.17397	0.99359	1.00645	175.08303	165.50563	66.13452	0.32369	 	2.32926E13	 	1.71436E-13	 	20919.7883	28.55804	 
540.0	1.0	0.0	8.12568	7.16345	-7.04632	14.76279	20.09818	0.99124	1.00883	175.43053	165.69727	66.27307	0.32354	 	2.98365E13	 	1.33018E-13	 	20777.2346	28.51074	 
535.0	1.0	0.0	8.12773	7.16164	-7.0698	14.73866	20.02238	0.98888	1.01125	175.77746	165.88806	66.41144	0.3234	 	3.83361E13	 	1.02889E-13	 	20634.91687	28.46355	 
530.0	1.0	0.0	8.12978	7.15984	-7.09322	14.71454	19.94657	0.98649	1.01369	176.12381	166.07799	66.54962	0.32325	 	4.94109E13	 	7.93342E-14	 	20492.83458	28.41646	 
525.0	1.0	0.0	8.13182	7.15804	-7.11656	14.69045	19.87076	0.98409	1.01616	176.4696	166.26707	66.68761	0.32311	 	6.38879E13	 	6.09751E-14	 	20350.98723	28.36947	 
520.0	1.0	0.0	8.13386	7.15624	-7.13984	14.66637	19.79494	0.98167	1.01867	176.81481	166.4553	66.82542	0.32296	 	8.28747E13	 	4.67111E-14	 	20209.37432	28.32258	 
515.0	1.0	0.0	8.13589	7.15446	-7.16304	14.64231	19.71912	0.97924	1.0212	177.15944	166.64269	66.96304	0.32282	 	1.0786E14	 	3.56646E-14	 	20067.99532	28.2758	 
510.0	1.0	0.0	8.13792	7.15267	-7.18618	14.61826	19.64329	0.97678	1.02377	177.50351	166.82922	67.10048	0.32267	 	1.4085E14	 	2.71378E-14	 	19926.84967	28.22913	 
505.0	1.0	0.0	8.13995	7.15089	-7.20926	14.59424	19.56745	0.97431	1.02637	177.847	167.01491	67.23773	0.32252	 	1.84563E14	 	2.05781E-14	 	19785.93694	28.18255	 
500.0	1.0	0.0	8.14196	7.14912	-7.23226	14.57023	19.4916	0.97181	1.02901	178.18992	167.19976	67.37479	0.32238	 	2.42689E14	 	1.55489E-14	 	19645.25662	28.13606	 
495.0	1.0	0.0	8.14398	7.14735	-7.2552	14.54623	19.41575	0.9693	1.03167	178.53227	167.38377	67.51167	0.32223	 	3.20261E14	 	1.17066E-14	 	19504.80826	28.08967	 
490.0	1.0	0.0	8.14599	7.14559	-7.27807	14.52225	19.33988	0.96677	1.03437	178.87404	167.56694	67.64836	0.32209	 	4.24166E14	 	8.78134E-15	 	19364.59141	28.04337	 
485.0	1.0	0.0	8.14799	7.14383	-7.30087	14.49829	19.26402	0.96422	1.03711	179.21524	167.74928	67.78487	0.32194	 	5.63868E14	 	6.56243E-15	 	19224.60559	27.99716	 
480.0	1.0	0.0	8.14999	7.14208	-7.3236	14.47435	19.18814	0.96164	1.03989	179.55586	167.93078	67.92118	0.3218	 	7.52421E14	 	4.88548E-15	 	19084.85038	27.95104	 
475.0	1.0	0.0	8.15198	7.14034	-7.34627	14.45042	19.11226	0.95905	1.04269	179.89592	168.11144	68.05731	0.32165	 	1.0079E15	 	3.6229E-15	 	18945.32533	27.90501	 
470.0	1.0	0.0	8.15397	7.13859	-7.36887	14.42651	19.03637	0.95644	1.04554	180.23539	168.29128	68.19326	0.3215	 	1.35545E15	 	2.67595E-15	 	18806.03001	27.85906	 
465.0	1.0	0.0	8.15596	7.13686	-7.3914	14.40262	18.96047	0.95381	1.04843	180.5743	168.47028	68.32901	0.32136	 	1.83018E15	 	1.96851E-15	 	18666.964	27.8132	 
460.0	1.0	0.0	8.15793	7.13513	-7.41387	14.37874	18.88457	0.95116	1.05135	180.91262	168.64846	68.46458	0.32121	 	2.48132E15	 	1.44211E-15	 	18528.12688	27.76742	 
455.0	1.0	0.0	8.15991	7.1334	-7.43627	14.35488	18.80865	0.94848	1.05432	181.25038	168.82582	68.59996	0.32107	 	3.3782E15	 	1.05201E-15	 	18389.51825	27.72173	 
450.0	1.0	0.0	8.16188	7.13168	-7.4586	14.33103	18.73273	0.94579	1.05732	181.58756	169.00235	68.73515	0.32092	 	4.61894E15	 	7.6414E-16	 	18251.13772	27.67611	 
445.0	1.0	0.0	8.16384	7.12996	-7.48086	14.30721	18.65681	0.94307	1.06037	181.92416	169.17806	68.87016	0.32078	 	6.34294E15	 	5.526E-16	 	18112.98488	27.63057	 
440.0	1.0	0.0	8.1658	7.12825	-7.50306	14.2834	18.58087	0.94033	1.06345	182.26019	169.35294	69.00497	0.32063	 	8.74925E15	 	3.9783E-16	 	17975.05937	27.5851	 
435.0	1.0	0.0	8.16776	7.12655	-7.52519	14.2596	18.50493	0.93757	1.06659	182.59564	169.52701	69.1396	0.32049	 	1.21234E16	 	2.85095E-16	 	17837.36082	27.53971	 
430.0	1.0	0.0	8.1697	7.12485	-7.54726	14.23583	18.42898	0.93479	1.06976	182.93052	169.70027	69.27404	0.32034	 	1.6876800000000002E16	 	2.0335E-16	 	17699.88886	27.49439	 
425.0	1.0	0.0	8.17165	7.12315	-7.56925	14.21207	18.35302	0.93198	1.07298	183.26482	169.87271	69.40829	0.32019	 	2.36056E16	 	1.44351E-16	 	17562.64316	27.44914	 
420.0	1.0	0.0	8.17359	7.12146	-7.59119	14.18833	18.27705	0.92915	1.07625	183.59855	170.04434	69.54236	0.32005	 	3.3177300000000004E16	 	1.0197E-16	 	17425.62337	27.40396	 
415.0	1.0	0.0	8.17552	7.11978	-7.61305	14.1646	18.20108	0.9263	1.07956	183.9317	170.21515	69.67623	0.3199	 	4.68616E16	 	7.16726E-17	 	17288.82916	27.35884	 
410.0	1.0	0.0	8.17745	7.1181	-7.63485	14.14089	18.1251	0.92343	1.08292	184.26427	170.38516	69.80992	0.31976	 	6.6525400000000008E16	 	5.01205E-17	 	17152.26023	27.31379	 
405.0	1.0	0.0	8.17938	7.11642	-7.65658	14.1172	18.04911	0.92053	1.08634	184.59627	170.55436	69.94342	0.31961	 	9.49297E16	 	3.48667E-17	 	17015.91628	27.26879	 
400.0	1.0	0.0	8.1813	7.11475	-7.67825	14.09352	17.97311	0.9176	1.0898	184.92769	170.72275	70.07672	0.31947	 	1.36179E17	 	2.41262E-17	 	16879.797	27.22386	 
395.0	1.0	0.0	8.18321	7.11309	-7.69984	14.06986	17.8971	0.91466	1.09331	185.25854	170.89035	70.20984	0.31932	 	1.9641E17	 	1.66034E-17	 	16743.90212	27.17897	 
390.0	1.0	0.0	8.18512	7.11143	-7.72138	14.04622	17.82108	0.91168	1.09687	185.5888	171.05714	70.34277	0.31917	 	2.8485E17	 	1.13627E-17	 	16608.23139	27.13415	 
385.0	1.0	0.0	8.18702	7.10977	-7.74284	14.02259	17.74506	0.90869	1.10049	185.9185	171.22313	70.47551	0.31903	 	4.15453E17	 	7.73196E-18	 	16472.78455	27.08937	 
380.0	1.0	0.0	8.18892	7.10812	-7.76425	13.99899	17.66903	0.90566	1.10416	186.24761	171.38832	70.60806	0.31888	 	6.09448E17	 	5.23074E-18	 	16337.56136	27.04464	 
375.0	1.0	0.0	8.19082	7.10648	-7.78558	13.97539	17.59299	0.90261	1.10789	186.57615	171.55271	70.74043	0.31874	 	8.9933E17	 	3.51757E-18	 	16202.56161	26.99995	 
370.0	1.0	0.0	8.19271	7.10484	-7.80685	13.95182	17.51694	0.89954	1.11168	186.9041	171.71631	70.8726	0.31859	 	1.33515E18	 	2.35109E-18	 	16067.7851	26.9553	 
365.0	1.0	0.0	8.19459	7.10321	-7.82805	13.92826	17.44088	0.89644	1.11553	187.23149	171.87912	71.00458	0.31845	 	1.99447E18	 	1.56164E-18	 	15933.23163	26.91069	 
360.0	1.0	0.0	8.19647	7.10158	-7.84919	13.90472	17.36482	0.89331	1.11943	187.55829	172.04114	71.13637	0.3183	 	2.99833E18	 	1.03066E-18	 	15798.90103	26.86612	 
355.0	1.0	0.0	8.19835	7.09995	-7.87026	13.88119	17.28874	0.89016	1.1234	187.88452	172.20237	71.26797	0.31816	 	4.53681E18	 	6.75772E-19	 	15664.79315	26.82158	 
350.0	1.0	0.0	8.20022	7.09834	-7.89127	13.85769	17.21266	0.88697	1.12743	188.21016	172.36281	71.39939	0.31801	 	6.91046E18	 	4.40121E-19	 	15530.90786	26.77706	 
345.0	1.0	0.0	8.20208	7.09672	-7.91221	13.83419	17.13657	0.88376	1.13152	188.53523	172.52246	71.53061	0.31786	 	1.05979E19	 	2.84682E-19	 	15397.24504	26.73257	 
340.0	1.0	0.0	8.20394	7.09511	-7.93308	13.81072	17.06047	0.88053	1.13569	188.85973	172.68133	71.66164	0.31772	 	1.63668E19	 	1.82848E-19	 	15263.80458	26.68809	 
335.0	1.0	0.0	8.2058	7.09351	-7.95389	13.78726	16.98436	0.87726	1.13991	189.18364	172.83942	71.79248	0.31757	 	2.54571E19	 	1.16597E-19	 	15130.58642	26.64363	 
330.0	1.0	0.0	8.20765	7.09191	-7.97464	13.76382	16.90824	0.87396	1.14421	189.50697	172.99673	71.92313	0.31743	 	3.98874E19	 	7.38034E-20	 	14997.5905	26.59918	 
325.0	1.0	0.0	8.20949	7.09032	-7.99532	13.7404	16.83211	0.87064	1.14858	189.82973	173.15326	72.05359	0.31728	 	6.29684E19	 	4.63633E-20	 	14864.8168	26.55474	 
320.0	1.0	0.0	8.21133	7.08873	-8.01593	13.71699	16.75597	0.86728	1.15303	190.15191	173.30901	72.18386	0.31714	 	1.00173E20	 	2.89001E-20	 	14732.26528	26.5103	 
315.0	1.0	0.0	8.21317	7.08714	-8.03648	13.6936	16.67983	0.8639	1.15754	190.47351	173.46399	72.31393	0.31699	 	1.60624E20	 	1.78716E-20	 	14599.93598	26.46586	 
310.0	1.0	0.0	8.215	7.08557	-8.05696	13.67022	16.60367	0.86048	1.16214	190.79453	173.6182	72.44382	0.31684	 	2.5964799999999997E20	 	1.09618E-20	 	14467.82893	26.42141	 
305.0	1.0	0.0	8.21682	7.08399	-8.07738	13.64687	16.52751	0.85704	1.16681	191.11497	173.77163	72.57352	0.3167	 	4.2322099999999997E20	 	6.66745E-21	 	14335.9442	26.37695	 
300.0	1.0	0.0	8.21864	7.08242	-8.09773	13.62353	16.45133	0.85356	1.17157	191.43483	173.92429	72.70302	0.31655	 	6.95748E20	 	4.02071E-21	 	14204.28188	26.33246	 
295.0	1.0	0.0	8.22045	7.08086	-8.11802	13.6002	16.37515	0.85005	1.1764	191.75411	174.07619	72.83233	0.31641	 	1.1538100000000001E21	 	2.40333E-21	 	14072.84209	26.28796	 
290.0	1.0	0.0	8.22226	7.0793	-8.13825	13.5769	16.29896	0.84651	1.18133	192.07282	174.22732	72.96145	0.31626	 	1.93073E21	 	1.42361E-21	 	13941.62499	26.24342	 
285.0	1.0	0.0	8.22407	7.07775	-8.15841	13.55361	16.22275	0.84293	1.18634	192.39094	174.37768	73.09038	0.31612	 	3.26071E21	 	8.3546E-22	 	13810.63075	26.19885	 
280.0	1.0	0.0	8.22587	7.0762	-8.1785	13.53033	16.14654	0.83932	1.19144	192.70848	174.52728	73.21912	0.31597	 	5.559270000000001E21	 	4.85638E-22	 	13679.85961	26.15423	 
275.0	1.0	0.0	8.22766	7.07466	-8.19853	13.50708	16.07032	0.83568	1.19663	193.02545	174.67612	73.34767	0.31583	 	9.57083E21	 	2.79535E-22	 	13549.31179	26.10956	 
270.0	1.0	0.0	8.22945	7.07312	-8.21849	13.48384	15.99409	0.83201	1.20191	193.34183	174.8242	73.47602	0.31568	 	1.6642799999999998E22	 	1.59287E-22	 	13418.98759	26.06484	 
265.0	1.0	0.0	8.23124	7.07158	-8.2384	13.46061	15.91784	0.8283	1.2073	193.65764	174.97153	73.60419	0.31553	 	2.92393E22	 	8.98303E-23	 	13288.88734	26.02005	 
260.0	1.0	0.0	8.23302	7.07006	-8.25823	13.43741	15.84159	0.82455	1.21278	193.97287	175.1181	73.73216	0.31539	 	5.19157E22	 	5.01231E-23	 	13159.01138	25.97519	 
255.0	1.0	0.0	8.23479	7.06853	-8.278	13.41422	15.76533	0.82077	1.21837	194.28751	175.26391	73.85994	0.31524	 	9.318599999999999E22	 	2.76626E-23	 	13029.36013	25.93025	 
250.0	1.0	0.0	8.23656	7.06701	-8.29771	13.39105	15.68906	0.81695	1.22407	194.60158	175.40897	73.98752	0.3151	 	1.6914499999999998E23	 	1.50957E-23	 	12899.93403	25.88522	 
245.0	1.0	0.0	8.23833	7.0655	-8.31736	13.36789	15.61277	0.8131	1.22987	194.91507	175.55328	74.11492	0.31495	 	3.10574E23	 	8.14287E-24	 	12770.73358	25.84009	 
240.0	1.0	0.0	8.24009	7.06399	-8.33694	13.34475	15.53648	0.8092	1.23578	195.22797	175.69684	74.24212	0.31481	 	5.77049E23	 	4.34028E-24	 	12641.7593	25.79486	 
235.0	1.0	0.0	8.24184	7.06249	-8.35645	13.32163	15.46018	0.80527	1.24181	195.5403	175.83966	74.36913	0.31466	 	1.08531E24	 	2.28519E-24	 	12513.01178	25.7495	 
230.0	1.0	0.0	8.24359	7.06099	-8.3759	13.29852	15.38386	0.80131	1.24796	195.85205	175.98173	74.49595	0.31451	 	2.0670500000000001E24	 	1.18805E-24	 	12384.49166	25.70402	 
225.0	1.0	0.0	8.24534	7.05949	-8.39529	13.27543	15.30754	0.7973	1.25424	196.16322	176.12305	74.62257	0.31437	 	3.98807E24	 	6.09654E-25	 	12256.19964	25.6584	 
220.0	1.0	0.0	8.24708	7.058	-8.41461	13.25236	15.2312	0.79325	1.26063	196.47381	176.26363	74.74901	0.31422	 	7.79763E24	 	3.08676E-25	 	12128.13646	25.61264	 
215.0	1.0	0.0	8.24881	7.05652	-8.43387	13.22931	15.15486	0.78916	1.26716	196.78381	176.40348	74.87525	0.31408	 	1.5457100000000001E25	 	1.54139E-25	 	12000.30292	25.56671	 
210.0	1.0	0.0	8.25054	7.05504	-8.45307	13.20627	15.0785	0.78504	1.27383	197.09324	176.54258	75.00129	0.31393	 	3.10773E25	 	7.58797E-26	 	11872.69992	25.5206	 
205.0	1.0	0.0	8.25227	7.05357	-8.4722	13.18325	15.00213	0.78087	1.28063	197.40209	176.68095	75.12715	0.31379	 	6.3401900000000005E25	 	3.68085E-26	 	11745.32837	25.47431	 
200.0	1.0	0.0	8.25398	7.0521	-8.49127	13.16024	14.92576	0.77666	1.28757	197.71036	176.81859	75.25281	0.31364	 	1.3131200000000001E26	 	1.75865E-26	 	11618.1893	25.42781	 
195.0	1.0	0.0	8.2557	7.05063	-8.51028	13.13725	14.84937	0.7724	1.29466	198.01805	176.95549	75.37828	0.3135	 	2.7622600000000003E26	 	8.27195E-27	 	11491.28379	25.3811	 
190.0	1.0	0.0	8.25741	7.04917	-8.52922	13.11428	14.77297	0.7681	1.30191	198.32516	177.09166	75.50356	0.31335	 	5.90466E26	 	3.82837E-27	 	11364.61299	25.33416	 
185.0	1.0	0.0	8.25911	7.04772	-8.5481	13.09133	14.69655	0.76376	1.30931	198.63169	177.2271	75.62864	0.3132	 	1.2833E27	 	1.74248E-27	 	11238.17814	25.28697	 
180.0	1.0	0.0	8.26081	7.04627	-8.56692	13.06839	14.62013	0.75938	1.31687	198.93764	177.36181	75.75353	0.31306	 	2.8372599999999996E27	 	7.79523E-28	 	11111.98057	25.23951	 
175.0	1.0	0.0	8.26251	7.04482	-8.58567	13.04547	14.5437	0.75494	1.3246	199.24302	177.4958	75.87823	0.31291	 	6.38499E27	 	3.4257E-28	 	10986.02171	25.19177	 
170.0	1.0	0.0	8.2642	7.04338	-8.60436	13.02256	14.46725	0.75047	1.33251	199.54781	177.62906	76.00273	0.31277	 	1.46342E28	 	1.47797E-28	 	10860.30308	25.14373	 
165.0	1.0	0.0	8.26588	7.04195	-8.62298	12.99968	14.39079	0.74594	1.34059	199.85202	177.76161	76.12705	0.31262	 	3.4182300000000003E28	 	6.25616E-29	 	10734.82627	25.09536	 
160.0	1.0	0.0	8.26756	7.04052	-8.64155	12.97681	14.31432	0.74137	1.34886	200.15566	177.89343	76.25117	0.31248	 	8.14214E28	 	2.59649E-29	 	10609.59302	25.04665	 
155.0	1.0	0.0	8.26924	7.03909	-8.66005	12.95395	14.23784	0.73675	1.35732	200.45872	178.02453	76.37509	0.31233	 	1.9791500000000003E29	 	1.05585E-29	 	10484.60517	24.99757	 
150.0	1.0	0.0	8.27091	7.03767	-8.67848	12.93111	14.16135	0.73208	1.36598	200.7612	178.15492	76.49883	0.31218	 	4.912880000000001E29	 	4.20383E-30	 	10359.86468	24.9481	 
145.0	1.0	0.0	8.27257	7.03625	-8.69686	12.90829	14.08484	0.72735	1.37485	201.0631	178.28459	76.62237	0.31204	 	1.2463399999999999E30	 	1.63751E-30	 	10235.37363	24.89821	 
140.0	1.0	0.0	8.27423	7.03484	-8.71517	12.88549	14.00833	0.72258	1.38392	201.36442	178.41355	76.74572	0.31189	 	3.23386E30	 	6.23552E-31	 	10111.13425	24.84788	 
135.0	1.0	0.0	8.27588	7.03344	-8.73342	12.8627	13.9318	0.71776	1.39323	201.66517	178.5418	76.86887	0.31175	 	8.589189999999999E30	 	2.31928E-31	 	9987.1489	24.79707	 
130.0	1.0	0.0	8.27753	7.03203	-8.75161	12.83993	13.85526	0.71288	1.40275	201.96534	178.66934	76.99184	0.3116	 	2.33726E31	 	8.41874E-32	 	9863.4201	24.74576	 
125.0	1.0	0.0	8.27918	7.03064	-8.76973	12.81718	13.7787	0.70795	1.41252	202.26493	178.79617	77.11461	0.31146	 	6.52198E31	 	2.97957E-32	 	9739.95052	24.69391	 
120.0	1.0	0.0	8.28082	7.02924	-8.78779	12.79444	13.70214	0.70297	1.42254	202.56395	178.9223	77.23718	0.31131	 	1.86805E32	 	1.0272E-32	 	9616.74304	24.6415	 
115.0	1.0	0.0	8.28245	7.02786	-8.80579	12.77172	13.62556	0.69793	1.43281	202.86239	179.04772	77.35957	0.31117	 	5.49758E32	 	3.44599E-33	 	9493.80067	24.58847	 
110.0	1.0	0.0	8.28408	7.02648	-8.82373	12.74902	13.54897	0.69283	1.44335	203.16025	179.17245	77.48176	0.31102	 	1.66414E33	 	1.12374E-33	 	9371.12666	24.5348	 
105.0	1.0	0.0	8.28571	7.0251	-8.8416	12.72633	13.47236	0.68768	1.45416	203.45754	179.29647	77.60376	0.31087	 	5.18715E33	 	3.55813E-34	 	9248.72444	24.48044	 
100.0	1.0	0.0	8.28732	7.02373	-8.85941	12.70366	13.39575	0.68247	1.46527	203.75426	179.4198	77.72557	0.31073	 	1.66686E34	 	1.09263E-34	 	9126.59768	24.42535	 
95.0	1.0	0.0	8.28894	7.02236	-8.87716	12.68101	13.31912	0.6772	1.47667	204.0504	179.54243	77.84719	0.31058	 	5.528910000000001E34	 	3.24992E-35	 	9004.75027	24.36948	 
90.0	1.0	0.0	8.29055	7.02099	-8.89485	12.65838	13.24247	0.67187	1.48839	204.34597	179.66437	77.96862	0.31044	 	1.8954799999999997E35	 	9.35089E-36	 	8883.18637	24.31278	 
85.0	1.0	0.0	8.29215	7.01964	-8.91248	12.63576	13.16582	0.66647	1.50043	204.64097	179.78562	78.08985	0.31029	 	6.72574E35	 	2.59903E-36	 	8761.91041	24.25519	 
80.0	1.0	0.0	8.29375	7.01828	-8.93004	12.61315	13.08915	0.66102	1.51282	204.93539	179.90619	78.21089	0.31015	 	2.4736299999999998E36	 	6.96804E-37	 	8640.92711	24.19666	 
75.0	1.0	0.0	8.29535	7.01693	-8.94754	12.59057	13.01246	0.6555	1.52555	205.22924	180.02606	78.33175	0.31	 	9.444449999999999E36	 	1.79919E-37	 	8520.2415	24.13712	 
70.0	1.0	0.0	8.29694	7.01559	-8.96498	12.568	12.93577	0.64992	1.53866	205.52253	180.14526	78.45241	0.30985	 	3.7494999999999996E37	 	4.46681E-38	 	8399.85893	24.07651	 
65.0	1.0	0.0	8.29852	7.01425	-8.98236	12.54545	12.85906	0.64427	1.55215	205.81524	180.26377	78.57288	0.30971	 	1.55052E38	 	1.06443E-38	 	8279.78513	24.01476	 
60.0	1.0	0.0	8.3001	7.01292	-8.99968	12.52291	12.78234	0.63855	1.56605	206.10738	180.3816	78.69316	0.30956	 	6.6909599999999995E38	 	2.43018E-39	 	8160.02621	23.95178	 
55.0	1.0	0.0	8.30167	7.01159	-9.01694	12.50039	12.7056	0.63277	1.58036	206.39896	180.49876	78.81325	0.30942	 	3.01891E39	 	5.30529E-40	 	8040.58868	23.88751	 
50.0	1.0	0.0	8.30324	7.01026	-9.03413	12.47789	12.62885	0.62691	1.59512	206.68997	180.61524	78.93315	0.30927	 	1.42712E40	 	1.10517E-40	 	7921.47953	23.82183	 
45.0	1.0	0.0	8.30481	7.00894	-9.05126	12.45541	12.55208	0.62099	1.61034	206.98042	180.73105	79.05286	0.30913	 	7.08395E40	 	2.19201E-41	 	7802.70619	23.75467	 
40.0	1.0	0.0	8.30637	7.00763	-9.06833	12.43294	12.4753	0.61499	1.62605	207.2703	180.84619	79.17238	0.30898	 	3.7009300000000005E41	 	4.1298E-42	 	7684.27666	23.68591	 
35.0	1.0	0.0	8.30792	7.00631	-9.08534	12.41049	12.39851	0.60892	1.64226	207.55962	180.96067	79.29172	0.30884	 	2.04008E42	 	7.37228E-43	 	7566.19947	23.61544	 
30.0	1.0	0.0	8.30947	7.00501	-9.10229	12.38805	12.3217	0.60277	1.659	207.84837	181.07448	79.41086	0.30869	 	1.1897E43	 	1.24367E-43	 	7448.48375	23.54314	 
25.0	1.0	0.0	8.31101	7.00371	-9.11918	 	12.24488	0.59655	1.67631	208.13657	181.18764	79.52982	0.30854	 	7.3606E43	 	1.97701E-44	 	7331.13932	 	 
