T (C)	Fraction solid (wt)-TOTAL	Fraction liquid (wt)-LIQUID	Density (g/(cm)^3)-TOTAL	Molar volume (cm^3)-TOTAL	Volume change (%)-  	Average expansion coeff. (10e-6 1/K)-  	Thermal conductivity (W/(m*K))-TOTAL	Electrical resistivity (10e-6 Ohm*m)-TOTAL	Electrical conductivity (10e6 1/(Ohm*m))-TOTAL	Young's modulus (GPa)-TOTAL	Bulk modulus (GPa)-TOTAL	Shear modulus(GPa)-TOTAL	Poisson's ratio-TOTAL	Liquid viscosity (mPa s)-  	Total viscosity (mPa s)-  	Liquid diffusivity (10e-9 (m^2)/s)-  	Total diffusivity (10e-9 (m^2)/s)-  	Surface Tension (mN/m)-  	Enthalpy (J/mole)-TOTAL	Specific heat (J/(mole K))-TOTAL	Latent heat (J/mole)-TOTAL
1400.0	0.0	1.0	7.23266	7.83863	0.0	29.15223	28.37319	1.44475	0.69216	0.0	123.6441	0.0	0.5	7.52822	7.52822	1.08475	1.08475	1768.30771	51398.841	 	0.0
1395.0	0.0	1.0	7.23659	7.83437	-0.0543434	29.1105	28.2966	1.44433	0.69236	0.0	123.80117	0.0	0.5	7.60893	7.60893	1.07004	1.07004	1770.6456	51192.706	41.227	0.0
1390.0	0.0	1.0	7.24051	7.83012	-0.10853	29.0689	28.22002	1.44391	0.69256	0.0	123.95823	0.0	0.5	7.69099	7.69099	1.05545	1.05545	1772.99509	50987.06	41.1292	0.0
1385.0	0.0	1.0	7.24443	7.82589	-0.16255	29.02743	28.14344	1.44349	0.69277	0.0	124.1153	0.0	0.5	7.77444	7.77444	1.04098	1.04098	1775.35601	50781.9	41.032	0.0
1380.0	0.0	1.0	7.24834	7.82167	-0.21642	28.98609	28.06685	1.44306	0.69297	0.0	124.27236	0.0	0.5	7.85931	7.85931	1.02663	1.02663	1777.72816	50577.221	40.9358	0.0
1375.0	0.0	1.0	7.25225	7.81746	-0.27013	28.94489	27.99027	1.44263	0.69318	0.0	124.42942	0.0	0.5	7.94562	7.94562	1.01241	1.01241	1780.11131	50373.023	40.8396	0.0
1370.0	0.0	1.0	7.25614	7.81326	-0.32368	28.90381	27.91369	1.4422	0.69338	0.0	124.58649	0.0	0.5	8.03342	8.03342	0.9983	0.9983	1782.50524	50169.301	40.7444	0.0
1366.95	0.0	1.0	7.25851	7.81071	-0.35624	28.87884	27.86701	1.44194	0.69351	0.0	124.68222	0.0	0.5	8.08768	8.08768	0.98977	0.98977	1783.96952	50045.373	40.66573	0.0
1365.0	0.0598002	0.9402	7.27309	7.79497	-0.55697	28.36155	28.06003	1.43031	0.69915	0.00114869	124.62726	3.84946E-4	0.49201	8.12866	9.11149	0.98361	0.87751	1783.51222	49145.36	460.94944	820.692
1360.0	0.19674	0.80326	7.30682	7.75903	-1.01555	27.18507	28.50502	1.40369	0.71241	0.13759	124.53267	0.0466853	0.47356	8.23443	49.33056	0.96801	0.16158	1782.38465	47074.511	414.1698	2688.765
1355.0	0.30815	0.69185	7.33487	7.72939	-1.39363	26.22576	28.86698	1.38184	0.72367	0.84349	124.51809	0.28919	0.45836	8.34158	259.10778	0.95265	0.0306691	1781.34551	45364.606	341.981	4196.362
1350.0	0.39986	0.60014	7.35848	7.70456	-1.71033	25.43219	29.16459	1.36354	0.73338	2.43055	124.56678	0.84061	0.44571	8.45021	755.91635	0.93751	0.0104802	1780.39543	43933.107	286.2998	5426.019
1345.0	0.47616	0.52384	7.3786	7.68351	-1.97887	24.76884	29.41048	1.34798	0.74185	4.95711	124.66745	1.72713	0.43507	8.56039	1598.57698	0.9226	0.00494051	1779.53394	42719.191	242.7832	6438.555
1340.0	0.54023	0.45977	7.39593	7.66548	-2.20897	24.20959	29.61365	1.33459	0.74929	8.31759	124.81091	2.9163	0.42605	8.67222	2801.87284	0.90789	0.00281004	1778.75968	41677.351	208.368	7279.479
1335.0	0.59447	0.40553	7.41101	7.64991	-2.40763	23.73571	29.7808	1.32299	0.75586	12.33464	124.99018	4.34824	0.41835	8.7858	4356.27913	0.89337	0.00180176	1778.07046	40773.067	180.8568	7983.302
1330.0	0.64074	0.35926	7.42426	7.63619	-2.58261	23.32598	29.91714	1.31287	0.76169	16.81884	125.19664	5.9569	0.41171	8.90119	6241.96192	0.87905	0.00125354	1777.46509	39979.827	158.648	8576.537
1325.0	0.68046	0.31954	7.43599	7.62412	-2.73662	22.9733	30.02722	1.30397	0.76689	21.59512	125.42773	7.67983	0.40596	9.01848	8437.01795	0.86491	9.24518E-4	1776.9401	39277.037	140.558	9079.774
1320.0	0.71477	0.28523	7.44647	7.61333	-2.8742	22.66528	30.11471	1.29612	0.77154	26.52174	125.67832	9.46562	0.40095	9.13778	10923.23663	0.85095	7.11856E-4	1776.49332	38648.532	125.701	9509.177
1315.0	0.74456	0.25544	7.4559	7.60365	-2.99772	22.39559	30.18268	1.28914	0.77571	31.48275	125.94544	11.27155	0.39656	9.25924	13685.71296	0.83715	5.66384E-4	1776.12168	38081.501	113.4062	9877.555
1310.0	0.77057	0.22943	7.46446	7.59488	-3.10961	22.15756	30.23393	1.2829	0.77948	36.3943	126.22647	13.06623	0.39269	9.38288	16716.0987	0.82352	4.62247E-4	1775.82249	37565.702	103.1598	10195.144
1305.0	0.79336	0.20664	7.47227	7.58689	-3.2116	21.94658	30.27051	1.27731	0.7829	41.19066	126.51896	14.8247	0.38926	9.50884	20008.98908	0.81004	3.84955E-4	1775.59283	37092.881	94.5642	10470.198
1300.0	0.81343	0.18657	7.47945	7.57956	-3.305	21.75911	30.29453	1.27225	0.78601	45.83341	126.82159	16.53194	0.38621	9.63727	23567.76147	0.79672	3.25791E-4	1775.42954	36656.333	87.3096	10709.419
1295.0	0.83117	0.16883	7.48608	7.5728	-3.39133	21.59092	30.30749	1.26766	0.78885	50.29094	127.13207	18.17548	0.38348	9.76821	27396.06664	0.78354	2.79374E-4	1775.3303	36250.576	81.1514	10918.288
1290.0	0.84692	0.15308	7.49224	7.56651	-3.47152	21.43956	30.31093	1.26348	0.79147	54.55186	127.44948	19.75033	0.38104	9.90184	31506.58422	0.7705	2.42151E-4	1775.29225	35871.095	75.8962	11101.314
1285.0	0.86094	0.13906	7.498	7.56065	-3.54631	21.30298	30.306	1.25964	0.79388	58.60752	127.77269	21.2526	0.37883	10.03825	35913.17369	0.7576	2.11759E-4	1775.31264	35514.153	71.3884	11262.235
1280.0	0.87347	0.12653	7.50341	7.55515	-3.61644	21.17919	30.29359	1.25611	0.79611	62.45104	128.10067	22.67913	0.37684	10.17757	40630.20834	0.74483	1.86574E-4	1775.3892	35176.634	67.5038	11404.163
1275.0	0.88468	0.11532	7.50852	7.54997	-3.68255	21.06642	30.27476	1.25285	0.79818	66.09338	128.43259	24.03344	0.37503	10.31997	45683.90432	0.73219	1.654E-4	1775.51937	34855.931	64.1406	11529.703
1270.0	0.89477	0.10523	7.51336	7.54506	-3.74519	20.96316	30.25022	1.24982	0.80012	69.53717	128.76772	25.31607	0.37338	10.46554	51096.98069	0.71967	1.47401E-4	1775.70118	34549.848	61.2166	11641.049
1265.0	0.90385	0.0961473	7.51796	7.54039	-3.80476	20.86828	30.22053	1.24699	0.80193	72.78763	129.10539	26.52855	0.37187	10.6144	56895.55712	0.70728	1.31949E-4	1775.9326	34256.527	58.6642	11740.055
1260.0	0.91206	0.0879368	7.52235	7.53594	-3.86151	20.78116	30.18641	1.24434	0.80364	75.85992	129.44539	27.67619	0.37049	10.76676	63116.0748	0.695	1.18558E-4	1776.2111	33974.391	56.4272	11828.297
1255.0	0.9195	0.0805007	7.52657	7.53168	-3.9159	20.70055	30.14826	1.24185	0.80525	78.75976	129.787	28.76085	0.36922	10.92268	69790.63089	0.68285	1.0687E-4	1776.53526	33702.094	54.4594	11907.12
1250.0	0.92625	0.073753	7.53062	7.52759	-3.96808	20.62597	30.10656	1.2395	0.80677	81.49886	130.13004	29.78663	0.36804	11.0824	76960.02688	0.6708	9.65971E-5	1776.90291	33438.483	52.7222	11977.673
1245.0	0.93239	0.0676124	7.53452	7.52365	-4.01831	20.55674	30.06163	1.23728	0.80822	84.08697	130.47399	30.75698	0.36696	11.24604	84666.64593	0.65887	8.75163E-5	1777.31251	33182.565	51.1836	12040.946
1240.0	0.93798	0.062015	7.53829	7.51984	-4.06691	20.49199	30.01385	1.23517	0.80961	86.53471	130.81857	31.6757	0.36595	11.41374	92958.92563	0.64705	7.9447E-5	1777.76282	32933.486	49.8158	12097.793
1235.0	0.9431	0.056901	7.54195	7.51615	-4.11396	20.43147	29.96349	1.23316	0.81093	88.85081	131.16362	32.54589	0.36501	11.58566	101888.674	0.63535	7.22446E-5	1778.25202	32690.503	48.5966	12148.953
1230.0	0.94778	0.0522196	7.54551	7.51257	-4.15965	20.37463	29.9108	1.23123	0.81219	91.045	131.50881	33.37108	0.36413	11.76202	111513.2005	0.62375	6.57904E-5	1778.77908	32452.973	47.506	12195.067
1225.0	0.95207	0.0479273	7.54897	7.50909	-4.2041	20.32123	29.85602	1.22939	0.81341	93.12586	131.85403	34.15436	0.36331	11.94297	121895.9142	0.61225	5.99864E-5	1779.34234	32220.335	46.5276	12236.694
1220.0	0.95602	0.0439834	7.55234	7.5057	-4.24732	20.2712	29.79932	1.22762	0.81459	95.10092	132.19915	34.89845	0.36254	12.12862	133105.3313	0.60087	5.47513E-5	1779.93993	31992.098	45.6474	12274.323
1215.0	0.95965	0.0403547	7.55564	7.50239	-4.28959	20.22373	29.74089	1.22591	0.81572	96.97853	132.54384	35.60643	0.36181	12.31928	145217.051	0.58959	5.00168E-5	1780.57197	31767.832	44.8532	12308.381
1210.0	0.96299	0.0370099	7.55887	7.49914	-4.33098	20.17864	29.68091	1.22426	0.81682	98.76559	132.88814	36.28081	0.36113	12.51512	158314.3855	0.57841	4.57248E-5	1781.23699	31547.16	44.1344	12339.245
1205.0	0.96608	0.0339217	7.56203	7.49597	-4.37142	20.13614	29.61947	1.22266	0.81789	100.46781	133.23183	36.92366	0.36048	12.7162	172486.9668	0.56735	4.18262E-5	1781.9332	31329.748	43.4824	12367.244
1201.87	0.96788	0.032123	7.56398	7.49402	-4.39633	20.11062	29.58031	1.22169	0.81854	101.48684	133.44653	37.30874	0.36009	12.84481	181931.2989	0.56048	3.95711E-5	1782.3848	31195.438	 	12383.3
1201.33	0.96828	0.0317225	7.56434	7.49365	-4.40105	20.10501	29.57356	1.22152	0.81865	101.704	133.48524	37.39081	0.36001	12.86517	183707.7954	0.55938	3.91739E-5	1782.48488	31170.447	 	12387.587
1200.0	0.96951	0.0304888	7.56536	7.49268	-4.4134	20.08842	29.55881	1.22103	0.81898	102.34775	133.58868	37.63403	0.35978	12.88565	188265.4607	0.55799	3.81912E-5	1782.61254	31105.331	44.8834	12402.643
1195.0	0.97395	0.0260481	7.56915	7.48908	-4.45929	20.0278	29.50259	1.2192	0.82021	104.70942	133.97671	38.52682	0.35892	12.96651	206388.342	0.55263	3.47194E-5	1783.12066	30862.967	48.4728	12456.38
1190.0	0.97791	0.0220903	7.57281	7.4856	-4.50368	19.9715	29.44434	1.21746	0.82139	106.89654	134.35932	39.35439	0.35813	13.05268	225927.2377	0.54711	3.16087E-5	1783.66916	30627.649	47.0636	12503.462
1185.0	0.98145	0.0185514	7.57637	7.48223	-4.54667	19.91916	29.38426	1.21578	0.82252	108.92728	134.73703	40.12345	0.3574	13.14424	247023.1687	0.54144	2.88105E-5	1784.25333	30398.442	45.8414	12544.82
1180.0	0.98462	0.0153767	7.57983	7.47896	-4.58848	19.87023	29.32256	1.21416	0.82362	110.81945	135.11028	40.84062	0.35673	13.24125	269833.789	0.53563	2.62846E-5	1784.87021	30174.575	44.7734	12581.224
1176.2	0.9868	0.0131953	7.5824	7.47652	-4.61955	19.83513	29.27453	1.21296	0.82443	112.16612	135.39139	41.3514	0.35626	13.31868	288418.3614	0.53113	2.45265E-5	1785.35999	30007.651	 	12605.774
1175.8	0.98812	0.0118793	7.58311	7.47589	-4.62756	19.81599	29.27188	1.21274	0.82458	112.59666	135.44629	41.51662	0.35604	13.31219	291697.0295	0.53124	2.42442E-5	1785.28707	29969.176	 	12629.378
1175.0	0.99227	0.00773314	7.58522	7.47398	-4.65202	19.75031	29.26613	1.21231	0.82487	114.33537	135.63276	42.17849	0.35538	13.31789	300184.0925	0.53072	2.35458E-5	1785.22327	29856.013	63.7124	12712.707
1173.07	1.0	0.0	7.58942	7.47021	-4.70009	19.62718	29.24832	1.21143	0.82547	119.05678	136.01156	43.96128	0.35411	 	318811.5339	 	2.21405E-5	 	29628.136	 	12868.419
1170.0	1.0	0.0	7.59094	7.4687	-4.71928	19.61719	29.19945	1.21088	0.82584	119.33138	136.21663	44.06647	0.35399	 	334173.1522	 	2.10779E-5	 	29495.54674	72.09325	 
1165.0	1.0	0.0	7.5934	7.46628	-4.75021	19.60193	29.11987	1.20999	0.82645	119.7787	136.55115	44.2378	0.3538	 	360960.1261	 	1.94461E-5	 	29316.37017	35.83531	 
1160.0	1.0	0.0	7.59586	7.46386	-4.78108	19.58672	29.04028	1.20909	0.82707	120.22532	136.88411	44.40892	0.35362	 	390104.1394	 	1.79307E-5	 	29137.47123	35.77979	 
1155.0	1.0	0.0	7.59832	7.46144	-4.81189	19.57157	28.96069	1.20818	0.82769	120.67125	137.21551	44.57984	0.35343	 	421830.538	 	1.65243E-5	 	28958.84944	35.72436	 
1150.0	1.0	0.0	7.60078	7.45903	-4.84264	19.55647	28.88109	1.20727	0.82832	121.11648	137.54537	44.75053	0.35324	 	456387.8591	 	1.52196E-5	 	28780.50437	35.66901	 
1145.0	1.0	0.0	7.60323	7.45663	-4.87334	19.54144	28.8015	1.20635	0.82895	121.56102	137.87368	44.92102	0.35305	 	494050.4166	 	1.401E-5	 	28602.43554	35.61377	 
1140.0	1.0	0.0	7.60568	7.45423	-4.90398	19.52646	28.7219	1.20543	0.82958	122.00486	138.20046	45.0913	0.35286	 	535121.189	 	1.28891E-5	 	28424.64251	35.55861	 
1135.0	1.0	0.0	7.60812	7.45183	-4.93456	19.51154	28.64229	1.2045	0.83022	122.44801	138.5257	45.26136	0.35268	 	579934.9905	 	1.1851E-5	 	28247.12481	35.50354	 
1130.0	1.0	0.0	7.61057	7.44944	-4.96508	19.49668	28.56268	1.20357	0.83086	122.89046	138.84943	45.43121	0.35249	 	628862.0649	 	1.08902E-5	 	28069.88199	35.44856	 
1125.0	1.0	0.0	7.61301	7.44705	-4.99555	19.48188	28.48307	1.20263	0.83151	123.33222	139.17164	45.60084	0.3523	 	682312.0986	 	1.00013E-5	 	27892.91359	35.39368	 
1120.0	1.0	0.0	7.61545	7.44466	-5.02595	19.46714	28.40346	1.20169	0.83216	123.77329	139.49233	45.77026	0.35211	 	740738.7009	 	9.17951E-6	 	27716.21916	35.33889	 
1115.0	1.0	0.0	7.61788	7.44229	-5.0563	19.45246	28.32383	1.20074	0.83282	124.21366	139.81153	45.93947	0.35193	 	804644.5171	 	8.42013E-6	 	27539.79822	35.28419	 
1110.0	1.0	0.0	7.62031	7.43991	-5.0866	19.43785	28.24421	1.19979	0.83348	124.65333	140.12923	46.10847	0.35174	 	874586.7654	 	7.71886E-6	 	27363.65034	35.22958	 
1105.0	1.0	0.0	7.62274	7.43754	-5.11683	19.4233	28.16458	1.19883	0.83414	125.09232	140.44543	46.27726	0.35155	 	951183.7432	 	7.07162E-6	 	27187.77503	35.17506	 
1100.0	1.0	0.0	7.62517	7.43518	-5.14701	19.40882	28.08495	1.19787	0.83481	125.5306	140.76016	46.44583	0.35137	 	1035121.808	 	6.4746E-6	 	27012.17186	35.12063	 
1095.0	1.0	0.0	7.62759	7.43282	-5.17713	19.3944	28.00531	1.1969	0.83549	125.9682	141.0734	46.61418	0.35118	 	1127163.562	 	5.92425E-6	 	26836.84035	35.0663	 
1090.0	1.0	0.0	7.63001	7.43046	-5.20719	19.38005	27.92567	1.19593	0.83617	126.4051	141.38517	46.78232	0.35099	 	1228156.809	 	5.41722E-6	 	26661.78004	35.01206	 
1086.24	1.0	0.0	7.63182	7.42869	-5.22974	19.36931	27.86581	1.1952	0.83668	126.73297	141.6185	46.90854	0.35085	 	1310509.018	 	5.06281E-6	 	26530.40499	 	 
1085.0	1.0	0.0	7.63242	7.42811	-5.23717	19.36586	27.84602	1.19495	0.83685	126.84138	141.69562	46.95028	0.35081	 	1339052.61	 	4.95036E-6	 	26486.9427	34.96747	 
1080.0	1.0	0.0	7.63483	7.42577	-5.26702	19.35197	27.76638	1.19397	0.83754	127.27722	142.00503	47.11811	0.35062	 	1460920.239	 	4.5207E-6	 	26312.22454	34.94363	 
1075.0	1.0	0.0	7.63723	7.42343	-5.29682	19.33814	27.68673	1.19298	0.83824	127.71234	142.31295	47.28572	0.35043	 	1594907.006	 	4.12562E-6	 	26137.78806	34.88729	 
1070.0	1.0	0.0	7.63963	7.4211	-5.32657	19.32436	27.60708	1.19198	0.83894	128.14676	142.61939	47.45311	0.35025	 	1742317.733	 	3.76256E-6	 	25963.63219	34.83118	 
1065.0	1.0	0.0	7.64203	7.41877	-5.35627	19.31064	27.52742	1.19098	0.83964	128.58046	142.92436	47.62027	0.35006	 	1904608.362	 	3.42914E-6	 	25789.75585	34.77527	 
1060.0	1.0	0.0	7.64442	7.41645	-5.38591	19.29698	27.44775	1.18998	0.84035	129.01345	143.22787	47.78722	0.34987	 	2083404.607	 	3.12314E-6	 	25616.15806	34.71956	 
1055.0	1.0	0.0	7.64681	7.41413	-5.4155	19.28338	27.36808	1.18896	0.84107	129.44574	143.52993	47.95395	0.34969	 	2280523.025	 	2.84249E-6	 	25442.83776	34.66406	 
1050.0	1.0	0.0	7.6492	7.41181	-5.44504	19.26985	27.28841	1.18795	0.84179	129.87732	143.83053	48.12046	0.3495	 	2497994.867	 	2.58526E-6	 	25269.79401	34.60875	 
1045.0	1.0	0.0	7.65159	7.4095	-5.47452	19.25638	27.20872	1.18692	0.84251	130.30819	144.12969	48.28675	0.34932	 	2738093.445	 	2.34965E-6	 	25097.02582	34.55364	 
1040.0	1.0	0.0	7.65397	7.4072	-5.50394	19.24297	27.12903	1.18589	0.84325	130.73835	144.42742	48.45283	0.34913	 	3003364.737	 	2.13399E-6	 	24924.53226	34.49871	 
1035.0	1.0	0.0	7.65635	7.40489	-5.53332	19.22964	27.04934	1.18486	0.84398	131.16781	144.72372	48.61868	0.34894	 	3296662.412	 	1.93673E-6	 	24752.31243	34.44397	 
1030.0	1.0	0.0	7.65872	7.4026	-5.56263	19.21638	26.96964	1.18382	0.84472	131.59656	145.0186	48.78431	0.34876	 	3621187.584	 	1.75643E-6	 	24580.3654	34.38941	 
1025.73	1.0	0.0	7.66075	7.40064	-5.5876	19.20512	26.90164	1.18293	0.84536	131.96175	145.26903	48.92543	0.3486	 	3925390.673	 	1.61501E-6	 	24433.90252	 	 
1025.0	1.0	0.0	7.66141	7.40001	-5.59569	19.18904	26.87771	1.18331	0.84509	132.09506	145.35985	48.97698	0.34854	 	3985213.919	 	1.58986E-6	 	24392.25951	37.62118	 
1020.0	1.0	0.0	7.66585	7.39572	-5.65041	19.08008	26.72029	1.1857	0.84339	132.96106	145.93361	49.31245	0.34815	 	4419034.376	 	1.42826E-6	 	24111.47534	56.15683	 
1015.0	1.0	0.0	7.67023	7.39149	-5.70427	18.9733	26.56832	1.18787	0.84184	133.79906	146.48201	49.63742	0.34776	 	4903612.804	 	1.28214E-6	 	23835.0573	55.28361	 
1010.0	1.0	0.0	7.67454	7.38734	-5.75722	18.86887	26.42066	1.18987	0.84043	134.61735	147.01458	49.95494	0.34739	 	5445293.986	 	1.15012E-6	 	23562.82974	54.44551	 
1005.0	1.0	0.0	7.67878	7.38326	-5.8093	18.76671	26.27699	1.19171	0.83913	135.41774	147.53319	50.26567	0.34702	 	6051267.679	 	1.03091E-6	 	23294.62451	53.64105	 
1000.0	1.0	0.0	7.68296	7.37925	-5.86052	18.66676	26.13704	1.19341	0.83794	136.20131	148.03882	50.57003	0.34666	 	6729687.791	 	9.23361E-7	 	23030.28068	52.86877	 
995.0	1.0	0.0	7.68708	7.37529	-5.91093	18.56893	26.0006	1.19496	0.83685	136.96896	148.53223	50.86835	0.34631	 	7489810.393	 	8.26393E-7	 	22769.64425	52.12729	 
990.0	1.0	0.0	7.69113	7.37141	-5.96055	18.47313	25.86749	1.19637	0.83586	137.72147	149.01408	51.16092	0.34596	 	8342151.217	 	7.39033E-7	 	22512.56784	51.41528	 
985.0	1.0	0.0	7.69513	7.36758	-6.00941	18.37928	25.7375	1.19766	0.83496	138.45956	149.48496	51.44801	0.34563	 	9298668.636	 	6.60387E-7	 	22258.91049	50.73147	 
980.0	1.0	0.0	7.69907	7.3638	-6.05754	18.28731	25.61048	1.19881	0.83416	139.18389	149.94539	51.72988	0.34529	 	1.03729727E7	 	5.89639E-7	 	22008.53736	50.07463	 
975.0	1.0	0.0	7.70296	7.36009	-6.10497	18.19714	25.48626	1.19985	0.83344	139.89512	150.39588	52.00677	0.34497	 	1.158056939E7	 	5.26046E-7	 	21761.31949	49.44357	 
970.0	1.0	0.0	7.7068	7.35642	-6.15172	18.1087	25.36469	1.20077	0.8328	140.59383	150.8369	52.27891	0.34465	 	1.293913867E7	 	4.68927E-7	 	21517.13363	48.83717	 
965.0	1.0	0.0	7.71059	7.35281	-6.19781	18.02191	25.24562	1.20158	0.83224	141.28058	151.26887	52.54651	0.34434	 	1.446886031E7	 	4.17663E-7	 	21275.86192	48.25434	 
960.0	1.0	0.0	7.71432	7.34924	-6.24327	17.93671	25.12891	1.20229	0.83175	141.95591	151.69221	52.80977	0.34403	 	1.619278846E7	 	3.7169E-7	 	21037.39174	47.69403	 
955.0	1.0	0.0	7.71802	7.34573	-6.28813	17.85304	25.01445	1.20289	0.83133	142.62033	152.10729	53.06888	0.34373	 	1.813728671E7	 	3.30496E-7	 	20801.61549	47.15525	 
950.0	1.0	0.0	7.72166	7.34226	-6.3324	17.77082	24.90212	1.2034	0.83098	143.27431	152.51449	53.32403	0.34343	 	2.033253183E7	 	2.93613E-7	 	20568.43032	46.63703	 
945.0	1.0	0.0	7.72527	7.33883	-6.37611	17.69	24.79179	1.20381	0.83069	143.91831	152.91412	53.57539	0.34314	 	2.281310077E7	 	2.60617E-7	 	20337.73801	46.13846	 
940.0	1.0	0.0	7.72883	7.33545	-6.41927	17.61051	24.68336	1.20414	0.83047	144.55275	153.30652	53.82312	0.34285	 	2.561865055E7	 	2.31124E-7	 	20109.44472	45.65866	 
935.0	1.0	0.0	7.73236	7.33211	-6.46191	17.53231	24.57673	1.20438	0.8303	145.17805	153.69199	54.06738	0.34257	 	2.879471257E7	 	2.04783E-7	 	19883.4608	45.19678	 
930.0	1.0	0.0	7.73584	7.3288	-6.50404	17.45533	24.47182	1.20454	0.8302	145.79458	154.0708	54.30831	0.34229	 	3.239361441E7	 	1.81279E-7	 	19659.70062	44.75204	 
925.0	1.0	0.0	7.73929	7.32554	-6.54568	17.37953	24.36852	1.20461	0.83014	146.40272	154.44323	54.54605	0.34201	 	3.64755602E7	 	1.60323E-7	 	19438.08236	44.32365	 
920.0	1.0	0.0	7.7427	7.32231	-6.58685	17.30485	24.26676	1.20462	0.83014	147.0028	154.80952	54.78074	0.34174	 	4.110988384E7	 	1.41656E-7	 	19218.5279	43.91089	 
915.0	1.0	0.0	7.74607	7.31912	-6.62757	17.23124	24.16646	1.20455	0.83019	147.59517	155.16992	55.01251	0.34147	 	4.637652332E7	 	1.25043E-7	 	19000.96257	43.51307	 
910.0	1.0	0.0	7.74942	7.31596	-6.66784	17.15866	24.06754	1.20441	0.83028	148.18014	155.52464	55.24146	0.3412	 	5.23677439E7	 	1.10271E-7	 	18785.31499	43.12952	 
905.0	1.0	0.0	7.75273	7.31284	-6.70769	17.08705	23.96993	1.2042	0.83042	148.75799	155.87391	55.46772	0.34094	 	5.919014865E7	 	9.71489E-8	 	18571.51698	42.7596	 
900.0	1.0	0.0	7.75601	7.30975	-6.74713	17.01638	23.87357	1.20393	0.83061	149.32901	156.21792	55.69139	0.34068	 	6.696705317E7	 	8.55025E-8	 	18359.50337	42.40272	 
895.0	1.0	0.0	7.75925	7.30669	-6.78617	16.94661	23.77839	1.2036	0.83084	149.89348	156.55687	55.91258	0.34043	 	7.584125325E7	 	7.51761E-8	 	18149.2118	42.05831	 
890.0	1.0	0.0	7.76247	7.30366	-6.82483	16.87768	23.68434	1.20321	0.83111	150.45163	156.89093	56.13139	0.34017	 	8.597831003E7	 	6.60288E-8	 	17940.58269	41.72582	 
885.0	1.0	0.0	7.76566	7.30066	-6.86312	16.80957	23.59136	1.20276	0.83142	151.00372	157.22027	56.34789	0.33992	 	9.757037654E7	 	5.7934E-8	 	17733.55902	41.40473	 
880.0	1.0	0.0	7.76883	7.29768	-6.90104	16.74223	23.4994	1.20225	0.83177	151.54997	157.54505	56.56219	0.33968	 	1.108407534E8	 	5.07777E-8	 	17528.08616	41.09457	 
875.0	1.0	0.0	7.77197	7.29474	-6.93862	16.67562	23.40841	1.20169	0.83216	152.09059	157.86544	56.77437	0.33943	 	1.260492334E8	 	4.44575E-8	 	17324.11147	40.79494	 
870.0	1.0	0.0	7.77508	7.29182	-6.97587	16.60971	23.31834	1.20108	0.83258	152.62581	158.18156	56.9845	0.33919	 	1.434984296E8	 	3.88815E-8	 	17121.58554	40.50519	 
865.0	1.0	0.0	7.77816	7.28892	-7.01278	16.54446	23.22915	1.20042	0.83304	153.1558	158.49357	57.19266	0.33895	 	1.635412682E8	 	3.39671E-8	 	16920.46046	40.22502	 
860.0	1.0	0.0	7.78123	7.28606	-7.04938	16.47985	23.1408	1.19971	0.83354	153.68077	158.80159	57.39892	0.33871	 	1.86589848E8	 	2.96405E-8	 	16720.69035	39.95402	 
855.0	1.0	0.0	7.78427	7.28321	-7.08568	16.41583	23.05325	1.19895	0.83406	154.20088	159.10574	57.60336	0.33847	 	2.131259778E8	 	2.58355E-8	 	16522.23123	39.69182	 
850.0	1.0	0.0	7.78728	7.28039	-7.12168	16.35237	22.96646	1.19815	0.83462	154.71631	159.40615	57.80603	0.33824	 	2.437136947E8	 	2.24929E-8	 	16325.04092	39.43806	 
845.0	1.0	0.0	7.78953	7.27829	-7.14852	16.32987	22.89413	1.19658	0.83571	155.10327	159.64161	57.95777	0.33807	 	2.771867681E8	 	1.96886E-8	 	16165.92334	31.82352	 
840.0	1.0	0.0	7.79178	7.27619	-7.17529	16.30737	22.8218	1.19501	0.83682	155.48961	159.876	58.10932	0.33791	 	3.156219274E8	 	1.72137E-8	 	16003.8021	32.42425	 
835.0	1.0	0.0	7.79402	7.27409	-7.20201	16.28486	22.74945	1.19342	0.83793	155.87534	160.10933	58.26067	0.33774	 	3.598079449E8	 	1.50319E-8	 	15841.92639	32.37514	 
830.0	1.0	0.0	7.79626	7.272	-7.22867	16.26236	22.6771	1.19183	0.83905	156.26045	160.3416	58.41182	0.33758	 	4.106673332E8	 	1.31109E-8	 	15680.29557	32.32616	 
825.0	1.0	0.0	7.7985	7.26992	-7.25526	16.23985	22.60474	1.19022	0.84018	156.64494	160.57282	58.56278	0.33741	 	4.692804276E8	 	1.14213E-8	 	15518.90905	32.27731	 
820.0	1.0	0.0	7.80073	7.26784	-7.2818	16.21734	22.53236	1.18861	0.84132	157.02881	160.80299	58.71355	0.33725	 	5.369140557E8	 	9.93715E-9	 	15357.76618	32.22857	 
815.0	1.0	0.0	7.80296	7.26576	-7.30828	16.19483	22.45998	1.18699	0.84247	157.41207	161.03211	58.86412	0.33708	 	6.150557188E8	 	8.63497E-9	 	15196.86633	32.17997	 
810.0	1.0	0.0	7.80518	7.26369	-7.3347	16.17231	22.38759	1.18535	0.84363	157.79471	161.26018	59.01449	0.33691	 	7.054543982E8	 	7.49387E-9	 	15036.20883	32.1315	 
805.0	1.0	0.0	7.80741	7.26163	-7.36105	16.1498	22.31518	1.18371	0.8448	158.17673	161.48722	59.16466	0.33675	 	8.101693452E8	 	6.49516E-9	 	14875.79303	32.08316	 
800.0	1.0	0.0	7.80962	7.25956	-7.38735	16.12728	22.24277	1.18205	0.84598	158.55814	161.71322	59.31465	0.33659	 	9.316284986E8	 	5.62218E-9	 	14715.61825	32.03496	 
795.0	1.0	0.0	7.81184	7.25751	-7.41359	16.10476	22.17035	1.18039	0.84718	158.93893	161.93819	59.46443	0.33642	 	1.072698533E9	 	4.86006E-9	 	14555.68377	31.9869	 
790.0	1.0	0.0	7.81404	7.25546	-7.43977	16.08224	22.09791	1.17872	0.84838	159.31911	162.16212	59.61402	0.33626	 	1.236768982E9	 	4.19559E-9	 	14395.98888	31.93898	 
785.0	1.0	0.0	7.81625	7.25341	-7.46589	16.05971	22.02547	1.17703	0.84959	159.69867	162.38503	59.76342	0.33609	 	1.427853411E9	 	3.61702E-9	 	14236.53287	31.8912	 
780.0	1.0	0.0	7.81845	7.25137	-7.49194	16.03719	21.95301	1.17534	0.85082	160.07761	162.60692	59.91261	0.33593	 	1.650711297E9	 	3.11391E-9	 	14077.31499	31.84358	 
775.0	1.0	0.0	7.82065	7.24933	-7.51794	16.01466	21.88054	1.17363	0.85206	160.45594	162.82778	60.06162	0.33576	 	1.910995056E9	 	2.67701E-9	 	13918.33445	31.79611	 
770.0	1.0	0.0	7.82284	7.24729	-7.54388	15.99213	21.80806	1.17191	0.8533	160.83365	163.04764	60.21042	0.3356	 	2.215427714E9	 	2.29814E-9	 	13759.59047	31.7488	 
765.0	1.0	0.0	7.82503	7.24527	-7.56976	15.9696	21.73557	1.17019	0.85456	161.21075	163.26647	60.35903	0.33543	 	2.572017942E9	 	1.97003E-9	 	13601.08223	31.70165	 
760.0	1.0	0.0	7.82722	7.24324	-7.59558	15.94706	21.66306	1.16845	0.85584	161.58723	163.4843	60.50745	0.33527	 	2.99032072E9	 	1.68629E-9	 	13442.80892	31.65466	 
755.0	1.0	0.0	7.8294	7.24122	-7.62134	15.92453	21.59055	1.1667	0.85712	161.9631	163.70112	60.65566	0.3351	 	3.481753864E9	 	1.44127E-9	 	13284.76966	31.60785	 
750.0	1.0	0.0	7.83158	7.23921	-7.64703	15.90199	21.51802	1.16494	0.85841	162.33835	163.91694	60.80368	0.33494	 	4.059982988E9	 	1.22999E-9	 	13126.96356	31.56122	 
745.0	1.0	0.0	7.83376	7.2372	-7.67267	15.87945	21.44548	1.16317	0.85972	162.71298	164.13176	60.95151	0.33477	 	4.741390531E9	 	1.04808E-9	 	12969.38971	31.51477	 
740.0	1.0	0.0	7.83593	7.23519	-7.69825	15.85691	21.37292	1.16138	0.86104	163.08701	164.34559	61.09914	0.33461	 	5.545648149E9	 	8.91678E-10	 	12812.04716	31.46851	 
735.0	1.0	0.0	7.83809	7.23319	-7.72377	15.83437	21.30035	1.15959	0.86237	163.46041	164.55842	61.24657	0.33445	 	6.496416493E9	 	7.57422E-10	 	12654.93492	31.42245	 
730.0	1.0	0.0	7.84026	7.2312	-7.74923	15.81182	21.22777	1.15778	0.86372	163.83321	164.77026	61.39381	0.33428	 	7.622202215E9	 	6.42351E-10	 	12498.052	31.37658	 
725.0	1.0	0.0	7.84242	7.22921	-7.77463	15.78928	21.15518	1.15597	0.86508	164.20538	164.98112	61.54085	0.33412	 	8.957409415E9	 	5.43876E-10	 	12341.39733	31.33093	 
720.0	1.0	0.0	7.84457	7.22722	-7.79996	15.76673	21.08257	1.15414	0.86645	164.57695	165.19099	61.68769	0.33395	 	1.05436E10	 	4.59739E-10	 	12184.96981	31.2855	 
715.0	1.0	0.0	7.84672	7.22524	-7.82524	15.74418	21.00994	1.1523	0.86783	164.9479	165.39988	61.83434	0.33379	 	1.2431199999999998E10	 	3.87967E-10	 	12028.76832	31.2403	 
710.0	1.0	0.0	7.84887	7.22326	-7.85046	15.72162	20.93731	1.15044	0.86923	165.31823	165.6078	61.98079	0.33362	 	1.4681399999999998E10	 	3.26844E-10	 	11872.79167	31.19533	 
705.0	1.0	0.0	7.85101	7.22129	-7.87562	15.69907	20.86465	1.14858	0.87064	165.68795	165.81474	62.12704	0.33346	 	1.73683E10	 	2.74875E-10	 	11717.03863	31.15061	 
700.0	1.0	0.0	7.85315	7.21932	-7.90072	15.67651	20.79199	1.1467	0.87207	166.05706	166.02071	62.2731	0.3333	 	2.05825E10	 	2.30764E-10	 	11561.50793	31.10614	 
695.0	1.0	0.0	7.85529	7.21736	-7.92575	15.65396	20.7193	1.14481	0.87351	166.42555	166.22571	62.41896	0.33313	 	2.4434299999999996E10	 	1.93388E-10	 	11406.1982	31.06195	 
690.0	1.0	0.0	7.85742	7.2154	-7.95073	15.63139	20.64661	1.14291	0.87496	166.79343	166.42975	62.56463	0.33297	 	2.9058699999999996E10	 	1.61773E-10	 	11251.10808	31.01802	 
685.0	1.0	0.0	7.85955	7.21345	-7.97565	15.60883	20.57389	1.14099	0.87643	167.16069	166.63283	62.71009	0.33281	 	3.46208E10	 	1.35078E-10	 	11096.23609	30.9744	 
680.0	1.0	0.0	7.86167	7.2115	-8.00051	15.58627	20.50116	1.13907	0.87791	167.52734	166.83495	62.85536	0.33264	 	4.13234E10	 	1.12577E-10	 	10941.58069	30.93108	 
675.0	1.0	0.0	7.86379	7.20956	-8.02531	15.5637	20.42841	1.13713	0.87941	167.89338	167.03612	63.00044	0.33248	 	4.941589999999999E10	 	9.36477E-11	 	10787.14029	30.88808	 
670.0	1.0	0.0	7.86591	7.20762	-8.05004	15.54113	20.35565	1.13517	0.88092	168.25881	167.23633	63.14531	0.33231	 	5.920519999999999E10	 	7.77512E-11	 	10632.9132	30.84542	 
665.0	1.0	0.0	7.86802	7.20568	-8.07472	15.51856	20.28287	1.13321	0.88245	168.62362	167.4356	63.28999	0.33215	 	7.10707E10	 	6.44271E-11	 	10478.89766	30.80311	 
660.0	1.0	0.0	7.87013	7.20375	-8.09934	15.49599	20.21007	1.13123	0.884	168.98782	167.63391	63.43447	0.33199	 	8.54812E10	 	5.32804E-11	 	10325.09599	30.76033	 
655.0	1.0	0.0	7.87223	7.20183	-8.1239	15.47342	20.13726	1.12923	0.88556	169.3514	167.83129	63.57876	0.33182	 	1.03018E11	 	4.39734E-11	 	10171.53137	30.71292	 
650.0	1.0	0.0	7.87433	7.19991	-8.14839	15.45084	20.06442	1.12723	0.88713	169.71437	168.02773	63.72284	0.33166	 	1.24405E11	 	3.62178E-11	 	10018.23456	30.65936	 
645.0	1.0	0.0	7.87642	7.19799	-8.17283	15.42826	19.99157	1.12521	0.88872	170.07673	168.22323	63.86673	0.3315	 	1.5054E11	 	2.97679E-11	 	9865.20481	30.60595	 
640.0	1.0	0.0	7.87852	7.19608	-8.19721	15.40568	19.9187	1.12317	0.89033	170.43847	168.41779	64.01043	0.33133	 	1.82546E11	 	2.4415E-11	 	9712.44137	30.55269	 
635.0	1.0	0.0	7.8806	7.19418	-8.22152	15.3831	19.84581	1.12113	0.89196	170.79961	168.61143	64.15392	0.33117	 	2.21828E11	 	1.99815E-11	 	9559.94348	30.49958	 
630.0	1.0	0.0	7.88269	7.19227	-8.24578	15.36052	19.7729	1.11907	0.8936	171.16013	168.80414	64.29722	0.33101	 	2.70145E11	 	1.63174E-11	 	9407.7104	30.44661	 
625.0	1.0	0.0	7.88477	7.19038	-8.26998	15.33793	19.69997	1.11699	0.89526	171.52003	168.99592	64.44032	0.33084	 	3.29708E11	 	1.32955E-11	 	9255.74111	30.39386	 
620.0	1.0	0.0	7.88684	7.18849	-8.29411	15.31535	19.62703	1.1149	0.89694	171.87933	169.18678	64.58323	0.33068	 	4.03303E11	 	1.08088E-11	 	9104.0342	30.34138	 
615.0	1.0	0.0	7.88891	7.1866	-8.31819	15.29276	19.55406	1.1128	0.89864	172.23801	169.37672	64.72593	0.33052	 	4.94446E11	 	8.76706E-12	 	8952.58927	30.28899	 
610.0	1.0	0.0	7.89098	7.18472	-8.34221	15.27017	19.48107	1.11068	0.90035	172.59608	169.56575	64.86844	0.33035	 	6.07587E11	 	7.09435E-12	 	8801.40559	30.23674	 
605.0	1.0	0.0	7.89304	7.18284	-8.36616	15.24757	19.40805	1.10854	0.90208	172.95354	169.75386	65.01075	0.33019	 	7.48371E11	 	5.72715E-12	 	8650.48245	30.18463	 
600.0	1.0	0.0	7.8951	7.18097	-8.39006	15.22498	19.33502	1.1064	0.90384	173.31038	169.94106	65.15286	0.33003	 	9.23978E11	 	4.61226E-12	 	8499.81912	30.13267	 
595.0	1.0	0.0	7.89716	7.1791	-8.41389	15.20238	19.26197	1.10423	0.90561	173.66661	170.12736	65.29477	0.32987	 	1.14357E12	 	3.70527E-12	 	8349.41486	30.08085	 
590.0	1.0	0.0	7.89921	7.17723	-8.43767	15.17978	19.18889	1.10205	0.9074	174.02223	170.31275	65.43649	0.3297	 	1.41884E12	 	2.9692E-12	 	8199.26897	30.02918	 
585.0	1.0	0.0	7.90125	7.17537	-8.46138	15.15718	19.11579	1.09986	0.90921	174.37724	170.49724	65.57801	0.32954	 	1.76481E12	 	2.3733E-12	 	8049.38073	29.97765	 
580.0	1.0	0.0	7.9033	7.17352	-8.48504	15.13458	19.04266	1.09765	0.91104	174.73164	170.68083	65.71933	0.32938	 	2.20076E12	 	1.89208E-12	 	7899.74943	29.92626	 
575.0	1.0	0.0	7.90533	7.17167	-8.50863	15.11197	18.96951	1.09542	0.91289	175.08542	170.86352	65.86045	0.32922	 	2.75155E12	 	1.50447E-12	 	7750.37437	29.87501	 
570.0	1.0	0.0	7.90737	7.16983	-8.53217	15.08937	18.89634	1.09318	0.91476	175.43859	171.04532	66.00138	0.32905	 	3.44931E12	 	1.19305E-12	 	7601.25482	29.82391	 
565.0	1.0	0.0	7.9094	7.16799	-8.55564	15.06676	18.82314	1.09093	0.91665	175.79115	171.22623	66.1421	0.32889	 	4.33569E12	 	9.43517E-13	 	7452.3901	29.77295	 
560.0	1.0	0.0	7.91142	7.16615	-8.57905	15.04415	18.74992	1.08865	0.91857	176.1431	171.40625	66.28263	0.32873	 	5.46484E12	 	7.44102E-13	 	7303.77948	29.72212	 
555.0	1.0	0.0	7.91344	7.16432	-8.60241	15.02154	18.67667	1.08636	0.9205	176.49444	171.58538	66.42296	0.32857	 	6.90732E12	 	5.85175E-13	 	7155.4223	29.67144	 
550.0	1.0	0.0	7.91546	7.16249	-8.6257	14.99892	18.60339	1.08406	0.92246	176.84516	171.76363	66.56309	0.3284	 	8.75544E12	 	4.58868E-13	 	7007.31784	29.62089	 
545.0	1.0	0.0	7.91747	7.16067	-8.64893	14.9763	18.53009	1.08174	0.92444	177.19528	171.94101	66.70302	0.32824	 	1.11303E13	 	3.58769E-13	 	6859.46543	29.57048	 
540.0	1.0	0.0	7.91948	7.15886	-8.6721	14.95369	18.45676	1.0794	0.92644	177.54478	172.1175	66.84276	0.32808	 	1.4191E13	 	2.79669E-13	 	6711.86438	29.52021	 
535.0	1.0	0.0	7.92149	7.15705	-8.69522	14.93107	18.3834	1.07704	0.92847	177.89367	172.29312	66.98229	0.32792	 	1.8148E13	 	2.17346E-13	 	6564.51399	29.47008	 
530.0	1.0	0.0	7.92349	7.15524	-8.71827	14.90844	18.31002	1.07467	0.93052	178.24195	172.46787	67.12163	0.32775	 	2.32794E13	 	1.68388E-13	 	6417.4136	29.42008	 
525.0	1.0	0.0	7.92548	7.15344	-8.74126	14.88582	18.2366	1.07228	0.9326	178.58962	172.64176	67.26076	0.32759	 	2.99551E13	 	1.30047E-13	 	6270.56254	29.37021	 
520.0	1.0	0.0	7.92748	7.15164	-8.76419	14.86319	18.16315	1.06987	0.93469	178.93667	172.81477	67.3997	0.32743	 	3.86679E13	 	1.00113E-13	 	6123.96013	29.32048	 
515.0	1.0	0.0	7.92946	7.14985	-8.78706	14.84057	18.08968	1.06744	0.93682	179.28312	172.98692	67.53844	0.32727	 	5.00769E13	 	7.68171E-14	 	5977.60572	29.27088	 
510.0	1.0	0.0	7.93145	7.14806	-8.80987	14.81794	18.01617	1.065	0.93897	179.62895	173.15821	67.67698	0.32711	 	6.50666E13	 	5.87454E-14	 	5831.49861	29.22142	 
505.0	1.0	0.0	7.93343	7.14627	-8.83262	14.7953	17.94263	1.06253	0.94115	179.97418	173.32864	67.81533	0.32694	 	8.48281E13	 	4.47724E-14	 	5685.63819	29.17208	 
500.0	1.0	0.0	7.9354	7.1445	-8.85531	14.77267	17.86906	1.06005	0.94335	180.31879	173.49822	67.95347	0.32678	 	1.10971E14	 	3.40047E-14	 	5540.02379	29.12288	 
495.0	1.0	0.0	7.93737	7.14272	-8.87794	14.75004	17.79546	1.05755	0.94558	180.66279	173.66694	68.09141	0.32662	 	1.4568E14	 	2.57354E-14	 	5394.65475	29.07381	 
490.0	1.0	0.0	7.93934	7.14095	-8.90051	14.7274	17.72182	1.05504	0.94783	181.00618	173.83481	68.22916	0.32646	 	1.91929E14	 	1.94069E-14	 	5249.53045	29.02486	 
485.0	1.0	0.0	7.9413	7.13919	-8.92302	14.70476	17.64815	1.0525	0.95012	181.34896	174.00184	68.3667	0.3263	 	2.5378099999999997E14	 	1.45809E-14	 	5104.65023	28.97604	 
480.0	1.0	0.0	7.94326	7.13743	-8.94547	14.68212	17.57444	1.04994	0.95243	181.69113	174.16802	68.50405	0.32613	 	3.36812E14	 	1.09139E-14	 	4960.01348	28.92735	 
475.0	1.0	0.0	7.94521	7.13567	-8.96786	14.65947	17.5007	1.04737	0.95477	182.03269	174.33335	68.64119	0.32597	 	4.48705E14	 	8.13795E-15	 	4815.61957	28.87878	 
470.0	1.0	0.0	7.94716	7.13392	-8.99018	14.63683	17.42692	1.04477	0.95715	182.37363	174.49785	68.77814	0.32581	 	6.0008E14	 	6.04441E-15	 	4671.46786	28.83034	 
465.0	1.0	0.0	7.94911	7.13218	-9.01245	14.61418	17.3531	1.04216	0.95955	182.71397	174.66151	68.91489	0.32565	 	8.0569E14	 	4.4716E-15	 	4527.55776	28.78202	 
460.0	1.0	0.0	7.95105	7.13044	-9.03466	14.59153	17.27925	1.03952	0.96198	183.0537	174.82433	69.05144	0.32549	 	1.08611E15	 	3.29463E-15	 	4383.88866	28.73382	 
455.0	1.0	0.0	7.95298	7.1287	-9.0568	14.56888	17.20536	1.03687	0.96444	183.39281	174.98632	69.18778	0.32533	 	1.47014E15	 	2.41741E-15	 	4240.45994	28.68574	 
450.0	1.0	0.0	7.95492	7.12697	-9.07889	14.54623	17.13142	1.03419	0.96694	183.73132	175.14748	69.32393	0.32517	 	1.99831E15	 	1.76625E-15	 	4097.27102	28.63778	 
445.0	1.0	0.0	7.95684	7.12524	-9.10091	14.52357	17.05745	1.0315	0.96947	184.06921	175.30781	69.45988	0.325	 	2.72786E15	 	1.28493E-15	 	3954.3213	28.58994	 
440.0	1.0	0.0	7.95877	7.12352	-9.12288	14.50092	16.98343	1.02878	0.97203	184.4065	175.46731	69.59563	0.32484	 	3.74005E15	 	9.30659E-16	 	3811.61021	28.54222	 
435.0	1.0	0.0	7.96069	7.12181	-9.14478	14.47826	16.90937	1.02604	0.97462	184.74317	175.626	69.73118	0.32468	 	5.15072E15	 	6.71033E-16	 	3669.13716	28.49461	 
430.0	1.0	0.0	7.9626	7.12009	-9.16663	14.4556	16.83527	1.02328	0.97725	185.07923	175.78386	69.86653	0.32452	 	7.12583E15	 	4.81614E-16	 	3526.90159	28.44711	 
425.0	1.0	0.0	7.96451	7.11839	-9.18841	14.43293	16.76113	1.0205	0.97991	185.41469	175.9409	70.00167	0.32436	 	9.90425E15	 	3.44044E-16	 	3384.903	28.39972	 
420.0	1.0	0.0	7.96642	7.11668	-9.21013	14.41027	16.68693	1.01769	0.98261	185.74953	176.09713	70.13662	0.3242	 	1.38316E16	 	2.44592E-16	 	3243.14075	28.35245	 
415.0	1.0	0.0	7.96832	7.11498	-9.23179	14.3876	16.61269	1.01487	0.98535	186.08376	176.25255	70.27137	0.32404	 	1.94101E16	 	1.73038E-16	 	3101.61452	28.30525	 
410.0	1.0	0.0	7.97021	7.11329	-9.2534	14.36494	16.53841	1.01202	0.98812	186.41739	176.40715	70.40592	0.32388	 	2.73741E16	 	1.21804E-16	 	2960.32414	28.25808	 
405.0	1.0	0.0	7.97211	7.1116	-9.27494	14.34227	16.46407	1.00915	0.99094	186.7504	176.56095	70.54027	0.32371	 	3.88019E16	 	8.53021E-17	 	2819.26944	28.21094	 
400.0	1.0	0.0	7.97399	7.10992	-9.29642	14.31959	16.38969	1.00625	0.99379	187.0828	176.71394	70.67441	0.32355	 	5.52862E16	 	5.94268E-17	 	2678.45023	28.16384	 
395.0	1.0	0.0	7.97588	7.10824	-9.31784	14.29692	16.31525	1.00334	0.99668	187.4146	176.86613	70.80836	0.32339	 	7.91921E16	 	4.11793E-17	 	2537.86634	28.11678	 
390.0	1.0	0.0	7.97776	7.10657	-9.3392	14.27424	16.24077	1.00039	0.99961	187.74578	177.01751	70.9421	0.32323	 	1.14051E17	 	2.83791E-17	 	2397.51764	28.06974	 
385.0	1.0	0.0	7.97963	7.1049	-9.3605	14.25156	16.16623	0.99743	1.00258	188.07635	177.1681	71.07565	0.32307	 	1.65168E17	 	1.94485E-17	 	2257.40397	28.02273	 
380.0	1.0	0.0	7.9815	7.10323	-9.38174	14.22888	16.09163	0.99444	1.00559	188.40632	177.31789	71.20899	0.32291	 	2.40555E17	 	1.32521E-17	 	2117.52521	27.97575	 
375.0	1.0	0.0	7.98337	7.10157	-9.40292	14.2062	16.01698	0.99143	1.00865	188.73567	177.46689	71.34214	0.32275	 	3.52388E17	 	8.97721E-18	 	1977.88123	27.9288	 
370.0	1.0	0.0	7.98523	7.09992	-9.42403	14.18352	15.94227	0.98839	1.01175	189.06441	177.61509	71.47508	0.32259	 	5.19285E17	 	6.04495E-18	 	1838.47192	27.88186	 
365.0	1.0	0.0	7.98709	7.09827	-9.44509	14.16083	15.8675	0.98533	1.01489	189.39255	177.76251	71.60782	0.32243	 	7.69892E17	 	4.04557E-18	 	1699.29718	27.83495	 
360.0	1.0	0.0	7.98894	7.09662	-9.46609	14.13815	15.79267	0.98224	1.01808	189.72007	177.90913	71.74036	0.32227	 	1.14856E18	 	2.69053E-18	 	1560.35694	27.78805	 
355.0	1.0	0.0	7.99079	7.09498	-9.48702	14.11546	15.71779	0.97912	1.02132	190.04699	178.05498	71.8727	0.32211	 	1.72443E18	 	1.77789E-18	 	1421.6511	27.74117	 
350.0	1.0	0.0	7.99263	7.09334	-9.5079	14.09276	15.64283	0.97599	1.02461	190.37329	178.20004	72.00484	0.32195	 	2.60597E18	 	1.16711E-18	 	1283.17963	27.6943	 
345.0	1.0	0.0	7.99447	7.09171	-9.52871	14.07007	15.56782	0.97282	1.02794	190.69899	178.34432	72.13677	0.32179	 	3.96454E18	 	7.61006E-19	 	1144.94245	27.64744	 
340.0	1.0	0.0	7.9963	7.09008	-9.54947	14.04738	15.49273	0.96963	1.03132	191.02408	178.48782	72.26851	0.32163	 	6.07279E18	 	4.92793E-19	 	1006.93955	27.60058	 
335.0	1.0	0.0	7.99813	7.08846	-9.57016	14.02468	15.41758	0.96641	1.03476	191.34855	178.63054	72.40004	0.32147	 	9.36763E18	 	3.1686E-19	 	869.17091	27.55373	 
330.0	1.0	0.0	7.99996	7.08684	-9.59079	14.00198	15.34236	0.96316	1.03825	191.67242	178.7725	72.53138	0.32131	 	1.45543E19	 	2.02265E-19	 	731.63652	27.50688	 
325.0	1.0	0.0	8.00178	7.08523	-9.61136	13.97928	15.26707	0.95989	1.04179	191.99568	178.91368	72.66251	0.32115	 	2.278E19	 	1.28157E-19	 	594.33639	27.46002	 
320.0	1.0	0.0	8.00359	7.08362	-9.63188	13.95658	15.1917	0.95659	1.04538	192.31833	179.05409	72.79344	0.32099	 	3.59248E19	 	8.05855E-20	 	457.27058	27.41316	 
315.0	1.0	0.0	8.00541	7.08202	-9.65233	13.93387	15.11626	0.95326	1.04904	192.64037	179.19373	72.92416	0.32083	 	5.70952E19	 	5.02777E-20	 	320.43909	27.3663	 
310.0	1.0	0.0	8.00721	7.08042	-9.67272	13.91116	15.04074	0.9499	1.05274	192.9618	179.33261	73.05469	0.32067	 	9.1465E19	 	3.1118E-20	 	183.84202	27.31941	 
305.0	1.0	0.0	8.00902	7.07883	-9.69305	13.88845	14.96515	0.94651	1.05651	193.28262	179.47073	73.18501	0.32051	 	1.47724E20	 	1.91019E-20	 	47.47945	27.27251	 
300.0	1.0	0.0	8.01081	7.07724	-9.71332	13.86574	14.88947	0.94309	1.06034	193.60283	179.60809	73.31514	0.32035	 	2.4058999999999997E20	 	1.16272E-20	 	-88.64851	27.22559	 
295.0	1.0	0.0	8.01261	7.07566	-9.73352	13.84303	14.8137	0.93965	1.06423	193.92244	179.74469	73.44506	0.32019	 	3.95216E20	 	7.01641E-21	 	-224.54176	27.17865	 
290.0	1.0	0.0	8.0144	7.07408	-9.75367	13.82032	14.73786	0.93617	1.06818	194.24143	179.88053	73.57477	0.32003	 	6.54965E20	 	4.19655E-21	 	-360.20014	27.13168	 
285.0	1.0	0.0	8.01618	7.0725	-9.77376	13.7976	14.66192	0.93267	1.0722	194.55982	180.01562	73.70429	0.31987	 	1.0953E21	 	2.48717E-21	 	-495.62346	27.08467	 
280.0	1.0	0.0	8.01796	7.07093	-9.79379	13.77488	14.58589	0.92913	1.07628	194.87759	180.14996	73.8336	0.31971	 	1.8487800000000001E21	 	1.46031E-21	 	-630.81157	27.03762	 
275.0	1.0	0.0	8.01973	7.06937	-9.81375	13.75216	14.50977	0.92556	1.08043	195.19476	180.28355	73.96272	0.31955	 	3.15053E21	 	8.49185E-22	 	-765.76422	26.99053	 
270.0	1.0	0.0	8.0215	7.06781	-9.83366	13.72944	14.43355	0.92196	1.08464	195.51132	180.41639	74.09162	0.31939	 	5.42182E21	 	4.88947E-22	 	-900.48118	26.94339	 
265.0	1.0	0.0	8.02327	7.06625	-9.8535	13.70671	14.35724	0.91833	1.08893	195.82727	180.54849	74.22033	0.31923	 	9.42513E21	 	2.78678E-22	 	-1034.96217	26.8962	 
260.0	1.0	0.0	8.02503	7.0647	-9.87328	13.68399	14.28082	0.91467	1.0933	196.14261	180.67984	74.34884	0.31907	 	1.6555199999999998E22	 	1.57182E-22	 	-1169.20691	26.84895	 
255.0	1.0	0.0	8.02679	7.06315	-9.89301	13.66126	14.2043	0.91097	1.09773	196.45734	180.81045	74.47714	0.31891	 	2.93909E22	 	8.77064E-23	 	-1303.21506	26.80163	 
250.0	1.0	0.0	8.02854	7.06161	-9.91267	13.63853	14.12768	0.90724	1.10225	196.77147	180.94032	74.60524	0.31875	 	5.27541E22	 	4.84013E-23	 	-1436.98626	26.75424	 
245.0	1.0	0.0	8.03029	7.06008	-9.93227	13.6158	14.05094	0.90348	1.10684	197.08498	181.06946	74.73313	0.31859	 	9.57641E22	 	2.64082E-23	 	-1570.52014	26.70678	 
240.0	1.0	0.0	8.03203	7.05855	-9.95181	13.59306	13.97409	0.89968	1.11151	197.39789	181.19786	74.86083	0.31843	 	1.75871E23	 	1.42408E-23	 	-1703.81626	26.65922	 
235.0	1.0	0.0	8.03377	7.05702	-9.97129	13.57033	13.89712	0.89585	1.11626	197.71019	181.32553	74.98832	0.31827	 	3.26876E23	 	7.58744E-24	 	-1836.87417	26.61158	 
230.0	1.0	0.0	8.0355	7.0555	-9.99071	13.54759	13.82003	0.89198	1.1211	198.02188	181.45247	75.11561	0.31811	 	6.15065E23	 	3.99266E-24	 	-1969.69336	26.56384	 
225.0	1.0	0.0	8.03723	7.05398	-10.01006	13.52485	13.74282	0.88808	1.12603	198.33296	181.57868	75.24269	0.31795	 	1.1721200000000001E24	 	2.07432E-24	 	-2102.27332	26.51599	 
220.0	1.0	0.0	8.03895	7.05247	-10.02936	13.50211	13.66548	0.88414	1.13104	198.64343	181.70416	75.36957	0.3178	 	2.26307E24	 	1.06357E-24	 	-2234.61345	26.46803	 
215.0	1.0	0.0	8.04067	7.05096	-10.0486	13.47936	13.588	0.88016	1.13615	198.9533	181.82892	75.49625	0.31764	 	4.4287300000000004E24	 	5.37973E-25	 	-2366.71314	26.41994	 
210.0	1.0	0.0	8.04239	7.04946	-10.06777	13.45662	13.51039	0.87615	1.14135	199.26255	181.95296	75.62273	0.31748	 	8.78812E24	 	2.68332E-25	 	-2498.57173	26.37172	 
205.0	1.0	0.0	8.0441	7.04796	-10.08689	13.43387	13.43264	0.87211	1.14665	199.5712	182.07627	75.749	0.31732	 	1.76903E25	 	1.31921E-25	 	-2630.1885	26.32335	 
200.0	1.0	0.0	8.0458	7.04646	-10.10594	13.41112	13.35475	0.86802	1.15205	199.87924	182.19887	75.87507	0.31716	 	3.61409E25	 	6.3898E-26	 	-2761.56269	26.27484	 
195.0	1.0	0.0	8.0475	7.04497	-10.12493	13.38837	13.2767	0.86389	1.15755	200.18667	182.32075	76.00093	0.317	 	7.49701E25	 	3.04778E-26	 	-2892.6935	26.22616	 
190.0	1.0	0.0	8.0492	7.04349	-10.14387	13.36562	13.1985	0.85973	1.16315	200.49349	182.44192	76.1266	0.31684	 	1.57986E26	 	1.43083E-26	 	-3023.58005	26.17731	 
185.0	1.0	0.0	8.05089	7.04201	-10.16274	13.34286	13.12014	0.85553	1.16887	200.79971	182.56238	76.25205	0.31668	 	3.3839E26	 	6.60811E-27	 	-3154.2214	26.12827	 
180.0	1.0	0.0	8.05257	7.04054	-10.18155	13.32011	13.04162	0.85129	1.17469	201.10532	182.68212	76.37731	0.31653	 	7.37081E26	 	3.00064E-27	 	-3284.61657	26.07903	 
175.0	1.0	0.0	8.05426	7.03907	-10.2003	13.29735	12.96292	0.84701	1.18063	201.41032	182.80116	76.50236	0.31637	 	1.63364E27	 	1.33892E-27	 	-3414.76451	26.02959	 
170.0	1.0	0.0	8.05593	7.0376	-10.21899	13.27459	12.88405	0.84268	1.18669	201.71471	182.91949	76.62721	0.31621	 	3.68637E27	 	5.86731E-28	 	-3544.66408	25.97991	 
165.0	1.0	0.0	8.0576	7.03614	-10.23762	13.25182	12.805	0.83832	1.19286	202.01849	183.03712	76.75185	0.31605	 	8.47436E27	 	2.5235E-28	 	-3674.31408	25.93	 
160.0	1.0	0.0	8.05927	7.03469	-10.25618	13.22906	12.72575	0.83391	1.19917	202.32167	183.15404	76.87629	0.31589	 	1.98592E28	 	1.06454E-28	 	-3803.71327	25.87984	 
155.0	1.0	0.0	8.06093	7.03324	-10.27469	13.20629	12.64631	0.82947	1.2056	202.62424	183.27027	77.00053	0.31573	 	4.74738E28	 	4.40178E-29	 	-3932.86025	25.8294	 
150.0	1.0	0.0	8.06259	7.03179	-10.29313	13.18352	12.56667	0.82497	1.21216	202.9262	183.38579	77.12456	0.31557	 	1.15849E29	 	1.78275E-29	 	-4061.75361	25.77867	 
145.0	1.0	0.0	8.06424	7.03035	-10.31152	13.16075	12.48682	0.82044	1.21886	203.22755	183.50062	77.24839	0.31542	 	2.88798E29	 	7.06683E-30	 	-4190.3918	25.72764	 
140.0	1.0	0.0	8.06589	7.02891	-10.32984	13.13798	12.40675	0.81586	1.2257	203.5283	183.61476	77.37201	0.31526	 	7.36036E29	 	2.73965E-30	 	-4318.77319	25.67628	 
135.0	1.0	0.0	8.06753	7.02748	-10.3481	13.11521	12.32645	0.81124	1.23269	203.82844	183.7282	77.49543	0.3151	 	1.91937E30	 	1.03788E-30	 	-4446.89605	25.62457	 
130.0	1.0	0.0	8.06917	7.02605	-10.3663	13.09243	12.24592	0.80657	1.23982	204.12797	183.84095	77.61865	0.31494	 	5.12559E30	 	3.83893E-31	 	-4574.75853	25.5725	 
125.0	1.0	0.0	8.07081	7.02463	-10.38445	13.06965	12.16515	0.80185	1.24711	204.42689	183.95302	77.74166	0.31478	 	1.40295E31	 	1.38513E-31	 	-4702.35869	25.52003	 
120.0	1.0	0.0	8.07243	7.02322	-10.40252	13.04687	12.08412	0.79709	1.25456	204.72521	184.0644	77.86447	0.31463	 	3.93971E31	 	4.87058E-32	 	-4829.69442	25.46715	 
115.0	1.0	0.0	8.07406	7.0218	-10.42054	13.02409	12.00283	0.79229	1.26217	205.02292	184.17509	77.98707	0.31447	 	1.13616E32	 	1.66743E-32	 	-4956.76353	25.41382	 
110.0	1.0	0.0	8.07568	7.0204	-10.4385	13.0013	11.92127	0.78743	1.26995	205.32003	184.2851	78.10947	0.31431	 	3.36836E32	 	5.55183E-33	 	-5083.56366	25.36003	 
105.0	1.0	0.0	8.07729	7.01899	-10.4564	12.97852	11.83942	0.78253	1.27791	205.61652	184.39443	78.23166	0.31415	 	1.02773E33	 	1.79585E-33	 	-5210.09231	25.30573	 
100.0	1.0	0.0	8.0789	7.01759	-10.47423	12.95573	11.75728	0.77758	1.28605	205.91241	184.50308	78.35365	0.31399	 	3.23091E33	 	5.63697E-34	 	-5336.3468	25.2509	 
95.0	1.0	0.0	8.08051	7.0162	-10.49201	12.93294	11.67483	0.77257	1.29437	206.2077	184.61105	78.47544	0.31384	 	1.0478E34	 	1.71487E-34	 	-5462.32433	25.19551	 
90.0	1.0	0.0	8.0821	7.01481	-10.50972	12.91015	11.59206	0.76752	1.30289	206.50237	184.71835	78.59702	0.31368	 	3.5100000000000004E34	 	5.04971E-35	 	-5588.02187	25.13951	 
85.0	1.0	0.0	8.0837	7.01343	-10.52737	12.88735	11.50896	0.76242	1.31161	206.79644	184.82497	78.71839	0.31352	 	1.21616E35	 	1.43734E-35	 	-5713.4362	25.08287	 
80.0	1.0	0.0	8.08529	7.01205	-10.54497	12.86456	11.42551	0.75727	1.32054	207.08991	184.93093	78.83957	0.31336	 	4.3647499999999994E35	 	3.94899E-36	 	-5838.56394	25.02555	 
75.0	1.0	0.0	8.08687	7.01068	-10.5625	12.84176	11.34169	0.75206	1.32967	207.38277	185.03621	78.96053	0.31321	 	1.62505E36	 	1.04565E-36	 	-5963.40143	24.9675	 
70.0	1.0	0.0	8.08845	7.00931	-10.57997	12.81896	11.2575	0.74681	1.33903	207.67502	185.14083	79.08129	0.31305	 	6.28656E36	 	2.66414E-37	 	-6087.9448	24.90867	 
65.0	1.0	0.0	8.09003	7.00794	-10.59738	12.79616	11.1729	0.7415	1.34862	207.96667	185.24478	79.20185	0.31289	 	2.53124E37	 	6.52022E-38	 	-6212.18992	24.84902	 
60.0	1.0	0.0	8.0916	7.00658	-10.61472	12.77336	11.08789	0.73613	1.35845	208.25771	185.34806	79.3222	0.31273	 	1.0627E38	 	1.53008E-38	 	-6336.13239	24.78849	 
55.0	1.0	0.0	8.09316	7.00523	-10.63201	12.75055	11.00245	0.73072	1.36852	208.54814	185.45069	79.44235	0.31258	 	4.66099E38	 	3.43622E-39	 	-6459.7675	24.72702	 
50.0	1.0	0.0	8.09472	7.00388	-10.64923	12.72775	10.91656	0.72524	1.37884	208.83797	185.55265	79.56229	0.31242	 	2.14E39	 	7.37017E-40	 	-6583.09024	24.66455	 
45.0	1.0	0.0	8.09628	7.00253	-10.6664	12.70494	10.83018	0.71972	1.38943	209.1272	185.65396	79.68203	0.31226	 	1.03075E40	 	1.50649E-40	 	-6706.09524	24.601	 
40.0	1.0	0.0	8.09783	7.00119	-10.6835	12.68213	10.74331	0.71414	1.40029	209.41582	185.75461	79.80156	0.3121	 	5.22032E40	 	2.92781E-41	 	-6828.77677	24.53631	 
35.0	1.0	0.0	8.09938	6.99985	-10.70054	12.65931	10.65591	0.7085	1.41144	209.70384	185.85461	79.92089	0.31195	 	2.7867800000000003E41	 	5.39691E-42	 	-6951.12869	24.47038	 
30.0	1.0	0.0	8.10092	6.99852	-10.71753	12.6365	10.56796	0.7028	1.42288	209.99125	185.95396	80.04001	0.31179	 	1.5721899999999998E42	 	9.41108E-43	 	-7073.14443	24.40315	 
25.0	1.0	0.0	8.10245	6.9972	-10.73445	 	10.47943	0.69705	1.43462	210.27806	186.05265	80.15893	0.31163	 	9.399579999999999E42	 	1.54815E-43	 	-7194.81695	 	 
