T (C)	Fraction solid (wt)-TOTAL	Fraction liquid (wt)-LIQUID	Density (g/(cm)^3)-TOTAL	Molar volume (cm^3)-TOTAL	Volume change (%)-  	Average expansion coeff. (10e-6 1/K)-  	Thermal conductivity (W/(m*K))-TOTAL	Electrical resistivity (10e-6 Ohm*m)-TOTAL	Electrical conductivity (10e6 1/(Ohm*m))-TOTAL	Young's modulus (GPa)-TOTAL	Bulk modulus (GPa)-TOTAL	Shear modulus(GPa)-TOTAL	Poisson's ratio-TOTAL	Liquid viscosity (mPa s)-  	Total viscosity (mPa s)-  	Liquid diffusivity (10e-9 (m^2)/s)-  	Total diffusivity (10e-9 (m^2)/s)-  	Surface Tension (mN/m)-  	Enthalpy (J/mole)-TOTAL	Specific heat (J/(mole K))-TOTAL	Latent heat (J/mole)-TOTAL
1400.0	0.0	1.0	7.21855	7.75891	0.0	29.37372	29.57598	1.386	0.7215	0.0	124.62134	0.0	0.5	6.77286	6.77286	1.20573	1.20573	1752.65308	56581.865	 	0.0
1395.0	0.0	1.0	7.22246	7.7547	-0.054215	29.33303	29.49777	1.38552	0.72175	0.0	124.78065	0.0	0.5	6.84421	6.84421	1.18959	1.18959	1754.84797	56376.395	41.094	0.0
1390.0	0.0	1.0	7.22637	7.7505	-0.10827	29.29247	29.41957	1.38504	0.722	0.0	124.93997	0.0	0.5	6.91675	6.91675	1.17359	1.17359	1757.05848	56171.396	40.9998	0.0
1385.0	0.0	1.0	7.23027	7.74632	-0.16217	29.25206	29.34136	1.38455	0.72225	0.0	125.09929	0.0	0.5	6.99051	6.99051	1.15772	1.15772	1759.28457	55966.866	40.906	0.0
1380.0	0.0	1.0	7.23417	7.74215	-0.21591	29.21178	29.26315	1.38407	0.72251	0.0	125.2586	0.0	0.5	7.0655	7.0655	1.14197	1.14197	1761.5262	55762.803	40.8126	0.0
1375.0	0.0	1.0	7.23805	7.738	-0.26949	29.17164	29.18494	1.38358	0.72276	0.0	125.41792	0.0	0.5	7.14176	7.14176	1.12636	1.12636	1763.78332	55559.204	40.7198	0.0
1370.0	0.0	1.0	7.24193	7.73385	-0.32292	29.13164	29.10674	1.38309	0.72302	0.0	125.57724	0.0	0.5	7.21931	7.21931	1.11088	1.11088	1766.05586	55356.068	40.6272	0.0
1365.0	0.0	1.0	7.2458	7.72972	-0.37618	29.09178	29.02853	1.38259	0.72328	0.0	125.73655	0.0	0.5	7.29819	7.29819	1.09553	1.09553	1768.34374	55153.392	40.5352	0.0
1360.0	0.0	1.0	7.24967	7.7256	-0.42929	29.05207	28.95032	1.3821	0.72354	0.0	125.89587	0.0	0.5	7.37842	7.37842	1.08031	1.08031	1770.64687	54951.174	40.4436	0.0
1355.0	0.0	1.0	7.25353	7.72149	-0.48224	29.0125	28.87211	1.3816	0.7238	0.0	126.05519	0.0	0.5	7.46003	7.46003	1.06522	1.06522	1772.96514	54749.411	40.3526	0.0
1353.01	0.0	1.0	7.25506	7.71986	-0.50322	28.99684	28.84106	1.3814	0.7239	0.0	126.11844	0.0	0.5	7.49283	7.49283	1.05927	1.05927	1773.88976	54669.441	40.28289	0.0
1350.0	0.0865712	0.91343	7.27564	7.69811	-0.78353	28.27218	29.12392	1.36545	0.73236	0.0053322	125.99479	0.00179182	0.48793	7.54846	10.47751	1.04951	0.75611	1773.19639	53168.783	497.76535	1379.316
1345.0	0.2084	0.7916	7.30504	7.66706	-1.18374	27.24617	29.52059	1.34295	0.74463	0.18263	125.86417	0.0620847	0.47077	7.64085	81.91695	1.03363	0.0964121	1772.21545	51036.813	426.394	3310.428
1340.0	0.30678	0.69322	7.32936	7.64163	-1.5115	26.41829	29.83736	1.32459	0.75495	0.87211	125.8311	0.29933	0.45677	7.73384	370.2189	1.01804	0.0212668	1771.42073	49286.962	349.9702	4859.87
1335.0	0.38745	0.61255	7.34981	7.62038	-1.78537	25.73783	30.09308	1.30926	0.76379	2.25159	125.87506	0.779	0.44518	7.82748	983.26763	1.00275	0.00798255	1770.7934	47825.745	292.2434	6121.125
1330.0	0.45451	0.54549	7.36729	7.60226	-2.01885	25.16779	30.30004	1.29627	0.77144	4.31904	125.97944	1.50441	0.43546	7.92197	1968.72139	0.98771	0.00397445	1770.31679	46586.417	247.8656	7160.935
1325.0	0.5109	0.4891	7.38243	7.58668	-2.21967	24.68728	30.46788	1.28511	0.77814	6.97494	126.13486	2.44353	0.42723	8.01732	3335.87073	0.97292	0.00233827	1769.97535	45520.357	213.212	8027.921
1320.0	0.55883	0.44117	7.3957	7.57306	-2.39524	24.27593	30.60317	1.27543	0.78405	10.08775	126.33086	3.55159	0.42017	8.11367	5076.13363	0.95835	0.00153183	1769.7559	44591.506	185.7702	8758.137
1315.0	0.59992	0.40008	7.40748	7.561	-2.55068	23.9197	30.71128	1.26695	0.7893	13.52661	126.56034	4.78285	0.41408	8.21106	7174.83011	0.94402	0.00108036	1769.64671	43772.691	163.763	9378.757
1310.0	0.63546	0.36454	7.41803	7.55021	-2.68972	23.60839	30.79657	1.25946	0.79399	17.17914	126.81755	6.09724	0.40876	8.30957	9618.84763	0.92989	8.03315E-4	1769.63719	43043.131	145.912	9910.556
1305.0	0.66641	0.33359	7.42758	7.5405	-2.81492	23.33506	30.86247	1.25281	0.79821	20.9515	127.09851	7.46081	0.4041	8.40931	12398.8217	0.91596	6.21233E-4	1769.71784	42386.729	131.2804	10369.633
1300.0	0.69356	0.30644	7.43628	7.53166	-2.92882	23.09272	30.91177	1.24684	0.80202	24.7707	127.39901	8.84675	0.39999	8.51029	15509.19721	0.90222	4.95071E-4	1769.88058	41790.859	119.174	10768.609
1296.3	0.71147	0.28853	7.44225	7.52558	-3.00715	22.92969	30.93846	1.24284	0.80461	27.58211	127.63234	9.87014	0.39725	8.58596	18016.2376	0.89217	4.25177E-4	1770.04901	41384.021	 	11029.986
1295.0	0.72105	0.27895	7.4452	7.52261	-3.04542	22.84052	30.96068	1.24092	0.80585	29.1818	127.74959	10.45365	0.39577	8.62733	19337.02551	0.88715	3.95808E-4	1770.13861	41185.055	121.1608	11177.951
1290.0	0.75425	0.24575	7.45561	7.51199	-3.18239	22.52612	31.03145	1.23414	0.81028	35.30068	128.18559	12.69253	0.39061	8.78566	24749.84741	0.86839	3.08258E-4	1770.51305	40480.517	140.9076	11686.453
1285.0	0.78149	0.21851	7.4646	7.50279	-3.30098	22.2638	31.07691	1.22839	0.81407	41.06226	128.61169	14.80969	0.38633	8.94366	30507.2528	0.85032	2.49283E-4	1770.9337	39872.5	121.6034	12098.86
1280.0	0.80419	0.19581	7.47251	7.49473	-3.40486	22.04315	31.10264	1.22344	0.81737	46.43142	129.03274	16.78971	0.38273	9.10179	36601.01645	0.83286	2.07113E-4	1771.39854	39337.641	106.9718	12438.534
1275.0	0.82336	0.17664	7.47957	7.48752	-3.4977	21.85375	31.11268	1.21911	0.82027	51.4086	129.45049	18.63074	0.37967	9.26032	43042.3304	0.81597	1.75551E-4	1771.90629	38859.338	95.6606	12722.074
1270.0	0.83973	0.16027	7.48597	7.48096	-3.58222	21.68781	31.11002	1.21527	0.82286	56.01617	129.86581	20.33955	0.37703	9.41962	49858.85748	0.79958	1.51061E-4	1772.45544	38425.528	86.762	12961.54
1265.0	0.85386	0.14614	7.49184	7.47496	-3.6596	21.54202	31.09712	1.21184	0.82519	60.2801	130.28044	21.92449	0.37472	9.58002	57085.93958	0.78364	1.31509E-4	1773.0431	38027.269	79.6518	13165.874
1260.0	0.86615	0.13385	7.49729	7.46939	-3.73134	21.41214	31.07577	1.20873	0.82732	64.23147	130.69467	23.39618	0.37269	9.74173	64766.95079	0.76813	1.15536E-4	1773.66721	37657.81	73.8918	13341.823
1255.0	0.87694	0.12306	7.50238	7.46417	-3.79864	21.29471	31.04725	1.20589	0.82926	67.89877	131.10828	24.76451	0.37089	9.90513	72947.05512	0.753	1.02246E-4	1774.32612	37311.978	69.1664	13494.56
1250.0	0.88648	0.11352	7.50718	7.45926	-3.86192	21.18859	31.0128	1.20328	0.83106	71.30805	131.52199	26.03856	0.36928	10.07027	81679.12145	0.73822	9.10161E-5	1775.01703	36985.744	65.2468	13628.11
1245.0	0.89496	0.10504	7.51174	7.45459	-3.92212	21.09101	30.97327	1.20086	0.83273	74.48766	131.9354	27.22849	0.36783	10.23753	91022.28071	0.72378	8.14055E-5	1775.73872	36675.934	61.962	13745.646
1240.0	0.90255	0.0974482	7.51609	7.45013	-3.97962	21.00093	30.92947	1.1986	0.8343	77.46422	132.3489	28.34387	0.36651	10.40708	101045.6849	0.70964	7.30888E-5	1776.48899	36380.018	59.1832	13849.698
1235.0	0.90938	0.0906209	7.52026	7.44586	-4.03468	20.91767	30.88192	1.19648	0.83578	80.25315	132.76229	29.39015	0.36531	10.57906	111810.8246	0.6958	6.58336E-5	1777.26592	36095.952	56.8132	13942.304
1230.0	0.91556	0.0844413	7.52428	7.44173	-4.08784	20.83957	30.83115	1.19448	0.83718	82.87763	133.17545	30.37582	0.3642	10.75373	123398.8855	0.68223	5.94535E-5	1778.06848	35822.076	54.7752	14025.126
1225.0	0.92117	0.0788329	7.52817	7.43776	-4.13911	20.76673	30.77756	1.19258	0.83852	85.35088	133.58855	31.3056	0.36319	10.93131	135887.6894	0.66891	5.38099E-5	1778.89448	35557.022	53.0108	14099.527
1220.0	0.92628	0.0737187	7.53195	7.43389	-4.18892	20.69784	30.72152	1.19077	0.83979	87.68941	134.00132	32.18555	0.36225	11.11185	149368.5701	0.65585	4.879E-5	1779.74311	35299.659	51.4726	14166.638
1215.0	0.93096	0.0690352	7.53563	7.43013	-4.23742	20.6325	30.66327	1.18903	0.84102	89.90599	134.41361	33.02034	0.36137	11.29567	163938.0797	0.64302	4.43051E-5	1780.61314	35049.042	50.1234	14227.402
1213.14	0.93259	0.0674063	7.53697	7.42875	-4.25513	20.60913	30.64099	1.18841	0.84146	90.69649	134.56697	33.31822	0.36106	11.36499	169649.5627	0.63829	4.276E-5	1780.94209	34957.487	 	14248.391
1210.0	0.93724	0.0627575	7.53984	7.42582	-4.29289	20.54463	30.60299	1.18737	0.8422	92.1529	134.85615	33.87277	0.36028	11.52515	181191.0899	0.62809	3.99517E-5	1781.62765	34763.791	57.0502	14323.196
1205.0	0.94393	0.0560739	7.54422	7.42135	-4.35049	20.44924	30.54046	1.18579	0.84332	94.30669	135.30992	34.69372	0.35913	11.78488	200646.6916	0.61218	3.59562E-5	1782.73526	34466.89	59.3802	14431.036
1200.0	0.94979	0.0502121	7.54837	7.41712	-4.40507	20.36268	30.47569	1.18429	0.84438	96.28126	135.75682	35.44695	0.3581	12.05058	221490.6981	0.59666	3.24622E-5	1783.86173	34183.586	56.6608	14525.671
1195.0	0.95496	0.0450446	7.55233	7.41308	-4.45716	20.2833	30.40897	1.18286	0.84541	98.12696	136.19759	36.15118	0.35718	12.32224	243878.9593	0.58152	2.93821E-5	1785.00733	33911.828	54.3516	14609.151
1190.0	0.95953	0.0404651	7.55612	7.4092	-4.50711	20.21012	30.34056	1.18149	0.84639	99.89565	136.6332	36.82567	0.35633	12.60034	267979.93	0.56675	2.66485E-5	1786.17129	33649.943	52.377	14683.148
1185.0	0.96361	0.0363874	7.55977	7.40547	-4.55522	20.14222	30.27068	1.18017	0.84733	101.63957	137.06417	37.48984	0.35556	12.88486	293977.5768	0.55234	2.42089E-5	1787.35335	33396.557	50.6772	14749.032
1180.0	0.96726	0.0327398	7.5633	7.40186	-4.60178	20.07877	30.19947	1.1789	0.84825	103.40446	137.49138	38.16075	0.35485	13.17612	322067.9552	0.53828	2.20216E-5	1789.42611	33150.31057	49.24929	14807.939
1175.0	0.9767	0.0232953	7.56876	7.39593	-4.67822	19.91768	30.12273	1.17784	0.84901	108.76775	138.25135	40.18655	0.35329	13.44925	361435.7185	0.52554	1.95555E-5	1791.44711	32750.02894	80.05633	15020.161
1170.0	0.98474	0.0152592	7.57373	7.39032	-4.75052	19.76867	30.0458	1.17678	0.84978	115.46038	138.98164	42.70238	0.35192	13.72226	403402.2502	0.5133	1.74606E-5	1793.44524	32380.47532	73.91072	15202.071
1165.0	0.99034	0.00966049	7.57796	7.38549	-4.81277	19.65128	29.96817	1.17574	0.85053	120.40969	139.61661	44.56592	0.35092	13.99675	446003.8813	0.50149	1.57381E-5	1795.45523	32068.04481	62.4861	15327.272
1160.0	0.99444	0.00556067	7.58173	7.38115	-4.86871	19.55366	29.88977	1.17472	0.85127	123.71717	140.19169	45.81653	0.35014	14.27419	490380.7281	0.49003	1.42641E-5	1797.47784	31790.72275	55.46441	15417.774
1155.0	0.99756	0.0024432	7.5852	7.37714	-4.9204	19.46925	29.8105	1.17374	0.85198	126.09076	140.72651	46.71749	0.3495	14.55561	537342.8237	0.47888	1.29721E-5	1799.51327	31536.43759	50.85703	15485.648
1150.0	1.0	0.0	7.58847	7.37336	-4.96903	19.39423	29.73085	1.17276	0.85269	127.9829	141.23297	47.43729	0.34897	 	587536.6452	 	1.18223E-5	 	31298.04571	47.67838	15538.034
1145.0	1.0	0.0	7.59106	7.37085	-5.00144	19.37266	29.64866	1.17188	0.85333	128.48049	141.63157	47.62738	0.34881	 	636649.4429	 	1.0872E-5	 	31113.70971	36.8672	 
1140.0	1.0	0.0	7.59364	7.36834	-5.03377	19.35115	29.56647	1.17099	0.85397	128.97715	142.0284	47.81718	0.34865	 	690255.3875	 	9.99229E-6	 	30939.61371	34.8192	 
1135.0	1.0	0.0	7.59622	7.36584	-5.06603	19.3297	29.48427	1.1701	0.85462	129.47288	142.42344	48.00667	0.34849	 	748800.1038	 	9.17846E-6	 	30765.83851	34.75504	 
1130.0	1.0	0.0	7.5988	7.36334	-5.09822	19.30831	29.40207	1.16921	0.85528	129.96769	142.81672	48.19587	0.34833	 	812776.8518	 	8.42596E-6	 	30592.38291	34.69112	 
1125.0	1.0	0.0	7.60137	7.36085	-5.13033	19.28697	29.31987	1.16831	0.85594	130.46158	143.20824	48.38477	0.34817	 	882731.9236	 	7.73057E-6	 	30419.24573	34.62744	 
1120.0	1.0	0.0	7.60394	7.35836	-5.16237	19.26569	29.23767	1.1674	0.8566	130.95455	143.59801	48.57336	0.34801	 	959270.6926	 	7.08832E-6	 	30246.42581	34.56398	 
1115.0	1.0	0.0	7.6065	7.35588	-5.19433	19.24448	29.15546	1.16649	0.85727	131.4466	143.98603	48.76166	0.34785	 	1043064.518	 	6.49549E-6	 	30073.922	34.50076	 
1110.0	1.0	0.0	7.60906	7.35341	-5.22622	19.22332	29.07325	1.16558	0.85794	131.93773	144.37231	48.94966	0.34769	 	1134858.301	 	5.94859E-6	 	29901.73313	34.43777	 
1105.0	1.0	0.0	7.61162	7.35094	-5.25804	19.20222	28.99103	1.16466	0.85862	132.42795	144.75686	49.13735	0.34753	 	1235479.362	 	5.44437E-6	 	29729.85807	34.37501	 
1100.0	1.0	0.0	7.61417	7.34848	-5.28978	19.18119	28.90882	1.16373	0.8593	132.91725	145.13968	49.32475	0.34737	 	1345846.85	 	4.97977E-6	 	29558.29565	34.31248	 
1095.0	1.0	0.0	7.61671	7.34602	-5.32145	19.16022	28.82659	1.1628	0.85999	133.40563	145.52078	49.51186	0.34721	 	1466982.911	 	4.55193E-6	 	29387.04476	34.25018	 
1090.0	1.0	0.0	7.61926	7.34357	-5.35304	19.13931	28.74437	1.16187	0.86068	133.89311	145.90018	49.69866	0.34705	 	1600024.969	 	4.15818E-6	 	29216.10424	34.1881	 
1085.0	1.0	0.0	7.62179	7.34112	-5.38456	19.11846	28.66214	1.16093	0.86138	134.37967	146.27786	49.88517	0.34689	 	1746239.465	 	3.79604E-6	 	29045.47296	34.12626	 
1080.0	1.0	0.0	7.62433	7.33868	-5.416	19.09769	28.5799	1.15998	0.86208	134.86532	146.65385	50.07138	0.34673	 	1907037.702	 	3.46317E-6	 	28875.1498	34.06463	 
1075.0	1.0	0.0	7.62686	7.33625	-5.44737	19.07697	28.49767	1.15903	0.86279	135.35005	147.02815	50.25729	0.34657	 	2083993.411	 	3.15739E-6	 	28705.13364	34.00323	 
1070.0	1.0	0.0	7.62938	7.33382	-5.47867	19.05633	28.41542	1.15807	0.8635	135.83388	147.40076	50.44291	0.34641	 	2278862.84	 	2.87669E-6	 	28535.42336	33.94206	 
1069.35	1.0	0.0	7.62971	7.33351	-5.48272	19.05363	28.40478	1.15795	0.86359	135.89642	147.44883	50.46691	0.34639	 	2305488.713	 	2.8421E-6	 	28513.48153	 	 
1065.0	1.0	0.0	7.63334	7.33001	-5.52773	18.97163	28.2718	1.15962	0.86235	136.54834	147.8984	50.71909	0.34612	 	2518792.906	 	2.59298E-6	 	28269.81299	53.12208	 
1060.0	1.0	0.0	7.63746	7.32607	-5.57859	18.87965	28.1235	1.16138	0.86104	137.2848	148.40592	51.00404	0.34582	 	2789894.586	 	2.33227E-6	 	27994.38816	55.08496	 
1055.0	1.0	0.0	7.6415	7.32219	-5.62857	18.78995	27.97965	1.16298	0.85986	138.0087	148.90447	51.28418	0.34553	 	3092119.706	 	2.09642E-6	 	27723.53041	54.17155	 
1050.0	1.0	0.0	7.64548	7.31838	-5.67771	18.70242	27.83995	1.16441	0.8588	138.7207	149.39452	51.55979	0.34524	 	3429261.48	 	1.88319E-6	 	27457.02909	53.30026	 
1045.0	1.0	0.0	7.6494	7.31463	-5.72606	18.61695	27.70405	1.1657	0.85785	139.42144	149.8765	51.83109	0.34496	 	3805604.291	 	1.69055E-6	 	27194.68364	52.46909	 
1040.0	1.0	0.0	7.65327	7.31093	-5.77365	18.53345	27.57178	1.16685	0.85701	140.11149	150.35083	52.0983	0.34468	 	4225991.764	 	1.5166E-6	 	26936.30345	51.67604	 
1035.0	1.0	0.0	7.65707	7.3073	-5.82051	18.4518	27.44289	1.16787	0.85626	140.79141	150.8179	52.36165	0.34441	 	4695903.407	 	1.35964E-6	 	26681.70745	50.9192	 
1030.0	1.0	0.0	7.66083	7.30372	-5.86668	18.37193	27.31716	1.16876	0.85561	141.46172	151.27806	52.62132	0.34415	 	5221543.843	 	1.2181E-6	 	26430.72397	50.19669	 
1025.0	1.0	0.0	7.66453	7.30019	-5.91218	18.29374	27.1944	1.16953	0.85504	142.12291	151.73165	52.87752	0.34389	 	5809943.76	 	1.09054E-6	 	26183.19037	49.50672	 
1020.0	1.0	0.0	7.66819	7.2967	-5.95704	18.21716	27.07441	1.17019	0.85456	142.77543	152.17897	53.1304	0.34363	 	6469077.189	 	9.75648E-7	 	25938.9527	48.84754	 
1015.0	1.0	0.0	7.6718	7.29327	-6.0013	18.14209	26.95702	1.17074	0.85416	143.41973	152.62032	53.38015	0.34338	 	7207995.183	 	8.72245E-7	 	25697.86526	48.21749	 
1010.0	1.0	0.0	7.67537	7.28988	-6.04498	18.06847	26.84208	1.17119	0.85383	144.0562	153.05596	53.62691	0.34313	 	8036980.095	 	7.7924E-7	 	25459.79024	47.615	 
1005.0	1.0	0.0	7.67889	7.28654	-6.0881	17.99622	26.72942	1.17154	0.85357	144.68523	153.48616	53.87084	0.34289	 	8967723.163	 	6.95643E-7	 	25224.59761	47.03853	 
1000.0	1.0	0.0	7.68238	7.28323	-6.13068	17.92529	26.61892	1.1718	0.85338	145.30717	153.91115	54.11207	0.34265	 	1.001352948E7	 	6.20553E-7	 	24992.1642	46.48668	 
995.0	1.0	0.0	7.68582	7.27997	-6.17275	17.8556	26.51044	1.17198	0.85326	145.92236	154.33114	54.35072	0.34241	 	1.11895537E7	 	5.53152E-7	 	24762.37369	45.9581	 
990.0	1.0	0.0	7.68923	7.27674	-6.21432	17.7871	26.40386	1.17207	0.85319	146.5311	154.74635	54.58692	0.34218	 	1.251307154E7	 	4.92694E-7	 	24535.11617	45.4515	 
985.0	1.0	0.0	7.6926	7.27355	-6.25543	17.71974	26.29907	1.17208	0.85318	147.1337	155.15695	54.82079	0.34195	 	1.400379671E7	 	4.38504E-7	 	24310.28775	44.96569	 
980.0	1.0	0.0	7.69594	7.2704	-6.29607	17.65345	26.19597	1.17202	0.85323	147.73043	155.56315	55.05242	0.34173	 	1.568424436E7	 	3.89965E-7	 	24087.79016	44.49952	 
975.0	1.0	0.0	7.69924	7.26728	-6.33628	17.58818	26.09446	1.17188	0.85333	148.32154	155.96509	55.28192	0.3415	 	1.758015171E7	 	3.46522E-7	 	23867.53061	44.05191	 
970.0	1.0	0.0	7.70251	7.26419	-6.37607	17.5239	25.99444	1.17168	0.85348	148.90729	156.36294	55.50939	0.34128	 	1.972096851E7	 	3.07668E-7	 	23649.42108	43.62191	 
965.0	1.0	0.0	7.70575	7.26114	-6.41545	17.46055	25.89584	1.17141	0.85367	149.4879	156.75685	55.7349	0.34106	 	2.214042375E7	 	2.72944E-7	 	23433.37847	43.20852	 
960.0	1.0	0.0	7.70896	7.25811	-6.45443	17.39809	25.79857	1.17108	0.85391	150.06358	157.14695	55.95855	0.34085	 	2.487718542E7	 	2.41936E-7	 	23219.32412	42.81087	 
955.0	1.0	0.0	7.71215	7.25512	-6.49304	17.33648	25.70256	1.17069	0.8542	150.63453	157.53337	56.18041	0.34063	 	2.797562575E7	 	2.14268E-7	 	23007.18338	42.42815	 
950.0	1.0	0.0	7.7153	7.25215	-6.53128	17.27569	25.60775	1.17024	0.85453	151.20095	157.91624	56.40055	0.34042	 	3.148671377E7	 	1.896E-7	 	22796.88562	42.05955	 
945.0	1.0	0.0	7.71843	7.24921	-6.56917	17.21567	25.51406	1.16973	0.85489	151.763	158.29566	56.61905	0.34021	 	3.54690525E7	 	1.67625E-7	 	22588.3639	41.70434	 
940.0	1.0	0.0	7.72153	7.2463	-6.60672	17.15639	25.42144	1.16918	0.8553	152.32087	158.67174	56.83597	0.34	 	3.999009386E7	 	1.48064E-7	 	22381.55459	41.36186	 
935.0	1.0	0.0	7.72461	7.24341	-6.64393	17.09782	25.32982	1.16857	0.85575	152.87469	159.04459	57.05136	0.3398	 	4.512754991E7	 	1.30667E-7	 	22176.39742	41.03143	 
930.0	1.0	0.0	7.72767	7.24055	-6.68083	17.03993	25.23917	1.16791	0.85623	153.42463	159.41429	57.26528	0.3396	 	5.097105163E7	 	1.15208E-7	 	21972.83504	40.71248	 
925.0	1.0	0.0	7.7307	7.23771	-6.71741	16.98268	25.14941	1.16721	0.85674	153.97082	159.78094	57.4778	0.33939	 	5.762408004E7	 	1.01483E-7	 	21770.81306	40.4044	 
924.45	1.0	0.0	7.73103	7.2374	-6.72144	16.97638	25.13955	1.16713	0.8568	154.03097	159.82127	57.50121	0.33937	 	5.841418772E7	 	1.00064E-7	 	21748.57166	 	 
920.04	1.0	0.0	7.73368	7.23492	-6.75334	16.92678	25.06124	1.16647	0.85729	154.50945	160.14216	57.68741	0.3392	 	6.514490271E7	 	8.93954E-8	 	21571.77926	 	 
920.03	1.0	0.0	7.73368	7.23491	-6.75342	16.92659	25.06108	1.16647	0.85729	154.51024	160.1427	57.68772	0.3392	 	6.51568571E7	 	8.93785E-8	 	21571.43861	 	 
920.0	1.0	0.0	7.7337	7.2349	-6.75365	16.92624	25.06053	1.16646	0.85729	154.51362	160.14496	57.68903	0.33919	 	6.520730139E7	 	8.9307E-8	 	21570.1898	40.12465	 
919.11	1.0	0.0	7.73423	7.2344	-6.76002	16.91637	25.04488	1.16633	0.85739	154.60943	160.20921	57.72632	0.33916	 	6.665743286E7	 	8.72993E-8	 	21534.79333	 	 
918.25	1.0	0.0	7.7351	7.23359	-6.77048	16.88889	25.0276	1.16629	0.85742	154.73403	160.28071	57.77534	0.3391	 	6.820164616E7	 	8.52611E-8	 	21486.36329	 	 
917.68	1.0	0.0	7.73566	7.23307	-6.77725	16.8714	25.0162	1.16626	0.85744	154.81582	160.32808	57.8075	0.33906	 	6.924584009E7	 	8.3935E-8	 	21454.63188	 	 
916.13	1.0	0.0	7.73659	7.2322	-6.78846	16.85384	24.98889	1.16601	0.85763	154.98423	160.44075	57.87305	0.339	 	7.198836145E7	 	8.06319E-8	 	21392.50325	 	 
915.0	1.0	0.0	7.73726	7.23157	-6.79653	16.84126	24.96917	1.16582	0.85776	155.10603	160.52231	57.92047	0.33896	 	7.404644922E7	 	7.83166E-8	 	21347.56091	44.52578	 
910.0	1.0	0.0	7.74022	7.2288	-6.8322	16.78577	24.88207	1.16498	0.85838	155.6447	160.88266	58.13019	0.33876	 	8.396784496E7	 	6.87723E-8	 	21148.89129	39.73392	 
905.0	1.0	0.0	7.74316	7.22605	-6.8676	16.73081	24.79569	1.1641	0.85903	156.17997	161.24015	58.33863	0.33856	 	9.531066374E7	 	6.03317E-8	 	20951.61642	39.45498	 
900.0	1.0	0.0	7.74609	7.22333	-6.90273	16.67636	24.71	1.16318	0.85971	156.71195	161.59484	58.54585	0.33837	 	1.082919752E8	 	5.28742E-8	 	20755.69186	39.18491	 
895.0	1.0	0.0	7.74899	7.22062	-6.9376	16.62241	24.62497	1.16222	0.86042	157.24073	161.9468	58.75186	0.33818	 	1.231640553E8	 	4.62915E-8	 	20561.07489	38.92339	 
890.0	1.0	0.0	7.75187	7.21794	-6.97222	16.56893	24.54055	1.16123	0.86116	157.76642	162.29609	58.95672	0.33798	 	1.402204398E8	 	4.04866E-8	 	20367.72515	38.66995	 
885.0	1.0	0.0	7.75474	7.21527	-7.00659	16.5159	24.45673	1.1602	0.86192	158.28911	162.64277	59.16046	0.33779	 	1.598030626E8	 	3.53726E-8	 	20175.60365	38.4243	 
880.0	1.0	0.0	7.75758	7.21262	-7.04072	16.4633	24.37347	1.15914	0.86271	158.80889	162.98691	59.36312	0.33761	 	1.823107031E8	 	3.08717E-8	 	19984.67339	38.18605	 
875.0	1.0	0.0	7.76041	7.20999	-7.07462	16.41112	24.29074	1.15804	0.86353	159.32583	163.32855	59.56471	0.33742	 	2.082089919E8	 	2.69145E-8	 	19794.89882	37.95491	 
870.0	1.0	0.0	7.76323	7.20738	-7.10828	16.35933	24.20853	1.15691	0.86437	159.84001	163.66774	59.76529	0.33723	 	2.380422719E8	 	2.34388E-8	 	19606.24633	37.7305	 
865.0	1.0	0.0	7.76602	7.20479	-7.14172	16.30793	24.1268	1.15576	0.86524	160.35152	164.00454	59.96486	0.33705	 	2.724476672E8	 	2.03893E-8	 	19418.68374	37.51252	 
860.0	1.0	0.0	7.7688	7.20221	-7.17495	16.25688	24.04553	1.15457	0.86613	160.86041	164.33899	60.16347	0.33686	 	3.121718367E8	 	1.77166E-8	 	19232.17981	37.30079	 
855.0	1.0	0.0	7.77156	7.19965	-7.20796	16.20618	23.96471	1.15335	0.86704	161.36676	164.67114	60.36113	0.33668	 	3.580908674E8	 	1.53766E-8	 	19046.70489	37.09498	 
850.0	1.0	0.0	7.77431	7.1971	-7.24076	16.15582	23.8843	1.1521	0.86798	161.87062	165.00103	60.55787	0.3365	 	4.112340474E8	 	1.33302E-8	 	18862.2305	36.89488	 
845.0	1.0	0.0	7.77663	7.19496	-7.26842	16.12826	23.80903	1.1506	0.86911	162.30076	165.29481	60.72529	0.33635	 	4.68711177E8	 	1.16434E-8	 	18708.50046	30.74601	 
840.0	1.0	0.0	7.77895	7.19282	-7.296	16.10072	23.73375	1.14909	0.87026	162.73013	165.58731	60.89246	0.33621	 	5.348499571E8	 	1.0158E-8	 	18551.88504	31.32309	 
835.0	1.0	0.0	7.78125	7.19068	-7.32351	16.07317	23.65846	1.14757	0.87141	163.15871	165.87854	61.05937	0.33607	 	6.110488614E8	 	8.85135E-9	 	18395.52342	31.27232	 
830.0	1.0	0.0	7.78356	7.18855	-7.35095	16.04564	23.58316	1.14604	0.87257	163.58651	166.16849	61.22602	0.33592	 	6.989470334E8	 	7.7033E-9	 	18239.41492	31.2217	 
825.0	1.0	0.0	7.78586	7.18643	-7.37831	16.01811	23.50786	1.1445	0.87375	164.01353	166.45718	61.39242	0.33578	 	8.004682446E8	 	6.69583E-9	 	18083.55882	31.17122	 
820.0	1.0	0.0	7.78815	7.18431	-7.40559	15.99058	23.43255	1.14295	0.87493	164.43978	166.7446	61.55856	0.33564	 	9.178733443E8	 	5.81278E-9	 	17927.95438	31.12089	 
815.0	1.0	0.0	7.79044	7.1822	-7.4328	15.96307	23.35723	1.14139	0.87613	164.86524	167.03077	61.72444	0.33549	 	1.053822929E9	 	5.03974E-9	 	17772.60089	31.0707	 
810.0	1.0	0.0	7.79273	7.1801	-7.45994	15.93556	23.28191	1.13982	0.87733	165.28993	167.31567	61.89006	0.33535	 	1.211452332E9	 	4.36384E-9	 	17617.49761	31.02066	 
805.0	1.0	0.0	7.79501	7.178	-7.487	15.90805	23.20657	1.13824	0.87855	165.71384	167.59932	62.05542	0.33521	 	1.394461479E9	 	3.77363E-9	 	17462.64379	30.97076	 
800.0	1.0	0.0	7.79728	7.1759	-7.51399	15.88055	23.13123	1.13665	0.87978	166.13697	167.88173	62.22053	0.33507	 	1.607222735E9	 	3.2589E-9	 	17308.0387	30.92102	 
795.0	1.0	0.0	7.79955	7.17381	-7.5409	15.85306	23.05588	1.13505	0.88102	166.55932	168.16288	62.38538	0.33492	 	1.854910507E9	 	2.81058E-9	 	17153.68155	30.87143	 
790.0	1.0	0.0	7.80181	7.17173	-7.56773	15.82557	22.98052	1.13345	0.88227	166.98089	168.4428	62.54998	0.33478	 	2.143657268E9	 	2.42062E-9	 	16999.57158	30.82199	 
785.0	1.0	0.0	7.80407	7.16966	-7.59449	15.79809	22.90516	1.13183	0.88353	167.40169	168.72147	62.71431	0.33464	 	2.48074163E9	 	2.08186E-9	 	16845.708	30.77272	 
780.0	1.0	0.0	7.80633	7.16759	-7.62118	15.77062	22.82978	1.1302	0.8848	167.82171	168.99891	62.87839	0.33449	 	2.874815455E9	 	1.788E-9	 	16692.09002	30.7236	 
775.0	1.0	0.0	7.80858	7.16552	-7.64779	15.74315	22.7544	1.12856	0.88609	168.24095	169.27512	63.04221	0.33435	 	3.336178491E9	 	1.53342E-9	 	16538.71685	30.67463	 
770.0	1.0	0.0	7.81082	7.16346	-7.67433	15.71569	22.67901	1.12691	0.88738	168.65941	169.5501	63.20578	0.33421	 	3.877111047E9	 	1.31318E-9	 	16385.58765	30.62584	 
765.0	1.0	0.0	7.81306	7.16141	-7.70079	15.68823	22.60361	1.12525	0.88869	169.0771	169.82385	63.36908	0.33407	 	4.512277603E9	 	1.12293E-9	 	16232.7016	30.57721	 
760.0	1.0	0.0	7.8153	7.15936	-7.72718	15.66078	22.5282	1.12358	0.89001	169.49401	170.09638	63.53213	0.33392	 	5.259217301E9	 	9.58802E-10	 	16080.05784	30.52875	 
755.0	1.0	0.0	7.81752	7.15732	-7.75349	15.63334	22.45278	1.1219	0.89135	169.91015	170.3677	63.69492	0.33378	 	6.138940999E9	 	8.17428E-10	 	15927.65552	30.48046	 
750.0	1.0	0.0	7.81975	7.15528	-7.77973	15.6059	22.37735	1.1202	0.8927	170.32551	170.6378	63.85746	0.33364	 	7.176659283E9	 	6.95831E-10	 	15775.49376	30.43235	 
745.0	1.0	0.0	7.82197	7.15325	-7.80589	15.57847	22.30191	1.1185	0.89405	170.74009	170.90669	64.01973	0.3335	 	8.402671677E9	 	5.914E-10	 	15623.57166	30.38442	 
740.0	1.0	0.0	7.82418	7.15123	-7.83198	15.55105	22.22646	1.11678	0.89543	171.1539	171.17437	64.18175	0.33335	 	9.853454624E9	 	5.01848E-10	 	15471.88829	30.33667	 
735.0	1.0	0.0	7.82639	7.14921	-7.858	15.52363	22.151	1.11506	0.89681	171.56693	171.44085	64.34351	0.33321	 	1.1573E10	 	4.25173E-10	 	15320.44274	30.28911	 
730.0	1.0	0.0	7.8286	7.1472	-7.88394	15.49622	22.07554	1.11332	0.89821	171.97918	171.70613	64.50502	0.33307	 	1.3614399999999998E10	 	3.59628E-10	 	15169.23402	30.24174	 
725.0	1.0	0.0	7.83079	7.14519	-7.9098	15.46881	22.00006	1.11157	0.89963	172.39066	171.97021	64.66626	0.33293	 	1.6041999999999998E10	 	3.03685E-10	 	15018.26117	30.19457	 
720.0	1.0	0.0	7.83299	7.14319	-7.9356	15.44141	21.92457	1.10981	0.90105	172.80137	172.2331	64.82725	0.33278	 	1.89338E10	 	2.56014E-10	 	14867.52318	30.1476	 
715.0	1.0	0.0	7.83518	7.14119	-7.96131	15.41402	21.84907	1.10804	0.90249	173.2113	172.4948	64.98798	0.33264	 	2.23843E10	 	2.15459E-10	 	14717.019	30.10084	 
710.0	1.0	0.0	7.83736	7.13921	-7.98695	15.38663	21.77356	1.10626	0.90395	173.62045	172.75531	65.14845	0.3325	 	2.6508799999999996E10	 	1.81016E-10	 	14566.74759	30.05428	 
705.0	1.0	0.0	7.83954	7.13722	-8.01252	15.35925	21.69804	1.10446	0.90542	174.02884	173.01463	65.30867	0.33236	 	3.1447599999999996E10	 	1.51812E-10	 	14416.70783	30.00795	 
700.0	1.0	0.0	7.84171	7.13524	-8.03801	15.33188	21.62251	1.10266	0.9069	174.43644	173.27278	65.46863	0.33221	 	3.7372E10	 	1.27093E-10	 	14266.89862	29.96184	 
695.0	1.0	0.0	7.84388	7.13327	-8.06343	15.30451	21.54697	1.10084	0.9084	174.84328	173.52975	65.62832	0.33207	 	4.44918E10	 	1.06206E-10	 	14117.31877	29.91597	 
690.0	1.0	0.0	7.84604	7.1313	-8.08878	15.27714	21.47142	1.099	0.90991	175.24933	173.78554	65.78777	0.33193	 	5.306389999999999E10	 	8.85893E-11	 	13967.96711	29.87033	 
685.0	1.0	0.0	7.8482	7.12934	-8.11405	15.24979	21.39586	1.09716	0.91144	175.65462	174.04017	65.94695	0.33179	 	6.340419999999999E10	 	7.37568E-11	 	13818.84238	29.82494	 
680.0	1.0	0.0	7.85035	7.12739	-8.13924	15.22244	21.32028	1.0953	0.91299	176.05913	174.29363	66.10588	0.33165	 	7.5901E10	 	6.12915E-11	 	13669.94331	29.77981	 
675.0	1.0	0.0	7.8525	7.12544	-8.16437	15.19509	21.24469	1.09343	0.91455	176.46287	174.54592	66.26454	0.3315	 	9.10335E10	 	5.0835E-11	 	13521.26856	29.73495	 
670.0	1.0	0.0	7.85464	7.1235	-8.18941	15.16776	21.16909	1.09155	0.91613	176.86583	174.79705	66.42295	0.33136	 	1.09394E11	 	4.208E-11	 	13372.81677	29.69036	 
665.0	1.0	0.0	7.85678	7.12156	-8.21439	15.14042	21.09348	1.08966	0.91772	177.26802	175.04703	66.58111	0.33122	 	1.31714E11	 	3.47637E-11	 	13224.58648	29.64606	 
660.0	1.0	0.0	7.85891	7.11963	-8.23929	15.1131	21.01786	1.08775	0.91933	177.66944	175.29585	66.739	0.33108	 	1.58905E11	 	2.86615E-11	 	13076.57891	29.60151	 
655.0	1.0	0.0	7.86104	7.1177	-8.26411	15.08578	20.94222	1.08583	0.92096	178.07009	175.54352	66.89664	0.33093	 	1.92098E11	 	2.35821E-11	 	12928.80865	29.55405	 
650.0	1.0	0.0	7.86316	7.11578	-8.28886	15.05847	20.86657	1.0839	0.9226	178.46996	175.79005	67.05402	0.33079	 	2.32701E11	 	1.93625E-11	 	12781.29516	29.5027	 
645.0	1.0	0.0	7.86528	7.11387	-8.31354	15.03116	20.79091	1.08195	0.92426	178.86906	176.03542	67.21113	0.33065	 	2.82476E11	 	1.58642E-11	 	12634.03767	29.4515	 
640.0	1.0	0.0	7.86739	7.11196	-8.33814	15.00386	20.71523	1.07999	0.92594	179.26739	176.27966	67.368	0.33051	 	3.43626E11	 	1.29701E-11	 	12487.0354	29.40045	 
635.0	1.0	0.0	7.86949	7.11005	-8.36267	14.97657	20.63954	1.07801	0.92763	179.66495	176.52276	67.5246	0.33037	 	4.18917E11	 	1.05807E-11	 	12340.28759	29.34956	 
630.0	1.0	0.0	7.87159	7.10816	-8.38713	14.94928	20.56384	1.07602	0.92935	180.06173	176.76472	67.68095	0.33022	 	5.11827E11	 	8.61239E-12	 	12193.79345	29.29883	 
625.0	1.0	0.0	7.87369	7.10626	-8.41151	14.922	20.48812	1.07402	0.93108	180.45774	177.00555	67.83703	0.33008	 	6.26738E11	 	6.99438E-12	 	12047.55197	29.2483	 
620.0	1.0	0.0	7.87578	7.10438	-8.43581	14.89472	20.41239	1.072	0.93283	180.85298	177.24525	67.99286	0.32994	 	7.69191E11	 	5.66731E-12	 	11901.56175	29.19804	 
615.0	1.0	0.0	7.87786	7.1025	-8.46005	14.86745	20.33665	1.06997	0.9346	181.25307	177.48934	68.15055	0.3298	 	9.46202E11	 	4.5813E-12	 	11755.82237	29.14788	 
610.0	1.0	0.0	7.87994	7.10062	-8.4842	14.84019	20.26089	1.06793	0.93639	181.64672	177.72674	68.30584	0.32966	 	1.16668E12	 	3.69461E-12	 	11610.33306	29.09786	 
605.0	1.0	0.0	7.88202	7.09876	-8.50829	14.81293	20.18512	1.06587	0.9382	182.0396	177.96302	68.46088	0.32952	 	1.44197E12	 	2.97234E-12	 	11465.0931	29.04799	 
600.0	1.0	0.0	7.88409	7.09689	-8.5323	14.78568	20.10933	1.06379	0.94003	182.43171	178.19819	68.61566	0.32937	 	1.78655E12	 	2.3854E-12	 	11320.10172	28.99828	 
595.0	1.0	0.0	7.88615	7.09504	-8.55624	14.75843	20.03352	1.0617	0.94188	182.82304	178.43224	68.77018	0.32923	 	2.21893E12	 	1.90958E-12	 	11175.35819	28.94871	 
590.0	1.0	0.0	7.88821	7.09318	-8.5801	14.73119	19.9577	1.0596	0.94375	183.21361	178.66518	68.92444	0.32909	 	2.76289E12	 	1.52479E-12	 	11030.86178	28.89928	 
585.0	1.0	0.0	7.89026	7.09134	-8.60389	14.70396	19.88187	1.05748	0.94564	183.6034	178.89701	69.07844	0.32895	 	3.44901E12	 	1.21438E-12	 	10886.61175	28.85001	 
580.0	1.0	0.0	7.89231	7.0895	-8.6276	14.67674	19.80602	1.05534	0.94756	183.99242	179.12774	69.23218	0.32881	 	4.31671E12	 	9.64627E-13	 	10742.60737	28.80088	 
575.0	1.0	0.0	7.89435	7.08766	-8.65125	14.64952	19.73015	1.05319	0.94949	184.38067	179.35737	69.38567	0.32867	 	5.41703E12	 	7.64185E-13	 	10598.84792	28.75189	 
570.0	1.0	0.0	7.89639	7.08583	-8.67481	14.6223	19.65427	1.05103	0.95145	184.76815	179.58589	69.53889	0.32852	 	6.81614E12	 	6.03744E-13	 	10455.33266	28.70305	 
565.0	1.0	0.0	7.89842	7.08401	-8.69831	14.59509	19.57837	1.04885	0.95343	185.15486	179.81332	69.69186	0.32838	 	8.60016E12	 	4.75666E-13	 	10312.06089	28.65435	 
560.0	1.0	0.0	7.90045	7.08219	-8.72173	14.56789	19.50245	1.04665	0.95543	185.5408	180.03966	69.84456	0.32824	 	1.08814E13	 	3.737E-13	 	10169.03188	28.6058	 
555.0	1.0	0.0	7.90247	7.08038	-8.74508	14.5407	19.42651	1.04443	0.95746	185.92597	180.26491	69.99701	0.3281	 	1.3807E13	 	2.92749E-13	 	10026.24493	28.55739	 
550.0	1.0	0.0	7.90449	7.07858	-8.76835	14.51351	19.35056	1.0422	0.95951	186.31037	180.48907	70.1492	0.32796	 	1.75699E13	 	2.28663E-13	 	9883.69933	28.50912	 
545.0	1.0	0.0	7.9065	7.07678	-8.79155	14.48632	19.27459	1.03995	0.96158	186.69399	180.71214	70.30113	0.32782	 	2.24243E13	 	1.78074E-13	 	9741.39437	28.46099	 
540.0	1.0	0.0	7.9085	7.07498	-8.81468	14.45915	19.1986	1.03769	0.96368	187.07685	180.93414	70.4528	0.32768	 	2.87059E13	 	1.38256E-13	 	9599.32936	28.413	 
535.0	1.0	0.0	7.9105	7.07319	-8.83773	14.43198	19.1226	1.03541	0.9658	187.45894	181.15505	70.60421	0.32753	 	3.68597E13	 	1.07011E-13	 	9457.5036	28.36515	 
530.0	1.0	0.0	7.9125	7.07141	-8.86071	14.40481	19.04657	1.03311	0.96795	187.84025	181.37489	70.75537	0.32739	 	4.74769E13	 	8.25659E-14	 	9315.91641	28.31744	 
525.0	1.0	0.0	7.91449	7.06963	-8.88361	14.37765	18.97053	1.03079	0.97013	188.2208	181.59366	70.90626	0.32725	 	6.13467E13	 	6.35009E-14	 	9174.56709	28.26986	 
520.0	1.0	0.0	7.91647	7.06786	-8.90645	14.3505	18.89446	1.02846	0.97233	188.60058	181.81136	71.05689	0.32711	 	7.9525E13	 	4.86786E-14	 	9033.45497	28.22242	 
515.0	1.0	0.0	7.91845	7.0661	-8.9292	14.32336	18.81838	1.02611	0.97456	188.97959	182.02799	71.20727	0.32697	 	1.0343E14	 	3.7192E-14	 	8892.57938	28.17512	 
510.0	1.0	0.0	7.92042	7.06434	-8.95189	14.29622	18.74227	1.02374	0.97681	189.35783	182.24355	71.35738	0.32683	 	1.3497299999999998E14	 	2.83195E-14	 	8751.93965	28.12795	 
505.0	1.0	0.0	7.92239	7.06258	-8.9745	14.26908	18.66615	1.02135	0.9791	189.7353	182.45806	71.50724	0.32669	 	1.76738E14	 	2.14892E-14	 	8611.5351	28.08091	 
500.0	1.0	0.0	7.92435	7.06083	-8.99704	14.24196	18.59	1.01894	0.98141	190.112	182.6715	71.65684	0.32654	 	2.32236E14	 	1.62488E-14	 	8471.36509	28.034	 
495.0	1.0	0.0	7.92631	7.05909	-9.0195	14.21484	18.51383	1.01652	0.98375	190.48793	182.88389	71.80617	0.3264	 	3.06248E14	 	1.22422E-14	 	8331.42896	27.98722	 
490.0	1.0	0.0	7.92826	7.05735	-9.0419	14.18772	18.43765	1.01408	0.98612	190.86309	183.09523	71.95525	0.32626	 	4.05314E14	 	9.18978E-15	 	8191.72607	27.94058	 
485.0	1.0	0.0	7.9302	7.05562	-9.06421	14.16061	18.36143	1.01161	0.98852	191.23749	183.30552	72.10407	0.32612	 	5.3841199999999994E14	 	6.87269E-15	 	8052.25576	27.89406	 
480.0	1.0	0.0	7.93214	7.0539	-9.08646	14.13351	18.2852	1.00913	0.99095	191.61111	183.51476	72.25262	0.32598	 	7.1792E14	 	5.12026E-15	 	7913.01742	27.84767	 
475.0	1.0	0.0	7.93408	7.05218	-9.10863	14.10641	18.20895	1.00663	0.99341	191.98397	183.72295	72.40092	0.32584	 	9.60963E14	 	3.79987E-15	 	7774.0104	27.8014	 
470.0	1.0	0.0	7.93601	7.05046	-9.13073	14.07932	18.13267	1.00411	0.99591	192.35606	183.93011	72.54896	0.3257	 	1.29134E15	 	2.8088E-15	 	7635.23411	27.75526	 
465.0	1.0	0.0	7.93793	7.04875	-9.15275	14.05224	18.05636	1.00157	0.99843	192.72738	184.13622	72.69674	0.32556	 	1.74227E15	 	2.06783E-15	 	7496.6879	27.70924	 
460.0	1.0	0.0	7.93985	7.04705	-9.17471	14.02516	17.98004	0.99901	1.00099	193.09793	184.3413	72.84426	0.32542	 	2.36028E15	 	1.51606E-15	 	7358.3712	27.66334	 
455.0	1.0	0.0	7.94176	7.04535	-9.19659	13.99809	17.90368	0.99642	1.00359	193.46771	184.54534	72.99151	0.32528	 	3.21086E15	 	1.10684E-15	 	7220.28338	27.61756	 
450.0	1.0	0.0	7.94367	7.04366	-9.21839	13.97102	17.82731	0.99382	1.00622	193.83673	184.74835	73.13851	0.32513	 	4.38661E15	 	8.04612E-16	 	7082.42386	27.5719	 
445.0	1.0	0.0	7.94557	7.04197	-9.24012	13.94397	17.75091	0.9912	1.00888	194.20497	184.95034	73.28525	0.32499	 	6.01897E15	 	5.82344E-16	 	6944.79206	27.52636	 
440.0	1.0	0.0	7.94747	7.04029	-9.26178	13.91691	17.67448	0.98855	1.01158	194.57245	185.1513	73.43173	0.32485	 	8.2955E15	 	4.1959E-16	 	6807.38741	27.48093	 
435.0	1.0	0.0	7.94936	7.03862	-9.28337	13.88987	17.59802	0.98589	1.01431	194.93916	185.35123	73.57795	0.32471	 	1.1485E16	 	3.00941E-16	 	6670.20934	27.43561	 
430.0	1.0	0.0	7.95125	7.03695	-9.30488	13.86283	17.52154	0.9832	1.01709	195.30511	185.55015	73.7239	0.32457	 	1.59745E16	 	2.14836E-16	 	6533.25727	27.39041	 
425.0	1.0	0.0	7.95313	7.03528	-9.32632	13.83579	17.44503	0.98049	1.0199	195.67028	185.74805	73.8696	0.32443	 	2.23242E16	 	1.52637E-16	 	6396.53073	27.34531	 
420.0	1.0	0.0	7.955	7.03363	-9.34769	13.80876	17.36849	0.97776	1.02275	196.03469	185.94493	74.01504	0.32429	 	3.1349E16	 	1.07917E-16	 	6260.0291	27.30033	 
415.0	1.0	0.0	7.95687	7.03197	-9.36899	13.78174	17.29193	0.975	1.02564	196.39834	186.1408	74.16021	0.32415	 	4.42397E16	 	7.59202E-17	 	6123.75201	27.25542	 
410.0	1.0	0.0	7.95874	7.03033	-9.39021	13.75473	17.21533	0.97222	1.02857	196.76121	186.33566	74.30513	0.32401	 	6.27467E16	 	5.31388E-17	 	5987.69916	27.21057	 
405.0	1.0	0.0	7.96059	7.02869	-9.41136	13.72772	17.13871	0.96942	1.03154	197.12332	186.52951	74.44978	0.32387	 	8.94557E16	 	3.70002E-17	 	5851.87028	27.16578	 
400.0	1.0	0.0	7.96245	7.02705	-9.43243	13.70071	17.06205	0.9666	1.03455	197.48466	186.72236	74.59418	0.32373	 	1.28207E17	 	2.56263E-17	 	5716.26507	27.12104	 
395.0	1.0	0.0	7.96429	7.02542	-9.45344	13.67372	16.98537	0.96375	1.03761	197.84523	186.91421	74.73831	0.32359	 	1.84739E17	 	1.76524E-17	 	5580.8833	27.07635	 
390.0	1.0	0.0	7.96613	7.0238	-9.47437	13.64672	16.90865	0.96088	1.04071	198.20504	187.10506	74.88219	0.32345	 	2.67667E17	 	1.20922E-17	 	5445.72471	27.03172	 
385.0	1.0	0.0	7.96797	7.02218	-9.49522	13.61974	16.8319	0.95798	1.04386	198.56408	187.29491	75.0258	0.32331	 	3.90012E17	 	8.23634E-18	 	5310.78905	26.98713	 
380.0	1.0	0.0	7.9698	7.02057	-9.51601	13.59276	16.75512	0.95506	1.04705	198.92235	187.48377	75.16915	0.32316	 	5.71563E17	 	5.57745E-18	 	5176.07608	26.94259	 
375.0	1.0	0.0	7.97163	7.01896	-9.53672	13.56579	16.6783	0.95212	1.05029	199.27986	187.67163	75.31224	0.32302	 	8.4258E17	 	3.75449E-18	 	5041.58563	26.89809	 
370.0	1.0	0.0	7.97344	7.01736	-9.55736	13.53882	16.60145	0.94914	1.05358	199.6366	187.85851	75.45507	0.32288	 	1.24962E18	 	2.512E-18	 	4907.31746	26.85363	 
365.0	1.0	0.0	7.97526	7.01576	-9.57792	13.51186	16.52457	0.94615	1.05692	199.99257	188.0444	75.59764	0.32274	 	1.86479E18	 	1.67024E-18	 	4773.2714	26.80921	 
360.0	1.0	0.0	7.97707	7.01417	-9.59842	13.48491	16.44765	0.94312	1.06031	200.34778	188.2293	75.73995	0.3226	 	2.80044E18	 	1.10349E-18	 	4639.44729	26.76482	 
355.0	1.0	0.0	7.97887	7.01259	-9.61884	13.45796	16.37069	0.94007	1.06375	200.70222	188.41323	75.88199	0.32246	 	4.23285E18	 	7.24298E-19	 	4505.84496	26.72047	 
350.0	1.0	0.0	7.98066	7.01101	-9.63919	13.43102	16.2937	0.937	1.06724	201.05589	188.59617	76.02378	0.32232	 	6.4405E18	 	4.72237E-19	 	4372.46429	26.67613	 
345.0	1.0	0.0	7.98246	7.00944	-9.65946	13.40408	16.21667	0.9339	1.07078	201.4088	188.77814	76.1653	0.32218	 	9.86631E18	 	3.05792E-19	 	4239.30515	26.63183	 
340.0	1.0	0.0	7.98424	7.00787	-9.67967	13.37716	16.13959	0.93077	1.07438	201.76094	188.95913	76.30657	0.32204	 	1.52199E19	 	1.96627E-19	 	4106.36742	26.58754	 
335.0	1.0	0.0	7.98602	7.00631	-9.6998	13.35023	16.06248	0.92761	1.07804	202.11232	189.13915	76.44757	0.3219	 	2.36463E19	 	1.25526E-19	 	3973.65104	26.54328	 
330.0	1.0	0.0	7.9878	7.00475	-9.71985	13.32332	15.98533	0.92442	1.08176	202.46293	189.31821	76.58831	0.32176	 	3.70073E19	 	7.95471E-20	 	3841.15592	26.49902	 
325.0	1.0	0.0	7.98956	7.0032	-9.73984	13.29641	15.90814	0.92121	1.08553	202.81278	189.49629	76.72879	0.32162	 	5.83531E19	 	5.00302E-20	 	3708.88203	26.45478	 
320.0	1.0	0.0	7.99133	7.00166	-9.75975	13.2695	15.8309	0.91796	1.08937	203.16186	189.67342	76.869	0.32148	 	9.27204E19	 	3.12231E-20	 	3576.82934	26.41054	 
315.0	1.0	0.0	7.99308	7.00012	-9.77959	13.2426	15.75363	0.91469	1.09327	203.51017	189.84958	77.00896	0.32134	 	1.48493E20	 	1.93317E-20	 	3444.99784	26.3663	 
310.0	1.0	0.0	7.99484	6.99858	-9.79936	13.21571	15.6763	0.91139	1.09723	203.85772	190.02478	77.14865	0.3212	 	2.3974099999999997E20	 	1.1872E-20	 	3313.38754	26.32206	 
305.0	1.0	0.0	7.99658	6.99705	-9.81906	13.18883	15.59893	0.90805	1.10126	204.2045	190.19902	77.28809	0.32106	 	3.9028299999999997E20	 	7.23016E-21	 	3181.9985	26.27781	 
300.0	1.0	0.0	7.99832	6.99553	-9.83868	13.16195	15.52152	0.90469	1.10535	204.55052	190.37231	77.42726	0.32092	 	6.407779999999999E20	 	4.36563E-21	 	3050.83077	26.23355	 
295.0	1.0	0.0	8.00006	6.99401	-9.85823	13.13507	15.44406	0.9013	1.10951	204.89577	190.54465	77.56616	0.32078	 	1.0612700000000001E21	 	2.6129E-21	 	2919.88443	26.18927	 
290.0	1.0	0.0	8.00179	6.9925	-9.87771	13.10821	15.36655	0.89787	1.11375	205.24026	190.71603	77.70481	0.32064	 	1.77352E21	 	1.5498E-21	 	2789.15963	26.14496	 
285.0	1.0	0.0	8.00351	6.991	-9.89711	13.08134	15.28898	0.89441	1.11805	205.58398	190.88647	77.8432	0.3205	 	2.99117E21	 	9.10745E-22	 	2658.65647	26.10063	 
280.0	1.0	0.0	8.00523	6.9895	-9.91645	13.05449	15.21137	0.89092	1.12243	205.92694	191.05597	77.98132	0.32036	 	5.092720000000001E21	 	5.30127E-22	 	2528.37516	26.05626	 
275.0	1.0	0.0	8.00694	6.988	-9.93571	13.02764	15.13371	0.8874	1.12689	206.26913	191.22452	78.11918	0.32022	 	8.75537E21	 	3.05571E-22	 	2398.31587	26.01186	 
270.0	1.0	0.0	8.00865	6.98651	-9.9549	13.0008	15.05599	0.88385	1.13142	206.61056	191.39213	78.25678	0.32008	 	1.5203099999999999E22	 	1.74371E-22	 	2268.47887	25.9674	 
265.0	1.0	0.0	8.01035	6.98503	-9.97402	12.97396	14.97822	0.88026	1.13603	206.95122	191.55881	78.39411	0.31994	 	2.6671199999999997E22	 	9.84798E-23	 	2138.8644	25.92289	 
260.0	1.0	0.0	8.01204	6.98355	-9.99306	12.94713	14.90039	0.87663	1.14073	207.29112	191.72454	78.53119	0.3198	 	4.7286E22	 	5.50305E-23	 	2009.47277	25.87833	 
255.0	1.0	0.0	8.01373	6.98208	-10.01203	12.92031	14.8225	0.87298	1.14551	207.63025	191.88935	78.668	0.31966	 	8.47483E22	 	3.04168E-23	 	1880.30432	25.83369	 
250.0	1.0	0.0	8.01541	6.98061	-10.03093	12.89349	14.74455	0.86928	1.15037	207.96862	192.05322	78.80455	0.31952	 	1.53593E23	 	1.66242E-23	 	1751.35942	25.78898	 
245.0	1.0	0.0	8.01709	6.97915	-10.04976	12.86668	14.66654	0.86555	1.15533	208.30622	192.21617	78.94083	0.31938	 	2.8157799999999998E23	 	8.98139E-24	 	1622.63848	25.74419	 
240.0	1.0	0.0	8.01876	6.9777	-10.06852	12.83987	14.58847	0.86179	1.16038	208.64306	192.37818	79.07686	0.31924	 	5.2234099999999996E23	 	4.79487E-24	 	1494.14198	25.6993	 
235.0	1.0	0.0	8.02043	6.97625	-10.0872	12.81308	14.51034	0.85799	1.16552	208.97913	192.53928	79.21262	0.3191	 	9.808229999999999E23	 	2.52865E-24	 	1365.8704	25.65432	 
230.0	1.0	0.0	8.02209	6.9748	-10.10582	12.78628	14.43214	0.85415	1.17076	209.31445	192.69945	79.34811	0.31896	 	1.86494E24	 	1.3168E-24	 	1237.8243	25.60922	 
225.0	1.0	0.0	8.02375	6.97337	-10.12436	12.7595	14.35387	0.85027	1.1761	209.64899	192.8587	79.48335	0.31882	 	3.59206E24	 	6.76868E-25	 	1110.00427	25.56401	 
220.0	1.0	0.0	8.0254	6.97193	-10.14282	12.73272	14.27553	0.84636	1.18154	209.98277	193.01704	79.61832	0.31868	 	7.01121E24	 	3.43299E-25	 	982.41094	25.51867	 
215.0	1.0	0.0	8.02704	6.97051	-10.16122	12.70594	14.19712	0.8424	1.18708	210.31579	193.17446	79.75303	0.31854	 	1.38737E25	 	1.7173E-25	 	855.04504	25.47318	 
210.0	1.0	0.0	8.02868	6.96908	-10.17954	12.67917	14.11864	0.83841	1.19274	210.64804	193.33097	79.88748	0.3184	 	2.78437E25	 	8.46918E-26	 	727.9073	25.42755	 
205.0	1.0	0.0	8.03031	6.96767	-10.1978	12.65241	14.04008	0.83437	1.1985	210.97953	193.48657	80.02166	0.31827	 	5.67008E25	 	4.11587E-26	 	600.99854	25.38175	 
200.0	1.0	0.0	8.03193	6.96626	-10.21598	12.62566	13.96144	0.8303	1.20439	211.31026	193.64125	80.15558	0.31813	 	1.17214E26	 	1.97018E-26	 	474.31965	25.33578	 
195.0	1.0	0.0	8.03355	6.96485	-10.23409	12.59891	13.88273	0.82618	1.21039	211.64022	193.79504	80.28924	0.31799	 	2.46096E26	 	9.28467E-27	 	347.87155	25.28962	 
190.0	1.0	0.0	8.03517	6.96345	-10.25212	12.57216	13.80393	0.82203	1.21651	211.96942	193.94792	80.42263	0.31785	 	5.2503300000000005E26	 	4.30548E-27	 	221.65526	25.24326	 
185.0	1.0	0.0	8.03678	6.96206	-10.27009	12.54543	13.72505	0.81782	1.22276	212.29785	194.09989	80.55576	0.31771	 	1.13881E27	 	1.96355E-27	 	95.67186	25.19668	 
180.0	1.0	0.0	8.03838	6.96067	-10.28798	12.5187	13.64607	0.81358	1.22914	212.62552	194.25097	80.68863	0.31757	 	2.5126799999999996E27	 	8.80222E-28	 	-30.07749	25.14987	 
175.0	1.0	0.0	8.03998	6.95929	-10.3058	12.49197	13.56701	0.80929	1.23565	212.95243	194.40115	80.82124	0.31743	 	5.64275E27	 	3.87632E-28	 	-155.59155	25.10281	 
170.0	1.0	0.0	8.04157	6.95791	-10.32355	12.46525	13.48786	0.80496	1.2423	213.27857	194.55044	80.95358	0.31729	 	1.29055E28	 	1.67596E-28	 	-280.869	25.05549	 
165.0	1.0	0.0	8.04315	6.95654	-10.34123	12.43854	13.40861	0.80058	1.24909	213.60395	194.69883	81.08565	0.31715	 	3.00785E28	 	7.10974E-29	 	-405.90842	25.00788	 
160.0	1.0	0.0	8.04473	6.95517	-10.35883	12.41183	13.32926	0.79616	1.25603	213.92857	194.84633	81.21746	0.31701	 	7.14862E28	 	2.95735E-29	 	-530.7083	24.95998	 
155.0	1.0	0.0	8.04631	6.95381	-10.37637	12.38513	13.24981	0.79169	1.26313	214.25242	194.99294	81.34901	0.31687	 	1.73368E29	 	1.20535E-29	 	-655.26704	24.91175	 
150.0	1.0	0.0	8.04788	6.95246	-10.39383	12.35844	13.17025	0.78717	1.27038	214.57551	195.13867	81.4803	0.31673	 	4.2934900000000006E29	 	4.81028E-30	 	-779.5829	24.86317	 
145.0	1.0	0.0	8.04944	6.95111	-10.41122	12.33175	13.09058	0.7826	1.27779	214.89783	195.28351	81.61132	0.31659	 	1.0865999999999999E30	 	1.87823E-30	 	-903.65406	24.81423	 
140.0	1.0	0.0	8.05099	6.94976	-10.42854	12.30507	13.0108	0.77798	1.28538	215.2194	195.42747	81.74208	0.31645	 	2.81248E30	 	7.16978E-31	 	-1027.47858	24.7649	 
135.0	1.0	0.0	8.05255	6.94843	-10.44579	12.2784	12.93091	0.77332	1.29313	215.5402	195.57055	81.87257	0.31632	 	7.45122E30	 	2.67349E-31	 	-1151.05435	24.71516	 
130.0	1.0	0.0	8.05409	6.94709	-10.46297	12.25173	12.85089	0.7686	1.30107	215.86023	195.71275	82.0028	0.31618	 	2.02238E31	 	9.72952E-32	 	-1274.37919	24.66497	 
125.0	1.0	0.0	8.05563	6.94577	-10.48007	12.22507	12.77075	0.76383	1.30919	216.1795	195.85408	82.13276	0.31604	 	5.62844E31	 	3.45259E-32	 	-1397.45071	24.61431	 
120.0	1.0	0.0	8.05716	6.94444	-10.49711	12.19841	12.69048	0.75901	1.31751	216.49801	195.99453	82.26247	0.3159	 	1.60776E32	 	1.19351E-32	 	-1520.26643	24.56314	 
115.0	1.0	0.0	8.05869	6.94313	-10.51407	12.17176	12.61008	0.75413	1.32603	216.81576	196.13411	82.3919	0.31576	 	4.71842E32	 	4.01504E-33	 	-1642.82365	24.51144	 
110.0	1.0	0.0	8.06021	6.94182	-10.53096	12.14511	12.52954	0.7492	1.33475	217.13274	196.27282	82.52107	0.31562	 	1.4242200000000002E33	 	1.31304E-33	 	-1765.11953	24.45918	 
105.0	1.0	0.0	8.06173	6.94051	-10.54778	12.11848	12.44885	0.74422	1.34369	217.44896	196.41066	82.64998	0.31548	 	4.42633E33	 	4.16972E-34	 	-1887.15105	24.4063	 
100.0	1.0	0.0	8.06324	6.93921	-10.56452	12.09184	12.36802	0.73918	1.35285	217.76442	196.54764	82.77862	0.31534	 	1.41811E34	 	1.28429E-34	 	-2008.91496	24.35278	 
95.0	1.0	0.0	8.06474	6.93792	-10.5812	12.06522	12.28703	0.73408	1.36225	218.07912	196.68376	82.907	0.3152	 	4.68931E34	 	3.8318E-35	 	-2130.40783	24.29857	 
90.0	1.0	0.0	8.06624	6.93663	-10.59781	12.0386	12.20588	0.72893	1.37188	218.39305	196.81901	83.03512	0.31506	 	1.6025499999999999E35	 	1.10601E-35	 	-2251.62599	24.24363	 
85.0	1.0	0.0	8.06773	6.93535	-10.61434	12.01199	12.12456	0.72371	1.38177	218.70622	196.9534	83.16296	0.31493	 	5.6678199999999995E35	 	3.08415E-36	 	-2372.56553	24.18791	 
80.0	1.0	0.0	8.06922	6.93407	-10.6308	11.98538	12.04307	0.71844	1.39191	219.01863	197.08694	83.29055	0.31479	 	2.0775699999999997E36	 	8.29642E-37	 	-2493.2223	24.13135	 
75.0	1.0	0.0	8.0707	6.9328	-10.64719	11.95878	11.9614	0.7131	1.40233	219.33027	197.21962	83.41787	0.31465	 	7.904939999999999E36	 	2.14959E-37	 	-2613.59183	24.07391	 
70.0	1.0	0.0	8.07217	6.93153	-10.66351	11.93218	11.87953	0.7077	1.41302	219.64115	197.35145	83.54492	0.31451	 	3.1271899999999997E37	 	5.35571E-38	 	-2733.66941	24.01552	 
65.0	1.0	0.0	8.07364	6.93027	-10.67976	11.9056	11.79748	0.70224	1.42401	219.95127	197.48243	83.67171	0.31437	 	1.2884599999999998E38	 	1.28093E-38	 	-2853.44997	23.95611	 
60.0	1.0	0.0	8.0751	6.92902	-10.69594	11.87901	11.71521	0.69672	1.43531	220.26063	197.61256	83.79823	0.31423	 	5.5391899999999996E38	 	2.93549E-39	 	-2972.92812	23.89563	 
55.0	1.0	0.0	8.07656	6.92777	-10.71204	11.85244	11.63274	0.69112	1.44692	220.56922	197.74184	83.92449	0.31409	 	2.4895600000000002E39	 	6.43333E-40	 	-3092.09807	23.83399	 
50.0	1.0	0.0	8.07801	6.92652	-10.72808	11.82587	11.55004	0.68547	1.45886	220.87705	197.87027	84.05049	0.31395	 	1.17219E40	 	1.34553E-40	 	-3210.95368	23.77112	 
45.0	1.0	0.0	8.07945	6.92529	-10.74404	11.7993	11.46711	0.67974	1.47115	221.18412	197.99786	84.17621	0.31382	 	5.79457E40	 	2.67977E-41	 	-3329.48835	23.70693	 
40.0	1.0	0.0	8.08089	6.92405	-10.75994	11.77275	11.38393	0.67395	1.48379	221.49043	198.12462	84.30167	0.31368	 	3.0144500000000003E41	 	5.07028E-42	 	-3447.69502	23.64133	 
35.0	1.0	0.0	8.08233	6.92282	-10.77576	11.74619	11.3005	0.66808	1.49682	221.79597	198.25053	84.42687	0.31354	 	1.6543799999999998E42	 	9.09104E-43	 	-3565.56612	23.57422	 
30.0	1.0	0.0	8.08375	6.9216	-10.79151	11.71965	11.2168	0.66215	1.51024	222.10076	198.3756	84.5518	0.3134	 	9.60405E42	 	1.5406E-43	 	-3683.09359	23.50549	 
25.0	1.0	0.0	8.08517	6.92039	-10.80719	 	11.13282	0.65614	1.52407	222.40478	198.49984	84.67647	0.31326	 	5.91415E43	 	2.46053E-44	 	-3800.26871	 	 
