T (C)	Fraction solid (wt)-TOTAL	Fraction liquid (wt)-LIQUID	Density (g/(cm)^3)-TOTAL	Molar volume (cm^3)-TOTAL	Volume change (%)-  	Average expansion coeff. (10e-6 1/K)-  	Thermal conductivity (W/(m*K))-TOTAL	Electrical resistivity (10e-6 Ohm*m)-TOTAL	Electrical conductivity (10e6 1/(Ohm*m))-TOTAL	Young's modulus (GPa)-TOTAL	Bulk modulus (GPa)-TOTAL	Shear modulus(GPa)-TOTAL	Poisson's ratio-TOTAL	Liquid viscosity (mPa s)-  	Total viscosity (mPa s)-  	Liquid diffusivity (10e-9 (m^2)/s)-  	Total diffusivity (10e-9 (m^2)/s)-  	Surface Tension (mN/m)-  	Enthalpy (J/mole)-TOTAL	Specific heat (J/(mole K))-TOTAL	Latent heat (J/mole)-TOTAL
1400.0	0.0	1.0	7.21583	7.71354	0.0	28.55573	29.5775	1.38592	0.72154	0.0	125.13948	0.0	0.5	6.82884	6.82884	1.19584	1.19584	1759.81908	59234.07	 	0.0
1395.0	0.0	1.0	7.21975	7.70936	-0.0542335	28.51245	29.5023	1.3853	0.72186	0.0	125.30335	0.0	0.5	6.90068	6.90068	1.17986	1.17986	1762.056	59027.536	41.3068	0.0
1390.0	0.0	1.0	7.22365	7.70519	-0.10831	28.46928	29.4271	1.38468	0.72219	0.0	125.46721	0.0	0.5	6.97371	6.97371	1.164	1.164	1764.30675	58821.478	41.2116	0.0
1385.0	0.0	1.0	7.22756	7.70103	-0.16222	28.42624	29.3519	1.38406	0.72251	0.0	125.63108	0.0	0.5	7.04796	7.04796	1.14828	1.14828	1766.57123	58615.894	41.1168	0.0
1380.0	0.0	1.0	7.23145	7.69688	-0.21598	28.38331	29.2767	1.38343	0.72284	0.0	125.79494	0.0	0.5	7.12347	7.12347	1.13268	1.13268	1768.84932	58410.781	41.0226	0.0
1375.0	0.0	1.0	7.23534	7.69275	-0.26958	28.34051	29.20151	1.38279	0.72317	0.0	125.95881	0.0	0.5	7.20024	7.20024	1.11721	1.11721	1771.1409	58206.137	40.9288	0.0
1370.0	0.0	1.0	7.23921	7.68863	-0.32301	28.29783	29.12631	1.38216	0.72351	0.0	126.12267	0.0	0.5	7.27832	7.27832	1.10188	1.10188	1773.44581	58001.96	40.8354	0.0
1365.0	0.0	1.0	7.24309	7.68452	-0.37629	28.25527	29.05111	1.38152	0.72384	0.0	126.28654	0.0	0.5	7.35773	7.35773	1.08667	1.08667	1775.7639	57798.247	40.7426	0.0
1364.33	0.0	1.0	7.24361	7.68396	-0.38345	28.24956	29.041	1.38143	0.72389	0.0	126.30858	0.0	0.5	7.36851	7.36851	1.08463	1.08463	1776.07667	57770.882	40.69327	0.0020
1360.0	0.15544	0.84456	7.27696	7.64866	-0.84119	27.06356	29.58981	1.35223	0.73952	0.0553659	125.47331	0.0187316	0.47788	7.43777	29.82155	1.07169	0.26729	1774.42606	55069.598	624.20919	2525.397
1355.0	0.29331	0.70669	7.30721	7.61702	-1.25134	26.01629	30.07851	1.32619	0.75404	0.71641	124.79439	0.24568	0.45801	7.51696	289.92197	1.05715	0.0274094	1772.83023	52638.687	486.1822	4753.518
1350.0	0.39895	0.60105	7.33105	7.59225	-1.57239	25.21165	30.45222	1.30589	0.76576	2.49354	124.35186	0.86425	0.44261	7.5957	1027.4471	1.04298	0.00771056	1771.52817	50741.032	379.531	6448.842
1345.0	0.48182	0.51818	7.35036	7.57235	-1.83045	24.57871	30.74173	1.2896	0.77543	5.37999	124.08458	1.88056	0.43042	7.67418	2309.60818	1.02914	0.00341954	1770.4842	49220.005	304.2054	7767.993
1340.0	0.54813	0.45187	7.36637	7.5559	-2.04375	24.06781	30.96694	1.27627	0.78353	9.12182	123.94915	3.21062	0.42057	7.7526	4105.19672	1.01558	0.00191791	1769.66705	47972.223	249.5564	8814.353
1335.0	0.60209	0.39791	7.37993	7.54201	-2.22383	23.64747	31.14192	1.26517	0.79041	13.42471	123.91508	4.75216	0.41249	7.83107	6352.86566	1.00229	0.0012355	1769.04903	46927.357	208.9732	9658.249
1330.0	0.64665	0.35335	7.39162	7.53008	-2.37842	23.2967	31.27688	1.25579	0.79631	18.03705	123.96073	6.41542	0.40576	7.90982	8993.21672	0.98922	8.70053E-4	1768.60601	46036.283	178.2148	10348.803
1325.0	0.68391	0.31609	7.40186	7.51969	-2.51314	23.00018	31.37975	1.24777	0.80143	22.76854	124.0701	8.13112	0.40009	7.98886	11979.10455	0.97638	6.51148E-4	1768.31714	45263.885	154.4796	10921.128
1320.0	0.71542	0.28458	7.41096	7.5105	-2.63232	22.74606	31.45638	1.24084	0.80591	27.4876	124.2303	9.85039	0.39525	8.0684	15279.07028	0.96373	5.08916E-4	1768.16447	44584.54	135.869	11400.846
1315.0	0.74233	0.25767	7.41914	7.50222	-2.73957	22.52447	31.51152	1.23478	0.80986	32.10852	124.43126	11.54076	0.39109	8.14847	18875.41592	0.95127	4.10659E-4	1768.13277	43979.206	121.0668	11806.996
1310.0	0.76551	0.23449	7.42659	7.49469	-2.83722	22.32895	31.54875	1.22944	0.81338	36.5753	124.6653	13.18053	0.38747	8.22914	22759.93911	0.93898	3.39498E-4	1768.20876	43433.498	109.1416	12153.961
1305.0	0.78564	0.21436	7.43343	7.48781	-2.92644	22.15648	31.57122	1.22468	0.81654	40.85822	124.92748	14.75764	0.38431	8.31052	26935.99958	0.92684	2.85958E-4	1768.38028	42936.387	99.4222	12452.769
1304.79	0.78643	0.21357	7.43371	7.48754	-2.92988	22.15016	31.57183	1.22449	0.81667	41.03388	124.93966	14.82241	0.38418	8.31405	27119.43581	0.92632	2.83985E-4	1768.38907	42916.246	 	12464.435
1300.0	0.81995	0.18005	7.44359	7.47749	-3.06028	21.85224	31.65442	1.21759	0.82129	49.01423	125.26452	17.77386	0.37883	8.45979	34175.99784	0.90761	2.24665E-4	1768.56486	42195.524	148.1726	12995.765
1295.0	0.84671	0.15329	7.45208	7.46884	-3.17238	21.60939	31.70361	1.21184	0.82519	56.26774	125.61455	20.46832	0.37451	8.60874	41571.26725	0.88907	1.84112E-4	1768.82597	41578.89	123.3268	13414.969
1290.0	0.86757	0.13243	7.45927	7.4615	-3.26754	21.41452	31.72563	1.20714	0.82841	62.53789	125.97549	22.80572	0.3711	8.75515	49026.24206	0.87141	1.55618E-4	1769.16276	41058.873	104.0034	13737.989
1285.0	0.88422	0.11578	7.46555	7.45508	-3.35075	21.25342	31.72796	1.20319	0.83113	67.98678	126.3463	24.84269	0.36835	8.89982	56615.7414	0.8545	1.34326E-4	1769.57023	40607.285	90.3176	13993.011
1280.0	0.89779	0.10221	7.47115	7.44931	-3.42556	21.116	31.71557	1.19979	0.83348	72.75512	126.72511	26.62939	0.36607	9.04333	64414.98809	0.83825	1.17683E-4	1770.04317	40205.663	80.3244	14198.497
1275.0	0.90902	0.0909818	7.47626	7.44406	-3.49358	20.99771	31.69197	1.19682	0.83555	76.95732	127.11139	28.20694	0.36416	9.18622	72496.35817	0.82255	1.04228E-4	1770.57527	39841.5	72.8326	14366.951
1270.0	0.91847	0.081532	7.48098	7.4392	-3.55662	20.89338	31.6596	1.19418	0.8374	80.69182	127.50356	29.61118	0.36252	9.32892	80934.45788	0.80735	9.30596E-5	1771.16159	39506.071	67.0858	14507.095
1265.0	0.92651	0.07349	7.48541	7.43463	-3.61589	20.79953	31.62029	1.19179	0.83908	84.03909	127.90062	30.87157	0.36111	9.47186	89803.45928	0.79259	8.35973E-5	1771.7975	39193.132	62.5878	14625.174
1260.0	0.93343	0.0665703	7.4896	7.4303	-3.67201	20.71443	31.57539	1.1896	0.84062	87.06084	128.30187	32.01074	0.35987	9.61544	99174.3399	0.77822	7.54522E-5	1772.47828	38898.109	59.0046	14725.759
1255.0	0.93944	0.0605567	7.4936	7.42617	-3.72559	20.63632	31.52591	1.18758	0.84205	89.80792	128.7065	33.04746	0.35877	9.7599	109118.9663	0.7642	6.83522E-5	1773.2	38617.582	56.1054	14812.267
1250.0	0.94471	0.0552859	7.49745	7.42219	-3.7771	20.56389	31.47263	1.1857	0.84338	92.32146	129.11395	33.99693	0.35779	9.90551	119711.4539	0.7505	6.21003E-5	1773.95916	38348.951	53.7262	14887.296
1245.0	0.94937	0.0506331	7.50116	7.41835	-3.82689	20.49608	31.41617	1.18393	0.84464	94.63581	129.5236	34.87188	0.35691	10.05257	131029.3823	0.7371	5.655E-5	1774.75264	38090.206	51.749	14952.856
1240.0	0.9535	0.0464964	7.50477	7.41463	-3.87516	20.43241	31.35701	1.18226	0.84584	96.77826	129.93513	35.68245	0.3561	10.2014	143153.7656	0.72395	5.159E-5	1775.57736	37839.767	50.0878	15010.523
1235.0	0.9572	0.0427967	7.50828	7.411	-3.92226	20.37181	31.29554	1.18067	0.84698	98.77259	130.34805	36.4375	0.35537	10.3521	156170.9982	0.71105	4.71336E-5	1776.43124	37596.382	48.677	15061.548
1230.0	0.96053	0.0394687	7.51171	7.40745	-3.9683	20.31397	31.23208	1.17915	0.84807	100.63697	130.76202	37.1438	0.35469	10.50491	170171.8481	0.69839	4.31123E-5	1777.31184	37359.041	47.4682	15106.94
1225.0	0.96354	0.0364607	7.51508	7.40397	-4.01338	20.25864	31.16692	1.17768	0.84913	102.3892	131.17683	37.80799	0.35407	10.66004	185258.5958	0.68594	3.94697E-5	1778.21698	37126.923	46.4236	15147.517
1220.0	0.96627	0.0337273	7.51838	7.40056	-4.0576	20.20555	31.10024	1.17627	0.85015	104.04118	131.59229	38.43452	0.35349	10.8177	201535.7063	0.67368	3.61608E-5	1779.14469	36899.355	45.5136	15183.951
1215.0	0.96877	0.0312345	7.52163	7.3972	-4.10116	20.15405	31.03223	1.1749	0.85114	105.60632	132.00798	39.02842	0.35294	10.97811	219122.0868	0.66162	3.31472E-5	1780.0938	36675.778	44.7154	15216.798
1213.1	0.96965	0.0303472	7.52286	7.39593	-4.11754	20.13499	31.00598	1.17439	0.85151	106.17867	132.16651	39.24566	0.35274	11.03993	226186.3996	0.65707	3.20709E-5	1780.45997	36591.623	 	15228.393
1210.0	0.97241	0.027591	7.52529	7.39345	-4.14969	20.08649	30.96373	1.17354	0.85212	107.25641	132.43814	39.65893	0.35224	11.17446	239451.7926	0.64781	3.02311E-5	1781.10255	36428.703	49.415	15273.545
1205.0	0.97641	0.0235907	7.52908	7.38957	-4.2001	20.01243	30.89425	1.17221	0.85309	108.87743	132.8739	40.28083	0.35148	11.39411	262146.5228	0.63318	2.75208E-5	1782.14963	36172.989	51.1428	15339.333
1200.0	0.97989	0.020108	7.53274	7.38582	-4.24866	19.94359	30.82337	1.17094	0.85402	110.39056	133.30632	40.86119	0.3508	11.61672	286512.2658	0.61894	2.50952E-5	1783.20513	35926.15	49.3678	15396.645
1195.0	0.98294	0.017057	7.53628	7.38219	-4.29577	19.8788	30.75129	1.1697	0.85492	111.87022	133.73583	41.42781	0.35018	11.84246	312737.4872	0.60508	2.29127E-5	1784.26861	35686.787	47.8726	15446.878
1190.0	0.98563	0.0143686	7.53972	7.37865	-4.34161	19.81752	30.6782	1.16849	0.85581	113.40491	134.16304	42.01367	0.34962	12.07137	341026.3106	0.59159	2.09405E-5	1785.33827	35453.774	46.6026	15491.156
1189.85	0.98571	0.0142933	7.53983	7.37854	-4.34297	19.8157	30.67599	1.16845	0.85583	113.45264	134.17583	42.03186	0.3496	12.07829	341908.6774	0.59119	2.08843E-5	1785.37052	35446.897	 	15492.373
1185.0	0.99077	0.00923372	7.54405	7.37398	-4.40216	19.70845	30.62349	1.16658	0.85721	116.9975	134.68535	43.37385	0.34871	12.29945	375674.2319	0.57863	1.89443E-5	1787.57933	35151.979	60.359	15604.61
1180.0	0.99465	0.00534849	7.54795	7.36975	-4.45693	19.61707	30.56115	1.16495	0.85841	120.70115	135.18678	44.77095	0.34799	12.53047	411951.6379	0.56602	1.72167E-5	1789.89258	34878.466	54.7026	15690.175
1175.0	0.99764	0.00236348	7.55153	7.36587	-4.50733	19.53907	30.49374	1.16351	0.85947	123.24704	135.67076	45.73538	0.34739	12.76494	450329.4577	0.55371	1.56953E-5	1792.24562	34625.686	50.556	15755.395
1170.0	1.0	0.0	7.55489	7.36222	-4.55464	19.47045	30.42182	1.16223	0.86041	125.06645	136.14203	46.42779	0.34689	 	491313.6589	 	1.43364E-5	 	34387.358	47.6656	15806.552
1165.0	1.0	0.0	7.55757	7.3596	-4.5886	19.44483	30.33868	1.16138	0.86105	125.56767	136.55398	46.61904	0.34674	 	531335.7147	 	1.32106E-5	 	34198.54235	37.76313	 
1160.0	1.0	0.0	7.56025	7.35699	-4.62241	19.41949	30.25554	1.16052	0.86168	126.06811	136.96457	46.81004	0.34659	 	574936.5271	 	1.21663E-5	 	34018.88086	35.9323	 
1155.0	1.0	0.0	7.56293	7.35439	-4.65614	19.39421	30.1724	1.15966	0.86232	126.56774	137.37352	47.00077	0.34644	 	622458.8287	 	1.11982E-5	 	33839.5361	35.86895	 
1150.07	1.0	0.0	7.56556	7.35183	-4.68932	19.36933	30.0904	1.1588	0.86296	127.05969	137.77524	47.18862	0.3463	 	673539.5269	 	1.03132E-5	 	33662.97834	 	 
1150.0	1.0	0.0	7.5656	7.35179	-4.68978	19.36899	30.08926	1.15879	0.86297	127.06661	137.78089	47.19126	0.34629	 	674288.2002	 	1.03013E-5	 	33660.4907	35.80908	 
1145.0	1.0	0.0	7.56826	7.3492	-4.72335	19.34379	30.0061	1.15792	0.86362	127.56928	138.19059	47.38325	0.34614	 	731062.631	 	9.46791E-6	 	33480.31931	36.03428	 
1140.0	1.0	0.0	7.57092	7.34662	-4.75684	19.31863	29.92293	1.15704	0.86427	128.07103	138.59856	47.57493	0.34599	 	793063.9711	 	8.69695E-6	 	33300.50103	35.96366	 
1135.0	1.0	0.0	7.57358	7.34404	-4.79024	19.29351	29.83977	1.15616	0.86493	128.57185	139.0048	47.76631	0.34584	 	860814.0464	 	7.98411E-6	 	33121.03453	35.8933	 
1130.0	1.0	0.0	7.57623	7.34147	-4.82357	19.26844	29.7566	1.15528	0.86559	129.07176	139.40934	47.95739	0.34569	 	934890.5611	 	7.32538E-6	 	32941.91787	35.82333	 
1125.0	1.0	0.0	7.57888	7.33891	-4.85682	19.24341	29.67344	1.15439	0.86626	129.57076	139.81217	48.14817	0.34554	 	1015933.374	 	6.717E-6	 	32763.14958	35.75366	 
1120.0	1.0	0.0	7.58152	7.33635	-4.88998	19.21844	29.59027	1.15349	0.86693	130.06883	140.21331	48.33865	0.34539	 	1104652.107	 	6.15544E-6	 	32584.72826	35.68426	 
1115.0	1.0	0.0	7.58416	7.3338	-4.92306	19.19352	29.5071	1.15259	0.86761	130.566	140.61276	48.52883	0.34524	 	1201833.967	 	5.6374E-6	 	32406.65253	35.61515	 
1110.0	1.0	0.0	7.58679	7.33125	-4.95606	19.16865	29.42394	1.15169	0.86829	131.06225	141.01052	48.71871	0.34509	 	1308353.041	 	5.15978E-6	 	32228.921	35.54631	 
1105.0	1.0	0.0	7.58942	7.32872	-4.98897	19.14384	29.34077	1.15078	0.86898	131.55759	141.40661	48.90829	0.34494	 	1425180.449	 	4.71969E-6	 	32051.5323	35.47774	 
1100.0	1.0	0.0	7.59205	7.32618	-5.02181	19.11908	29.2576	1.14986	0.86967	132.05202	141.80103	49.09757	0.34479	 	1553395.936	 	4.31442E-6	 	31874.48504	35.40945	 
1095.0	1.0	0.0	7.59466	7.32366	-5.05456	19.09437	29.17443	1.14894	0.87037	132.54555	142.19379	49.28655	0.34464	 	1694200.63	 	3.94145E-6	 	31697.77787	35.34143	 
1090.0	1.0	0.0	7.59728	7.32114	-5.08723	19.06971	29.09126	1.14801	0.87107	133.03816	142.58488	49.47524	0.34449	 	1848932.007	 	3.5984E-6	 	31521.40942	35.27369	 
1085.0	1.0	0.0	7.59989	7.31862	-5.11982	19.04511	29.00808	1.14708	0.87178	133.52987	142.97433	49.66362	0.34434	 	2019080.042	 	3.28308E-6	 	31345.37833	35.20622	 
1080.0	1.0	0.0	7.60249	7.31612	-5.15232	19.02057	28.92491	1.14615	0.87249	134.02067	143.36213	49.85171	0.34419	 	2206306.102	 	2.99341E-6	 	31169.68323	35.13902	 
1075.0	1.0	0.0	7.60509	7.31361	-5.18475	18.99608	28.84173	1.1452	0.87321	134.51058	143.74829	50.0395	0.34404	 	2412463.64	 	2.7275E-6	 	30994.32278	35.07209	 
1070.0	1.0	0.0	7.60769	7.31112	-5.21709	18.97165	28.75855	1.14426	0.87393	134.99958	144.13281	50.227	0.34389	 	2639622.528	 	2.48353E-6	 	30819.29563	35.00543	 
1065.0	1.0	0.0	7.61028	7.30863	-5.24935	18.94728	28.67538	1.1433	0.87466	135.48768	144.51571	50.4142	0.34375	 	2890095.165	 	2.25985E-6	 	30644.60044	34.93904	 
1060.0	1.0	0.0	7.61286	7.30615	-5.28153	18.92297	28.59219	1.14235	0.87539	135.97488	144.897	50.60111	0.3436	 	3166467.701	 	2.0549E-6	 	30470.23588	34.87291	 
1055.0	1.0	0.0	7.61544	7.30367	-5.31363	18.89872	28.50901	1.14138	0.87613	136.46118	145.27666	50.78771	0.34345	 	3471634.164	 	1.86724E-6	 	30296.20061	34.80705	 
1050.0	1.0	0.0	7.61802	7.3012	-5.34565	18.87452	28.42583	1.14041	0.87688	136.94659	145.65472	50.97403	0.3433	 	3808835.629	 	1.69552E-6	 	30122.49331	34.74146	 
1045.0	1.0	0.0	7.62059	7.29874	-5.37758	18.85039	28.34264	1.13944	0.87763	137.4311	146.03118	51.16005	0.34315	 	4181704.563	 	1.5385E-6	 	29949.11265	34.67613	 
1040.0	1.0	0.0	7.62316	7.29628	-5.40943	18.82632	28.25945	1.13846	0.87838	137.91472	146.40604	51.34577	0.343	 	4594315.504	 	1.39502E-6	 	29776.05734	34.61106	 
1035.04	1.0	0.0	7.6257	7.29385	-5.44093	18.80251	28.17699	1.13748	0.87914	138.39327	146.77608	51.5296	0.34285	 	5047076.384	 	1.26508E-6	 	29604.82291	 	 
1035.0	1.0	0.0	7.62573	7.29382	-5.44135	18.80177	28.17584	1.13749	0.87913	138.3991	146.78018	51.53186	0.34285	 	5051683.122	 	1.26389E-6	 	29602.54402	34.70266	 
1030.0	1.0	0.0	7.62959	7.29013	-5.48919	18.71794	28.04631	1.13837	0.87845	139.06739	147.25076	51.79049	0.3426	 	5614279.731	 	1.13289E-6	 	29341.67728	52.17335	 
1025.0	1.0	0.0	7.6334	7.2865	-5.53631	18.63596	27.92	1.13914	0.87786	139.72665	147.71481	52.04568	0.34235	 	6243599.242	 	1.01479E-6	 	29084.65109	51.40524	 
1020.0	1.0	0.0	7.63715	7.28291	-5.58275	18.55573	27.79671	1.13978	0.87736	140.37737	148.17267	52.29759	0.3421	 	6948066.046	 	9.08389E-7	 	28831.28083	50.67405	 
1015.0	1.0	0.0	7.64086	7.27938	-5.62852	18.47717	27.67612	1.14032	0.87695	141.01998	148.62462	52.54642	0.34186	 	7737234.248	 	8.12582E-7	 	28581.39333	49.9775	 
1010.0	1.0	0.0	7.64451	7.2759	-5.67366	18.4002	27.55809	1.14076	0.87661	141.65492	149.07095	52.7923	0.34162	 	8621950.651	 	7.26371E-7	 	28334.8261	49.31345	 
1005.0	1.0	0.0	7.64812	7.27247	-5.71821	18.32472	27.44244	1.1411	0.87634	142.28257	149.51192	53.03541	0.34139	 	9614538.867	 	6.48844E-7	 	28091.42658	48.6799	 
1000.0	1.0	0.0	7.65169	7.26907	-5.76218	18.25066	27.32899	1.14136	0.87615	142.90329	149.94775	53.27587	0.34116	 	1.072901411E7	 	5.79171E-7	 	27851.05152	48.07501	 
995.0	1.0	0.0	7.65522	7.26572	-5.8056	18.17796	27.21762	1.14153	0.87602	143.51742	150.37866	53.51383	0.34094	 	1.198132798E7	 	5.16598E-7	 	27613.56635	47.49703	 
990.0	1.0	0.0	7.65871	7.26242	-5.84849	18.10654	27.10818	1.14162	0.87595	144.12528	150.80488	53.74939	0.34072	 	1.33896535E7	 	4.60439E-7	 	27378.84467	46.94434	 
985.0	1.0	0.0	7.66216	7.25915	-5.89087	18.03634	27.00055	1.14163	0.87594	144.72717	151.22658	53.98268	0.3405	 	1.497471173E7	 	4.10073E-7	 	27146.76766	46.4154	 
980.0	1.0	0.0	7.66557	7.25592	-5.93277	17.9673	26.89462	1.14157	0.87598	145.32335	151.64395	54.2138	0.34028	 	1.676015178E7	 	3.64932E-7	 	26917.22353	45.90883	 
975.0	1.0	0.0	7.66895	7.25272	-5.9742	17.89936	26.79029	1.14145	0.87608	145.9141	152.05715	54.44285	0.34007	 	1.877298725E7	 	3.24504E-7	 	26690.10714	45.42328	 
970.0	1.0	0.0	7.67229	7.24956	-6.01519	17.83248	26.68747	1.14125	0.87623	146.49964	152.46634	54.66993	0.33986	 	2.104410828E7	 	2.88323E-7	 	26465.31945	44.95754	 
965.0	1.0	0.0	7.6756	7.24643	-6.05574	17.7666	26.58607	1.141	0.87643	147.08021	152.87166	54.89512	0.33965	 	2.360886523E7	 	2.55968E-7	 	26242.76714	44.51046	 
960.0	1.0	0.0	7.67888	7.24333	-6.09587	17.70167	26.48601	1.14068	0.87667	147.65602	153.27324	55.1185	0.33944	 	2.650775671E7	 	2.27054E-7	 	26022.36217	44.08099	 
955.0	1.0	0.0	7.68213	7.24027	-6.13561	17.63765	26.3872	1.14031	0.87695	148.22725	153.67121	55.34016	0.33924	 	2.978722139E7	 	2.01237E-7	 	25804.02152	43.66813	 
950.0	1.0	0.0	7.68536	7.23723	-6.17495	17.5745	26.28959	1.13989	0.87728	148.79411	154.0657	55.56016	0.33904	 	3.350056405E7	 	1.78203E-7	 	25587.66668	43.27097	 
945.0	1.0	0.0	7.68855	7.23423	-6.21392	17.51218	26.19311	1.13941	0.87765	149.35676	154.4568	55.77856	0.33884	 	3.770902654E7	 	1.57667E-7	 	25373.22354	42.88863	 
940.0	1.0	0.0	7.69172	7.23125	-6.25253	17.45065	26.09769	1.13888	0.87805	149.91536	154.84463	55.99544	0.33864	 	4.248304969E7	 	1.39375E-7	 	25160.62191	42.52033	 
935.0	1.0	0.0	7.69486	7.2283	-6.29079	17.38988	26.00327	1.13831	0.8785	150.47008	155.22928	56.21086	0.33844	 	4.790372889E7	 	1.23094E-7	 	24949.79535	42.16531	 
930.0	1.0	0.0	7.69797	7.22537	-6.32871	17.32983	25.90981	1.13768	0.87898	151.02104	155.61084	56.42486	0.33825	 	5.406452601E7	 	1.08616E-7	 	24740.6809	41.82289	 
925.0	1.0	0.0	7.70106	7.22247	-6.36631	17.27047	25.81725	1.13702	0.87949	151.56839	155.9894	56.63749	0.33806	 	6.107326788E7	 	9.57518E-8	 	24533.21886	41.49241	 
920.0	1.0	0.0	7.70413	7.2196	-6.40359	17.21176	25.72555	1.13631	0.88004	152.11224	156.36503	56.84882	0.33787	 	6.905448979E7	 	8.43315E-8	 	24327.35253	41.17327	 
915.0	1.0	0.0	7.70717	7.21675	-6.44055	17.15369	25.63466	1.13556	0.88062	152.65273	156.73781	57.05888	0.33768	 	7.815217312E7	 	7.42022E-8	 	24123.02809	40.86489	 
914.48	1.0	0.0	7.70749	7.21645	-6.44436	17.1477	25.62533	1.13548	0.88068	152.70828	156.77608	57.08048	0.33766	 	7.916017398E7	 	7.32256E-8	 	24102.04474	 	 
910.0	1.0	0.0	7.71022	7.21389	-6.47757	17.09476	25.54424	1.13478	0.88123	153.19668	157.11202	57.27035	0.33749	 	8.855636804E7	 	6.52089E-8	 	23918.12514	40.98059	 
905.0	1.0	0.0	7.71327	7.21104	-6.51451	17.03546	25.45449	1.13397	0.88186	153.73872	157.48391	57.48115	0.3373	 	1.004494408E8	 	5.72453E-8	 	23714.1722	40.79059	 
900.0	1.0	0.0	7.71633	7.20818	-6.55162	16.97481	25.36529	1.13313	0.88251	154.28031	157.85398	57.69186	0.33711	 	1.140666017E8	 	5.01975E-8	 	23510.61036	40.71237	 
895.0	1.0	0.0	7.71949	7.20523	-6.58988	16.90851	25.27618	1.13228	0.88317	154.8294	158.22567	57.90566	0.33691	 	1.297225036E8	 	4.39511E-8	 	23304.58004	41.20606	 
892.31	1.0	0.0	7.72134	7.20351	-6.61219	16.86515	25.22765	1.13184	0.88352	155.13795	158.43067	58.02598	0.3368	 	1.391756543E8	 	4.08714E-8	 	23189.11304	 	 
890.0	1.0	0.0	7.72269	7.20224	-6.62861	16.83942	25.18747	1.1314	0.88386	155.38133	158.59724	58.12068	0.33671	 	1.477213438E8	 	3.84308E-8	 	23097.90324	41.33536	 
885.0	1.0	0.0	7.72562	7.19951	-6.66399	16.78403	25.1008	1.13043	0.88462	155.90672	158.95638	58.32515	0.33653	 	1.682134662E8	 	3.3604E-8	 	22901.16127	39.34839	 
880.0	1.0	0.0	7.72853	7.1968	-6.69912	16.72911	25.01469	1.12942	0.88541	156.42929	159.31301	58.52855	0.33635	 	1.917478636E8	 	2.93523E-8	 	22705.67988	39.09628	 
875.0	1.0	0.0	7.73142	7.19411	-6.73399	16.67466	24.92912	1.12839	0.88622	156.9491	159.66717	58.73094	0.33617	 	2.188062065E8	 	2.5611E-8	 	22511.42103	38.85177	 
870.0	1.0	0.0	7.73429	7.19144	-6.76861	16.62064	24.84405	1.12732	0.88706	157.46624	160.0189	58.93233	0.33599	 	2.499511656E8	 	2.23221E-8	 	22318.34903	38.6144	 
865.0	1.0	0.0	7.73715	7.18879	-6.803	16.56705	24.75946	1.12622	0.88792	157.98077	160.36826	59.13274	0.33581	 	2.858408957E8	 	1.9434E-8	 	22126.42928	38.38395	 
860.0	1.0	0.0	7.73998	7.18616	-6.83715	16.51385	24.67533	1.1251	0.88881	158.49275	160.71529	59.33222	0.33564	 	3.272461248E8	 	1.69005E-8	 	21935.62869	38.16012	 
855.0	1.0	0.0	7.7428	7.18354	-6.87108	16.46105	24.59164	1.12395	0.88972	159.00227	161.06002	59.53078	0.33546	 	3.750705863E8	 	1.46805E-8	 	21745.9155	37.94264	 
850.0	1.0	0.0	7.7456	7.18094	-6.90478	16.40861	24.50836	1.12277	0.89066	159.50936	161.4025	59.72844	0.33529	 	4.303753162E8	 	1.27373E-8	 	21557.25932	37.73124	 
845.0	1.0	0.0	7.74797	7.17874	-6.93325	16.3793	24.43015	1.12135	0.89178	159.94854	161.71195	59.89905	0.33515	 	4.906275354E8	 	1.11233E-8	 	21399.36601	31.57866	 
840.0	1.0	0.0	7.75034	7.17655	-6.96163	16.35	24.35194	1.11992	0.89292	160.38694	162.02013	60.06942	0.33501	 	5.599737707E8	 	9.70226E-9	 	21238.5184	32.16952	 
835.0	1.0	0.0	7.7527	7.17437	-6.98994	16.32072	24.27373	1.11848	0.89407	160.82458	162.32703	60.23952	0.33488	 	6.398844765E8	 	8.45247E-9	 	21077.94074	32.11553	 
830.0	1.0	0.0	7.75505	7.17219	-7.01817	16.29144	24.19551	1.11703	0.89523	161.26143	162.63267	60.40937	0.33474	 	7.320835217E8	 	7.35463E-9	 	20917.63227	32.06169	 
825.0	1.0	0.0	7.7574	7.17002	-7.04631	16.26218	24.11728	1.11558	0.8964	161.69752	162.93705	60.57896	0.3346	 	8.385945391E8	 	6.39141E-9	 	20757.59219	32.00802	 
820.0	1.0	0.0	7.75974	7.16786	-7.07438	16.23293	24.03905	1.11411	0.89758	162.13283	163.24017	60.7483	0.33446	 	9.617962388E8	 	5.54732E-9	 	20597.81972	31.95449	 
815.0	1.0	0.0	7.76208	7.1657	-7.10236	16.20369	23.96082	1.11264	0.89877	162.56736	163.54203	60.91738	0.33433	 	1.104488514E9	 	4.80855E-9	 	20438.31409	31.90113	 
810.0	1.0	0.0	7.76441	7.16355	-7.13026	16.17446	23.88258	1.11115	0.89997	163.00113	163.84264	61.0862	0.33419	 	1.269971557E9	 	4.16276E-9	 	20279.0745	31.84792	 
805.0	1.0	0.0	7.76674	7.1614	-7.15808	16.14524	23.80434	1.10966	0.90118	163.43412	164.142	61.25477	0.33405	 	1.462140688E9	 	3.59896E-9	 	20120.10013	31.79487	 
800.0	1.0	0.0	7.76906	7.15926	-7.18582	16.11603	23.72609	1.10815	0.9024	163.86633	164.44011	61.42308	0.33391	 	1.685600184E9	 	3.10737E-9	 	19961.39019	31.74199	 
795.0	1.0	0.0	7.77137	7.15713	-7.21348	16.08684	23.64784	1.10664	0.90364	164.29778	164.73699	61.59114	0.33378	 	1.945800112E9	 	2.6793E-9	 	19802.94387	31.68927	 
790.0	1.0	0.0	7.77368	7.155	-7.24106	16.05765	23.56958	1.10512	0.90488	164.72845	165.03262	61.75894	0.33364	 	2.249201078E9	 	2.30703E-9	 	19644.76034	31.63671	 
785.0	1.0	0.0	7.77599	7.15288	-7.26856	16.02848	23.49132	1.10359	0.90614	165.15835	165.32702	61.92648	0.3335	 	2.603472889E9	 	1.98372E-9	 	19486.83877	31.58432	 
780.0	1.0	0.0	7.77829	7.15076	-7.29598	15.99932	23.41305	1.10204	0.90741	165.58747	165.62019	62.09377	0.33337	 	3.017734477E9	 	1.70332E-9	 	19329.17831	31.53209	 
775.0	1.0	0.0	7.78058	7.14865	-7.32332	15.97017	23.33477	1.10049	0.90869	166.01583	165.91213	62.2608	0.33323	 	3.502844111E9	 	1.46046E-9	 	19171.77812	31.48004	 
770.0	1.0	0.0	7.78287	7.14655	-7.35058	15.94103	23.25649	1.09893	0.90998	166.44341	166.20284	62.42757	0.33309	 	4.071751019E9	 	1.25041E-9	 	19014.63735	31.42816	 
765.0	1.0	0.0	7.78516	7.14446	-7.37775	15.9119	23.17821	1.09735	0.91128	166.87022	166.49233	62.59409	0.33296	 	4.739922085E9	 	1.06899E-9	 	18857.75511	31.37645	 
760.0	1.0	0.0	7.78744	7.14237	-7.40485	15.88279	23.09992	1.09577	0.9126	167.29626	166.7806	62.76035	0.33282	 	5.525860512E9	 	9.12536E-10	 	18701.13054	31.32491	 
755.0	1.0	0.0	7.78971	7.14028	-7.43186	15.85368	23.02162	1.09417	0.91393	167.72153	167.06766	62.92636	0.33268	 	6.451737332E9	 	7.77797E-10	 	18544.76273	31.27356	 
750.0	1.0	0.0	7.79198	7.1382	-7.4588	15.82459	22.94332	1.09257	0.91527	168.14602	167.3535	63.09211	0.33254	 	7.544161607E9	 	6.61935E-10	 	18388.65079	31.22239	 
745.0	1.0	0.0	7.79424	7.13613	-7.48565	15.79551	22.86501	1.09095	0.91663	168.56975	167.63814	63.2576	0.33241	 	8.835121394E9	 	5.62453E-10	 	18232.79378	31.1714	 
740.0	1.0	0.0	7.79649	7.13407	-7.51243	15.76644	22.78669	1.08933	0.918	168.9927	167.92157	63.42283	0.33227	 	1.03631E10	 	4.77166E-10	 	18077.19078	31.1206	 
735.0	1.0	0.0	7.79874	7.13201	-7.53912	15.73738	22.70837	1.08769	0.91938	169.41489	168.2038	63.58781	0.33213	 	1.2174699999999998E10	 	4.04161E-10	 	17921.84084	31.06999	 
730.0	1.0	0.0	7.80099	7.12996	-7.56574	15.70833	22.63004	1.08604	0.92077	169.8363	168.48483	63.75253	0.332	 	1.4325799999999998E10	 	3.41769E-10	 	17766.74298	31.01957	 
725.0	1.0	0.0	7.80323	7.12791	-7.59227	15.67929	22.55171	1.08438	0.92218	170.25694	168.76466	63.917	0.33186	 	1.6884599999999998E10	 	2.8853E-10	 	17611.89621	30.96935	 
720.0	1.0	0.0	7.80546	7.12587	-7.61873	15.65027	22.47337	1.08271	0.92361	170.67681	169.0433	64.08121	0.33172	 	1.99334E10	 	2.43176E-10	 	17457.29953	30.91934	 
715.0	1.0	0.0	7.80769	7.12383	-7.6451	15.62126	22.39502	1.08103	0.92504	171.09591	169.32075	64.24516	0.33159	 	2.3572199999999996E10	 	2.04601E-10	 	17302.95192	30.86952	 
710.0	1.0	0.0	7.80992	7.12181	-7.6714	15.59225	22.31666	1.07934	0.9265	171.51424	169.59702	64.40886	0.33145	 	2.7922899999999996E10	 	1.71848E-10	 	17148.85231	30.81992	 
705.0	1.0	0.0	7.81214	7.11978	-7.69761	15.56326	22.2383	1.07763	0.92796	171.9318	169.8721	64.57229	0.33131	 	3.3133899999999996E10	 	1.44085E-10	 	16994.99964	30.77053	 
700.0	1.0	0.0	7.81435	7.11777	-7.72375	15.53428	22.15993	1.07591	0.92944	172.34859	170.146	64.73548	0.33118	 	3.93866E10	 	1.20592E-10	 	16841.39281	30.72137	 
695.0	1.0	0.0	7.81655	7.11576	-7.7498	15.50532	22.08155	1.07419	0.93094	172.76462	170.41873	64.8984	0.33104	 	4.690289999999999E10	 	1.00746E-10	 	16688.03069	30.67242	 
690.0	1.0	0.0	7.81876	7.11375	-7.77578	15.47636	22.00317	1.07244	0.93245	173.17987	170.69028	65.06107	0.3309	 	5.595499999999999E10	 	8.40121E-11	 	16534.91211	30.62372	 
685.0	1.0	0.0	7.82095	7.11176	-7.80167	15.44741	21.92478	1.07069	0.93398	173.59435	170.96066	65.22348	0.33077	 	6.687709999999999E10	 	6.99267E-11	 	16382.0359	30.57524	 
680.0	1.0	0.0	7.82314	7.10977	-7.82749	15.41848	21.84638	1.06893	0.93552	174.00806	171.22987	65.38563	0.33063	 	8.00808E10	 	5.80924E-11	 	16229.4008	30.52702	 
675.0	1.0	0.0	7.82533	7.10778	-7.85322	15.38956	21.76797	1.06715	0.93708	174.421	171.49792	65.54753	0.33049	 	9.607379999999998E10	 	4.8168E-11	 	16077.0056	30.47904	 
670.0	1.0	0.0	7.82751	7.1058	-7.87888	15.36065	21.68955	1.06536	0.93865	174.83318	171.7648	65.70917	0.33036	 	1.15483E11	 	3.9861E-11	 	15924.84896	30.43133	 
665.0	1.0	0.0	7.82968	7.10383	-7.90446	15.33175	21.61112	1.06356	0.94024	175.24458	172.03053	65.87055	0.33022	 	1.39087E11	 	3.2921E-11	 	15772.92954	30.38388	 
660.0	1.0	0.0	7.83185	7.10186	-7.92995	15.30286	21.53269	1.06174	0.94185	175.65522	172.2951	66.03168	0.33008	 	1.67849E11	 	2.71344E-11	 	15621.24815	30.33628	 
655.0	1.0	0.0	7.83401	7.0999	-7.95537	15.27398	21.45425	1.05991	0.94347	176.06509	172.55852	66.19255	0.32995	 	2.02969E11	 	2.2319E-11	 	15469.81629	30.28637	 
650.0	1.0	0.0	7.83617	7.09795	-7.98071	15.24512	21.3758	1.05807	0.94511	176.47419	172.82079	66.35316	0.32981	 	2.45944E11	 	1.83199E-11	 	15318.64944	30.23337	 
645.0	1.0	0.0	7.83832	7.096	-8.00597	15.21626	21.29734	1.05622	0.94677	176.88252	173.08192	66.51351	0.32967	 	2.98641E11	 	1.50055E-11	 	15167.74679	30.18053	 
640.0	1.0	0.0	7.84047	7.09406	-8.03115	15.18742	21.21887	1.05435	0.94845	177.29008	173.3419	66.67361	0.32954	 	3.63401E11	 	1.22643E-11	 	15017.10753	30.12785	 
635.0	1.0	0.0	7.84261	7.09212	-8.05625	15.15859	21.14039	1.05247	0.95014	177.69688	173.60074	66.83345	0.3294	 	4.43162E11	 	1.00019E-11	 	14866.73086	30.07534	 
630.0	1.0	0.0	7.84474	7.09019	-8.08127	15.12977	21.0619	1.05058	0.95186	178.1029	173.85844	66.99303	0.32926	 	5.41617E11	 	8.13869E-12	 	14716.61594	30.02298	 
625.0	1.0	0.0	7.84687	7.08827	-8.10621	15.10096	20.9834	1.04867	0.95359	178.50816	174.11501	67.15235	0.32913	 	6.63426E11	 	6.60759E-12	 	14566.7618	29.97083	 
620.0	1.0	0.0	7.849	7.08635	-8.13108	15.07216	20.90489	1.04675	0.95534	178.91265	174.37045	67.31142	0.32899	 	8.14477E11	 	5.3522E-12	 	14417.16714	29.91893	 
615.0	1.0	0.0	7.85111	7.08444	-8.15586	15.04338	20.82638	1.04481	0.95711	179.31638	174.62476	67.47023	0.32886	 	1.00223E12	 	4.32519E-12	 	14267.83143	29.86714	 
610.0	1.0	0.0	7.85323	7.08253	-8.18057	15.0146	20.74785	1.04286	0.9589	179.71933	174.87794	67.62878	0.32872	 	1.23617E12	 	3.48693E-12	 	14118.75386	29.81551	 
605.0	1.0	0.0	7.85533	7.08063	-8.20519	14.98584	20.66931	1.0409	0.96071	180.12152	175.13	67.78708	0.32858	 	1.52836E12	 	2.80434E-12	 	13969.93368	29.76404	 
600.0	1.0	0.0	7.85743	7.07874	-8.22974	14.95709	20.59076	1.03892	0.96254	180.52294	175.38094	67.94511	0.32845	 	1.89421E12	 	2.24982E-12	 	13821.37007	29.71272	 
595.0	1.0	0.0	7.85953	7.07685	-8.25421	14.92835	20.5122	1.03693	0.96439	180.92359	175.63077	68.10289	0.32831	 	2.35344E12	 	1.80044E-12	 	13673.06229	29.66156	 
590.0	1.0	0.0	7.86162	7.07497	-8.2786	14.89962	20.43362	1.03492	0.96626	181.32348	175.87948	68.26041	0.32817	 	2.93138E12	 	1.43715E-12	 	13525.00954	29.61055	 
585.0	1.0	0.0	7.8637	7.07309	-8.30291	14.8709	20.35504	1.0329	0.96815	181.7226	176.12708	68.41768	0.32804	 	3.66059E12	 	1.14419E-12	 	13377.21107	29.55969	 
580.0	1.0	0.0	7.86578	7.07122	-8.32714	14.84219	20.27645	1.03086	0.97006	182.12095	176.37357	68.57468	0.3279	 	4.58313E12	 	9.08553E-13	 	13229.66609	29.50899	 
575.0	1.0	0.0	7.86785	7.06936	-8.35129	14.8135	20.19784	1.02881	0.972	182.51854	176.61895	68.73143	0.32777	 	5.75338E12	 	7.19509E-13	 	13082.37387	29.45844	 
570.0	1.0	0.0	7.86992	7.0675	-8.37537	14.78482	20.11922	1.02674	0.97396	182.91535	176.86324	68.88792	0.32763	 	7.24195E12	 	5.68245E-13	 	12935.33363	29.40805	 
565.0	1.0	0.0	7.87198	7.06565	-8.39936	14.75614	20.04059	1.02465	0.97594	183.31141	177.10642	69.04415	0.32749	 	9.14072E12	 	4.47536E-13	 	12788.54462	29.3578	 
560.0	1.0	0.0	7.87404	7.06381	-8.42328	14.72748	19.96195	1.02255	0.97794	183.70669	177.34851	69.20012	0.32736	 	1.15696E13	 	3.51472E-13	 	12642.00608	29.30771	 
555.0	1.0	0.0	7.87609	7.06197	-8.44712	14.69883	19.88329	1.02044	0.97997	184.10121	177.5895	69.35584	0.32722	 	1.46857E13	 	2.75234E-13	 	12495.71729	29.25776	 
550.0	1.0	0.0	7.87813	7.06014	-8.47088	14.6702	19.80462	1.01831	0.98202	184.49496	177.8294	69.5113	0.32709	 	1.8695E13	 	2.14901E-13	 	12349.67749	29.20796	 
545.0	1.0	0.0	7.88017	7.05831	-8.49456	14.64157	19.72594	1.01616	0.9841	184.88711	178.0674	69.66618	0.32695	 	2.38694E13	 	1.67293E-13	 	12203.88594	29.15831	 
540.0	1.0	0.0	7.88221	7.05649	-8.51816	14.61295	19.64724	1.01399	0.9862	185.27932	178.30512	69.82112	0.32681	 	3.05675E13	 	1.29837E-13	 	12058.34193	29.1088	 
535.0	1.0	0.0	7.88423	7.05468	-8.54169	14.58435	19.56853	1.01181	0.98833	185.67076	178.54175	69.97579	0.32668	 	3.92652E13	 	1.00455E-13	 	11913.04471	29.05944	 
530.0	1.0	0.0	7.88626	7.05287	-8.56513	14.55576	19.48981	1.00961	0.99048	186.06144	178.7773	70.13021	0.32654	 	5.05953E13	 	7.74771E-14	 	11767.99356	29.01023	 
525.0	1.0	0.0	7.88827	7.05106	-8.5885	14.52718	19.41107	1.0074	0.99266	186.45135	179.01177	70.28437	0.32641	 	6.54021E13	 	5.95634E-14	 	11623.18778	28.96116	 
520.0	1.0	0.0	7.89028	7.04927	-8.61179	14.49861	19.33232	1.00517	0.99486	186.84049	179.24517	70.43828	0.32627	 	8.48163E13	 	4.56418E-14	 	11478.62664	28.91223	 
515.0	1.0	0.0	7.89229	7.04748	-8.635	14.47005	19.25355	1.00292	0.99709	187.22887	179.4775	70.59192	0.32614	 	1.10357E14	 	3.48575E-14	 	11334.30945	28.86344	 
510.0	1.0	0.0	7.89429	7.04569	-8.65814	14.4415	19.17477	1.00065	0.99935	187.61648	179.70875	70.74531	0.326	 	1.44072E14	 	2.6531E-14	 	11190.2355	28.81479	 
505.0	1.0	0.0	7.89628	7.04391	-8.68119	14.41297	19.09597	0.99836	1.00164	188.00332	179.93894	70.89843	0.32586	 	1.88732E14	 	2.01235E-14	 	11046.4041	28.76628	 
500.0	1.0	0.0	7.89827	7.04214	-8.70417	14.38444	19.01715	0.99606	1.00396	188.3894	180.16807	71.0513	0.32573	 	2.48102E14	 	1.52097E-14	 	10902.81455	28.71791	 
495.0	1.0	0.0	7.90025	7.04038	-8.72707	14.35593	18.93832	0.99374	1.0063	188.77472	180.39613	71.20391	0.32559	 	3.2731E14	 	1.14544E-14	 	10759.46619	28.66967	 
490.0	1.0	0.0	7.90222	7.03862	-8.74989	14.32743	18.85947	0.99139	1.00868	189.15927	180.62313	71.35626	0.32546	 	4.33378E14	 	8.59468E-15	 	10616.35832	28.62157	 
485.0	1.0	0.0	7.90419	7.03686	-8.77263	14.29894	18.78061	0.98903	1.01109	189.54305	180.84908	71.50835	0.32532	 	5.75946E14	 	6.4248E-15	 	10473.49028	28.57361	 
480.0	1.0	0.0	7.90616	7.03511	-8.7953	14.27046	18.70173	0.98666	1.01352	189.92607	181.07398	71.66018	0.32519	 	7.68311E14	 	4.78444E-15	 	10330.86142	28.52577	 
475.0	1.0	0.0	7.90812	7.03337	-8.81789	14.24199	18.62283	0.98426	1.01599	190.30833	181.29782	71.81175	0.32505	 	1.02888E15	 	3.54904E-15	 	10188.47107	28.47807	 
470.0	1.0	0.0	7.91007	7.03163	-8.8404	14.21354	18.54391	0.98184	1.01849	190.68982	181.52062	71.96307	0.32491	 	1.38325E15	 	2.62219E-15	 	10046.31859	28.4305	 
465.0	1.0	0.0	7.91202	7.0299	-8.86283	14.18509	18.46497	0.9794	1.02103	191.07054	181.74237	72.11412	0.32478	 	1.86713E15	 	1.92955E-15	 	9904.40334	28.38305	 
460.0	1.0	0.0	7.91396	7.02818	-8.88519	14.15666	18.38602	0.97695	1.0236	191.4505	181.96307	72.26492	0.32464	 	2.53063E15	 	1.41401E-15	 	9762.72468	28.33573	 
455.0	1.0	0.0	7.91589	7.02646	-8.90746	14.12824	18.30705	0.97447	1.0262	191.82969	182.18274	72.41545	0.32451	 	3.44425E15	 	1.03184E-15	 	9621.28199	28.28854	 
450.0	1.0	0.0	7.91782	7.02475	-8.92966	14.09982	18.22805	0.97197	1.02884	192.20812	182.40137	72.56573	0.32437	 	4.70773E15	 	7.49728E-16	 	9480.07466	28.24147	 
445.0	1.0	0.0	7.91975	7.02304	-8.95179	14.07143	18.14904	0.96945	1.03151	192.58579	182.61896	72.71575	0.32424	 	6.46277E15	 	5.42354E-16	 	9339.10207	28.19452	 
440.0	1.0	0.0	7.92166	7.02134	-8.97383	14.04304	18.07001	0.96692	1.03422	192.96269	182.83553	72.86551	0.3241	 	8.9116E15	 	3.90582E-16	 	9198.36364	28.14769	 
435.0	1.0	0.0	7.92358	7.01965	-8.9958	14.01466	17.99095	0.96436	1.03696	193.33883	183.05106	73.01501	0.32397	 	1.23442E16	 	2.79994E-16	 	9057.85877	28.10097	 
430.0	1.0	0.0	7.92548	7.01796	-9.01769	13.9863	17.91188	0.96177	1.03975	193.7142	183.26556	73.16424	0.32383	 	1.7178400000000002E16	 	1.9978E-16	 	8917.58688	28.05438	 
425.0	1.0	0.0	7.92738	7.01628	-9.0395	13.95794	17.83278	0.95917	1.04257	194.08881	183.47904	73.31322	0.3237	 	2.40192E16	 	1.41866E-16	 	8777.54744	28.00789	 
420.0	1.0	0.0	7.92928	7.0146	-9.06123	13.9296	17.75366	0.95654	1.04543	194.46265	183.69149	73.46194	0.32356	 	3.3746900000000004E16	 	1.00249E-16	 	8637.73983	27.96152	 
415.0	1.0	0.0	7.93117	7.01293	-9.08289	13.90127	17.67452	0.9539	1.04833	194.83573	183.90293	73.61041	0.32343	 	4.76492E16	 	7.04878E-17	 	8498.16364	27.91524	 
410.0	1.0	0.0	7.93305	7.01126	-9.10447	13.87295	17.59536	0.95123	1.05127	195.20805	184.11335	73.75861	0.32329	 	6.7619200000000008E16	 	4.93097E-17	 	8358.81851	27.86903	 
405.0	1.0	0.0	7.93493	7.00961	-9.12598	13.84464	17.51617	0.94853	1.05426	195.5796	184.32275	73.90655	0.32315	 	9.64554E16	 	3.43151E-17	 	8219.7041	27.82288	 
400.0	1.0	0.0	7.9368	7.00795	-9.1474	13.81635	17.43695	0.94582	1.05729	195.95039	184.53114	74.05423	0.32302	 	1.38317E17	 	2.37533E-17	 	8080.82005	27.77681	 
395.0	1.0	0.0	7.93866	7.00631	-9.16875	13.78806	17.35772	0.94308	1.06036	196.32041	184.73852	74.20165	0.32288	 	1.99419E17	 	1.63529E-17	 	7942.16608	27.73079	 
390.0	1.0	0.0	7.94052	7.00467	-9.19003	13.75979	17.27845	0.94031	1.06347	196.68967	184.9449	74.34881	0.32275	 	2.89103E17	 	1.11956E-17	 	7803.74185	27.68485	 
385.0	1.0	0.0	7.94238	7.00303	-9.21122	13.73152	17.19917	0.93753	1.06664	197.05817	185.15027	74.49571	0.32261	 	4.21493E17	 	7.62117E-18	 	7665.54707	27.63896	 
380.0	1.0	0.0	7.94423	7.0014	-9.23234	13.70327	17.11985	0.93471	1.06985	197.4259	185.35463	74.64235	0.32248	 	6.18065E17	 	5.15781E-18	 	7527.58147	27.59312	 
375.0	1.0	0.0	7.94607	6.99978	-9.25338	13.67503	17.04051	0.93188	1.0731	197.79287	185.558	74.78873	0.32234	 	9.11683E17	 	3.46991E-18	 	7389.84476	27.54734	 
370.0	1.0	0.0	7.9479	6.99816	-9.27435	13.6468	16.96114	0.92902	1.07641	198.15908	185.76036	74.93485	0.32221	 	1.35294E18	 	2.32018E-18	 	7252.3367	27.50161	 
365.0	1.0	0.0	7.94973	6.99655	-9.29523	13.61859	16.88174	0.92613	1.07976	198.52452	185.96174	75.08071	0.32207	 	2.02022E18	 	1.54174E-18	 	7115.05707	27.45593	 
360.0	1.0	0.0	7.95156	6.99494	-9.31604	13.59038	16.80231	0.92322	1.08317	198.8892	186.16212	75.22631	0.32194	 	3.03577E18	 	1.01795E-18	 	6978.00562	27.41029	 
355.0	1.0	0.0	7.95338	6.99335	-9.33678	13.56219	16.72285	0.92028	1.08663	199.25312	186.36151	75.37165	0.3218	 	4.59151E18	 	6.67721E-19	 	6841.18217	27.36469	 
350.0	1.0	0.0	7.95519	6.99175	-9.35744	13.534	16.64337	0.91731	1.09014	199.61627	186.55991	75.51673	0.32167	 	6.99077E18	 	4.35065E-19	 	6704.5865	27.31913	 
345.0	1.0	0.0	7.957	6.99016	-9.37802	13.50583	16.56385	0.91432	1.09371	199.97866	186.75732	75.66155	0.32153	 	1.07164E19	 	2.81535E-19	 	6568.21849	27.2736	 
340.0	1.0	0.0	7.9588	6.98858	-9.39852	13.47767	16.4843	0.9113	1.09733	200.34029	186.95376	75.8061	0.3214	 	1.65424E19	 	1.80907E-19	 	6432.07795	27.22811	 
335.0	1.0	0.0	7.96059	6.98701	-9.41895	13.44952	16.40471	0.90826	1.10101	200.70115	187.14921	75.9504	0.32126	 	2.57186E19	 	1.15412E-19	 	6296.16477	27.18264	 
330.0	1.0	0.0	7.96238	6.98544	-9.4393	13.42139	16.3251	0.90518	1.10475	201.06125	187.34368	76.09444	0.32113	 	4.02785E19	 	7.30867E-20	 	6160.47884	27.13719	 
325.0	1.0	0.0	7.96416	6.98387	-9.45958	13.39326	16.24545	0.90208	1.10855	201.42059	187.53718	76.23821	0.32099	 	6.35562E19	 	4.59345E-20	 	6025.02006	27.09176	 
320.0	1.0	0.0	7.96594	6.98232	-9.47978	13.36515	16.16576	0.89895	1.11241	201.77916	187.7297	76.38173	0.32086	 	1.0106E20	 	2.86464E-20	 	5889.78838	27.04634	 
315.0	1.0	0.0	7.96771	6.98076	-9.4999	13.33704	16.08604	0.89579	1.11634	202.13698	187.92125	76.52498	0.32073	 	1.61968E20	 	1.77233E-20	 	5754.78376	27.00093	 
310.0	1.0	0.0	7.96948	6.97922	-9.51994	13.30895	16.00628	0.8926	1.12032	202.49403	188.11183	76.66797	0.32059	 	2.6169199999999997E20	 	1.08762E-20	 	5620.00617	26.95552	 
305.0	1.0	0.0	7.97124	6.97768	-9.53991	13.28087	15.92648	0.88938	1.12438	202.85032	188.30145	76.8107	0.32046	 	4.2633899999999997E20	 	6.61868E-21	 	5485.45562	26.91011	 
300.0	1.0	0.0	7.97299	6.97614	-9.55981	13.2528	15.84665	0.88613	1.1285	203.20584	188.4901	76.95317	0.32032	 	7.00517E20	 	3.99334E-21	 	5351.13214	26.8647	 
295.0	1.0	0.0	7.97474	6.97461	-9.57963	13.22474	15.76677	0.88285	1.1327	203.5606	188.67779	77.09538	0.32019	 	1.16112E21	 	2.38821E-21	 	5217.0358	26.81927	 
290.0	1.0	0.0	7.97648	6.97309	-9.59937	13.1967	15.68685	0.87954	1.13696	203.9146	188.86452	77.23733	0.32005	 	1.94193E21	 	1.41539E-21	 	5083.16669	26.77382	 
285.0	1.0	0.0	7.97821	6.97157	-9.61903	13.16866	15.6069	0.87619	1.1413	204.26784	189.05029	77.37902	0.31992	 	3.2778700000000003E21	 	8.31086E-22	 	4949.52493	26.72835	 
280.0	1.0	0.0	7.97994	6.97006	-9.63862	13.14064	15.52689	0.87282	1.14571	204.62032	189.23511	77.52044	0.31978	 	5.58547E21	 	4.83359E-22	 	4816.11067	26.68285	 
275.0	1.0	0.0	7.98167	6.96856	-9.65814	13.11263	15.44685	0.86941	1.1502	204.97203	189.41897	77.6616	0.31965	 	9.6106E21	 	2.78378E-22	 	4682.92409	26.63731	 
270.0	1.0	0.0	7.98339	6.96706	-9.67757	13.08463	15.36676	0.86597	1.15477	205.32298	189.60188	77.80251	0.31951	 	1.67025E22	 	1.58718E-22	 	4549.96543	26.59173	 
265.0	1.0	0.0	7.9851	6.96556	-9.69693	13.05664	15.28662	0.8625	1.15942	205.67317	189.78385	77.94315	0.31938	 	2.9327199999999997E22	 	8.9561E-23	 	4417.23492	26.5461	 
260.0	1.0	0.0	7.9868	6.96408	-9.71622	13.02866	15.20643	0.85899	1.16416	206.0226	189.96487	78.08353	0.31924	 	5.20412E22	 	5.00022E-23	 	4284.73286	26.50041	 
255.0	1.0	0.0	7.9885	6.9626	-9.73543	13.00069	15.1262	0.85545	1.16898	206.37126	190.14494	78.22364	0.31911	 	9.33554E22	 	2.76124E-23	 	4152.4596	26.45465	 
250.0	1.0	0.0	7.9902	6.96112	-9.75456	12.97274	15.04591	0.85187	1.17389	206.71917	190.32407	78.3635	0.31898	 	1.69349E23	 	1.50775E-23	 	4020.41547	26.40882	 
245.0	1.0	0.0	7.99188	6.95965	-9.77362	12.94479	14.96558	0.84826	1.17889	207.06631	190.50226	78.50309	0.31884	 	3.10755E23	 	8.13812E-24	 	3888.60094	26.36291	 
240.0	1.0	0.0	7.99357	6.95819	-9.79261	12.91686	14.88519	0.84461	1.18398	207.41269	190.67952	78.64242	0.31871	 	5.7701999999999996E23	 	4.34051E-24	 	3757.01644	26.3169	 
235.0	1.0	0.0	7.99524	6.95673	-9.81151	12.88894	14.80474	0.84092	1.18917	207.75831	190.85584	78.78149	0.31857	 	1.08456E24	 	2.28679E-24	 	3625.66248	26.27079	 
230.0	1.0	0.0	7.99691	6.95527	-9.83034	12.86103	14.72424	0.8372	1.19445	208.10316	191.03123	78.9203	0.31844	 	2.06425E24	 	1.18966E-24	 	3494.53964	26.22457	 
225.0	1.0	0.0	7.99858	6.95383	-9.8491	12.83313	14.64368	0.83344	1.19984	208.44726	191.20568	79.05884	0.3183	 	3.9799800000000003E24	 	6.10894E-25	 	3363.64851	26.17822	 
220.0	1.0	0.0	8.00023	6.95239	-9.86778	12.80524	14.56306	0.82965	1.20533	208.79059	191.37921	79.19713	0.31817	 	7.77647E24	 	3.09516E-25	 	3232.98978	26.13175	 
215.0	1.0	0.0	8.00188	6.95095	-9.88639	12.77737	14.48238	0.82581	1.21093	209.13316	191.55181	79.33515	0.31804	 	1.54043E25	 	1.54667E-25	 	3102.56416	26.08512	 
210.0	1.0	0.0	8.00353	6.94952	-9.90492	12.7495	14.40163	0.82193	1.21664	209.47497	191.72349	79.4729	0.3179	 	3.09491E25	 	7.6194E-26	 	2972.37243	26.03834	 
205.0	1.0	0.0	8.00517	6.9481	-9.92337	12.72165	14.32082	0.81802	1.22247	209.81602	191.89425	79.6104	0.31777	 	6.309430000000001E25	 	3.6988E-26	 	2842.41546	25.99139	 
200.0	1.0	0.0	8.0068	6.94668	-9.94175	12.69381	14.23994	0.81406	1.22841	210.15631	192.06408	79.74763	0.31763	 	1.3057800000000002E26	 	1.76854E-26	 	2712.69417	25.94426	 
195.0	1.0	0.0	8.00843	6.94527	-9.96005	12.66598	14.15899	0.81006	1.23447	210.49583	192.233	79.8846	0.3175	 	2.7447100000000002E26	 	8.32482E-27	 	2583.20953	25.89693	 
190.0	1.0	0.0	8.01005	6.94386	-9.97828	12.63816	14.07797	0.80602	1.24066	210.8346	192.401	80.02131	0.31737	 	5.8626E26	 	3.85583E-27	 	2453.96262	25.84938	 
185.0	1.0	0.0	8.01167	6.94246	-9.99644	12.61035	13.99688	0.80194	1.24697	211.1726	192.56809	80.15776	0.31723	 	1.27314E27	 	1.75637E-27	 	2324.95458	25.80161	 
180.0	1.0	0.0	8.01328	6.94107	-10.01451	12.58255	13.91571	0.79782	1.25342	211.50984	192.73427	80.29394	0.3171	 	2.8125299999999996E27	 	7.86379E-28	 	2196.18663	25.75359	 
175.0	1.0	0.0	8.01488	6.93968	-10.03252	12.55477	13.83446	0.79365	1.26001	211.84632	192.89954	80.42986	0.31696	 	6.32407E27	 	3.4587E-28	 	2067.66011	25.7053	 
170.0	1.0	0.0	8.01648	6.9383	-10.05045	12.527	13.75312	0.78943	1.26673	212.18204	193.0639	80.56552	0.31683	 	1.4482300000000002E28	 	1.49348E-28	 	1939.3764	25.65674	 
165.0	1.0	0.0	8.01807	6.93692	-10.0683	12.49923	13.67171	0.78517	1.2736	212.517	193.22736	80.70091	0.3167	 	3.3798100000000002E28	 	6.32729E-29	 	1811.33703	25.60788	 
160.0	1.0	0.0	8.01966	6.93555	-10.08608	12.47148	13.59021	0.78087	1.28062	212.8512	193.38991	80.83604	0.31656	 	8.043460000000001E28	 	2.62834E-29	 	1683.54359	25.55869	 
155.0	1.0	0.0	8.02124	6.93418	-10.10378	12.44374	13.50861	0.77652	1.2878	213.18464	193.55156	80.97091	0.31643	 	1.9533900000000002E29	 	1.06978E-29	 	1555.99782	25.50915	 
150.0	1.0	0.0	8.02281	6.93282	-10.12141	12.41602	13.42693	0.77212	1.29514	213.51731	193.71232	81.10551	0.31629	 	4.84441E29	 	4.26324E-30	 	1428.70155	25.45925	 
145.0	1.0	0.0	8.02438	6.93147	-10.13897	12.3883	13.34515	0.76767	1.30264	213.84923	193.87217	81.23985	0.31616	 	1.2278E30	 	1.66223E-30	 	1301.65676	25.40896	 
140.0	1.0	0.0	8.02594	6.93012	-10.15644	12.3606	13.26326	0.76317	1.31032	214.18038	194.03114	81.37393	0.31603	 	3.18265E30	 	6.33587E-31	 	1174.86552	25.35825	 
135.0	1.0	0.0	8.02749	6.92878	-10.17385	12.3329	13.18128	0.75863	1.31817	214.51077	194.18921	81.50775	0.31589	 	8.444709999999999E30	 	2.35897E-31	 	1048.33006	25.30709	 
130.0	1.0	0.0	8.02904	6.92744	-10.19118	12.30522	13.09919	0.75403	1.32621	214.8404	194.34639	81.6413	0.31576	 	2.29559E31	 	8.57156E-32	 	922.05279	25.25545	 
125.0	1.0	0.0	8.03058	6.92611	-10.20843	12.27755	13.01698	0.74938	1.33444	215.16928	194.50268	81.77458	0.31562	 	6.39897E31	 	3.03685E-32	 	796.03622	25.20331	 
120.0	1.0	0.0	8.03212	6.92478	-10.22562	12.24989	12.93467	0.74468	1.34286	215.49739	194.65809	81.90761	0.31549	 	1.83084E32	 	1.04808E-32	 	670.28306	25.15063	 
115.0	1.0	0.0	8.03365	6.92347	-10.24272	12.22224	12.85223	0.73992	1.35149	215.82474	194.81261	82.04037	0.31536	 	5.38213E32	 	3.51991E-33	 	544.79621	25.09737	 
110.0	1.0	0.0	8.03518	6.92215	-10.25975	12.1946	12.76967	0.73512	1.36033	216.15133	194.96625	82.17286	0.31522	 	1.62735E33	 	1.14915E-33	 	419.57873	25.0435	 
105.0	1.0	0.0	8.0367	6.92084	-10.27671	12.16698	12.68698	0.73025	1.36939	216.47716	195.11901	82.3051	0.31509	 	5.06656E33	 	3.64282E-34	 	294.63389	24.98897	 
100.0	1.0	0.0	8.03821	6.91954	-10.29359	12.13936	12.60415	0.72533	1.37868	216.80222	195.27089	82.43706	0.31496	 	1.62616E34	 	1.11997E-34	 	169.96518	24.93374	 
95.0	1.0	0.0	8.03971	6.91824	-10.3104	12.11176	12.52119	0.72035	1.38821	217.12653	195.42189	82.56877	0.31482	 	5.3873E34	 	3.33534E-35	 	45.57633	24.87777	 
90.0	1.0	0.0	8.04121	6.91695	-10.32714	12.08417	12.43808	0.71532	1.39798	217.45008	195.57202	82.70021	0.31469	 	1.8446099999999997E35	 	9.60879E-36	 	-78.5287	24.82101	 
85.0	1.0	0.0	8.04271	6.91567	-10.3438	12.05659	12.35483	0.71022	1.40801	217.77287	195.72128	82.83138	0.31456	 	6.53674E35	 	2.67418E-36	 	-202.34568	24.76339	 
80.0	1.0	0.0	8.0442	6.91439	-10.36038	12.02902	12.27141	0.70507	1.4183	218.09489	195.86966	82.9623	0.31442	 	2.4009199999999997E36	 	7.17908E-37	 	-325.8701	24.70488	 
75.0	1.0	0.0	8.04568	6.91312	-10.3769	12.00146	12.18783	0.69985	1.42887	218.41616	196.01718	83.09294	0.31429	 	9.15424E36	 	1.85623E-37	 	-449.09715	24.64541	 
70.0	1.0	0.0	8.04716	6.91185	-10.39333	11.97392	12.10409	0.69457	1.43973	218.73667	196.16384	83.22333	0.31415	 	3.6291599999999997E37	 	4.61493E-38	 	-572.02168	24.58491	 
65.0	1.0	0.0	8.04862	6.91059	-10.4097	11.94638	12.02016	0.68923	1.45089	219.05641	196.30962	83.35345	0.31402	 	1.4985799999999999E38	 	1.10133E-38	 	-694.63822	24.52331	 
60.0	1.0	0.0	8.05009	6.90933	-10.42599	11.91886	11.93605	0.68383	1.46236	219.3754	196.45455	83.4833	0.31389	 	6.4571299999999996E38	 	2.51818E-39	 	-816.9409	24.46054	 
55.0	1.0	0.0	8.05155	6.90808	-10.4422	11.89135	11.85174	0.67835	1.47416	219.69363	196.59862	83.61289	0.31375	 	2.9089100000000003E39	 	5.5059E-40	 	-938.92347	24.39651	 
50.0	1.0	0.0	8.053	6.90683	-10.45834	11.86385	11.76724	0.67282	1.48629	220.01109	196.74182	83.74222	0.31362	 	1.37294E40	 	1.14879E-40	 	-1060.57923	24.33115	 
45.0	1.0	0.0	8.05444	6.90559	-10.47441	11.83636	11.68252	0.66721	1.49878	220.3278	196.88417	83.87128	0.31349	 	6.80383E40	 	2.28226E-41	 	-1181.901	24.26436	 
40.0	1.0	0.0	8.05588	6.90436	-10.49041	11.80888	11.59757	0.66153	1.51164	220.64374	197.02567	84.00007	0.31335	 	3.54857E41	 	4.30711E-42	 	-1302.88114	24.19603	 
35.0	1.0	0.0	8.05732	6.90313	-10.50633	11.78142	11.5124	0.65579	1.52489	220.95893	197.16631	84.1286	0.31322	 	1.95268E42	 	7.70227E-43	 	-1423.51141	24.12605	 
30.0	1.0	0.0	8.05874	6.90191	-10.52217	11.75397	11.42698	0.64997	1.53854	221.27335	197.3061	84.25687	0.31309	 	1.13668E43	 	1.30169E-43	 	-1543.78303	24.05432	 
25.0	1.0	0.0	8.06016	6.90069	-10.53795	 	11.34131	0.64408	1.55261	221.58702	197.44505	84.38487	0.31295	 	7.019430000000001E43	 	2.0731E-44	 	-1663.68652	 	 
