T (C)	Fraction solid (wt)-TOTAL	Fraction liquid (wt)-LIQUID	Density (g/(cm)^3)-TOTAL	Molar volume (cm^3)-TOTAL	Volume change (%)-  	Average expansion coeff. (10e-6 1/K)-  	Thermal conductivity (W/(m*K))-TOTAL	Electrical resistivity (10e-6 Ohm*m)-TOTAL	Electrical conductivity (10e6 1/(Ohm*m))-TOTAL	Young's modulus (GPa)-TOTAL	Bulk modulus (GPa)-TOTAL	Shear modulus(GPa)-TOTAL	Poisson's ratio-TOTAL	Liquid viscosity (mPa s)-  	Total viscosity (mPa s)-  	Liquid diffusivity (10e-9 (m^2)/s)-  	Total diffusivity (10e-9 (m^2)/s)-  	Surface Tension (mN/m)-  	Enthalpy (J/mole)-TOTAL	Specific heat (J/(mole K))-TOTAL	Latent heat (J/mole)-TOTAL
1400.0	0.0	1.0	6.81842	8.00506	0.0	35.43615	29.77129	1.3769	0.72627	0.0	118.49523	0.0	0.5	6.49967	6.49967	1.25641	1.25641	1720.57686	40560.24	 	0.0
1395.0	0.0	1.0	6.82238	8.00041	-0.0581164	35.4034	29.69731	1.37621	0.72663	0.0	118.63687	0.0	0.5	6.56876	6.56876	1.23948	1.23948	1722.61311	40360.084	40.0312	0.0
1390.0	0.0	1.0	6.82634	7.99577	-0.11607	35.37088	29.62334	1.37551	0.727	0.0	118.77852	0.0	0.5	6.63902	6.63902	1.22268	1.22268	1724.65297	40160.369	39.943	0.0
1385.0	0.0	1.0	6.83029	7.99114	-0.17386	35.33858	29.54937	1.37481	0.72737	0.0	118.92017	0.0	0.5	6.71045	6.71045	1.20603	1.20603	1726.6963	39961.093	39.8552	0.0
1380.0	0.0	1.0	6.83424	7.98653	-0.23148	35.3065	29.4754	1.3741	0.72775	0.0	119.06181	0.0	0.5	6.78309	6.78309	1.18952	1.18952	1728.74287	39762.252	39.7682	0.0
1375.0	0.0	1.0	6.83818	7.98193	-0.28894	35.27464	29.40143	1.37339	0.72812	0.0	119.20346	0.0	0.5	6.85697	6.85697	1.17314	1.17314	1730.79247	39563.844	39.6816	0.0
1370.0	0.0	1.0	6.84211	7.97735	-0.34624	35.24302	29.32746	1.37268	0.7285	0.0	119.34511	0.0	0.5	6.93211	6.93211	1.15691	1.15691	1732.84486	39365.867	39.5954	0.0
1365.0	0.0	1.0	6.84603	7.97277	-0.40337	35.21163	29.25349	1.37196	0.72888	0.0	119.48675	0.0	0.5	7.00853	7.00853	1.14081	1.14081	1734.89983	39168.316	39.5102	0.0
1360.0	0.0	1.0	6.84995	7.96821	-0.46034	35.18047	29.17951	1.37124	0.72927	0.0	119.6284	0.0	0.5	7.08628	7.08628	1.12485	1.12485	1736.95716	38971.19	39.4252	0.0
1355.0	0.0	1.0	6.85386	7.96366	-0.51715	35.14954	29.10554	1.37052	0.72965	0.0	119.77005	0.0	0.5	7.16537	7.16537	1.10903	1.10903	1739.01662	38774.486	39.3408	0.0
1350.0	0.0	1.0	6.85777	7.95913	-0.57379	35.11886	29.03157	1.36979	0.73004	0.0	119.91169	0.0	0.5	7.24585	7.24585	1.09334	1.09334	1741.07799	38578.202	39.2568	0.0
1345.0	0.0	1.0	6.86167	7.95461	-0.63027	35.08842	28.9576	1.36906	0.73043	0.0	120.05334	0.0	0.5	7.32773	7.32773	1.07779	1.07779	1743.14106	38382.334	39.1736	0.0
1342.04	0.0	1.0	6.86397	7.95194	-0.6636	35.07052	28.91384	1.36862	0.73066	0.0	120.13714	0.0	0.5	7.37685	7.37685	1.06866	1.06866	1744.36243	38266.649	39.10761	0.0
1340.0	1.2E-4	0.99988	6.86573	7.94987	-0.6895	35.04974	28.88157	1.36842	0.73077	9.66926E-14	120.22332	3.22316E-14	0.49996	7.41321	7.41321	1.06207	1.06207	1745.57015	38178.752	43.04709	8.13
1335.0	4.1E-4	0.99959	6.87006	7.94494	-0.75109	35.0039	28.80271	1.36792	0.73104	1.34395E-11	120.43597	4.48017E-12	0.49989	7.5034	7.5034	1.04606	1.04606	1747.44296	37963.45471	43.05946	27.899
1330.0	7.0E-4	0.9993	6.87436	7.93999	-0.81294	34.95693	28.72381	1.36741	0.73131	1.12914E-10	120.6471	3.76426E-11	0.49982	7.5952	7.5952	1.0302	1.0302	1749.30877	37746.50026	43.39089	47.471
1325.0	9.9E-4	0.99901	6.87871	7.93488	-0.8767	34.90399	28.64519	1.36688	0.73159	4.44993E-10	120.85613	1.48357E-10	0.49973	7.68864	7.68864	1.01451	1.01451	1751.17049	37530.21336	43.25738	66.84
1320.0	0.12119	0.87881	6.92052	7.88695	-1.47549	33.27217	28.88871	1.35112	0.74013	0.0160084	121.49914	0.00539182	0.48451	7.81137	12.98827	0.99544	0.59868	1752.81875	35580.77519	389.88763	1819.822
1315.0	0.33554	0.66446	6.99238	7.80585	-2.48852	30.40086	29.41572	1.32275	0.756	1.03875	122.57818	0.3565	0.45686	7.96917	245.54374	0.97267	0.0315682	1754.21482	32297.67191	656.62066	4906.931
1310.0	0.47611	0.52389	7.04094	7.75197	-3.16169	28.51767	29.76191	1.30325	0.76731	4.4404	123.37877	1.54358	0.43834	8.124	1008.71944	0.95113	0.00766017	1755.62479	30103.94469	438.74544	6905.124
1305.0	0.57376	0.42624	7.07567	7.71376	-3.63896	27.2045	29.99511	1.28903	0.77578	9.70593	124.02526	3.40497	0.42526	8.27645	2226.04711	0.93066	0.0034602	1757.0499	28542.31375	312.32619	8271.672
1300.0	0.64476	0.35524	7.10176	7.68528	-3.9948	26.24489	30.15384	1.27818	0.78236	15.88481	124.583	5.6106	0.41561	8.42748	3738.19198	0.91109	0.00205398	1758.48685	27369.93719	234.47531	9249.416
1295.0	0.69833	0.30167	7.12209	7.66316	-4.27105	25.51716	30.26061	1.26963	0.78763	22.29849	125.08563	7.91722	0.40823	8.5776	5432.16639	0.8923	0.00140897	1759.92968	26449.77519	184.0324	9975.393
1290.0	0.73998	0.26002	7.13849	7.64536	-4.49341	24.94645	30.33003	1.26268	0.79197	28.56523	125.55305	10.18432	0.40241	8.72769	7244.13862	0.87415	0.00105318	1761.37973	25700.26595	149.90185	10531.162
1285.0	0.77318	0.22682	7.15208	7.63064	-4.67732	24.48781	30.3721	1.2569	0.79561	34.50345	125.99719	12.34282	0.39771	8.87818	9145.25315	0.85659	8.31573E-4	1762.83196	25070.57262	125.93867	10967.556
1280.0	0.80018	0.19982	7.1636	7.61816	-4.83318	24.11089	30.39331	1.25199	0.79873	40.03889	126.425	14.36282	0.39384	9.02968	11123.84016	0.83951	6.81468E-4	1764.2855	24527.7034	108.57384	11317.562
1275.0	0.82256	0.17744	7.17357	7.60735	-4.9682	23.79464	30.39856	1.24775	0.80145	45.16104	126.8406	16.23821	0.39058	9.18245	13181.46995	0.82289	5.73239E-4	1765.7405	24049.48745	95.64319	11603.351
1270.0	0.8451	0.1549	7.18358	7.59648	-5.10406	23.47328	30.39865	1.24371	0.80404	50.81625	127.27823	18.31522	0.38727	9.3349	15590.46907	0.80684	4.83098E-4	1767.04841	23561.03793	97.6899	11899.804
1265.0	0.8654	0.1346	7.19284	7.58641	-5.22979	23.18053	30.38989	1.24004	0.80643	56.39563	127.71382	20.37049	0.38425	9.4869	18211.04426	0.79134	4.1224E-4	1768.2795	23102.12904	91.78178	12167.145
1260.0	0.882	0.118	7.20086	7.57768	-5.33893	22.93676	30.36932	1.23685	0.80851	61.35125	128.13398	22.20082	0.38173	9.63965	20891.59522	0.77627	3.58179E-4	1769.5052	22695.98494	81.22882	12382.147
1255.0	0.89581	0.10419	7.20795	7.56993	-5.43575	22.72925	30.33962	1.23402	0.81036	65.7809	128.54299	23.84059	0.3796	9.79376	23657.4084	0.76156	3.15272E-4	1770.72591	22329.16081	73.36483	12558.251
1250.0	0.90747	0.0925254	7.21433	7.56296	-5.52281	22.55051	30.30273	1.23148	0.81203	69.76373	128.94339	25.31785	0.37776	9.94927	26532.12366	0.7472	2.80193E-4	1771.93422	21992.39784	67.35259	12704.713
1245.0	0.91746	0.0825413	7.22015	7.55657	-5.60257	22.39313	30.2601	1.22917	0.81356	73.36864	129.33709	26.65729	0.37615	10.10685	29539.58128	0.73314	2.5084E-4	1773.13823	21679.12419	62.65473	12828.101
1240.0	0.9261	0.073903	7.22551	7.55068	-5.67615	22.25392	30.21277	1.22704	0.81497	76.65158	129.72548	27.87899	0.37472	10.26647	32703.34855	0.71936	2.25827E-4	1774.32591	21384.55305	58.91423	12933.201
1235.0	0.93364	0.0663584	7.23051	7.54518	-5.74491	22.12878	30.16153	1.22506	0.81629	79.65845	130.10929	28.99956	0.37344	10.42845	36046.35463	0.70585	2.04207E-4	1775.50321	21105.11763	55.88708	13023.576
1230.0	0.94029	0.0597141	7.23521	7.54	-5.80956	22.01561	30.10701	1.22321	0.81752	82.42665	130.48925	30.03252	0.37229	10.59307	39592.25993	0.69258	1.85301E-4	1776.66455	20838.10415	53.4027	13101.934
1225.0	0.94618	0.0538214	7.23966	7.5351	-5.87083	21.91226	30.04974	1.22146	0.81869	84.98817	130.86555	30.98951	0.37124	10.76015	43365.37851	0.67955	1.68616E-4	1777.81191	20581.4297	51.33489	13170.36
1220.0	0.95144	0.0485595	7.2439	7.53042	-5.92929	21.81703	29.9901	1.21981	0.8198	87.36954	131.23885	31.88022	0.37028	10.93019	47391.55742	0.66675	1.53776E-4	1778.94444	20333.44552	49.59684	13230.497
1215.0	0.95617	0.0438348	7.24795	7.52593	-5.98535	21.72873	29.92841	1.21823	0.82086	89.59294	131.60931	32.71273	0.36939	11.10323	51697.73901	0.65416	1.40495E-4	1780.06163	20092.84682	48.11974	13283.648
1210.0	0.96043	0.0395692	7.25185	7.52161	-6.03927	21.64656	29.86493	1.21672	0.82188	91.67731	131.97707	33.49397	0.36856	11.27941	56312.48749	0.64178	1.28549E-4	1781.15997	19858.58281	46.8528	13330.861
1205.0	0.9643	0.0357025	7.25562	7.51744	-6.09142	21.56945	29.79991	1.21526	0.82287	93.63768	132.34235	34.22945	0.36779	11.45878	61266.03837	0.6296	1.17757E-4	1782.24367	19629.79768	45.75703	13372.987
1200.0	0.96782	0.0321819	7.25927	7.5134	-6.14193	21.497	29.7335	1.21386	0.82382	95.48881	132.70533	34.92458	0.36707	11.64141	66592.02693	0.61763	1.07972E-4	1783.30517	19405.78967	44.8016	13410.727
1195.0	0.97112	0.0288808	7.26283	7.50941	-6.19173	21.42622	29.66676	1.21246	0.82477	97.28179	133.06993	35.59841	0.36638	11.83434	72351.87654	0.6055	9.90392E-5	1784.35602	19184.55652	44.24663	13446.055
1190.0	0.97473	0.0252664	7.26649	7.50514	-6.24512	21.34311	29.60552	1.21083	0.82588	99.27585	133.45678	36.34809	0.36563	12.07538	78763.63264	0.59139	9.06671E-5	1785.45647	18957.23255	45.46479	13487.518
1185.0	0.97797	0.0220304	7.26999	7.50104	-6.29625	21.26669	29.54467	1.20917	0.82701	101.13004	133.83746	37.04587	0.36493	12.32028	85655.27319	0.57765	8.30873E-5	1786.53074	18735.26023	44.39446	13524.031
1180.0	0.98088	0.019123	7.27335	7.49709	-6.34558	21.19558	29.4827	1.20756	0.82812	102.8625	134.21267	37.69845	0.36428	12.56911	93075.75545	0.56428	7.6201E-5	1787.58663	18517.92087	43.46787	13556.309
1175.0	0.9835	0.0164982	7.2766	7.49328	-6.39329	21.12922	29.41907	1.20601	0.82918	104.48653	134.5829	38.31075	0.36367	12.82202	101076.1266	0.55124	6.99281E-5	1788.62053	18304.61981	42.66021	13584.944
1170.0	0.98588	0.0141209	7.27975	7.48957	-6.43958	21.06704	29.35389	1.20451	0.83021	106.01454	134.94863	38.88736	0.3631	13.07884	109712.4614	0.53855	6.42011E-5	1789.63065	18094.86141	41.95168	13610.429
1165.0	0.98804	0.0119599	7.28281	7.48596	-6.48464	21.00843	29.28718	1.20308	0.8312	107.45802	135.31023	39.43254	0.36256	13.33981	119046.674	0.52619	5.89622E-5	1790.61794	17888.22612	41.32706	13633.178
1160.0	0.99001	0.00998852	7.28711	7.48162	-6.53889	20.91838	29.13565	1.20513	0.82979	109.12564	135.70456	40.06969	0.3617	13.60502	129984.6389	0.51414	5.38129E-5	1791.5813	17620.74122	53.49698	13653.54
1155.0	0.99181	0.00818644	7.29267	7.47636	-6.60462	20.78869	28.89467	1.21094	0.82581	111.04984	136.12738	40.81222	0.3605	13.87452	142946.8449	0.50239	4.87625E-5	1792.5203	17285.58343	67.03156	13671.81
1150.0	0.99347	0.00653216	7.2992	7.46961	-6.68886	20.59499	28.6078	1.2188	0.82048	113.14767	136.52764	41.62847	0.35902	14.1483	157975.0677	0.49095	4.39692E-5	1793.43631	16895.95219	77.92625	13688.241
1145.0	0.99499	0.00501176	7.30481	7.46356	-6.7645	20.42892	28.3606	1.2251	0.81626	115.03567	136.91612	42.36246	0.35775	14.42668	174117.8571	0.47978	3.97526E-5	1794.33006	16540.10256	71.16993	13703.049
1140.0	0.99639	0.0036091	7.30951	7.45832	-6.82997	20.2962	28.14533	1.23012	0.81293	116.71122	137.29475	43.01249	0.35671	14.70952	191357.6612	0.4689	3.60437E-5	1795.19754	16221.262	63.76811	13716.42
1135.0	0.99769	0.00231342	7.31398	7.45313	-6.89484	20.16435	27.93815	1.23486	0.80981	118.3142	137.66098	43.63525	0.35572	14.99676	210272.2603	0.45829	3.26854E-5	1796.04021	15908.16654	62.61909	13728.515
1130.0	0.99889	0.0011129	7.31822	7.44798	-6.95909	20.03344	27.7368	1.23941	0.80684	119.85031	138.01574	44.23284	0.35477	15.28862	231033.7688	0.44794	2.96425E-5	1796.85317	15600.51588	61.53013	13739.473
1125.0	1.0	0.0	7.32226	7.44289	-7.02267	19.90367	27.54421	1.24363	0.8041	121.32373	138.35975	44.80677	0.35385	 	253831.1327	 	2.68841E-5	 	15298.03031	60.49711	13749.416
1120.0	1.0	0.0	7.32644	7.43865	-7.0757	19.80951	27.34475	1.24822	0.80114	122.21184	138.65605	45.15996	0.3531	 	278003.9935	 	2.44587E-5	 	15029.43432	53.7192	 
1115.0	1.0	0.0	7.33057	7.43446	-7.12799	19.71709	27.1511	1.25261	0.79833	123.0748	138.94235	45.50347	0.35237	 	304693.0759	 	2.22362E-5	 	14754.07583	55.0717	 
1110.0	1.0	0.0	7.33464	7.43033	-7.17956	19.62636	26.96295	1.25681	0.79567	123.91377	139.2193	45.83775	0.35166	 	334181.9578	 	2.0201E-5	 	14482.27335	54.3605	 
1105.0	1.0	0.0	7.33866	7.42626	-7.23045	19.53723	26.78004	1.26081	0.79314	124.72987	139.4875	46.1632	0.35097	 	366788.5254	 	1.83387E-5	 	14213.89602	53.67547	 
1100.0	1.0	0.0	7.34264	7.42224	-7.28066	19.44964	26.60212	1.26464	0.79074	125.52413	139.74749	46.48021	0.3503	 	402869.4188	 	1.66357E-5	 	13948.81746	53.01571	 
1095.0	1.0	0.0	7.34656	7.41827	-7.33023	19.36353	26.42893	1.26829	0.78846	126.29753	139.99974	46.78915	0.34965	 	442824.9978	 	1.50795E-5	 	13686.91596	52.3803	 
1090.0	1.0	0.0	7.35045	7.41435	-7.37918	19.27883	26.26026	1.27178	0.7863	127.05098	140.2447	47.09035	0.34901	 	487105.1654	 	1.36586E-5	 	13428.07448	51.7683	 
1085.0	1.0	0.0	7.35429	7.41048	-7.42753	19.1955	26.09586	1.27509	0.78426	127.78535	140.48278	47.38416	0.3484	 	536215.8181	 	1.23622E-5	 	13172.18039	51.17882	 
1080.0	1.0	0.0	7.35808	7.40666	-7.4753	19.11346	25.93555	1.27825	0.78232	128.50146	140.71433	47.67087	0.3478	 	590726.3081	 	1.11801E-5	 	12919.12533	50.61101	 
1075.0	1.0	0.0	7.36184	7.40288	-7.52252	19.03267	25.77911	1.28126	0.78048	129.2001	140.93971	47.95078	0.34722	 	651277.9515	 	1.01032E-5	 	12668.80505	50.06406	 
1070.0	1.0	0.0	7.36556	7.39914	-7.5692	18.95307	25.62636	1.28411	0.77875	129.88201	141.15925	48.22417	0.34665	 	718593.6781	 	9.12279E-6	 	12421.11972	49.53706	 
1065.0	1.0	0.0	7.36924	7.39545	-7.61536	18.87461	25.47712	1.28683	0.7771	130.54789	141.37323	48.49132	0.3461	 	793489.1191	 	8.23096E-6	 	12175.9731	49.02933	 
1060.0	1.0	0.0	7.37288	7.39179	-7.66102	18.79725	25.33122	1.2894	0.77555	131.19842	141.58195	48.75247	0.34556	 	876885.3113	 	7.42032E-6	 	11933.27321	48.53998	 
1055.0	1.0	0.0	7.37649	7.38818	-7.7062	18.72092	25.18851	1.29185	0.77409	131.83423	141.78567	49.00787	0.34503	 	969823.1632	 	6.68407E-6	 	11692.93142	48.06836	 
1050.0	1.0	0.0	7.38007	7.3846	-7.75091	18.6456	25.04882	1.29416	0.7727	132.45594	141.98464	49.25776	0.34452	 	1073480.001	 	6.01592E-6	 	11454.86322	47.61364	 
1045.0	1.0	0.0	7.38361	7.38105	-7.79516	18.57123	24.91203	1.29635	0.7714	133.06413	142.17911	49.50235	0.34402	 	1189188.788	 	5.41004E-6	 	11218.98713	47.17522	 
1040.0	1.0	0.0	7.38712	7.37755	-7.83898	18.49777	24.77799	1.29842	0.77017	133.65937	142.3693	49.74187	0.34353	 	1318459.9	 	4.8611E-6	 	10985.22547	46.75233	 
1035.0	1.0	0.0	7.3906	7.37407	-7.88238	18.42518	24.64657	1.30037	0.76901	134.24218	142.55543	49.97651	0.34305	 	1463006.3	 	4.36413E-6	 	10753.50373	46.34435	 
1030.0	1.0	0.0	7.39405	7.37063	-7.92537	18.35343	24.51766	1.30221	0.76792	134.81308	142.73771	50.20648	0.34259	 	1624772.423	 	3.91461E-6	 	10523.75071	45.9506	 
1025.0	1.0	0.0	7.39747	7.36722	-7.96796	18.28247	24.39115	1.30394	0.7669	135.37256	142.91635	50.43196	0.34213	 	1805967.543	 	3.50834E-6	 	10295.89791	45.57056	 
1020.0	1.0	0.0	7.40087	7.36384	-8.01017	18.21227	24.26693	1.30557	0.76595	135.92109	143.09152	50.65313	0.34169	 	2009104.116	 	3.14147E-6	 	10069.88012	45.20356	 
1015.0	1.0	0.0	7.40423	7.36049	-8.05201	18.14279	24.1449	1.3071	0.76506	136.45912	143.26342	50.87016	0.34125	 	2237041.966	 	2.81047E-6	 	9845.63488	44.84905	 
1010.0	1.0	0.0	7.40758	7.35717	-8.09349	18.074	24.02496	1.30852	0.76422	136.98708	143.43223	51.08322	0.34082	 	2493039.524	 	2.51209E-6	 	9623.10241	44.50649	 
1005.0	1.0	0.0	7.41089	7.35388	-8.13461	18.00587	23.90702	1.30985	0.76344	137.50538	143.59811	51.29248	0.3404	 	2780812.797	 	2.24335E-6	 	9402.22555	44.17537	 
1000.0	1.0	0.0	7.41418	7.35062	-8.1754	17.93837	23.79101	1.31109	0.76272	138.01442	143.76122	51.49808	0.34	 	3104603.655	 	2.00152E-6	 	9182.94963	43.85518	 
995.0	1.0	0.0	7.41745	7.34738	-8.21587	17.87147	23.67684	1.31224	0.76206	138.51458	143.92174	51.70017	0.3396	 	3469259.237	 	1.78411E-6	 	8965.22252	43.54542	 
990.0	1.0	0.0	7.4207	7.34416	-8.25601	17.80513	23.56444	1.3133	0.76144	139.00624	144.07981	51.89889	0.3392	 	3880323.34	 	1.58882E-6	 	8748.99394	43.24572	 
985.0	1.0	0.0	7.42392	7.34097	-8.29584	17.73934	23.45374	1.31428	0.76088	139.48973	144.23557	52.09439	0.33882	 	4344143.12	 	1.41356E-6	 	8534.21618	42.95555	 
980.0	1.0	0.0	7.42712	7.33781	-8.33538	17.67406	23.34467	1.31517	0.76036	139.9654	144.38917	52.28678	0.33844	 	4867992.604	 	1.25643E-6	 	8320.8435	42.67454	 
975.0	1.0	0.0	7.4303	7.33467	-8.37462	17.60927	23.23717	1.31598	0.75989	140.43357	144.54075	52.4762	0.33807	 	5460216.93	 	1.11569E-6	 	8108.83211	42.40228	 
970.0	1.0	0.0	7.43346	7.33155	-8.41357	17.54495	23.13119	1.31671	0.75947	140.89456	144.69044	52.66276	0.33771	 	6130399.143	 	9.89741E-7	 	7898.14015	42.13839	 
965.0	1.0	0.0	7.4366	7.32845	-8.45225	17.48106	23.02666	1.31737	0.75909	141.34866	144.83837	52.84659	0.33735	 	6889556.243	 	8.7714E-7	 	7688.72748	41.88253	 
960.0	1.0	0.0	7.43973	7.32538	-8.49066	17.4176	22.92354	1.31795	0.75875	141.79617	144.98466	53.02779	0.337	 	7750365.762	 	7.7657E-7	 	7480.55573	41.63435	 
955.0	1.0	0.0	7.44283	7.32233	-8.52881	17.35452	22.82178	1.31846	0.75846	142.23737	145.12943	53.20648	0.33665	 	8727433.088	 	6.86834E-7	 	7273.58813	41.39352	 
950.0	1.0	0.0	7.44591	7.31929	-8.5667	17.29182	22.72133	1.3189	0.75821	142.66771	145.26791	53.38096	0.33632	 	9837600.983	 	6.06844E-7	 	7067.78943	41.15974	 
945.0	1.0	0.0	7.44898	7.31628	-8.60434	17.22947	22.62214	1.31927	0.758	143.09711	145.41004	53.55493	0.33598	 	1.110031443E7	 	5.35614E-7	 	6863.12637	40.93261	 
940.0	1.0	0.0	7.45203	7.31329	-8.64174	17.16746	22.52419	1.31957	0.75782	143.52098	145.55099	53.7267	0.33566	 	1.253804838E7	 	4.72249E-7	 	6659.56556	40.71216	 
935.0	1.0	0.0	7.45506	7.31031	-8.67891	17.10575	22.42742	1.3198	0.75769	143.93955	145.69086	53.89635	0.33534	 	1.417680605E7	 	4.15939E-7	 	6457.07647	40.49782	 
930.0	1.0	0.0	7.45808	7.30735	-8.71584	17.04434	22.3318	1.31996	0.7576	144.35305	145.82977	54.06396	0.33502	 	1.60467079E7	 	3.65949E-7	 	6255.62927	40.28944	 
925.0	1.0	0.0	7.46108	7.30442	-8.75255	16.98319	22.23403	1.32026	0.75743	144.76172	145.96779	54.22964	0.33471	 	1.818268448E7	 	3.21618E-7	 	6055.19533	40.08679	 
920.0	1.0	0.0	7.46406	7.30149	-8.78904	16.92231	22.14057	1.3203	0.7574	145.16577	146.10504	54.39345	0.3344	 	2.062528938E7	 	2.82346E-7	 	5855.74715	39.88964	 
915.0	1.0	0.0	7.46703	7.29859	-8.82532	16.86166	22.04816	1.32028	0.75742	145.5654	146.24159	54.55549	0.3341	 	2.342165928E7	 	2.47594E-7	 	5657.2583	39.69777	 
910.0	1.0	0.0	7.46999	7.2957	-8.86138	16.80123	21.95678	1.32019	0.75747	145.96083	146.37755	54.71584	0.33381	 	2.662664804E7	 	2.16875E-7	 	5459.70335	39.51099	 
905.0	1.0	0.0	7.47293	7.29283	-8.89724	16.741	21.8664	1.32005	0.75755	146.35223	146.51299	54.87456	0.33352	 	3.030416575E7	 	1.89751E-7	 	5263.05786	39.3291	 
900.0	1.0	0.0	7.47585	7.28998	-8.9329	16.68096	21.777	1.31984	0.75767	146.73981	146.648	55.03174	0.33323	 	3.452876229E7	 	1.65829E-7	 	5067.29824	39.15192	 
895.0	1.0	0.0	7.47877	7.28714	-8.96837	16.62108	21.68856	1.31957	0.75782	147.12374	146.78265	55.18743	0.33295	 	3.938750558E7	 	1.44753E-7	 	4872.40179	38.97929	 
890.0	1.0	0.0	7.48167	7.28432	-9.00364	16.56136	21.60104	1.31925	0.75801	147.50421	146.91704	55.34173	0.33267	 	4.498220976E7	 	1.26206E-7	 	4678.34663	38.81103	 
885.0	1.0	0.0	7.48455	7.28151	-9.03872	16.50178	21.51443	1.31887	0.75823	147.88138	147.05122	55.49468	0.33239	 	5.143207914E7	 	1.09905E-7	 	4485.11165	38.647	 
880.0	1.0	0.0	7.48743	7.27871	-9.07363	16.44231	21.42871	1.31843	0.75848	148.25542	147.18528	55.64635	0.33212	 	5.887685483E7	 	9.55934E-8	 	4292.67638	38.48705	 
875.0	1.0	0.0	7.49029	7.27593	-9.10835	16.38295	21.34386	1.31793	0.75877	148.62648	147.31929	55.79682	0.33185	 	6.74805615E7	 	8.30437E-8	 	4101.02113	38.33105	 
870.0	1.0	0.0	7.49313	7.27317	-9.1429	16.32368	21.25986	1.31737	0.75909	148.99473	147.45331	55.94613	0.33159	 	7.743598243E7	 	7.20522E-8	 	3910.12693	38.17884	 
865.0	1.0	0.0	7.49597	7.27042	-9.17728	16.26449	21.17669	1.31676	0.75944	149.36032	147.58741	56.09435	0.33133	 	8.896998281E7	 	6.24371E-8	 	3719.9754	38.03031	 
860.0	1.0	0.0	7.49879	7.26768	-9.21149	16.20536	21.09435	1.3161	0.75982	149.72339	147.72165	56.24154	0.33107	 	1.023499023E8	 	5.40364E-8	 	3530.54867	37.88534	 
855.0	1.0	0.0	7.50161	7.26495	-9.24553	16.14627	21.0128	1.31537	0.76024	150.08408	147.85611	56.38774	0.33082	 	1.178911969E8	 	4.67059E-8	 	3341.82948	37.74384	 
850.0	1.0	0.0	7.50441	7.26224	-9.27941	16.08722	20.93205	1.3146	0.76069	150.44254	147.99082	56.53302	0.33057	 	1.359665862E8	 	4.03174E-8	 	3153.80107	37.60568	 
845.0	1.0	0.0	7.50661	7.26011	-9.30601	16.06138	20.87117	1.31256	0.76187	150.78537	148.21095	56.66756	0.33044	 	1.542170363E8	 	3.53879E-8	 	2997.03615	31.35298	 
840.0	1.0	0.0	7.50881	7.25799	-9.33255	16.03553	20.81029	1.31051	0.76306	151.12777	148.43035	56.80194	0.3303	 	1.751152272E8	 	3.10253E-8	 	2837.28328	31.95057	 
835.0	1.0	0.0	7.511	7.25587	-9.35901	16.00969	20.74939	1.30846	0.76426	151.46971	148.64904	56.93619	0.33017	 	1.990735322E8	 	2.71689E-8	 	2677.74302	31.90805	 
830.0	1.0	0.0	7.51319	7.25375	-9.38541	15.98385	20.68848	1.30639	0.76547	151.81121	148.867	57.07029	0.33004	 	2.265728962E8	 	2.37637E-8	 	2518.41449	31.86571	 
825.0	1.0	0.0	7.51537	7.25165	-9.41174	15.95801	20.62756	1.30431	0.76669	152.15227	149.08426	57.20425	0.3299	 	2.581749546E8	 	2.07603E-8	 	2359.29678	31.82354	 
820.0	1.0	0.0	7.51755	7.24954	-9.438	15.93217	20.56662	1.30222	0.76792	152.49288	149.3008	57.33807	0.32977	 	2.945364195E8	 	1.81145E-8	 	2200.38892	31.78157	 
815.0	1.0	0.0	7.51973	7.24745	-9.46419	15.90633	20.50567	1.30011	0.76916	152.83305	149.51663	57.47174	0.32964	 	3.364261833E8	 	1.57865E-8	 	2041.68994	31.7398	 
810.0	1.0	0.0	7.5219	7.24536	-9.49032	15.88049	20.4447	1.298	0.77042	153.17277	149.73176	57.60527	0.3295	 	3.847456767E8	 	1.37405E-8	 	1883.19883	31.69822	 
805.0	1.0	0.0	7.52406	7.24327	-9.51638	15.85464	20.38373	1.29587	0.77168	153.51205	149.94618	57.73865	0.32937	 	4.405531397E8	 	1.19445E-8	 	1724.91451	31.65686	 
800.0	1.0	0.0	7.52622	7.24119	-9.54237	15.8288	20.32274	1.29373	0.77296	153.85089	150.1599	57.8719	0.32924	 	5.050925948E8	 	1.03699E-8	 	1566.83589	31.61572	 
795.0	1.0	0.0	7.52838	7.23911	-9.56829	15.80296	20.26173	1.29158	0.77424	154.18928	150.37292	58.005	0.3291	 	5.798284864E8	 	8.99124E-9	 	1408.96182	31.57481	 
790.0	1.0	0.0	7.53053	7.23704	-9.59415	15.77712	20.20071	1.28942	0.77554	154.52724	150.58524	58.13795	0.32897	 	6.664871542E8	 	7.78555E-9	 	1251.29111	31.53414	 
785.0	1.0	0.0	7.53268	7.23498	-9.61993	15.75128	20.13968	1.28724	0.77685	154.86475	150.79687	58.27077	0.32884	 	7.67106562E8	 	6.73253E-9	 	1093.82253	31.49372	 
780.0	1.0	0.0	7.53483	7.23292	-9.64565	15.72544	20.07863	1.28506	0.77818	155.20182	151.0078	58.40344	0.3287	 	8.840960168E8	 	5.81403E-9	 	936.55477	31.45355	 
775.0	1.0	0.0	7.53697	7.23087	-9.67131	15.6996	20.01756	1.28286	0.77951	155.53845	151.21805	58.53597	0.32857	 	1.020307994E9	 	5.01394E-9	 	779.48648	31.41366	 
770.0	1.0	0.0	7.5391	7.22882	-9.69689	15.67376	19.95648	1.28065	0.78086	155.87464	151.42761	58.66836	0.32844	 	1.179124657E9	 	4.31791E-9	 	622.61626	31.37404	 
765.0	1.0	0.0	7.54123	7.22678	-9.72241	15.64792	19.89538	1.27842	0.78221	156.21039	151.63648	58.8006	0.32831	 	1.364562239E9	 	3.71324E-9	 	465.94263	31.33473	 
760.0	1.0	0.0	7.54336	7.22474	-9.74786	15.62207	19.83427	1.27618	0.78359	156.54571	151.84467	58.93271	0.32817	 	1.581397179E9	 	3.18867E-9	 	309.46404	31.29572	 
755.0	1.0	0.0	7.54548	7.22271	-9.77324	15.59623	19.77314	1.27393	0.78497	156.88058	152.05217	59.06467	0.32804	 	1.835318789E9	 	2.73421E-9	 	153.17889	31.25703	 
750.0	1.0	0.0	7.5476	7.22068	-9.79856	15.57039	19.712	1.27167	0.78637	157.21502	152.259	59.19649	0.32791	 	2.133114337E9	 	2.34106E-9	 	-2.91453	31.21868	 
745.0	1.0	0.0	7.54971	7.21866	-9.8238	15.54455	19.65083	1.2694	0.78778	157.54902	152.46515	59.32816	0.32778	 	2.482893799E9	 	2.00143E-9	 	-158.81797	31.18069	 
740.0	1.0	0.0	7.55182	7.21665	-9.84898	15.51871	19.58965	1.26711	0.7892	157.88591	152.67386	59.46096	0.32764	 	2.894363241E9	 	1.70847E-9	 	-314.53331	31.14307	 
735.0	1.0	0.0	7.55393	7.21463	-9.87409	15.49287	19.52846	1.2648	0.79064	158.21903	152.87865	59.59235	0.32751	 	3.379157928E9	 	1.45614E-9	 	-470.0625	31.10584	 
730.0	1.0	0.0	7.55603	7.21263	-9.89914	15.46703	19.46724	1.26249	0.79209	158.5517	153.08277	59.72359	0.32738	 	3.951248895E9	 	1.23913E-9	 	-625.4076	31.06902	 
725.0	1.0	0.0	7.55812	7.21063	-9.92411	15.44119	19.40601	1.26016	0.79355	158.88395	153.28623	59.8547	0.32725	 	4.627440075E9	 	1.05279E-9	 	-780.57076	31.03263	 
720.0	1.0	0.0	7.56021	7.20864	-9.94902	15.41535	19.34475	1.25782	0.79503	159.21575	153.48902	59.98567	0.32711	 	5.42797721E9	 	8.93025E-10	 	-935.55425	30.9967	 
715.0	1.0	0.0	7.5623	7.20665	-9.97386	15.38951	19.28348	1.25546	0.79652	159.54712	153.69114	60.11649	0.32698	 	6.377295044E9	 	7.56263E-10	 	-1090.36048	30.96125	 
710.0	1.0	0.0	7.56438	7.20467	-9.99864	15.36367	19.22219	1.25309	0.79803	159.87806	153.89261	60.24718	0.32685	 	7.504935882E9	 	6.39381E-10	 	-1244.99196	30.9263	 
705.0	1.0	0.0	7.56646	7.20269	-10.02334	15.33782	19.16088	1.25071	0.79955	160.20856	154.09341	60.37772	0.32672	 	8.846680902E9	 	5.3965E-10	 	-1399.45136	30.89188	 
700.0	1.0	0.0	7.56853	7.20072	-10.04798	15.31198	19.09955	1.24831	0.80108	160.53863	154.29356	60.50812	0.32659	 	1.04459E10	 	4.54693E-10	 	-1553.74149	30.85803	 
695.0	1.0	0.0	7.5706	7.19875	-10.07255	15.28614	19.0382	1.2459	0.80263	160.86826	154.49305	60.63838	0.32646	 	1.2355499999999998E10	 	3.82445E-10	 	-1707.86532	30.82477	 
690.0	1.0	0.0	7.57266	7.19679	-10.09705	15.2603	18.97683	1.24347	0.8042	161.19746	154.69189	60.7685	0.32632	 	1.4639599999999998E10	 	3.21107E-10	 	-1861.82596	30.79213	 
685.0	1.0	0.0	7.57472	7.19483	-10.12149	15.23446	18.91543	1.24103	0.80578	161.52622	154.89008	60.89848	0.32619	 	1.73768E10	 	2.69123E-10	 	-2015.62676	30.76016	 
680.0	1.0	0.0	7.57677	7.19288	-10.14586	15.20862	18.85402	1.23858	0.80738	161.85455	155.08762	61.02831	0.32606	 	2.06628E10	 	2.25143E-10	 	-2169.2712	30.72889	 
675.0	1.0	0.0	7.57882	7.19093	-10.17015	15.18278	18.79258	1.23611	0.80899	162.18245	155.28451	61.15801	0.32593	 	2.4615099999999996E10	 	1.88002E-10	 	-2322.76302	30.69836	 
670.0	1.0	0.0	7.58087	7.189	-10.19439	15.15694	18.73112	1.23362	0.81062	162.50992	155.48076	61.28757	0.3258	 	2.9377899999999996E10	 	1.56692E-10	 	-2476.10614	30.66862	 
665.0	1.0	0.0	7.58291	7.18706	-10.21855	15.1311	18.66964	1.23113	0.81226	162.83696	155.67636	61.41698	0.32567	 	3.51284E10	 	1.30347E-10	 	-2629.30473	30.63972	 
660.0	1.0	0.0	7.58494	7.18513	-10.24265	15.10526	18.60814	1.22861	0.81393	163.16356	155.87133	61.54626	0.32554	 	4.20851E10	 	1.08221E-10	 	-2782.35162	30.60938	 
655.0	1.0	0.0	7.58697	7.18321	-10.26668	15.07942	18.54661	1.22608	0.81561	163.48974	156.06565	61.67539	0.3254	 	5.051769999999999E10	 	8.96729E-11	 	-2935.18223	30.56612	 
650.0	1.0	0.0	7.589	7.18129	-10.29064	15.05358	18.48506	1.22354	0.8173	163.81031	156.25441	61.80244	0.32527	 	6.076009999999999E10	 	7.4155E-11	 	-3087.71094	30.50574	 
645.0	1.0	0.0	7.59102	7.17938	-10.31453	15.02774	18.42348	1.22098	0.81902	164.13564	156.44748	61.93129	0.32514	 	7.32261E10	 	6.11976E-11	 	-3239.9391	30.44563	 
640.0	1.0	0.0	7.59304	7.17747	-10.33836	15.0019	18.36188	1.2184	0.82075	164.46054	156.63992	62.06001	0.32501	 	8.84303E10	 	5.03997E-11	 	-3391.86813	30.38581	 
635.0	1.0	0.0	7.59505	7.17557	-10.36212	14.97606	18.30025	1.21581	0.8225	164.78501	156.83173	62.18859	0.32488	 	1.07014E11	 	4.14196E-11	 	-3543.49942	30.32626	 
630.0	1.0	0.0	7.59706	7.17367	-10.38581	14.95022	18.2386	1.21321	0.82426	165.10905	157.02291	62.31703	0.32475	 	1.29776E11	 	3.39667E-11	 	-3694.83436	30.26699	 
625.0	1.0	0.0	7.59906	7.17178	-10.40943	14.92437	18.17692	1.21058	0.82605	165.43265	157.21346	62.44533	0.32462	 	1.57718E11	 	2.77943E-11	 	-3845.87441	30.20801	 
620.0	1.0	0.0	7.60106	7.16989	-10.43299	14.89853	18.11521	1.20794	0.82785	165.75583	157.40339	62.57349	0.32449	 	1.92095E11	 	2.26932E-11	 	-3996.62113	30.14935	 
615.0	1.0	0.0	7.60306	7.16801	-10.45648	14.87269	18.05347	1.20529	0.82968	166.07859	157.5927	62.70151	0.32436	 	2.34485E11	 	1.84866E-11	 	-4147.07583	30.09094	 
610.0	1.0	0.0	7.60505	7.16614	-10.4799	14.84685	17.99171	1.20262	0.83152	166.40091	157.78138	62.82938	0.32423	 	2.86877E11	 	1.50254E-11	 	-4297.23987	30.03281	 
605.0	1.0	0.0	7.60703	7.16427	-10.50325	14.82101	17.92992	1.19993	0.83338	166.7228	157.96944	62.95712	0.3241	 	3.51782E11	 	1.21838E-11	 	-4447.11463	29.97495	 
600.0	1.0	0.0	7.60901	7.16241	-10.52654	14.79517	17.8681	1.19723	0.83526	167.04427	158.15689	63.08472	0.32397	 	4.32379E11	 	9.85623E-12	 	-4596.70148	29.91737	 
595.0	1.0	0.0	7.61098	7.16055	-10.54975	14.76933	17.80625	1.19451	0.83717	167.36531	158.34371	63.21218	0.32384	 	5.32708E11	 	7.95413E-12	 	-4746.00182	29.86007	 
590.0	1.0	0.0	7.61295	7.15869	-10.5729	14.74349	17.74437	1.19177	0.83909	167.68592	158.52993	63.3395	0.32371	 	6.57904E11	 	6.4034E-12	 	-4895.01699	29.80303	 
585.0	1.0	0.0	7.61492	7.15685	-10.59599	14.71765	17.68246	1.18901	0.84103	168.00611	158.71553	63.46668	0.32358	 	8.14526E11	 	5.14215E-12	 	-5043.74836	29.74627	 
580.0	1.0	0.0	7.61688	7.155	-10.619	14.69181	17.62052	1.18624	0.843	168.32587	158.90053	63.59372	0.32345	 	1.01096E12	 	4.11887E-12	 	-5192.19731	29.68979	 
575.0	1.0	0.0	7.61884	7.15317	-10.64195	14.66597	17.55854	1.18345	0.84499	168.6452	159.08491	63.72061	0.32332	 	1.25797E12	 	3.29071E-12	 	-5340.36519	29.63358	 
570.0	1.0	0.0	7.62079	7.15134	-10.66483	14.64013	17.49653	1.18064	0.847	168.9641	159.26869	63.84737	0.32319	 	1.56939E12	 	2.62217E-12	 	-5488.25337	29.57764	 
565.0	1.0	0.0	7.62273	7.14951	-10.68764	14.61429	17.43449	1.17782	0.84903	169.28258	159.45186	63.97399	0.32306	 	1.96308E12	 	2.08387E-12	 	-5635.8632	29.52197	 
560.0	1.0	0.0	7.62468	7.14769	-10.71038	14.58845	17.37242	1.17498	0.85108	169.60064	159.63443	64.10047	0.32293	 	2.46214E12	 	1.65157E-12	 	-5783.19602	29.46657	 
555.0	1.0	0.0	7.62661	7.14587	-10.73306	14.56261	17.3103	1.17212	0.85316	169.91827	159.8164	64.22682	0.3228	 	3.09653E12	 	1.30533E-12	 	-5930.25321	29.41144	 
550.0	1.0	0.0	7.62855	7.14406	-10.75567	14.53677	17.24816	1.16924	0.85526	170.23547	159.99777	64.35302	0.32267	 	3.90523E12	 	1.02877E-12	 	-6077.03611	29.35658	 
545.0	1.0	0.0	7.63047	7.14226	-10.77821	14.51093	17.18598	1.16634	0.85738	170.55225	160.17854	64.47908	0.32254	 	4.93912E12	 	8.08481E-13	 	-6223.54606	29.30199	 
540.0	1.0	0.0	7.6324	7.14046	-10.80068	14.48509	17.12376	1.16342	0.85953	170.8686	160.35872	64.605	0.32241	 	6.2648E12	 	6.33505E-13	 	-6369.7844	29.24767	 
535.0	1.0	0.0	7.63431	7.13867	-10.82309	14.45925	17.0615	1.16049	0.86171	171.18453	160.5383	64.73078	0.32228	 	7.96972E12	 	4.94921E-13	 	-6515.75248	29.19362	 
530.0	1.0	0.0	7.63623	7.13688	-10.84543	14.43341	16.9992	1.15754	0.8639	171.50004	160.71729	64.85643	0.32215	 	1.0169E13	 	3.85481E-13	 	-6661.45163	29.13983	 
525.0	1.0	0.0	7.63813	7.1351	-10.8677	14.40757	16.93687	1.15456	0.86613	171.81512	160.89569	64.98193	0.32202	 	1.3015E13	 	2.99315E-13	 	-6806.88318	29.08631	 
520.0	1.0	0.0	7.64004	7.13332	-10.8899	14.38173	16.87449	1.15157	0.86838	172.12978	161.0735	65.1073	0.32189	 	1.67093E13	 	2.31678E-13	 	-6952.04847	29.03306	 
515.0	1.0	0.0	7.64194	7.13155	-10.91204	14.35589	16.81208	1.14856	0.87066	172.44401	161.25072	65.23252	0.32176	 	2.15203E13	 	1.7875E-13	 	-7096.94882	28.98007	 
510.0	1.0	0.0	7.64383	7.12978	-10.9341	14.33005	16.74962	1.14553	0.87296	172.75782	161.42736	65.35761	0.32164	 	2.78063E13	 	1.37464E-13	 	-7241.58556	28.92735	 
505.0	1.0	0.0	7.64572	7.12802	-10.95611	14.30421	16.68712	1.14248	0.87529	173.07121	161.60341	65.48256	0.32151	 	3.60468E13	 	1.05362E-13	 	-7385.95998	28.87489	 
500.0	1.0	0.0	7.6476	7.12626	-10.97804	14.27837	16.62457	1.13941	0.87765	173.38417	161.77888	65.60736	0.32138	 	4.68867E13	 	8.04824E-14	 	-7530.07343	28.82269	 
495.0	1.0	0.0	7.64948	7.12451	-10.9999	14.25253	16.56198	1.13632	0.88004	173.69672	161.95377	65.73203	0.32125	 	6.11953E13	 	6.12653E-14	 	-7673.9272	28.77075	 
490.0	1.0	0.0	7.65135	7.12277	-11.0217	14.22669	16.49935	1.13321	0.88245	174.00884	162.12808	65.85656	0.32112	 	8.01499E13	 	4.64722E-14	 	-7817.52261	28.71908	 
485.0	1.0	0.0	7.65322	7.12103	-11.04343	14.20085	16.43667	1.13008	0.8849	174.32053	162.30181	65.98095	0.32099	 	1.0535E14	 	3.51244E-14	 	-7960.86094	28.66767	 
480.0	1.0	0.0	7.65509	7.11929	-11.06509	14.17501	16.37394	1.12692	0.88737	174.63181	162.47497	66.1052	0.32086	 	1.3897599999999998E14	 	2.64502E-14	 	-8103.94352	28.61652	 
475.0	1.0	0.0	7.65695	7.11757	-11.08669	14.14917	16.31116	1.12375	0.88988	174.94267	162.64756	66.22931	0.32073	 	1.84016E14	 	1.98436E-14	 	-8246.77161	28.56562	 
470.0	1.0	0.0	7.6588	7.11584	-11.10821	14.12333	16.24833	1.12056	0.89241	175.2531	162.81957	66.35329	0.32061	 	2.44574E14	 	1.48304E-14	 	-8389.34653	28.51498	 
465.0	1.0	0.0	7.66065	7.11413	-11.12967	14.09749	16.18545	1.11734	0.89498	175.56311	162.99101	66.47712	0.32048	 	3.26317E14	 	1.10406E-14	 	-8531.66955	28.4646	 
460.0	1.0	0.0	7.66249	7.11241	-11.15106	14.07165	16.12252	1.1141	0.89758	175.8727	163.16189	66.60081	0.32035	 	4.37095E14	 	8.18659E-15	 	-8673.74195	28.41448	 
455.0	1.0	0.0	7.66433	7.11071	-11.17239	14.04581	16.05954	1.11085	0.90021	176.18187	163.33219	66.72437	0.32022	 	5.87837E14	 	6.04576E-15	 	-8815.56499	28.36461	 
450.0	1.0	0.0	7.66617	7.109	-11.19364	14.01997	15.9965	1.10757	0.90288	176.49062	163.50193	66.84779	0.32009	 	7.9381E14	 	4.4463E-15	 	-8957.13995	28.31499	 
445.0	1.0	0.0	7.668	7.10731	-11.21483	13.99414	15.9334	1.10426	0.90558	176.79895	163.67111	66.97106	0.31997	 	1.07645E15	 	3.25618E-15	 	-9098.4681	28.26563	 
440.0	1.0	0.0	7.66982	7.10562	-11.23595	13.9683	15.87025	1.10094	0.90832	177.10686	163.83972	67.0942	0.31984	 	1.46597E15	 	2.37434E-15	 	-9239.55069	28.21652	 
435.0	1.0	0.0	7.67164	7.10393	-11.25701	13.94246	15.80704	1.09759	0.91109	177.41435	164.00777	67.2172	0.31971	 	2.00517E15	 	1.7237E-15	 	-9380.38898	28.16766	 
430.0	1.0	0.0	7.67346	7.10225	-11.27799	13.91662	15.74377	1.09422	0.91389	177.72142	164.17526	67.34006	0.31958	 	2.75493E15	 	1.24573E-15	 	-9520.9842	28.11904	 
425.0	1.0	0.0	7.67527	7.10058	-11.29891	13.89078	15.68044	1.09083	0.91673	178.02807	164.3422	67.46278	0.31945	 	3.8023E15	 	8.96168E-16	 	-9661.33743	28.07065	 
420.0	1.0	0.0	7.67707	7.09891	-11.31976	13.86494	15.61705	1.08741	0.91961	178.3343	164.50858	67.58537	0.31933	 	5.27231E15	 	6.41672E-16	 	-9801.45016	28.02255	 
415.0	1.0	0.0	7.67887	7.09724	-11.34054	13.8391	15.5536	1.08397	0.92253	178.64011	164.6744	67.70781	0.3192	 	7.34546E15	 	4.57247E-16	 	-9941.32295	27.97456	 
410.0	1.0	0.0	7.68066	7.09559	-11.36126	13.81326	15.49007	1.08051	0.92549	178.9455	164.83967	67.83012	0.31907	 	1.02836E16	 	3.24234E-16	 	-10080.95602	27.92662	 
405.0	1.0	0.0	7.68245	7.09393	-11.3819	13.78742	15.42649	1.07702	0.92849	179.25047	165.00439	67.95228	0.31894	 	1.44686E16	 	2.28764E-16	 	-10220.34968	27.87873	 
400.0	1.0	0.0	7.68424	7.09229	-11.40248	13.76158	15.36283	1.07351	0.93152	179.55503	165.16856	68.07431	0.31882	 	2.04602E16	 	1.60579E-16	 	-10359.50414	27.83089	 
395.0	1.0	0.0	7.68602	7.09064	-11.423	13.73574	15.2991	1.06998	0.9346	179.85916	165.33218	68.1962	0.31869	 	2.90834E16	 	1.12128E-16	 	-10498.41965	27.7831	 
390.0	1.0	0.0	7.68779	7.08901	-11.44344	13.7099	15.2353	1.06642	0.93772	180.16288	165.49526	68.31795	0.31856	 	4.15608E16	 	7.7878E-17	 	-10637.09645	27.73536	 
385.0	1.0	0.0	7.68956	7.08738	-11.46382	13.68406	15.17143	1.06283	0.94088	180.46618	165.65778	68.43956	0.31843	 	5.97143E16	 	5.3794E-17	 	-10775.53476	27.68766	 
380.0	1.0	0.0	7.69133	7.08575	-11.48413	13.65822	15.10748	1.05922	0.94409	180.76906	165.81977	68.56103	0.31831	 	8.62745E16	 	3.69502E-17	 	-10913.7348	27.64001	 
375.0	1.0	0.0	7.69309	7.08413	-11.50437	13.63238	15.04346	1.05559	0.94734	181.07152	165.98121	68.68236	0.31818	 	1.25358E17	 	2.52354E-17	 	-11051.69677	27.59239	 
370.0	1.0	0.0	7.69484	7.08252	-11.52454	13.60654	14.97935	1.05193	0.95064	181.37357	166.14211	68.80355	0.31805	 	1.83208E17	 	1.71338E-17	 	-11189.42087	27.54482	 
365.0	1.0	0.0	7.69659	7.08091	-11.54465	13.5807	14.91516	1.04824	0.95398	181.6752	166.30247	68.92461	0.31793	 	2.69352E17	 	1.15635E-17	 	-11326.90729	27.49728	 
360.0	1.0	0.0	7.69833	7.0793	-11.56469	13.55487	14.85089	1.04453	0.95737	181.97641	166.46229	69.04553	0.3178	 	3.98418E17	 	7.75629E-18	 	-11464.15623	27.44979	 
355.0	1.0	0.0	7.70007	7.0777	-11.58466	13.52903	14.78654	1.04079	0.96081	182.27721	166.62158	69.1663	0.31767	 	5.93014E17	 	5.16994E-18	 	-11601.16781	27.40232	 
350.0	1.0	0.0	7.70181	7.07611	-11.60456	13.50319	14.7221	1.03702	0.9643	182.57758	166.78033	69.28694	0.31755	 	8.88305E17	 	3.42387E-18	 	-11737.94222	27.35488	 
345.0	1.0	0.0	7.70353	7.07452	-11.6244	13.47735	14.65756	1.03323	0.96784	182.87755	166.93855	69.40744	0.31742	 	1.33936E18	 	2.25259E-18	 	-11874.47961	27.30748	 
340.0	1.0	0.0	7.70526	7.07294	-11.64417	13.45151	14.59294	1.02941	0.97143	183.17709	167.09623	69.5278	0.31729	 	2.03303E18	 	1.47201E-18	 	-12010.78009	27.2601	 
335.0	1.0	0.0	7.70698	7.07136	-11.66387	13.42567	14.52822	1.02557	0.97507	183.47622	167.25338	69.64803	0.31717	 	3.1072E18	 	9.55276E-19	 	-12146.84381	27.21274	 
330.0	1.0	0.0	7.70869	7.06979	-11.6835	13.39983	14.4634	1.02169	0.97877	183.77493	167.41001	69.76811	0.31704	 	4.78243E18	 	6.15551E-19	 	-12282.67085	27.16541	 
325.0	1.0	0.0	7.7104	7.06822	-11.70307	13.37399	14.39848	1.01779	0.98252	184.07323	167.5661	69.88805	0.31691	 	7.41411E18	 	3.93766E-19	 	-12418.26133	27.1181	 
320.0	1.0	0.0	7.7121	7.06666	-11.72256	13.34815	14.33346	1.01386	0.98633	184.37111	167.72167	70.00786	0.31679	 	1.15792E19	 	2.50018E-19	 	-12553.61531	27.0708	 
315.0	1.0	0.0	7.7138	7.06511	-11.74199	13.32231	14.26833	1.00991	0.99019	184.66857	167.87672	70.12753	0.31666	 	1.82218E19	 	1.57537E-19	 	-12688.73288	27.02351	 
310.0	1.0	0.0	7.71549	7.06356	-11.76136	13.29647	14.2031	1.00592	0.99412	184.96562	168.03124	70.24706	0.31654	 	2.88989E19	 	9.84884E-20	 	-12823.61407	26.97624	 
305.0	1.0	0.0	7.71718	7.06201	-11.78065	13.27064	14.13775	1.0019	0.9981	185.26225	168.18524	70.36644	0.31641	 	4.61993E19	 	6.1079E-20	 	-12958.25893	26.92897	 
300.0	1.0	0.0	7.71886	7.06047	-11.79988	13.2448	14.07229	0.99786	1.00214	185.55847	168.33872	70.4857	0.31628	 	7.44636E19	 	3.75674E-20	 	-13092.66749	26.88171	 
295.0	1.0	0.0	7.72054	7.05894	-11.81904	13.21896	14.00672	0.99379	1.00625	185.85428	168.49167	70.60481	0.31616	 	1.2103199999999998E20	 	2.29112E-20	 	-13226.83972	26.83445	 
290.0	1.0	0.0	7.72221	7.05741	-11.83813	13.19312	13.94102	0.98968	1.01043	186.14966	168.64411	70.72378	0.31603	 	1.98429E20	 	1.38518E-20	 	-13360.77565	26.78719	 
285.0	1.0	0.0	7.72388	7.05589	-11.85715	13.16728	13.87519	0.98555	1.01466	186.44464	168.79604	70.84261	0.31591	 	3.2821299999999997E20	 	8.30007E-21	 	-13494.47522	26.73991	 
280.0	1.0	0.0	7.72554	7.05437	-11.87611	13.14144	13.80924	0.98138	1.01897	186.7392	168.94744	70.96131	0.31578	 	5.4784399999999993E20	 	4.92802E-21	 	-13627.93838	26.69263	 
275.0	1.0	0.0	7.72719	7.05286	-11.895	13.1156	13.74316	0.97719	1.02334	187.03334	169.09834	71.07987	0.31566	 	9.23033E20	 	2.89847E-21	 	-13761.16506	26.64534	 
270.0	1.0	0.0	7.72884	7.05135	-11.91382	13.08976	13.67694	0.97296	1.02779	187.32707	169.24872	71.19828	0.31553	 	1.5701800000000001E21	 	1.68833E-21	 	-13894.15518	26.59802	 
265.0	1.0	0.0	7.73049	7.04985	-11.93257	13.06392	13.61058	0.96871	1.0323	187.62039	169.39859	71.31656	0.31541	 	2.69754E21	 	9.73692E-22	 	-14026.90861	26.55069	 
260.0	1.0	0.0	7.73213	7.04836	-11.95126	13.03809	13.54408	0.96442	1.03689	187.91329	169.54794	71.4347	0.31528	 	4.68161E21	 	5.55828E-22	 	-14159.42521	26.50332	 
255.0	1.0	0.0	7.73377	7.04687	-11.96988	13.01225	13.47742	0.9601	1.04156	188.20577	169.69679	71.5527	0.31515	 	8.21025E21	 	3.1397E-22	 	-14291.70483	26.45592	 
250.0	1.0	0.0	7.7354	7.04538	-11.98843	12.98641	13.41062	0.95575	1.0463	188.49785	169.84514	71.67057	0.31503	 	1.4553899999999998E22	 	1.75442E-22	 	-14423.74727	26.40849	 
245.0	1.0	0.0	7.73702	7.0439	-12.00691	12.96057	13.34366	0.95136	1.05112	188.78951	169.99297	71.78829	0.3149	 	2.6085699999999996E22	 	9.69482E-23	 	-14555.55232	26.36101	 
240.0	1.0	0.0	7.73864	7.04243	-12.02533	12.93473	13.27653	0.94695	1.05602	189.08075	170.14031	71.90588	0.31478	 	4.728929999999999E22	 	5.29624E-23	 	-14687.11974	26.31348	 
235.0	1.0	0.0	7.74026	7.04096	-12.04368	12.90889	13.20924	0.9425	1.06101	189.37159	170.28713	72.02332	0.31465	 	8.67378E22	 	2.85937E-23	 	-14818.44926	26.2659	 
230.0	1.0	0.0	7.74186	7.0395	-12.06196	12.88305	13.14177	0.93801	1.06608	189.66201	170.43346	72.14063	0.31453	 	1.61023E23	 	1.52509E-23	 	-14949.54058	26.21826	 
225.0	1.0	0.0	7.74347	7.03804	-12.08017	12.85722	13.07413	0.9335	1.07124	189.95201	170.57929	72.2578	0.3144	 	3.0266599999999995E23	 	8.0331E-24	 	-15080.39336	26.17056	 
220.0	1.0	0.0	7.74507	7.03658	-12.09831	12.83138	13.0063	0.92895	1.07649	190.24161	170.72461	72.37483	0.31428	 	5.7622999999999994E23	 	4.17705E-24	 	-15211.00722	26.12277	 
215.0	1.0	0.0	7.74666	7.03514	-12.11639	12.80554	12.93828	0.92436	1.08183	190.53079	170.86944	72.49172	0.31416	 	1.11162E24	 	2.1433E-24	 	-15341.38179	26.07491	 
210.0	1.0	0.0	7.74825	7.0337	-12.1344	12.7797	12.87006	0.91974	1.08726	190.81955	171.01377	72.60847	0.31403	 	2.17382E24	 	1.08479E-24	 	-15471.5166	26.02696	 
205.0	1.0	0.0	7.74983	7.03226	-12.15234	12.75386	12.80164	0.91509	1.09279	191.10791	171.1576	72.72508	0.31391	 	4.31104E24	 	5.41338E-25	 	-15601.41118	25.97892	 
200.0	1.0	0.0	7.75141	7.03083	-12.17022	12.72802	12.73301	0.9104	1.09841	191.39585	171.30094	72.84155	0.31378	 	8.67412E24	 	2.66232E-25	 	-15731.06501	25.93077	 
195.0	1.0	0.0	7.75298	7.0294	-12.18803	12.70218	12.66417	0.90568	1.10414	191.68338	171.44379	72.95789	0.31366	 	1.77155E25	 	1.28979E-25	 	-15860.47753	25.8825	 
190.0	1.0	0.0	7.75455	7.02798	-12.20576	12.67635	12.59509	0.90092	1.10998	191.9705	171.58615	73.07408	0.31353	 	3.6743400000000003E25	 	6.15218E-26	 	-15989.64811	25.83412	 
185.0	1.0	0.0	7.75611	7.02657	-12.22344	12.65051	12.52579	0.89613	1.11592	192.25721	171.72801	73.19014	0.31341	 	7.74319E25	 	2.88785E-26	 	-16118.57613	25.7856	 
180.0	1.0	0.0	7.75766	7.02516	-12.24104	12.62467	12.45624	0.89129	1.12196	192.5435	171.86939	73.30606	0.31329	 	1.65884E26	 	1.33329E-26	 	-16247.26084	25.73694	 
175.0	1.0	0.0	7.75921	7.02376	-12.25858	12.59883	12.38645	0.88643	1.12813	192.82938	172.01027	73.42184	0.31316	 	3.6147100000000005E26	 	6.05114E-27	 	-16375.7015	25.68813	 
170.0	1.0	0.0	7.76076	7.02236	-12.27605	12.57299	12.31639	0.88152	1.1344	193.11485	172.15067	73.53748	0.31304	 	8.01631E26	 	2.69813E-27	 	-16503.89729	25.63916	 
165.0	1.0	0.0	7.7623	7.02096	-12.29345	12.54715	12.24607	0.87658	1.1408	193.39991	172.29059	73.65298	0.31291	 	1.81038E27	 	1.18124E-27	 	-16631.84732	25.59001	 
160.0	1.0	0.0	7.76383	7.01958	-12.31078	12.52132	12.17547	0.8716	1.14731	193.68456	172.43002	73.76834	0.31279	 	4.16614E27	 	5.07447E-28	 	-16759.55065	25.54067	 
155.0	1.0	0.0	7.76536	7.01819	-12.32805	12.49548	12.10458	0.86659	1.15395	193.96879	172.56896	73.88356	0.31267	 	9.775799999999999E27	 	2.13762E-28	 	-16887.00627	25.49112	 
150.0	1.0	0.0	7.76689	7.01682	-12.34524	12.46964	12.03339	0.86153	1.16072	194.25261	172.70743	73.99864	0.31254	 	2.34058E28	 	8.82383E-29	 	-17014.21311	25.44137	 
145.0	1.0	0.0	7.7684	7.01545	-12.36237	12.4438	11.96189	0.85644	1.16762	194.53603	172.84541	74.11359	0.31242	 	5.72221E28	 	3.56661E-29	 	-17141.17	25.39138	 
140.0	1.0	0.0	7.76992	7.01408	-12.37944	12.41796	11.89006	0.85131	1.17465	194.81903	172.98291	74.22839	0.31229	 	1.42955E29	 	1.41057E-29	 	-17267.87571	25.34114	 
135.0	1.0	0.0	7.77142	7.01272	-12.39643	12.39212	11.8179	0.84615	1.18183	195.10162	173.11994	74.34306	0.31217	 	3.65241E29	 	5.45415E-30	 	-17394.32891	25.29064	 
130.0	1.0	0.0	7.77293	7.01136	-12.41336	12.36629	11.74539	0.84094	1.18914	195.3838	173.25648	74.45759	0.31205	 	9.55133E29	 	2.06011E-30	 	-17520.52821	25.23986	 
125.0	1.0	0.0	7.77442	7.01002	-12.43022	12.34045	11.67252	0.8357	1.19661	195.66557	173.39256	74.57197	0.31192	 	2.55878E30	 	7.59451E-31	 	-17646.47209	25.18878	 
120.0	1.0	0.0	7.77591	7.00867	-12.44701	12.31461	11.59926	0.83041	1.20422	195.94692	173.52815	74.68622	0.3118	 	7.02893E30	 	2.72996E-31	 	-17772.15894	25.13737	 
115.0	1.0	0.0	7.7774	7.00733	-12.46374	12.28877	11.52561	0.82509	1.21199	196.22787	173.66328	74.80033	0.31168	 	1.98176E31	 	9.55951E-32	 	-17897.58707	25.08562	 
110.0	1.0	0.0	7.77888	7.006	-12.48039	12.26293	11.45155	0.81973	1.21991	196.50841	173.79793	74.9143	0.31155	 	5.74065E31	 	3.25757E-32	 	-18022.7546	25.03351	 
105.0	1.0	0.0	7.78035	7.00467	-12.49698	12.2371	11.37707	0.81433	1.228	196.78853	173.93211	75.02813	0.31143	 	1.71036E32	 	1.07911E-32	 	-18147.65963	24.981	 
100.0	1.0	0.0	7.78182	7.00335	-12.51351	12.21126	11.30213	0.80889	1.23626	197.06825	174.06581	75.14182	0.31131	 	5.24709E32	 	3.47097E-33	 	-18272.30004	24.92808	 
95.0	1.0	0.0	7.78329	7.00203	-12.52996	12.18542	11.22672	0.80341	1.24469	197.34755	174.19905	75.25537	0.31119	 	1.65949E33	 	1.08277E-33	 	-18396.67362	24.87472	 
90.0	1.0	0.0	7.78475	7.00072	-12.54635	12.15958	11.15083	0.79789	1.2533	197.62645	174.33183	75.36879	0.31106	 	5.41751E33	 	3.2717E-34	 	-18520.77801	24.82088	 
85.0	1.0	0.0	7.7862	6.99941	-12.56267	12.13374	11.07443	0.79234	1.26209	197.90494	174.46413	75.48206	0.31094	 	1.82798E34	 	9.56269E-35	 	-18644.61065	24.76653	 
80.0	1.0	0.0	7.78765	6.99811	-12.57892	12.10791	10.99749	0.78674	1.27107	198.18301	174.59597	75.5952	0.31082	 	6.3841E34	 	2.69989E-35	 	-18768.16886	24.71164	 
75.0	1.0	0.0	7.78909	6.99682	-12.5951	12.08207	10.91999	0.78111	1.28024	198.46068	174.72734	75.70819	0.31069	 	2.3111499999999997E35	 	7.35233E-36	 	-18891.44975	24.65618	 
70.0	1.0	0.0	7.79052	6.99553	-12.61122	12.05623	10.84191	0.77543	1.2896	198.73793	174.85826	75.82105	0.31057	 	8.686389999999999E35	 	1.92811E-36	 	-19014.45023	24.6001	 
65.0	1.0	0.0	7.79196	6.99424	-12.62727	12.03039	10.76321	0.76972	1.29917	199.01478	174.9887	75.93376	0.31045	 	3.39512E36	 	4.86118E-37	 	-19137.16701	24.54336	 
60.0	1.0	0.0	7.79338	6.99296	-12.64325	12.00455	10.68386	0.76397	1.30895	199.29122	175.11869	76.04634	0.31033	 	1.38242E37	 	1.17621E-37	 	-19259.59657	24.48591	 
55.0	1.0	0.0	7.7948	6.99169	-12.65916	11.97872	10.60384	0.75819	1.31894	199.56724	175.24822	76.15878	0.31021	 	5.875009999999999E37	 	2.72616E-38	 	-19381.73514	24.42772	 
50.0	1.0	0.0	7.79621	6.99042	-12.67501	11.95288	10.52311	0.75236	1.32915	199.84286	175.37729	76.27107	0.31008	 	2.61109E38	 	6.04045E-39	 	-19503.5787	24.36871	 
45.0	1.0	0.0	7.79762	6.98916	-12.69078	11.92704	10.44162	0.7465	1.33958	200.11807	175.5059	76.38323	0.30996	 	1.21618E39	 	1.2768E-39	 	-19625.12294	24.30885	 
40.0	1.0	0.0	7.79903	6.9879	-12.70649	11.9012	10.35935	0.7406	1.35025	200.39287	175.63406	76.49525	0.30984	 	5.94989E39	 	2.5688E-40	 	-19746.36323	24.24806	 
35.0	1.0	0.0	7.80043	6.98665	-12.72214	11.87536	10.27624	0.73467	1.36115	200.66726	175.76175	76.60713	0.30972	 	3.06477E40	 	4.9074E-41	 	-19867.29463	24.18628	 
30.0	1.0	0.0	7.80182	6.9854	-12.73771	11.84952	10.19226	0.72871	1.37229	200.94124	175.889	76.71887	0.30959	 	1.66636E41	 	8.87923E-42	 	-19987.91183	24.12344	 
25.0	1.0	0.0	7.8032	6.98416	-12.75322	 	10.10735	0.72271	1.38368	201.21481	176.01579	76.83047	0.30947	 	9.589690000000001E41	 	1.51746E-42	 	-20108.20914	 	 
