T (C)	Fraction solid (wt)-TOTAL	Fraction liquid (wt)-LIQUID	Density (g/(cm)^3)-TOTAL	Molar volume (cm^3)-TOTAL	Volume change (%)-  	Average expansion coeff. (10e-6 1/K)-  	Thermal conductivity (W/(m*K))-TOTAL	Electrical resistivity (10e-6 Ohm*m)-TOTAL	Electrical conductivity (10e6 1/(Ohm*m))-TOTAL	Young's modulus (GPa)-TOTAL	Bulk modulus (GPa)-TOTAL	Shear modulus(GPa)-TOTAL	Poisson's ratio-TOTAL	Liquid viscosity (mPa s)-  	Total viscosity (mPa s)-  	Liquid diffusivity (10e-9 (m^2)/s)-  	Total diffusivity (10e-9 (m^2)/s)-  	Surface Tension (mN/m)-  	Enthalpy (J/mole)-TOTAL	Specific heat (J/(mole K))-TOTAL	Latent heat (J/mole)-TOTAL
1400.0	0.93393	0.0660691	7.81252	7.27546	0.0	19.31793	37.01317	1.1075	0.90293	80.22631	127.51278	29.27314	0.37031	6.4371	22158.8028	1.26862	3.68532E-4	1767.16057	46379.132	 	0.0
1395.0	0.94358	0.0564248	7.81764	7.27092	-0.0623563	19.22462	36.9708	1.10546	0.9046	84.09551	127.92235	30.7196	0.36876	6.41646	24493.87919	1.2689	3.32402E-4	1765.37743	46032.907	69.245	138.444
1390.0	0.95118	0.04882	7.82225	7.26687	-0.11807	19.14816	36.91869	1.1037	0.90604	87.33689	128.33912	31.93302	0.3675	6.39641	26840.91485	1.26906	3.02427E-4	1763.72862	45718.879	62.8056	245.206
1385.0	0.95731	0.0426872	7.82649	7.26316	-0.16901	19.08375	36.8595	1.10215	0.90732	90.10424	128.76057	32.97018	0.36645	6.3771	29234.65216	1.26908	2.7683E-4	1762.19832	45428.133	58.1492	329.198
1380.0	0.96235	0.0376498	7.83045	7.25971	-0.2164	19.02829	36.79505	1.10075	0.90847	92.50655	129.185	33.87141	0.36556	6.35857	31703.06287	1.26894	2.54506E-4	1760.77228	45154.746	54.6774	396.341
1375.0	0.96656	0.0334449	7.83421	7.25646	-0.26107	18.97968	36.72659	1.09947	0.90953	94.62222	129.61128	34.66579	0.36478	6.34083	34269.95678	1.26864	2.34731E-4	1759.43842	44894.629	52.0234	450.718
1370.0	0.97011	0.0298884	7.8378	7.25337	-0.30365	18.93632	36.65499	1.09827	0.91052	96.50954	130.03855	35.37499	0.36409	6.32398	36956.28207	1.26816	2.17008E-4	1758.18726	44644.886	49.9486	495.224
1365.0	0.97316	0.0268447	7.84125	7.25039	-0.34459	18.897	36.5809	1.09715	0.91145	98.21274	130.46614	36.01546	0.36348	6.30796	39781.89727	1.26751	2.00981E-4	1757.01213	44403.405	48.2962	531.968
1360.0	0.97579	0.0242137	7.8446	7.24751	-0.38414	18.86117	36.50479	1.09608	0.91234	99.76492	130.89371	36.59951	0.36293	6.29289	42765.5266	1.26667	1.86388E-4	1755.90029	44168.618	46.9574	562.514
1355.0	0.97808	0.0219183	7.84787	7.24471	-0.42261	18.82798	36.42705	1.09506	0.91319	101.19223	131.32083	37.1369	0.36242	6.27871	45925.9114	1.26564	1.73031E-4	1754.84918	43939.334	45.8568	588.05
1350.0	0.9801	0.0198997	7.85106	7.24198	-0.46016	18.79701	36.34795	1.09407	0.91402	102.51554	131.74727	37.63542	0.36196	6.26546	49282.17657	1.26442	1.60752E-4	1753.85172	43714.635	44.9398	609.49
1345.0	0.98189	0.0181114	7.85419	7.2393	-0.49694	18.76795	36.26771	1.09311	0.91482	103.7499	132.17282	38.10069	0.36152	6.2531	52853.29183	1.26302	1.49429E-4	1752.9013	43493.804	44.1662	627.549
1340.0	0.98348	0.0165185	7.85727	7.23668	-0.53307	18.74042	36.18652	1.09218	0.9156	104.90974	132.59731	38.53809	0.36112	6.24163	56659.99847	1.26143	1.38958E-4	1751.99402	43276.272	43.5064	642.793
1335.0	0.98491	0.0150899	7.86031	7.23409	-0.56865	18.71421	36.1045	1.09127	0.91637	106.00549	133.0206	38.95153	0.36074	6.23111	60723.74197	1.25964	1.29257E-4	1751.12574	43061.582	42.938	655.676
1330.0	0.9862	0.0138019	7.86331	7.23153	-0.60375	18.6891	36.02178	1.09037	0.91712	107.04543	133.44258	39.34409	0.36037	6.22145	65067.03974	1.25768	1.20254E-4	1750.29299	42849.364	42.4436	666.565
1325.0	0.98736	0.012636	7.86627	7.22901	-0.63843	18.66497	35.93845	1.08949	0.91786	108.03689	133.86317	39.71854	0.36003	6.21266	69714.06127	1.25553	1.11888E-4	1749.49072	42639.315	42.0098	675.761
1320.0	0.98843	0.0115745	7.86921	7.22651	-0.67274	18.64168	35.8546	1.08862	0.91859	108.98645	134.28233	40.07732	0.3597	6.20474	74691.51011	1.2532	1.04105E-4	1748.71561	42431.184	41.6262	683.51
1319.19	0.98859	0.0114119	7.86968	7.22611	-0.67827	18.638	35.84095	1.08848	0.91871	109.13633	134.35016	40.13396	0.35965	6.20358	75531.35693	1.25279	1.02895E-4	1748.59106	42397.61	41.40951	684.635
1315.0	1.0	0.0	7.87639	7.22022	-0.7593	18.47246	35.8187	1.0863	0.92056	115.32771	134.86888	42.47855	0.35748	 	83612.3054	 	9.2706E-5	 	42014.39	91.47765	900.391
1310.0	1.0	0.0	7.8789	7.218	-0.7898	18.45891	35.73051	1.08555	0.92119	115.82137	135.28614	42.66568	0.35731	 	89296.89238	 	8.65311E-5	 	41823.36157	38.20569	 
1305.0	1.0	0.0	7.88142	7.21569	-0.82158	18.44165	35.64196	1.08481	0.92182	116.31331	135.69681	42.85234	0.35714	 	95396.95387	 	8.07422E-5	 	41632.2013	38.23205	 
1300.0	1.0	0.0	7.88395	7.21338	-0.85333	18.42437	35.55341	1.08406	0.92245	116.80449	136.10562	43.03877	0.35697	 	101956.5413	 	7.53081E-5	 	41441.34597	38.17107	 
1295.0	1.0	0.0	7.88647	7.21107	-0.88502	18.40708	35.46486	1.08332	0.92309	117.29492	136.51257	43.22497	0.3568	 	109013.3915	 	7.02093E-5	 	41250.79519	38.11016	 
1290.0	1.0	0.0	7.88899	7.20877	-0.91668	18.38978	35.37631	1.08257	0.92373	117.78459	136.91767	43.41093	0.35662	 	116608.5903	 	6.5427E-5	 	41060.54853	38.04933	 
1285.0	1.0	0.0	7.8915	7.20647	-0.94829	18.37246	35.28776	1.08181	0.92438	118.27352	137.32091	43.59667	0.35645	 	124786.8914	 	6.09434E-5	 	40870.60558	37.98859	 
1280.0	1.0	0.0	7.89402	7.20417	-0.97986	18.35514	35.19921	1.08105	0.92502	118.76169	137.72232	43.78218	0.35628	 	133597.068	 	5.67418E-5	 	40680.96595	37.92793	 
1275.0	1.0	0.0	7.89653	7.20188	-1.01138	18.33779	35.11066	1.08029	0.92568	119.24911	138.1219	43.96746	0.35611	 	143092.3001	 	5.2806E-5	 	40491.62922	37.86735	 
1270.0	1.0	0.0	7.89905	7.19959	-1.04286	18.32044	35.02211	1.07952	0.92633	119.73578	138.51965	44.15251	0.35593	 	153330.6014	 	4.91209E-5	 	40302.59499	37.80685	 
1265.0	1.0	0.0	7.90156	7.1973	-1.0743	18.30307	34.93356	1.07875	0.927	120.22169	138.91558	44.33732	0.35576	 	164375.291	 	4.56719E-5	 	40113.86285	37.74643	 
1260.0	1.0	0.0	7.90406	7.19502	-1.10569	18.28569	34.845	1.07798	0.92766	120.70685	139.3097	44.52191	0.35559	 	176295.5137	 	4.24453E-5	 	39925.43239	37.68609	 
1255.0	1.0	0.0	7.90657	7.19273	-1.13704	18.2683	34.75645	1.0772	0.92833	121.19126	139.702	44.70627	0.35542	 	189166.8146	 	3.94283E-5	 	39737.30322	37.62584	 
1250.0	1.0	0.0	7.90908	7.19046	-1.16834	18.25089	34.6679	1.07642	0.92901	121.67492	140.09251	44.89039	0.35524	 	203071.7749	 	3.66083E-5	 	39549.47491	37.56566	 
1245.0	1.0	0.0	7.91158	7.18818	-1.1996	18.23347	34.57935	1.07563	0.92969	122.15783	140.48123	45.07429	0.35507	 	218100.7141	 	3.39738E-5	 	39361.94707	37.50557	 
1240.0	1.0	0.0	7.91408	7.18591	-1.23082	18.21604	34.4908	1.07484	0.93037	122.63998	140.86816	45.25795	0.3549	 	234352.4675	 	3.15137E-5	 	39174.71929	37.44556	 
1235.0	1.0	0.0	7.91658	7.18364	-1.26199	18.19859	34.40225	1.07405	0.93106	123.12139	141.25331	45.44139	0.35473	 	251935.2473	 	2.92175E-5	 	38987.79116	37.38563	 
1230.0	1.0	0.0	7.91907	7.18138	-1.29312	18.18114	34.3137	1.07325	0.93175	123.60204	141.63668	45.62459	0.35456	 	270967.5955	 	2.70752E-5	 	38801.16228	37.32578	 
1225.0	1.0	0.0	7.92157	7.17912	-1.3242	18.16367	34.22515	1.07245	0.93245	124.08193	142.01829	45.80756	0.35438	 	291579.4412	 	2.50775E-5	 	38614.83224	37.26601	 
1220.0	1.0	0.0	7.92406	7.17686	-1.35524	18.14618	34.1366	1.07164	0.93315	124.56108	142.39813	45.9903	0.35421	 	313913.2727	 	2.32156E-5	 	38428.80063	37.20632	 
1215.0	1.0	0.0	7.92655	7.1746	-1.38624	18.12869	34.04805	1.07083	0.93385	125.03947	142.77622	46.17281	0.35404	 	338125.4377	 	2.14811E-5	 	38243.06706	37.14671	 
1210.0	1.0	0.0	7.92904	7.17235	-1.41719	18.11118	33.9595	1.07002	0.93457	125.51712	143.15255	46.35509	0.35387	 	364387.5884	 	1.98659E-5	 	38057.63111	37.08719	 
1205.0	1.0	0.0	7.93153	7.1701	-1.44809	18.09367	33.87094	1.0692	0.93528	125.99401	143.52715	46.53714	0.35369	 	392888.2854	 	1.83627E-5	 	37872.49239	37.02774	 
1200.0	1.0	0.0	7.93401	7.16786	-1.47895	18.07614	33.78239	1.06837	0.936	126.47015	143.90001	46.71895	0.35352	 	423834.7823	 	1.69643E-5	 	37687.65048	36.96838	 
1195.0	1.0	0.0	7.93649	7.16562	-1.50977	18.0586	33.69384	1.06754	0.93673	126.94553	144.27113	46.90054	0.35335	 	457455.0098	 	1.56642E-5	 	37503.10499	36.9091	 
1190.0	1.0	0.0	7.93897	7.16338	-1.54054	18.04104	33.60529	1.06671	0.93746	127.42017	144.64054	47.08189	0.35318	 	493999.7851	 	1.4456E-5	 	37318.85549	36.8499	 
1185.0	1.0	0.0	7.94145	7.16114	-1.57127	18.02348	33.51674	1.06588	0.9382	127.89405	145.00822	47.26301	0.353	 	533745.2719	 	1.33338E-5	 	37134.90161	36.79078	 
1180.0	1.0	0.0	7.94393	7.15891	-1.60195	18.0059	33.42819	1.06503	0.93894	128.36718	145.37419	47.4439	0.35283	 	576995.7228	 	1.22921E-5	 	36951.24292	36.73174	 
1175.0	1.0	0.0	7.9464	7.15668	-1.63258	17.98831	33.33963	1.06419	0.93968	128.83956	145.73846	47.62456	0.35266	 	624086.5372	 	1.13254E-5	 	36767.87902	36.67278	 
1170.0	1.0	0.0	7.94887	7.15446	-1.66317	17.97071	33.25108	1.06334	0.94043	129.31119	146.10102	47.80498	0.35249	 	675387.6743	 	1.04291E-5	 	36584.80952	36.6139	 
1165.0	1.0	0.0	7.95134	7.15223	-1.69372	17.9531	33.16253	1.06248	0.94119	129.78207	146.46189	47.98518	0.35231	 	731307.4635	 	9.59822E-6	 	36402.034	36.5551	 
1160.0	1.0	0.0	7.95381	7.15001	-1.72422	17.93548	33.07398	1.06163	0.94195	130.25219	146.82107	48.16514	0.35214	 	792296.8631	 	8.82857E-6	 	36219.55208	36.49638	 
1155.0	1.0	0.0	7.95628	7.1478	-1.75467	17.91785	32.98543	1.06076	0.94272	130.72157	147.17857	48.34487	0.35197	 	858854.2212	 	8.11598E-6	 	36037.36333	36.43775	 
1150.0	1.0	0.0	7.95874	7.14559	-1.78508	17.9002	32.89687	1.05989	0.94349	131.19019	147.53439	48.52437	0.3518	 	931530.6037	 	7.45659E-6	 	35855.46736	36.37919	 
1145.0	1.0	0.0	7.9612	7.14338	-1.81544	17.88255	32.80832	1.05902	0.94427	131.65806	147.88855	48.70363	0.35162	 	1010935.759	 	6.84676E-6	 	35673.86377	36.32072	 
1140.0	1.0	0.0	7.96366	7.14117	-1.84576	17.86489	32.71977	1.05814	0.94505	132.12518	148.24103	48.88267	0.35145	 	1097744.801	 	6.28309E-6	 	35492.55215	36.26232	 
1135.0	1.0	0.0	7.96612	7.13897	-1.87603	17.84721	32.63122	1.05726	0.94584	132.59155	148.59186	49.06147	0.35128	 	1192705.703	 	5.76239E-6	 	35311.53211	36.20401	 
1130.0	1.0	0.0	7.96857	7.13677	-1.90626	17.82952	32.54267	1.05637	0.94664	133.05716	148.94103	49.24003	0.35111	 	1296647.705	 	5.28164E-6	 	35130.80323	36.14578	 
1125.0	1.0	0.0	7.97102	7.13457	-1.93643	17.81183	32.45411	1.05548	0.94744	133.52203	149.28856	49.41837	0.35094	 	1410490.754	 	4.83805E-6	 	34950.36512	36.08762	 
1120.0	1.0	0.0	7.97347	7.13238	-1.96657	17.79412	32.36556	1.05458	0.94824	133.98614	149.63444	49.59647	0.35076	 	1535256.109	 	4.42898E-6	 	34770.21738	36.02955	 
1115.0	1.0	0.0	7.97592	7.13019	-1.99665	17.77641	32.27701	1.05368	0.94905	134.44951	149.97869	49.77434	0.35059	 	1672078.266	 	4.05197E-6	 	34590.35961	35.97155	 
1110.0	1.0	0.0	7.97837	7.12801	-2.0267	17.75868	32.18845	1.05277	0.94987	134.91212	150.32131	49.95198	0.35042	 	1822218.38	 	3.70472E-6	 	34410.79139	35.91364	 
1105.0	1.0	0.0	7.98081	7.12583	-2.05669	17.74094	32.0999	1.05186	0.95069	135.37398	150.6623	50.12939	0.35025	 	1987079.369	 	3.38507E-6	 	34231.51234	35.85581	 
1103.91	1.0	0.0	7.98135	7.12535	-2.06325	17.73706	32.08052	1.05166	0.95088	135.47497	150.73672	50.16819	0.35021	 	2025278.065	 	3.31859E-6	 	34192.3106	 	 
1100.0	1.0	0.0	7.98346	7.12346	-2.08915	17.71479	32.02016	1.05066	0.95179	135.87045	151.02919	50.32009	0.35006	 	2175397.22	 	3.08082E-6	 	34039.68598	38.36527	 
1095.0	1.0	0.0	7.98615	7.12106	-2.12219	17.68644	31.94269	1.04937	0.95295	136.37535	151.40153	50.51408	0.34987	 	2385163.991	 	2.79964E-6	 	33844.8204	38.97312	 
1090.0	1.0	0.0	7.98884	7.11867	-2.1551	17.65827	31.865	1.04808	0.95412	136.8787	151.77154	50.70754	0.34969	 	2616692.15	 	2.5426E-6	 	33650.54296	38.85549	 
1085.0	1.0	0.0	7.99151	7.11628	-2.18787	17.63029	31.78711	1.0468	0.95529	137.38048	152.13923	50.90046	0.3495	 	2872399.737	 	2.30775E-6	 	33456.85139	38.73832	 
1080.0	1.0	0.0	7.99418	7.11391	-2.22052	17.60248	31.70899	1.04551	0.95647	137.88072	152.50461	51.09285	0.34932	 	3154991.702	 	2.09331E-6	 	33263.74339	38.6216	 
1075.0	1.0	0.0	7.99684	7.11154	-2.25303	17.57484	31.63067	1.04423	0.95764	138.3794	152.86769	51.2847	0.34913	 	3467495.563	 	1.89762E-6	 	33071.21661	38.50536	 
1070.0	1.0	0.0	7.99949	7.10918	-2.28542	17.54738	31.55213	1.04295	0.95882	138.87654	153.22848	51.47602	0.34894	 	3813302.864	 	1.71913E-6	 	32879.26865	38.38959	 
1065.0	1.0	0.0	8.00213	7.10684	-2.31769	17.52009	31.47338	1.04166	0.96	139.37213	153.587	51.66681	0.34876	 	4196215.194	 	1.55644E-6	 	32687.89703	38.27432	 
1060.0	1.0	0.0	8.00477	7.1045	-2.34983	17.49297	31.39443	1.04038	0.96119	139.86619	153.94325	51.85707	0.34857	 	4620497.235	 	1.40824E-6	 	32497.09925	38.15956	 
1055.0	1.0	0.0	8.00739	7.10217	-2.38184	17.46602	31.31526	1.0391	0.96237	140.35871	154.29724	52.04681	0.34839	 	5090936.566	 	1.27332E-6	 	32306.87273	38.0453	 
1050.0	1.0	0.0	8.01001	7.09985	-2.41374	17.43923	31.23589	1.03782	0.96356	140.8497	154.64898	52.23601	0.3482	 	5612911.738	 	1.15056E-6	 	32117.21485	37.93158	 
1045.0	1.0	0.0	8.01262	7.09754	-2.44551	17.41261	31.15631	1.03654	0.96475	141.33916	154.99849	52.42469	0.34802	 	6192470.006	 	1.03893E-6	 	31928.12293	37.81838	 
1040.0	1.0	0.0	8.01522	7.09523	-2.47717	17.38614	31.07652	1.03526	0.96594	141.8271	155.34578	52.61285	0.34784	 	6836415.686	 	9.37503E-7	 	31739.59423	37.70574	 
1035.0	1.0	0.0	8.01781	7.09294	-2.5087	17.35984	30.99653	1.03398	0.96714	142.31353	155.69085	52.80048	0.34765	 	7552410.725	 	8.45393E-7	 	31551.62597	37.59365	 
1030.0	1.0	0.0	8.0204	7.09065	-2.54012	17.33369	30.91634	1.0327	0.96834	142.79845	156.03372	52.9876	0.34747	 	8349089.558	 	7.61802E-7	 	31364.21527	37.48214	 
1025.0	1.0	0.0	8.02298	7.08838	-2.57143	17.3077	30.83595	1.03142	0.96954	143.28186	156.3744	53.17419	0.34729	 	9236191.023	 	6.85991E-7	 	31177.35925	37.37121	 
1020.0	1.0	0.0	8.02554	7.08611	-2.60262	17.28185	30.75536	1.03013	0.97075	143.76377	156.7129	53.36027	0.3471	 	1.022470675E7	 	6.17284E-7	 	30991.05495	37.26086	 
1015.0	1.0	0.0	8.02811	7.08385	-2.6337	17.25616	30.67458	1.02885	0.97195	144.24419	157.04924	53.54584	0.34692	 	1.132705477E7	 	5.55055E-7	 	30805.29933	37.15112	 
1010.0	1.0	0.0	8.03066	7.08159	-2.66466	17.23062	30.59359	1.02757	0.97317	144.72312	157.38342	53.73089	0.34674	 	1.255727401E7	 	4.98734E-7	 	30620.08936	37.042	 
1005.0	1.0	0.0	8.03321	7.07935	-2.69551	17.20522	30.51241	1.02629	0.97438	145.20057	157.71546	53.91543	0.34656	 	1.393125095E7	 	4.47794E-7	 	30435.42187	36.9335	 
1000.0	1.0	0.0	8.03575	7.07711	-2.72626	17.17997	30.43104	1.02501	0.9756	145.67655	158.04537	54.09947	0.34638	 	1.546697665E7	 	4.01755E-7	 	30251.29371	36.82563	 
995.0	1.0	0.0	8.03828	7.07488	-2.7569	17.15485	30.34949	1.02373	0.97682	146.15106	158.37316	54.283	0.3462	 	1.718484383E7	 	3.60173E-7	 	30067.70163	36.71842	 
990.0	1.0	0.0	8.0408	7.07266	-2.78743	17.12988	30.26774	1.02245	0.97805	146.6241	158.69884	54.46603	0.34601	 	1.910798691E7	 	3.22646E-7	 	29884.64235	36.61186	 
985.0	1.0	0.0	8.04332	7.07045	-2.81785	17.10504	30.1858	1.02116	0.97927	147.0957	159.02243	54.64856	0.34583	 	2.126267439E7	 	2.88803E-7	 	29702.11252	36.50596	 
980.0	1.0	0.0	8.04583	7.06824	-2.84817	17.08033	30.10368	1.01988	0.98051	147.56585	159.34394	54.83059	0.34565	 	2.367875857E7	 	2.58304E-7	 	29520.10878	36.40075	 
975.0	1.0	0.0	8.04833	7.06604	-2.87839	17.05576	30.02138	1.0186	0.98174	148.03457	159.66338	55.01212	0.34547	 	2.639019719E7	 	2.3084E-7	 	29338.62768	36.29622	 
970.0	1.0	0.0	8.05083	7.06385	-2.9085	17.03132	29.9389	1.01731	0.98298	148.50185	159.98077	55.19317	0.34529	 	2.943565154E7	 	2.06128E-7	 	29157.66573	36.19239	 
965.0	1.0	0.0	8.05332	7.06167	-2.93851	17.007	29.85624	1.01602	0.98423	148.96771	160.29611	55.37372	0.34511	 	3.285917796E7	 	1.83909E-7	 	28977.2194	36.08927	 
960.0	1.0	0.0	8.0558	7.05949	-2.96842	16.98281	29.77341	1.01474	0.98548	149.43216	160.60943	55.55379	0.34493	 	3.671102923E7	 	1.63948E-7	 	28797.28513	35.98685	 
955.0	1.0	0.0	8.05828	7.05732	-2.99824	16.95874	29.6904	1.01345	0.98673	149.89521	160.92073	55.73338	0.34475	 	4.104858012E7	 	1.46029E-7	 	28617.85929	35.88517	 
950.0	1.0	0.0	8.06075	7.05516	-3.02795	16.93479	29.60722	1.01216	0.98799	150.35686	161.23002	55.91249	0.34457	 	4.59373977E7	 	1.29957E-7	 	28438.93821	35.78422	 
945.0	1.0	0.0	8.06321	7.05301	-3.05757	16.91096	29.52387	1.01087	0.98925	150.81712	161.53733	56.09112	0.34439	 	5.145248689E7	 	1.15553E-7	 	28260.51819	35.684	 
940.0	1.0	0.0	8.06567	7.05086	-3.0871	16.88725	29.44036	1.00957	0.99052	151.276	161.84266	56.26927	0.34421	 	5.767972994E7	 	1.02654E-7	 	28082.59552	35.58454	 
935.0	1.0	0.0	8.06812	7.04872	-3.11653	16.86364	29.35668	1.00828	0.99179	151.73351	162.14603	56.44696	0.34404	 	6.471756035E7	 	9.11141E-8	 	27905.1664	35.48582	 
930.0	1.0	0.0	8.07056	7.04658	-3.14586	16.84015	29.27285	1.00698	0.99307	152.18967	162.44744	56.62418	0.34386	 	7.267891631E7	 	8.07975E-8	 	27728.22704	35.38787	 
925.0	1.0	0.0	8.073	7.04446	-3.17511	16.81676	29.18885	1.00568	0.99435	152.64447	162.74693	56.80094	0.34368	 	8.169350713E7	 	7.15831E-8	 	27551.77358	35.29069	 
920.0	1.0	0.0	8.07543	7.04233	-3.20426	16.79348	29.1047	1.00438	0.99564	153.09793	163.04449	56.97723	0.3435	 	9.19104545E7	 	6.33602E-8	 	27375.80216	35.19428	 
915.0	1.0	0.0	8.07785	7.04022	-3.23332	16.77031	29.02039	1.00308	0.99693	153.55006	163.34014	57.15307	0.34332	 	1.035013784E8	 	5.60289E-8	 	27200.30891	35.09865	 
910.0	1.0	0.0	8.08027	7.03811	-3.26229	16.74723	28.93594	1.00177	0.99823	154.00086	163.63389	57.32846	0.34314	 	1.166640087E8	 	4.94982E-8	 	27025.28987	35.00381	 
905.0	1.0	0.0	8.08269	7.03601	-3.29118	16.72426	28.85133	1.00046	0.99954	154.45035	163.92576	57.5034	0.34297	 	1.316263876E8	 	4.36862E-8	 	26850.74112	34.90975	 
900.0	1.0	0.0	8.08509	7.03392	-3.31998	16.70137	28.76658	0.99915	1.00085	154.89854	164.21577	57.67789	0.34279	 	1.486518079E8	 	3.85186E-8	 	26676.65869	34.81649	 
895.0	1.0	0.0	8.0875	7.03183	-3.34869	16.67859	28.68169	0.99784	1.00217	155.34544	164.50392	57.85194	0.34261	 	1.680446087E8	 	3.39282E-8	 	26503.03861	34.72402	 
890.0	1.0	0.0	8.08989	7.02974	-3.37732	16.65589	28.59666	0.99652	1.00349	155.79105	164.79023	58.02555	0.34243	 	1.901569443E8	 	2.98545E-8	 	26329.87688	34.63235	 
885.0	1.0	0.0	8.09228	7.02767	-3.40586	16.63328	28.51149	0.9952	1.00482	156.23539	165.07471	58.19872	0.34226	 	2.153967684E8	 	2.62429E-8	 	26157.1695	34.54148	 
880.0	1.0	0.0	8.09467	7.0256	-3.43432	16.61076	28.42619	0.99388	1.00616	156.67847	165.35738	58.37147	0.34208	 	2.442372142E8	 	2.30441E-8	 	25984.91244	34.45141	 
875.0	1.0	0.0	8.09705	7.02353	-3.46269	16.58832	28.34076	0.99255	1.0075	157.12029	165.63825	58.54378	0.3419	 	2.772276542E8	 	2.02138E-8	 	25813.10169	34.36215	 
870.0	1.0	0.0	8.09942	7.02147	-3.49099	16.56597	28.25519	0.99122	1.00886	157.56087	165.91733	58.71567	0.34173	 	3.15006718E8	 	1.77121E-8	 	25641.73322	34.27369	 
865.0	1.0	0.0	8.10179	7.01942	-3.5192	16.54369	28.1695	0.98989	1.01021	158.00022	166.19464	58.88715	0.34155	 	3.583176745E8	 	1.55031E-8	 	25470.803	34.18604	 
860.0	1.0	0.0	8.10415	7.01737	-3.54734	16.52149	28.08369	0.98855	1.01158	158.43835	166.47019	59.0582	0.34137	 	4.080266522E8	 	1.35546E-8	 	25300.30702	34.0992	 
855.0	1.0	0.0	8.10651	7.01533	-3.57539	16.49936	27.99776	0.98721	1.01296	158.87526	166.74399	59.22884	0.3412	 	4.651441086E8	 	1.18377E-8	 	25130.24123	34.01316	 
850.0	1.0	0.0	8.10886	7.0133	-3.60337	16.47731	27.91171	0.98586	1.01434	159.31097	167.01606	59.39908	0.34102	 	5.308504451E8	 	1.03265E-8	 	24960.60163	33.92792	 
845.0	1.0	0.0	8.11116	7.01131	-3.63068	16.45791	27.82261	0.98462	1.01562	159.73396	167.27758	59.56446	0.34085	 	6.058202635E8	 	9.0083E-9	 	24798.97064	32.3262	 
840.0	1.0	0.0	8.11346	7.00933	-3.65794	16.4385	27.73351	0.98337	1.01692	160.15617	167.53774	59.72961	0.34068	 	6.921987392E8	 	7.84891E-9	 	24634.30616	32.9329	 
835.0	1.0	0.0	8.11575	7.00735	-3.68516	16.41906	27.6444	0.9821	1.01822	160.57762	167.79653	59.89451	0.3405	 	7.91845016E8	 	6.83038E-9	 	24469.9091	32.87941	 
830.0	1.0	0.0	8.11804	7.00537	-3.71232	16.39961	27.5553	0.98083	1.01954	160.9983	168.05395	60.05917	0.34033	 	9.06941029E8	 	5.93666E-9	 	24305.7791	32.826	 
825.0	1.0	0.0	8.12032	7.0034	-3.73943	16.38013	27.46619	0.97956	1.02087	161.41822	168.31003	60.22358	0.34016	 	1.040050966E9	 	5.1534E-9	 	24141.91581	32.77266	 
820.0	1.0	0.0	8.12261	7.00143	-3.7665	16.36064	27.37709	0.97827	1.02221	161.83737	168.56475	60.38776	0.33998	 	1.194192307E9	 	4.46778E-9	 	23978.31885	32.71939	 
815.0	1.0	0.0	8.12489	6.99946	-3.79351	16.34112	27.28798	0.97698	1.02357	162.25575	168.81813	60.55168	0.33981	 	1.372920822E9	 	3.86839E-9	 	23814.98788	32.66619	 
810.0	1.0	0.0	8.12717	6.9975	-3.82047	16.32158	27.19887	0.97567	1.02493	162.67337	169.07016	60.71537	0.33964	 	1.580432412E9	 	3.34503E-9	 	23651.92253	32.61307	 
805.0	1.0	0.0	8.12944	6.99554	-3.84739	16.30202	27.10976	0.97436	1.02631	163.09022	169.32086	60.87881	0.33947	 	1.821685316E9	 	2.88863E-9	 	23489.12245	32.56002	 
800.0	1.0	0.0	8.13171	6.99359	-3.87425	16.28244	27.02065	0.97304	1.02771	163.5063	169.57022	61.042	0.33929	 	2.10254697E9	 	2.49116E-9	 	23326.58727	32.50704	 
795.0	1.0	0.0	8.13398	6.99164	-3.90107	16.26285	26.93154	0.97171	1.02911	163.92162	169.81826	61.20495	0.33912	 	2.429970761E9	 	2.14545E-9	 	23164.31663	32.45413	 
790.0	1.0	0.0	8.13625	6.98969	-3.92783	16.24322	26.84243	0.97037	1.03053	164.33617	170.06497	61.36766	0.33895	 	2.812209088E9	 	1.84516E-9	 	23002.3102	32.40129	 
785.0	1.0	0.0	8.13851	6.98775	-3.95454	16.22358	26.75331	0.96903	1.03196	164.74996	170.31036	61.53012	0.33877	 	3.259070579E9	 	1.58467E-9	 	22840.5676	32.34852	 
780.0	1.0	0.0	8.14077	6.98581	-3.98121	16.20392	26.6642	0.96767	1.03341	165.16298	170.55444	61.69234	0.3386	 	3.782231115E9	 	1.35903E-9	 	22679.08848	32.29582	 
775.0	1.0	0.0	8.14303	6.98387	-4.00782	16.18424	26.57508	0.96631	1.03487	165.57523	170.7972	61.85432	0.33843	 	4.395610504E9	 	1.16383E-9	 	22517.87249	32.2432	 
770.0	1.0	0.0	8.14528	6.98194	-4.03439	16.16454	26.48597	0.96493	1.03634	165.98672	171.03866	62.01605	0.33826	 	5.115829405E9	 	9.95216E-10	 	22356.91927	32.19064	 
765.0	1.0	0.0	8.14753	6.98001	-4.0609	16.14481	26.39685	0.96355	1.03783	166.39745	171.27881	62.17754	0.33808	 	5.96276451E9	 	8.49766E-10	 	22196.22847	32.13816	 
760.0	1.0	0.0	8.14978	6.97808	-4.08736	16.12507	26.30773	0.96216	1.03933	166.80741	171.51767	62.33878	0.33791	 	6.960224219E9	 	7.24481E-10	 	22035.79974	32.08575	 
755.0	1.0	0.0	8.15203	6.97616	-4.11377	16.1053	26.21861	0.96076	1.04085	167.2166	171.75523	62.49978	0.33774	 	8.136772367E9	 	6.16724E-10	 	21875.63273	32.0334	 
750.0	1.0	0.0	8.15427	6.97425	-4.14013	16.08552	26.12949	0.95934	1.04238	167.62503	171.99151	62.66053	0.33756	 	9.526734119E9	 	5.24182E-10	 	21715.72709	31.98113	 
745.0	1.0	0.0	8.15651	6.97233	-4.16644	16.06571	26.04037	0.95792	1.04392	168.03269	172.22649	62.82104	0.33739	 	1.11714E10	 	4.44826E-10	 	21556.08247	31.92892	 
740.0	1.0	0.0	8.15874	6.97042	-4.1927	16.04589	25.95124	0.95649	1.04549	168.43959	172.4602	62.98131	0.33722	 	1.3120699999999998E10	 	3.76881E-10	 	21396.69851	31.87679	 
735.0	1.0	0.0	8.16097	6.96851	-4.21891	16.02604	25.86212	0.95505	1.04706	168.84572	172.69263	63.14133	0.33705	 	1.5434599999999998E10	 	3.18798E-10	 	21237.57488	31.82473	 
730.0	1.0	0.0	8.1632	6.96661	-4.24507	16.00617	25.77299	0.9536	1.04866	169.25109	172.92378	63.3011	0.33687	 	1.81861E10	 	2.69224E-10	 	21078.71122	31.77273	 
725.0	1.0	0.0	8.16543	6.96471	-4.27117	15.98628	25.68387	0.95214	1.05026	169.6557	173.15367	63.46064	0.3367	 	2.14633E10	 	2.26979E-10	 	20920.10719	31.72081	 
720.0	1.0	0.0	8.16765	6.96282	-4.29723	15.96637	25.59474	0.95067	1.05189	170.05954	173.38229	63.61992	0.33653	 	2.5373399999999996E10	 	1.9104E-10	 	20761.76244	31.66895	 
715.0	1.0	0.0	8.16987	6.96092	-4.32323	15.94644	25.50561	0.94919	1.05353	170.46261	173.60966	63.77896	0.33635	 	3.0046599999999996E10	 	1.60515E-10	 	20603.67663	31.61716	 
710.0	1.0	0.0	8.17209	6.95904	-4.34918	15.92649	25.41648	0.9477	1.05519	170.86492	173.83576	63.93776	0.33618	 	3.56417E10	 	1.34632E-10	 	20445.84942	31.56544	 
705.0	1.0	0.0	8.1743	6.95715	-4.37508	15.90652	25.32735	0.9462	1.05686	171.26647	174.06061	64.09631	0.33601	 	4.23527E10	 	1.12723E-10	 	20288.28046	31.51379	 
700.0	1.0	0.0	8.17651	6.95527	-4.40093	15.88653	25.23821	0.94469	1.05855	171.66725	174.28422	64.25462	0.33584	 	5.041649999999999E10	 	9.42093E-11	 	20130.96941	31.46221	 
695.0	1.0	0.0	8.17872	6.95339	-4.42673	15.86651	25.14908	0.94316	1.06026	172.06727	174.50658	64.41268	0.33566	 	6.012379999999999E10	 	7.85928E-11	 	19973.91593	31.4107	 
690.0	1.0	0.0	8.18092	6.95152	-4.45247	15.84648	25.05994	0.94163	1.06199	172.46653	174.7277	64.5705	0.33549	 	7.18314E10	 	6.54435E-11	 	19817.11969	31.35925	 
685.0	1.0	0.0	8.18312	6.94965	-4.47816	15.82643	24.97081	0.94008	1.06373	172.86502	174.94758	64.72807	0.33532	 	8.59782E10	 	5.43916E-11	 	19660.58034	31.30787	 
680.0	1.0	0.0	8.18532	6.94779	-4.50381	15.80635	24.88167	0.93853	1.0655	173.26274	175.16623	64.88539	0.33514	 	1.03105E11	 	4.51197E-11	 	19504.29755	31.25656	 
675.0	1.0	0.0	8.18751	6.94592	-4.52939	15.78626	24.79253	0.93696	1.06728	173.65971	175.38365	65.04247	0.33497	 	1.23882E11	 	3.73557E-11	 	19348.27098	31.20531	 
670.0	1.0	0.0	8.18971	6.94407	-4.55493	15.76614	24.70339	0.93538	1.06908	174.05591	175.59985	65.19931	0.3348	 	1.49134E11	 	3.08667E-11	 	19192.50031	31.15413	 
665.0	1.0	0.0	8.19189	6.94221	-4.58042	15.746	24.61425	0.9338	1.0709	174.45134	175.81483	65.3559	0.33463	 	1.7989E11	 	2.54537E-11	 	19036.98519	31.10302	 
660.0	1.0	0.0	8.19408	6.94036	-4.60585	15.72584	24.52511	0.93219	1.07274	174.84602	176.02859	65.51224	0.33445	 	2.17425E11	 	2.09473E-11	 	18881.72528	31.05198	 
655.0	1.0	0.0	8.19626	6.93852	-4.63123	15.70567	24.43596	0.93058	1.0746	175.23993	176.24113	65.66834	0.33428	 	2.63329E11	 	1.72031E-11	 	18726.72027	31.001	 
650.0	1.0	0.0	8.19843	6.93667	-4.65656	15.68547	24.34682	0.92896	1.07647	175.63307	176.45247	65.82419	0.33411	 	3.19586E11	 	1.40984E-11	 	18571.96983	30.95009	 
645.0	1.0	0.0	8.20061	6.93483	-4.68183	15.66525	24.25767	0.92732	1.07837	176.02545	176.66261	65.9798	0.33393	 	3.88682E11	 	1.15294E-11	 	18417.47361	30.89924	 
640.0	1.0	0.0	8.20278	6.933	-4.70705	15.64501	24.16852	0.92567	1.08029	176.41707	176.87154	66.13516	0.33376	 	4.7373E11	 	9.40801E-12	 	18263.23131	30.84846	 
635.0	1.0	0.0	8.20495	6.93117	-4.73222	15.62475	24.07937	0.92401	1.08223	176.80793	177.07927	66.29028	0.33359	 	5.78647E11	 	7.66003E-12	 	18109.24259	30.79774	 
630.0	1.0	0.0	8.20711	6.92934	-4.75734	15.60447	23.99022	0.92234	1.0842	177.19802	177.28581	66.44515	0.33342	 	7.08368E11	 	6.22282E-12	 	17955.50712	30.74709	 
625.0	1.0	0.0	8.20927	6.92752	-4.7824	15.58416	23.90107	0.92066	1.08618	177.58735	177.49117	66.59977	0.33324	 	8.69125E11	 	5.04375E-12	 	17802.0246	30.6965	 
620.0	1.0	0.0	8.21143	6.9257	-4.80741	15.56384	23.81192	0.91896	1.08819	177.97592	177.69533	66.75415	0.33307	 	1.06881E12	 	4.0786E-12	 	17648.79469	30.64598	 
615.0	1.0	0.0	8.21358	6.92388	-4.83237	15.5435	23.72276	0.91725	1.09022	178.36373	177.89831	66.90828	0.3329	 	1.31743E12	 	3.29037E-12	 	17495.81708	30.59552	 
610.0	1.0	0.0	8.21573	6.92207	-4.85728	15.52313	23.63361	0.91553	1.09227	178.75077	178.10012	67.06216	0.33272	 	1.62774E12	 	2.6481E-12	 	17343.09144	30.54513	 
605.0	1.0	0.0	8.21788	6.92026	-4.88213	15.50275	23.54445	0.91379	1.09434	179.13705	178.30075	67.2158	0.33255	 	2.016E12	 	2.12601E-12	 	17190.61747	30.49479	 
600.0	1.0	0.0	8.22002	6.91846	-4.90693	15.48234	23.45529	0.91204	1.09644	179.52256	178.50021	67.36919	0.33238	 	2.50298E12	 	1.70262E-12	 	17038.39485	30.44452	 
595.0	1.0	0.0	8.22216	6.91666	-4.93167	15.46192	23.36613	0.91028	1.09857	179.90732	178.6985	67.52234	0.33221	 	3.11535E12	 	1.36011E-12	 	16886.42327	30.39432	 
590.0	1.0	0.0	8.2243	6.91486	-4.95636	15.44147	23.27697	0.9085	1.10071	180.29131	178.89563	67.67524	0.33203	 	3.88739E12	 	1.08372E-12	 	16734.70242	30.34417	 
585.0	1.0	0.0	8.22643	6.91307	-4.981	15.421	23.1878	0.90671	1.10289	180.67454	179.0916	67.82789	0.33186	 	4.86328E12	 	8.61233E-13	 	16583.23198	30.29409	 
580.0	1.0	0.0	8.22856	6.91128	-5.00558	15.40052	23.09864	0.90491	1.10508	181.05701	179.28641	67.9803	0.33169	 	6.10015E12	 	6.82608E-13	 	16432.01165	30.24407	 
575.0	1.0	0.0	8.23068	6.9095	-5.03011	15.38001	23.00947	0.90309	1.10731	181.43871	179.48007	68.13246	0.33151	 	7.67207E12	 	5.39569E-13	 	16281.04112	30.19411	 
570.0	1.0	0.0	8.2328	6.90771	-5.05459	15.35948	22.9203	0.90126	1.10956	181.81966	179.67258	68.28437	0.33134	 	9.67533E12	 	4.2533E-13	 	16130.32011	30.1442	 
565.0	1.0	0.0	8.23492	6.90594	-5.07901	15.33893	22.83114	0.89942	1.11183	182.19984	179.86394	68.43604	0.33117	 	1.22355E13	 	3.3434E-13	 	15979.84829	30.09436	 
560.0	1.0	0.0	8.23704	6.90416	-5.10338	15.31836	22.74196	0.89756	1.11414	182.57926	180.05416	68.58746	0.331	 	1.55167E13	 	2.62066E-13	 	15829.62538	30.04458	 
555.0	1.0	0.0	8.23915	6.9024	-5.12769	15.29777	22.65279	0.89568	1.11647	182.95791	180.24325	68.73863	0.33082	 	1.97344E13	 	2.0482E-13	 	15679.65107	29.99486	 
550.0	1.0	0.0	8.24126	6.90063	-5.15195	15.27715	22.56362	0.89379	1.11883	183.33581	180.4312	68.88955	0.33065	 	2.5172E13	 	1.59606E-13	 	15529.92508	29.9452	 
545.0	1.0	0.0	8.24336	6.89887	-5.17616	15.25652	22.47444	0.89189	1.12122	183.71294	180.61801	69.04023	0.33048	 	3.22034E13	 	1.23999E-13	 	15380.4471	29.8956	 
540.0	1.0	0.0	8.24546	6.89711	-5.20031	15.23587	22.38527	0.88997	1.12364	184.08932	180.8037	69.19066	0.3303	 	4.1324E13	 	9.60406E-14	 	15231.21686	29.84605	 
535.0	1.0	0.0	8.24756	6.89536	-5.22441	15.21519	22.29609	0.88803	1.12608	184.46493	180.98827	69.34085	0.33013	 	5.31916E13	 	7.41541E-14	 	15082.23406	29.79656	 
530.0	1.0	0.0	8.24965	6.89361	-5.24845	15.1945	22.20691	0.88608	1.12856	184.83977	181.17171	69.49078	0.32996	 	6.8683E13	 	5.70734E-14	 	14933.49842	29.74713	 
525.0	1.0	0.0	8.25174	6.89187	-5.27244	15.17379	22.11772	0.88412	1.13107	185.21386	181.35404	69.64047	0.32979	 	8.89705E13	 	4.3785E-14	 	14785.00967	29.69775	 
520.0	1.0	0.0	8.25382	6.89012	-5.29637	15.15305	22.02854	0.88214	1.13361	185.58719	181.53526	69.78991	0.32961	 	1.15627E14	 	3.34797E-14	 	14636.76749	29.64843	 
515.0	1.0	0.0	8.2559	6.88839	-5.32025	15.13229	21.93936	0.88014	1.13618	185.95975	181.71536	69.93911	0.32944	 	1.50771E14	 	2.5514E-14	 	14488.77165	29.59917	 
510.0	1.0	0.0	8.25798	6.88665	-5.34407	15.11152	21.85017	0.87812	1.13879	186.33156	181.89436	70.08805	0.32927	 	1.97264E14	 	1.93769E-14	 	14341.02186	29.54996	 
505.0	1.0	0.0	8.26006	6.88492	-5.36784	15.09072	21.76098	0.87609	1.14143	186.7026	182.07225	70.23675	0.32909	 	2.5898699999999997E14	 	1.46647E-14	 	14193.51784	29.50081	 
500.0	1.0	0.0	8.26213	6.8832	-5.39155	15.0699	21.67179	0.87405	1.1441	187.07288	182.24904	70.3852	0.32892	 	3.41221E14	 	1.1059E-14	 	14046.25933	29.4517	 
495.0	1.0	0.0	8.26419	6.88148	-5.41521	15.04906	21.5826	0.87198	1.14681	187.4424	182.42474	70.53341	0.32875	 	4.51184E14	 	8.30957E-15	 	13899.24606	29.40265	 
490.0	1.0	0.0	8.26626	6.87976	-5.43881	15.0282	21.49341	0.8699	1.14955	187.81116	182.59934	70.68136	0.32858	 	5.98772E14	 	6.22064E-15	 	13752.47778	29.35366	 
485.0	1.0	0.0	8.26832	6.87805	-5.46236	15.00732	21.40421	0.8678	1.15233	188.17915	182.77286	70.82907	0.3284	 	7.9761E14	 	4.63929E-15	 	13605.95422	29.30471	 
480.0	1.0	0.0	8.27037	6.87634	-5.48585	14.98642	21.31501	0.86569	1.15515	188.54639	182.94528	70.97653	0.32823	 	1.06653E15	 	3.44664E-15	 	13459.67512	29.25582	 
475.0	1.0	0.0	8.27242	6.87463	-5.50929	14.9655	21.22581	0.86356	1.158	188.91287	183.11663	71.12374	0.32806	 	1.43167E15	 	2.55055E-15	 	13313.64024	29.20698	 
470.0	1.0	0.0	8.27447	6.87293	-5.53267	14.94455	21.13661	0.8614	1.16089	189.27858	183.28689	71.2707	0.32788	 	1.92944E15	 	1.87989E-15	 	13167.84933	29.15818	 
465.0	1.0	0.0	8.27651	6.87123	-5.55599	14.92359	21.04741	0.85924	1.16383	189.64354	183.45608	71.41741	0.32771	 	2.61081E15	 	1.37992E-15	 	13022.30214	29.10944	 
460.0	1.0	0.0	8.27855	6.86954	-5.57926	14.90261	20.95821	0.85705	1.1668	190.00773	183.62419	71.56388	0.32754	 	3.54742E15	 	1.00871E-15	 	12876.99844	29.06074	 
455.0	1.0	0.0	8.28059	6.86785	-5.60248	14.8816	20.869	0.85484	1.16981	190.37116	183.79123	71.7101	0.32737	 	4.84036E15	 	7.34226E-16	 	12731.93798	29.01209	 
450.0	1.0	0.0	8.28262	6.86617	-5.62564	14.86058	20.77979	0.85262	1.17286	190.73383	183.95721	71.85607	0.32719	 	6.63298E15	 	5.32116E-16	 	12587.12053	28.96349	 
445.0	1.0	0.0	8.28465	6.86449	-5.64874	14.83953	20.69058	0.85037	1.17596	191.09575	184.12212	72.00179	0.32702	 	9.12947E15	 	3.83934E-16	 	12442.54588	28.91493	 
440.0	1.0	0.0	8.28667	6.86281	-5.67178	14.81847	20.60137	0.84811	1.1791	191.4569	184.28598	72.14726	0.32685	 	1.2622E16	 	2.75765E-16	 	12298.21377	28.86642	 
435.0	1.0	0.0	8.28869	6.86114	-5.69477	14.79738	20.51216	0.84582	1.18228	191.81729	184.44877	72.29248	0.32668	 	1.7530600000000002E16	 	1.97158E-16	 	12154.12402	28.81795	 
430.0	1.0	0.0	8.29071	6.85947	-5.71771	14.77627	20.42294	0.84352	1.18551	192.17692	184.61051	72.43746	0.3265	 	2.44621E16	 	1.40294E-16	 	12010.27638	28.76953	 
425.0	1.0	0.0	8.29272	6.85781	-5.74058	14.75514	20.33373	0.8412	1.18878	192.53579	184.77121	72.58218	0.32633	 	3.4297700000000004E16	 	9.93507E-17	 	11866.67066	28.72114	 
420.0	1.0	0.0	8.29473	6.85615	-5.7634	14.73399	20.24451	0.83885	1.1921	192.8939	184.93085	72.72666	0.32616	 	4.83228E16	 	7.00103E-17	 	11723.30665	28.6728	 
415.0	1.0	0.0	8.29673	6.85449	-5.78617	14.71282	20.15529	0.83649	1.19547	193.25125	185.08945	72.87089	0.32598	 	6.8423200000000008E16	 	4.9087E-17	 	11580.18414	28.6245	 
410.0	1.0	0.0	8.29873	6.85284	-5.80887	14.69163	20.06606	0.8341	1.19889	193.60784	185.24701	73.01487	0.32581	 	9.73791E16	 	3.42402E-17	 	11437.30295	28.57624	 
405.0	1.0	0.0	8.30073	6.85119	-5.83152	14.67042	19.97684	0.8317	1.20236	193.96367	185.40353	73.1586	0.32564	 	1.39312E17	 	2.37588E-17	 	11294.66287	28.52802	 
400.0	1.0	0.0	8.30272	6.84955	-5.85412	14.64919	19.88761	0.82927	1.20588	194.31874	185.55901	73.30208	0.32547	 	2.00365E17	 	1.63975E-17	 	11152.26373	28.47983	 
395.0	1.0	0.0	8.30471	6.84791	-5.87665	14.62794	19.79838	0.82682	1.20945	194.67305	185.71347	73.44531	0.32529	 	2.89745E17	 	1.1255E-17	 	11010.10536	28.43168	 
390.0	1.0	0.0	8.30669	6.84627	-5.89913	14.60667	19.70915	0.82435	1.21308	195.0266	185.86689	73.58829	0.32512	 	4.21334E17	 	7.68195E-18	 	10868.18756	28.38356	 
385.0	1.0	0.0	8.30867	6.84464	-5.92156	14.58537	19.61992	0.82185	1.21676	195.37939	186.01929	73.73102	0.32495	 	6.16181E17	 	5.21319E-18	 	10726.51017	28.33548	 
380.0	1.0	0.0	8.31065	6.84301	-5.94392	14.56406	19.53068	0.81934	1.2205	195.73142	186.17067	73.8735	0.32477	 	9.06394E17	 	3.51708E-18	 	10585.07304	28.28743	 
375.0	1.0	0.0	8.31262	6.84139	-5.96623	14.54272	19.44145	0.81679	1.2243	196.08269	186.32103	74.01573	0.3246	 	1.34126E18	 	2.35858E-18	 	10443.87601	28.23941	 
370.0	1.0	0.0	8.31459	6.83977	-5.98848	14.52137	19.35221	0.81423	1.22815	196.4332	186.47037	74.15772	0.32443	 	1.99689E18	 	1.57198E-18	 	10302.91893	28.19142	 
365.0	1.0	0.0	8.31655	6.83815	-6.01068	14.49999	19.26296	0.81164	1.23207	196.78295	186.6187	74.29945	0.32426	 	2.99159E18	 	1.04113E-18	 	10162.20165	28.14345	 
360.0	1.0	0.0	8.31851	6.83654	-6.03281	14.47859	19.17372	0.80903	1.23604	197.13194	186.76602	74.44093	0.32408	 	4.5105E18	 	6.85123E-19	 	10021.72406	28.09552	 
355.0	1.0	0.0	8.32047	6.83494	-6.05489	14.45718	19.08448	0.8064	1.24008	197.48017	186.91233	74.58217	0.32391	 	6.8452E18	 	4.47882E-19	 	9881.48601	28.04761	 
350.0	1.0	0.0	8.32242	6.83334	-6.07691	14.43574	18.99523	0.80374	1.24419	197.82765	187.05764	74.72315	0.32374	 	1.04581E19	 	2.9082E-19	 	9741.48738	27.99973	 
345.0	1.0	0.0	8.32436	6.83174	-6.09888	14.41428	18.90598	0.80105	1.24836	198.17436	187.20195	74.86388	0.32356	 	1.60879E19	 	1.87534E-19	 	9601.72808	27.95186	 
340.0	1.0	0.0	8.32631	6.83014	-6.12078	14.3928	18.81672	0.79834	1.2526	198.52031	187.34525	75.00436	0.32339	 	2.49228E19	 	1.20076E-19	 	9462.20798	27.90402	 
335.0	1.0	0.0	8.32824	6.82855	-6.14263	14.3713	18.72747	0.79561	1.2569	198.86551	187.48757	75.1446	0.32322	 	3.88883E19	 	7.6327E-20	 	9322.927	27.8562	 
330.0	1.0	0.0	8.33018	6.82697	-6.16442	14.34978	18.63821	0.79284	1.26128	199.20994	187.62889	75.28458	0.32305	 	6.11287E19	 	4.81578E-20	 	9183.88506	27.80839	 
325.0	1.0	0.0	8.33211	6.82539	-6.18615	14.32824	18.54895	0.79005	1.26574	199.55362	187.76922	75.42431	0.32287	 	9.68178E19	 	3.01538E-20	 	9045.08206	27.7606	 
320.0	1.0	0.0	8.33403	6.82381	-6.20783	14.30668	18.45969	0.78724	1.27026	199.89653	187.90856	75.56379	0.3227	 	1.54537E20	 	1.87335E-20	 	8906.51794	27.71282	 
315.0	1.0	0.0	8.33595	6.82224	-6.22944	14.28509	18.37043	0.7844	1.27487	200.23869	188.04693	75.70302	0.32253	 	2.4863399999999997E20	 	1.15455E-20	 	8768.19265	27.66506	 
310.0	1.0	0.0	8.33787	6.82067	-6.251	14.26349	18.28116	0.78152	1.27955	200.58009	188.18431	75.842	0.32235	 	4.03304E20	 	7.05723E-21	 	8630.10613	27.6173	 
305.0	1.0	0.0	8.33978	6.81911	-6.2725	14.24187	18.19189	0.77863	1.28431	200.92073	188.32071	75.98073	0.32218	 	6.596859999999999E20	 	4.2775E-21	 	8492.25834	27.56956	 
300.0	1.0	0.0	8.34169	6.81755	-6.29394	14.22022	18.10262	0.7757	1.28916	201.26061	188.45614	76.11921	0.32201	 	1.0883500000000001E21	 	2.5703E-21	 	8354.64926	27.52182	 
295.0	1.0	0.0	8.34359	6.81599	-6.31532	14.19856	18.01335	0.77274	1.29409	201.59973	188.5906	76.25744	0.32184	 	1.81147E21	 	1.5308E-21	 	8217.27886	27.47408	 
290.0	1.0	0.0	8.34549	6.81444	-6.33664	14.17687	17.92407	0.76976	1.29911	201.93809	188.72408	76.39541	0.32166	 	3.04243E21	 	9.03422E-22	 	8080.14715	27.42634	 
285.0	1.0	0.0	8.34739	6.81289	-6.3579	14.15516	17.83479	0.76674	1.30422	202.27569	188.85661	76.53314	0.32149	 	5.15756E21	 	5.28194E-22	 	7943.25412	27.37861	 
280.0	1.0	0.0	8.34928	6.81135	-6.37911	14.13344	17.74551	0.7637	1.30942	202.61254	188.98817	76.67061	0.32132	 	8.82697E21	 	3.05857E-22	 	7806.59978	27.33087	 
275.0	1.0	0.0	8.35117	6.80981	-6.40026	14.11169	17.65623	0.76062	1.31472	202.94862	189.11876	76.80783	0.32115	 	1.5255899999999999E22	 	1.75367E-22	 	7670.18416	27.28312	 
270.0	1.0	0.0	8.35305	6.80828	-6.42134	14.08992	17.56694	0.75751	1.32011	203.28395	189.2484	76.9448	0.32097	 	2.6634099999999997E22	 	9.95335E-23	 	7534.00731	27.23537	 
265.0	1.0	0.0	8.35493	6.80675	-6.44237	14.06813	17.47765	0.75437	1.3256	203.61852	189.37709	77.08152	0.3208	 	4.69823E22	 	5.59057E-23	 	7398.06929	27.18761	 
260.0	1.0	0.0	8.3568	6.80522	-6.46334	14.04632	17.38836	0.7512	1.3312	203.95233	189.50482	77.21799	0.32063	 	8.376349999999999E22	 	3.10657E-23	 	7262.37015	27.13983	 
255.0	1.0	0.0	8.35867	6.8037	-6.48425	14.02449	17.29907	0.748	1.3369	204.28538	189.63161	77.35421	0.32045	 	1.5098399999999998E23	 	1.70732E-23	 	7126.90999	27.09203	 
250.0	1.0	0.0	8.36053	6.80218	-6.5051	14.00264	17.20977	0.74476	1.34271	204.61767	189.75745	77.49017	0.32028	 	2.7522999999999997E23	 	9.2772E-24	 	6991.68887	27.04422	 
245.0	1.0	0.0	8.36239	6.80067	-6.52589	13.98076	17.12047	0.74149	1.34863	204.9492	189.88234	77.62589	0.32011	 	5.075689999999999E23	 	4.9825E-24	 	6856.70693	26.99639	 
240.0	1.0	0.0	8.36425	6.79916	-6.54662	13.95887	17.03117	0.73819	1.35467	205.27998	190.00629	77.76135	0.31994	 	9.472699999999999E23	 	2.64398E-24	 	6721.96429	26.94853	 
235.0	1.0	0.0	8.3661	6.79766	-6.56729	13.93696	16.94187	0.73485	1.36083	205.60999	190.12931	77.89656	0.31976	 	1.78972E24	 	1.38578E-24	 	6587.46108	26.90064	 
230.0	1.0	0.0	8.36794	6.79616	-6.5879	13.91502	16.85256	0.73147	1.36711	205.93925	190.25139	78.03151	0.31959	 	3.42443E24	 	7.17127E-25	 	6453.19747	26.85272	 
225.0	1.0	0.0	8.36978	6.79466	-6.60846	13.89307	16.76325	0.72806	1.37351	206.26775	190.37254	78.16622	0.31942	 	6.63816E24	 	3.66268E-25	 	6319.17362	26.80477	 
220.0	1.0	0.0	8.37162	6.79317	-6.62895	13.87109	16.67394	0.72461	1.38004	206.59549	190.49275	78.30067	0.31924	 	1.30418E25	 	1.84556E-25	 	6185.38972	26.75678	 
215.0	1.0	0.0	8.37345	6.79169	-6.64938	13.8491	16.58462	0.72113	1.38671	206.92247	190.61204	78.43487	0.31907	 	2.59797E25	 	9.17078E-26	 	6051.84599	26.70875	 
210.0	1.0	0.0	8.37528	6.7902	-6.66975	13.82708	16.4953	0.71761	1.39352	207.2487	190.73041	78.56882	0.3189	 	5.249590000000001E25	 	4.49203E-26	 	5918.54262	26.66067	 
205.0	1.0	0.0	8.3771	6.78873	-6.69007	13.80505	16.40598	0.71405	1.40046	207.57416	190.84785	78.70252	0.31873	 	1.0764800000000001E26	 	2.16793E-26	 	5785.47989	26.61255	 
200.0	1.0	0.0	8.37892	6.78725	-6.71032	13.78299	16.31666	0.71045	1.40756	207.89887	190.96438	78.83596	0.31855	 	2.2411900000000004E26	 	1.0304E-26	 	5652.65803	26.56437	 
195.0	1.0	0.0	8.38074	6.78578	-6.73051	13.76091	16.22733	0.70681	1.4148	208.22282	191.07999	78.96915	0.31838	 	4.7397400000000005E26	 	4.82078E-27	 	5520.07734	26.51614	 
190.0	1.0	0.0	8.38255	6.78432	-6.75064	13.73881	16.138	0.70313	1.4222	208.54601	191.19468	79.10209	0.31821	 	1.0187099999999999E27	 	2.21899E-27	 	5387.7381	26.46785	 
185.0	1.0	0.0	8.38435	6.78286	-6.77071	13.71669	16.04866	0.69941	1.42977	208.86845	191.30846	79.23478	0.31804	 	2.2263999999999998E27	 	1.00436E-27	 	5255.64064	26.41949	 
180.0	1.0	0.0	8.38615	6.7814	-6.79072	13.69455	15.95933	0.69565	1.4375	209.19012	191.42134	79.36721	0.31786	 	4.95049E27	 	4.46766E-28	 	5123.78529	26.37107	 
175.0	1.0	0.0	8.38795	6.77995	-6.81067	13.67239	15.86999	0.69185	1.4454	209.51104	191.5333	79.49939	0.31769	 	1.1205600000000001E28	 	1.95197E-28	 	4992.1724	26.32258	 
170.0	1.0	0.0	8.38974	6.7785	-6.83056	13.65021	15.78065	0.68801	1.45348	209.8312	191.64437	79.63131	0.31752	 	2.58364E28	 	8.37155E-29	 	4860.80234	26.27401	 
165.0	1.0	0.0	8.39152	6.77706	-6.85039	13.628	15.6913	0.68412	1.46174	210.1506	191.75453	79.76299	0.31734	 	6.07164E28	 	3.52211E-29	 	4729.67552	26.22536	 
160.0	1.0	0.0	8.3933	6.77562	-6.87015	13.60578	15.60195	0.68018	1.47019	210.46924	191.8638	79.89441	0.31717	 	1.45528E29	 	1.45271E-29	 	4598.79235	26.17663	 
155.0	1.0	0.0	8.39508	6.77419	-6.88986	13.58354	15.5126	0.6762	1.47884	210.78713	191.97216	80.02557	0.317	 	3.5600500000000005E29	 	5.86984E-30	 	4468.15326	26.12782	 
150.0	1.0	0.0	8.39685	6.77276	-6.9095	13.56127	15.42324	0.67218	1.4877	211.10426	192.07964	80.15649	0.31683	 	8.895000000000001E29	 	2.32185E-30	 	4337.75869	26.07891	 
145.0	1.0	0.0	8.39862	6.77134	-6.92909	13.53899	15.33389	0.66811	1.49677	211.42063	192.18623	80.28715	0.31665	 	2.27168E30	 	8.98405E-31	 	4207.60912	26.02991	 
140.0	1.0	0.0	8.40038	6.76992	-6.94861	13.51668	15.24452	0.66399	1.50605	211.73624	192.29192	80.41755	0.31648	 	5.93476E30	 	3.39775E-31	 	4077.70504	25.98082	 
135.0	1.0	0.0	8.40214	6.7685	-6.96807	13.49435	15.15516	0.65982	1.51557	212.05109	192.39674	80.54771	0.31631	 	1.58737E31	 	1.25496E-31	 	3948.04694	25.93162	 
130.0	1.0	0.0	8.40389	6.76709	-6.98747	13.47201	15.06579	0.6556	1.52531	212.36519	192.50067	80.67761	0.31613	 	4.3506199999999995E31	 	4.52274E-32	 	3818.63535	25.88232	 
125.0	1.0	0.0	8.40564	6.76568	-7.00681	13.44964	14.97642	0.65134	1.53531	212.67853	192.60371	80.80725	0.31596	 	1.22299E32	 	1.58895E-32	 	3689.47079	25.83291	 
120.0	1.0	0.0	8.40738	6.76428	-7.02609	13.42725	14.88704	0.64702	1.54555	212.99111	192.70589	80.93664	0.31579	 	3.52948E32	 	5.43669E-33	 	3560.55381	25.7834	 
115.0	1.0	0.0	8.40912	6.76288	-7.0453	13.40484	14.79767	0.64265	1.55606	213.30293	192.80718	81.06578	0.31562	 	1.04678E33	 	1.80979E-33	 	3431.88496	25.73377	 
110.0	1.0	0.0	8.41085	6.76149	-7.06445	13.38241	14.70828	0.63822	1.56685	213.614	192.9076	81.19466	0.31544	 	3.19394E33	 	5.85503E-34	 	3303.46478	25.68404	 
105.0	1.0	0.0	8.41258	6.7601	-7.08354	13.35996	14.6189	0.63375	1.57792	213.92431	193.00715	81.32329	0.31527	 	1.0037100000000001E34	 	1.83884E-34	 	3175.29384	25.63419	 
100.0	1.0	0.0	8.4143	6.75871	-7.10257	13.33749	14.52951	0.62921	1.58928	214.23386	193.10584	81.45167	0.3151	 	3.25249E34	 	5.59957E-35	 	3047.37269	25.58423	 
95.0	1.0	0.0	8.41602	6.75733	-7.12154	13.315	14.44012	0.62463	1.60096	214.54265	193.20366	81.57979	0.31493	 	1.0881599999999999E35	 	1.65127E-35	 	2919.70186	25.53416	 
90.0	1.0	0.0	8.41773	6.75596	-7.14045	13.29249	14.35072	0.61998	1.61295	214.85069	193.30061	81.70765	0.31475	 	3.76368E35	 	4.70935E-36	 	2792.28191	25.48399	 
85.0	1.0	0.0	8.41944	6.75459	-7.15929	13.26995	14.26132	0.61528	1.62528	215.15797	193.39671	81.83527	0.31458	 	1.3476599999999998E36	 	1.2971E-36	 	2665.11331	25.43372	 
80.0	1.0	0.0	8.42115	6.75322	-7.17807	13.2474	14.17192	0.61052	1.63796	215.46449	193.49194	81.96262	0.31441	 	5.00302E36	 	3.44519E-37	 	2538.19656	25.38335	 
75.0	1.0	0.0	8.42284	6.75186	-7.19679	13.22483	14.08251	0.60569	1.651	215.77025	193.58632	82.08972	0.31423	 	1.92863E37	 	8.81059E-38	 	2411.53207	25.3329	 
70.0	1.0	0.0	8.42454	6.7505	-7.21544	13.20223	13.9931	0.60081	1.66442	216.07526	193.67985	82.21657	0.31406	 	7.73289E37	 	2.16585E-38	 	2285.12023	25.28237	 
65.0	1.0	0.0	8.42623	6.74915	-7.23404	13.17961	13.90368	0.59586	1.67824	216.37951	193.77253	82.34316	0.31389	 	3.2304999999999997E38	 	5.10889E-39	 	2158.96132	25.23178	 
60.0	1.0	0.0	8.42791	6.7478	-7.25257	13.15698	13.81426	0.59085	1.69247	216.683	193.86436	82.4695	0.31372	 	1.40876E39	 	1.15422E-39	 	2033.05557	25.18115	 
55.0	1.0	0.0	8.42959	6.74646	-7.27103	13.13432	13.72484	0.58578	1.70714	216.98574	193.95534	82.59558	0.31354	 	6.425290000000001E39	 	2.49268E-40	 	1907.40307	25.1305	 
50.0	1.0	0.0	8.43126	6.74512	-7.28944	13.11164	13.63541	0.58063	1.72226	217.28772	194.04548	82.72141	0.31337	 	3.07145E40	 	5.13508E-41	 	1782.00377	25.07986	 
45.0	1.0	0.0	8.43293	6.74378	-7.30778	13.08894	13.54598	0.57542	1.73785	217.58894	194.13477	82.84698	0.3132	 	1.54224E41	 	1.00686E-41	 	1656.85748	25.02926	 
40.0	1.0	0.0	8.43459	6.74245	-7.32606	13.06623	13.45655	0.57014	1.75394	217.8894	194.22323	82.9723	0.31302	 	8.153390000000001E41	 	1.87457E-42	 	1531.96379	24.97874	 
35.0	1.0	0.0	8.43625	6.74113	-7.34428	13.04349	13.36711	0.56479	1.77055	218.18911	194.31085	83.09736	0.31285	 	4.5498199999999995E42	 	3.30564E-43	 	1407.32203	24.92835	 
30.0	1.0	0.0	8.4379	6.73981	-7.36243	13.02073	13.27767	0.55937	1.78771	218.48806	194.39764	83.22217	0.31268	 	2.68707E43	 	5.50636E-44	 	1282.93124	24.87816	 
25.0	1.0	0.0	8.43955	6.73849	-7.38052	 	13.18822	0.55388	1.80545	218.78625	194.48359	83.34672	0.31251	 	1.6843600000000002E44	 	8.63948E-45	 	1158.7901	 	 
