T (C)	Fraction solid (wt)-TOTAL	Fraction liquid (wt)-LIQUID	Density (g/(cm)^3)-TOTAL	Molar volume (cm^3)-TOTAL	Volume change (%)-  	Average expansion coeff. (10e-6 1/K)-  	Thermal conductivity (W/(m*K))-TOTAL	Electrical resistivity (10e-6 Ohm*m)-TOTAL	Electrical conductivity (10e6 1/(Ohm*m))-TOTAL	Young's modulus (GPa)-TOTAL	Bulk modulus (GPa)-TOTAL	Shear modulus(GPa)-TOTAL	Poisson's ratio-TOTAL	Liquid viscosity (mPa s)-  	Total viscosity (mPa s)-  	Liquid diffusivity (10e-9 (m^2)/s)-  	Total diffusivity (10e-9 (m^2)/s)-  	Surface Tension (mN/m)-  	Enthalpy (J/mole)-TOTAL	Specific heat (J/(mole K))-TOTAL	Latent heat (J/mole)-TOTAL
1400.0	0.9523	0.0477021	7.81917	7.27054	0.0	19.07495	37.04997	1.1064	0.90383	86.74064	126.89134	31.71424	0.36753	6.43958	23961.73299	1.26813	3.40803E-4	1765.11716	46114.421	 	0.0
1395.0	0.96086	0.0391443	7.8242	7.26637	-0.0573813	18.99397	37.00255	1.10451	0.90538	90.42987	127.30732	33.09688	0.36614	6.41879	26348.19324	1.26844	3.09009E-4	1763.26977	45789.568	64.9706	116.96
1390.0	0.96762	0.0323813	7.82877	7.26262	-0.10899	18.92759	36.94647	1.10287	0.90672	93.52503	127.73055	34.25834	0.365	6.39868	28757.83807	1.26861	2.82268E-4	1761.55937	45492.162	59.4812	206.991
1385.0	0.97308	0.026916	7.83301	7.25917	-0.15641	18.87181	36.88408	1.10141	0.90792	96.17239	128.15855	35.25281	0.36404	6.37925	31224.57524	1.26865	2.59187E-4	1759.9691	45214.66	55.5004	277.63
1380.0	0.97758	0.0224207	7.837	7.25595	-0.20069	18.82396	36.81698	1.1001	0.90901	98.47538	128.5896	36.11872	0.36322	6.36066	33775.9818	1.26852	2.38886E-4	1758.48331	44952.038	52.5244	333.9
1375.0	0.98134	0.0186631	7.84081	7.25291	-0.24256	18.78215	36.74626	1.09888	0.91002	100.50836	129.02255	36.88372	0.3625	6.34294	36435.59056	1.26821	2.20779E-4	1757.09027	44700.821	50.2434	379.272
1370.0	0.98452	0.0154808	7.84446	7.25	-0.28258	18.74499	36.67269	1.09774	0.91096	102.32679	129.4565	37.56848	0.36187	6.3261	39224.61717	1.26773	2.04459E-4	1755.78107	44458.539	48.4564	416.213
1365.0	0.98724	0.0127558	7.848	7.24719	-0.32113	18.7115	36.59686	1.09667	0.91185	103.97163	129.89081	38.1883	0.3613	6.31015	42162.64947	1.26707	1.89632E-4	1754.54661	44223.39	47.0298	446.52
1360.0	0.9896	0.0103975	7.85144	7.24448	-0.35847	18.681	36.5192	1.09565	0.9127	105.47463	130.32506	38.75501	0.36079	6.29513	45268.96119	1.26622	1.76081E-4	1753.3771	43994.033	45.8714	471.534
1355.0	0.99166	0.00833893	7.8548	7.24183	-0.39486	18.65286	36.44004	1.09467	0.91352	106.86066	130.75885	39.27793	0.36031	6.28102	48562.81312	1.26518	1.63635E-4	1752.26993	43769.449	44.9168	492.268
1350.0	0.99347	0.00652766	7.8581	7.23925	-0.43042	18.62674	36.35961	1.09372	0.91431	108.14849	131.19194	39.76406	0.35988	6.26791	52063.33945	1.26393	1.52164E-4	1751.21268	43548.852	44.1194	509.507
1345.0	0.99508	0.00492209	7.86134	7.23671	-0.46532	18.60222	36.27814	1.0928	0.91508	109.35334	131.62407	40.21911	0.35947	6.25567	55790.62991	1.2625	1.41561E-4	1750.20607	43331.626	43.4452	523.862
1340.0	0.99651	0.00349125	7.86453	7.23421	-0.49966	18.57907	36.19577	1.0919	0.91583	110.48828	132.0551	40.64797	0.35909	6.24437	59766.01855	1.26088	1.31737E-4	1749.24231	43117.284	42.8684	535.819
1335.0	0.99779	0.00220733	7.86768	7.23175	-0.5335	18.55709	36.11264	1.09102	0.91657	111.56265	132.4849	41.05413	0.35873	6.23395	64011.44075	1.25907	1.22618E-4	1748.31728	42905.431	42.3706	545.768
1330.0	0.99895	0.00104893	7.87079	7.22932	-0.56694	18.53607	36.02884	1.09016	0.9173	112.58477	132.91332	41.44073	0.35838	6.22446	68550.40296	1.25707	1.14143E-4	1747.42763	42695.752	41.9358	554.023
1325.0	1.0	0.0	7.87387	7.22692	-0.6	18.51592	35.94447	1.08931	0.91801	113.56129	133.34033	41.81024	0.35806	 	73408.32985	 	1.06257E-4	 	42487.984	41.5536	560.843
1320.0	1.0	0.0	7.87637	7.22465	-0.63123	18.5007	35.85595	1.08858	0.91863	114.05383	133.75672	41.9969	0.35788	 	78332.8023	 	9.92658E-5	 	42295.83354	38.43009	 
1315.0	1.0	0.0	7.8789	7.22233	-0.6631	18.48357	35.7675	1.08785	0.91924	114.5455	134.17031	42.1833	0.35771	 	83614.51548	 	9.27036E-5	 	42103.50795	38.46512	 
1310.0	1.0	0.0	7.88142	7.22002	-0.69493	18.46642	35.67906	1.08711	0.91987	115.03643	134.58203	42.36949	0.35754	 	89289.15014	 	8.65386E-5	 	41911.48919	38.40375	 
1305.0	1.0	0.0	7.88395	7.21771	-0.72672	18.44926	35.59062	1.08637	0.92049	115.52662	134.99188	42.55544	0.35737	 	95388.58361	 	8.07493E-5	 	41719.77683	38.34247	 
1300.0	1.0	0.0	7.88647	7.2154	-0.75847	18.43208	35.50217	1.08563	0.92113	116.01607	135.39988	42.74117	0.35719	 	101947.4889	 	7.53148E-5	 	41528.37046	38.28127	 
1295.0	1.0	0.0	7.88899	7.21309	-0.79017	18.41489	35.41373	1.08488	0.92176	116.50477	135.80603	42.92668	0.35702	 	109003.5978	 	7.02156E-5	 	41337.26969	38.22015	 
1290.0	1.0	0.0	7.89151	7.21079	-0.82183	18.39769	35.32529	1.08413	0.9224	116.99273	136.21033	43.11195	0.35685	 	116597.9907	 	6.54329E-5	 	41146.4741	38.15912	 
1285.0	1.0	0.0	7.89403	7.20849	-0.85345	18.38047	35.23684	1.08337	0.92304	117.47995	136.6128	43.29701	0.35668	 	124775.4154	 	6.09491E-5	 	40955.9833	38.09816	 
1280.0	1.0	0.0	7.89654	7.2062	-0.88502	18.36324	35.1484	1.08261	0.92369	117.96643	137.01344	43.48183	0.3565	 	133584.6385	 	5.67471E-5	 	40765.79685	38.03729	 
1275.0	1.0	0.0	7.89905	7.2039	-0.91655	18.346	35.05996	1.08185	0.92434	118.45217	137.41225	43.66643	0.35633	 	143078.8326	 	5.2811E-5	 	40575.91439	37.97649	 
1270.0	1.0	0.0	7.90156	7.20161	-0.94804	18.32874	34.97152	1.08108	0.925	118.93716	137.80924	43.8508	0.35616	 	153316.0037	 	4.91255E-5	 	40386.33549	37.91578	 
1265.0	1.0	0.0	7.90407	7.19933	-0.97948	18.31147	34.88307	1.08031	0.92566	119.42141	138.20443	44.03494	0.35598	 	164359.462	 	4.56763E-5	 	40197.05974	37.85515	 
1260.0	1.0	0.0	7.90658	7.19705	-1.01088	18.29418	34.79463	1.07954	0.92632	119.90492	138.59781	44.21886	0.35581	 	176278.3427	 	4.24495E-5	 	40008.08675	37.7946	 
1255.0	1.0	0.0	7.90909	7.19477	-1.04224	18.27688	34.70619	1.07876	0.92699	120.38769	138.98939	44.40255	0.35564	 	189148.1804	 	3.94322E-5	 	39819.41609	37.73413	 
1250.0	1.0	0.0	7.91159	7.19249	-1.07355	18.25957	34.61774	1.07798	0.92766	120.86971	139.37918	44.58602	0.35547	 	203051.5444	 	3.6612E-5	 	39631.04738	37.67374	 
1245.0	1.0	0.0	7.91409	7.19022	-1.10482	18.24225	34.5293	1.07719	0.92834	121.351	139.76719	44.76926	0.35529	 	218078.7414	 	3.39772E-5	 	39442.9802	37.61344	 
1240.0	1.0	0.0	7.91659	7.18795	-1.13605	18.22491	34.44086	1.0764	0.92902	121.83154	140.15341	44.95227	0.35512	 	234328.5927	 	3.15169E-5	 	39255.21416	37.55321	 
1235.0	1.0	0.0	7.91909	7.18568	-1.16723	18.20756	34.35241	1.07561	0.92971	122.31134	140.53787	45.13505	0.35495	 	251909.2946	 	2.92205E-5	 	39067.74883	37.49307	 
1230.0	1.0	0.0	7.92158	7.18341	-1.19837	18.19019	34.26397	1.07481	0.9304	122.79039	140.92056	45.3176	0.35478	 	270939.3719	 	2.7078E-5	 	38880.58382	37.433	 
1225.0	1.0	0.0	7.92408	7.18115	-1.22946	18.17282	34.17553	1.074	0.93109	123.26871	141.30148	45.49993	0.3546	 	291548.7346	 	2.50802E-5	 	38693.71873	37.37302	 
1220.0	1.0	0.0	7.92657	7.1789	-1.26051	18.15543	34.08708	1.0732	0.93179	123.74628	141.68066	45.68203	0.35443	 	313879.8497	 	2.32181E-5	 	38507.15315	37.31312	 
1215.0	1.0	0.0	7.92906	7.17664	-1.29152	18.13803	33.99864	1.07239	0.9325	124.22311	142.05809	45.86391	0.35426	 	338089.0418	 	2.14834E-5	 	38320.88667	37.2533	 
1210.0	1.0	0.0	7.93155	7.17439	-1.32248	18.12061	33.9102	1.07157	0.93321	124.6992	142.43378	46.04555	0.35409	 	364347.9369	 	1.98681E-5	 	38134.9189	37.19355	 
1205.0	1.0	0.0	7.93403	7.17214	-1.3534	18.10319	33.82176	1.07075	0.93392	125.17454	142.80773	46.22697	0.35391	 	392845.0673	 	1.83647E-5	 	37949.24943	37.13389	 
1200.0	1.0	0.0	7.93652	7.1699	-1.38427	18.08575	33.73331	1.06993	0.93464	125.64915	143.17995	46.40816	0.35374	 	423787.6547	 	1.69662E-5	 	37763.87785	37.07432	 
1195.0	1.0	0.0	7.939	7.16766	-1.4151	18.06829	33.64487	1.0691	0.93537	126.12301	143.55045	46.58912	0.35357	 	457403.5948	 	1.5666E-5	 	37578.80377	37.01482	 
1190.0	1.0	0.0	7.94148	7.16542	-1.44588	18.05083	33.55643	1.06827	0.9361	126.59613	143.91924	46.76985	0.35339	 	493943.6656	 	1.44577E-5	 	37394.02676	36.9554	 
1185.0	1.0	0.0	7.94396	7.16318	-1.47662	18.03336	33.46798	1.06743	0.93683	127.0685	144.28631	46.95036	0.35322	 	533683.9877	 	1.33354E-5	 	37209.54645	36.89606	 
1180.0	1.0	0.0	7.94643	7.16095	-1.50732	18.01587	33.37954	1.06659	0.93757	127.54014	144.65168	47.13064	0.35305	 	576928.7657	 	1.22935E-5	 	37025.3624	36.83681	 
1175.0	1.0	0.0	7.94891	7.15872	-1.53797	17.99837	33.2911	1.06574	0.93831	128.01103	145.01535	47.31069	0.35288	 	624013.3455	 	1.13268E-5	 	36841.47425	36.77763	 
1170.0	1.0	0.0	7.95138	7.1565	-1.56857	17.98086	33.20265	1.06489	0.93906	128.48118	145.37733	47.49051	0.3527	 	675307.6271	 	1.04303E-5	 	36657.88157	36.71854	 
1165.0	1.0	0.0	7.95385	7.15428	-1.59913	17.96334	33.11421	1.06403	0.93982	128.95059	145.73763	47.6701	0.35253	 	731219.8739	 	9.59937E-6	 	36474.58396	36.65952	 
1160.0	1.0	0.0	7.95631	7.15206	-1.62964	17.9458	33.02577	1.06318	0.94058	129.41926	146.09624	47.84947	0.35236	 	792200.9707	 	8.82964E-6	 	36291.58102	36.60059	 
1155.0	1.0	0.0	7.95878	7.14984	-1.66011	17.92826	32.93732	1.06231	0.94134	129.88718	146.45318	48.0286	0.35219	 	858749.1839	 	8.11697E-6	 	36108.87235	36.54173	 
1150.0	1.0	0.0	7.96124	7.14763	-1.69054	17.9107	32.84888	1.06144	0.94211	130.35437	146.80845	48.20751	0.35201	 	931415.4882	 	7.45751E-6	 	35926.45756	36.48296	 
1145.0	1.0	0.0	7.9637	7.14542	-1.72092	17.89313	32.76044	1.06057	0.94289	130.82081	147.16205	48.38619	0.35184	 	1010809.53	 	6.84762E-6	 	35744.33622	36.42427	 
1140.0	1.0	0.0	7.96616	7.14322	-1.75125	17.87555	32.67199	1.05969	0.94367	131.2865	147.514	48.56464	0.35167	 	1097606.311	 	6.28389E-6	 	35562.50795	36.36565	 
1135.0	1.0	0.0	7.96862	7.14101	-1.78154	17.85796	32.58355	1.05881	0.94446	131.75146	147.8643	48.74286	0.3515	 	1192553.677	 	5.76312E-6	 	35380.97234	36.30712	 
1130.0	1.0	0.0	7.97107	7.13882	-1.81178	17.84036	32.49511	1.05792	0.94525	132.21567	148.21295	48.92085	0.35132	 	1296480.726	 	5.28232E-6	 	35199.72899	36.24867	 
1125.0	1.0	0.0	7.97352	7.13662	-1.84198	17.82275	32.40667	1.05703	0.94605	132.67915	148.55996	49.09861	0.35115	 	1410307.248	 	4.83868E-6	 	35018.77751	36.1903	 
1120.0	1.0	0.0	7.97597	7.13443	-1.87213	17.80513	32.31822	1.05613	0.94686	133.14187	148.90534	49.27614	0.35098	 	1535054.325	 	4.42956E-6	 	34838.11748	36.13201	 
1115.0	1.0	0.0	7.97842	7.13224	-1.90223	17.78749	32.22978	1.05523	0.94767	133.60386	149.24909	49.45345	0.3508	 	1671856.254	 	4.05251E-6	 	34657.74852	36.07379	 
1110.0	1.0	0.0	7.98087	7.13005	-1.93229	17.76985	32.14134	1.05432	0.94848	134.06511	149.59122	49.63052	0.35063	 	1821973.969	 	3.70522E-6	 	34477.6702	36.01566	 
1106.23	1.0	0.0	7.98271	7.12841	-1.95494	17.75653	32.0746	1.05363	0.9491	134.41265	149.8483	49.76398	0.3505	 	1944906.328	 	3.46155E-6	 	34341.98433	35.96471	 
1105.0	1.0	0.0	7.98338	7.12781	-1.96311	17.74951	32.05579	1.05331	0.94939	134.53688	149.94054	49.81168	0.35046	 	1988900.055	 	3.38197E-6	 	34293.77664	39.28107	 
1100.0	1.0	0.0	7.98608	7.1254	-1.99631	17.72104	31.97904	1.05201	0.95056	135.04206	150.31488	50.00567	0.35027	 	2179443.593	 	3.0751E-6	 	34097.74054	39.20722	 
1095.0	1.0	0.0	7.98878	7.123	-2.02937	17.69274	31.90206	1.05071	0.95174	135.54569	150.6869	50.19912	0.35008	 	2389626.026	 	2.79441E-6	 	33902.29679	39.08875	 
1090.0	1.0	0.0	7.99146	7.1206	-2.0623	17.66463	31.82486	1.04941	0.95292	136.04777	151.05658	50.39205	0.34989	 	2621615.414	 	2.53782E-6	 	33707.44318	38.97072	 
1085.0	1.0	0.0	7.99414	7.11822	-2.0951	17.63669	31.74743	1.04811	0.9541	136.5483	151.42396	50.58444	0.34971	 	2877835.321	 	2.3034E-6	 	33513.17748	38.85314	 
1080.0	1.0	0.0	7.99681	7.11584	-2.12777	17.60893	31.66979	1.04681	0.95529	137.04729	151.78902	50.77631	0.34952	 	3160996.512	 	2.08934E-6	 	33319.49738	38.73602	 
1075.0	1.0	0.0	7.99947	7.11348	-2.16031	17.58135	31.59193	1.04551	0.95647	137.54473	152.1518	50.96764	0.34933	 	3474133.387	 	1.89399E-6	 	33126.40054	38.61937	 
1070.0	1.0	0.0	8.00212	7.11112	-2.19272	17.55394	31.51385	1.04421	0.95766	138.04064	152.51228	51.15845	0.34915	 	3820645.033	 	1.71583E-6	 	32933.88455	38.5032	 
1065.0	1.0	0.0	8.00476	7.10877	-2.22501	17.5267	31.43555	1.04292	0.95885	138.53501	152.87049	51.34872	0.34896	 	4204341.469	 	1.55344E-6	 	32741.94696	38.38752	 
1060.0	1.0	0.0	8.0074	7.10643	-2.25718	17.49963	31.35703	1.04162	0.96004	139.02785	153.22644	51.53847	0.34878	 	4629497.145	 	1.4055E-6	 	32550.58527	38.27234	 
1055.0	1.0	0.0	8.01002	7.1041	-2.28922	17.47272	31.2783	1.04033	0.96124	139.51917	153.58014	51.7277	0.34859	 	5100910.359	 	1.27083E-6	 	32359.7969	38.15767	 
1050.0	1.0	0.0	8.01264	7.10178	-2.32114	17.44598	31.19936	1.03903	0.96243	140.00896	153.93159	51.9164	0.34841	 	5623972.083	 	1.14829E-6	 	32169.57925	38.04353	 
1045.0	1.0	0.0	8.01525	7.09947	-2.35294	17.4194	31.1202	1.03774	0.96363	140.49724	154.28081	52.10458	0.34822	 	6204743.449	 	1.03688E-6	 	31979.92963	37.92992	 
1040.0	1.0	0.0	8.01785	7.09717	-2.38462	17.39298	31.04083	1.03645	0.96483	140.984	154.6278	52.29224	0.34804	 	6850044.113	 	9.35638E-7	 	31790.8453	37.81686	 
1035.0	1.0	0.0	8.02044	7.09487	-2.41618	17.36672	30.96125	1.03515	0.96604	141.46925	154.97259	52.47938	0.34786	 	7567554.075	 	8.43701E-7	 	31602.3235	37.70436	 
1030.0	1.0	0.0	8.02303	7.09259	-2.44763	17.34062	30.88146	1.03386	0.96725	141.953	155.31518	52.666	0.34767	 	8365927.678	 	7.60269E-7	 	31414.36136	37.59243	 
1025.0	1.0	0.0	8.02561	7.09031	-2.47896	17.31467	30.80147	1.03257	0.96846	142.43526	155.65558	52.85211	0.34749	 	9254925.987	 	6.84603E-7	 	31226.95599	37.48107	 
1020.0	1.0	0.0	8.02818	7.08804	-2.51018	17.28887	30.72127	1.03128	0.96967	142.91602	155.99381	53.0377	0.34731	 	1.024556731E7	 	6.16027E-7	 	31040.10445	37.37031	 
1015.0	1.0	0.0	8.03074	7.08578	-2.54128	17.26322	30.64086	1.02999	0.97089	143.39529	156.32987	53.22279	0.34712	 	1.135029796E7	 	5.53919E-7	 	30853.8037	37.26015	 
1010.0	1.0	0.0	8.03329	7.08352	-2.57227	17.23772	30.56025	1.02869	0.97211	143.87309	156.66377	53.40736	0.34694	 	1.25831905E7	 	4.97707E-7	 	30668.05067	37.1506	 
1005.0	1.0	0.0	8.03584	7.08128	-2.60316	17.21236	30.47945	1.0274	0.97333	144.34941	156.99554	53.59142	0.34676	 	1.396016922E7	 	4.46867E-7	 	30482.84227	37.04168	 
1000.0	1.0	0.0	8.03838	7.07904	-2.63393	17.18715	30.39844	1.02611	0.97455	144.82427	157.32519	53.77499	0.34658	 	1.549926773E7	 	4.00918E-7	 	30298.17529	36.9334	 
995.0	1.0	0.0	8.04091	7.07681	-2.66459	17.16208	30.31723	1.02482	0.97578	145.29766	157.65271	53.95805	0.34639	 	1.722092756E7	 	3.59419E-7	 	30114.04652	36.82575	 
990.0	1.0	0.0	8.04344	7.07459	-2.69515	17.13714	30.23583	1.02353	0.97701	145.76961	157.97813	54.14061	0.34621	 	1.914833876E7	 	3.21966E-7	 	29930.45266	36.71877	 
985.0	1.0	0.0	8.04595	7.07238	-2.7256	17.11234	30.15424	1.02223	0.97825	146.2401	158.30146	54.32267	0.34603	 	2.130783324E7	 	2.88191E-7	 	29747.39038	36.61246	 
980.0	1.0	0.0	8.04847	7.07017	-2.75595	17.08768	30.07246	1.02094	0.97949	146.70916	158.62272	54.50424	0.34585	 	2.372933577E7	 	2.57753E-7	 	29564.8563	36.50682	 
975.0	1.0	0.0	8.05097	7.06797	-2.78619	17.06314	29.99049	1.01965	0.98073	147.17679	158.94191	54.68531	0.34567	 	2.644688599E7	 	2.30345E-7	 	29382.84697	36.40187	 
970.0	1.0	0.0	8.05347	7.06578	-2.81633	17.03874	29.90833	1.01835	0.98198	147.643	159.25904	54.8659	0.34549	 	2.949924054E7	 	2.05683E-7	 	29201.35892	36.29761	 
965.0	1.0	0.0	8.05596	7.0636	-2.84638	17.01446	29.82599	1.01706	0.98323	148.10779	159.57414	55.046	0.34531	 	3.293056307E7	 	1.8351E-7	 	29020.38861	36.19406	 
960.0	1.0	0.0	8.05844	7.06142	-2.87632	16.9903	29.74347	1.01576	0.98449	148.57118	159.88721	55.22562	0.34513	 	3.679123211E7	 	1.63591E-7	 	28839.93245	36.09123	 
955.0	1.0	0.0	8.06092	7.05925	-2.90616	16.96627	29.66077	1.01446	0.98575	149.03317	160.19827	55.40476	0.34495	 	4.113876276E7	 	1.45709E-7	 	28659.98685	35.98912	 
950.0	1.0	0.0	8.06339	7.05709	-2.9359	16.94236	29.57789	1.01316	0.98701	149.49377	160.50732	55.58342	0.34477	 	4.603888634E7	 	1.29671E-7	 	28480.54813	35.88774	 
945.0	1.0	0.0	8.06585	7.05493	-2.96555	16.91856	29.49483	1.01186	0.98828	149.95299	160.81439	55.7616	0.34459	 	5.156679261E7	 	1.15297E-7	 	28301.61258	35.78711	 
940.0	1.0	0.0	8.06831	7.05278	-2.99511	16.89488	29.41161	1.01056	0.98955	150.41083	161.11949	55.93932	0.34441	 	5.78085816E7	 	1.02426E-7	 	28123.17648	35.68722	 
935.0	1.0	0.0	8.07076	7.05064	-3.02456	16.87131	29.32821	1.00926	0.99083	150.86732	161.42263	56.11657	0.34423	 	6.486293344E7	 	9.09099E-8	 	27945.23602	35.58809	 
930.0	1.0	0.0	8.0732	7.0485	-3.05393	16.84785	29.24465	1.00795	0.99211	151.32245	161.72382	56.29335	0.34405	 	7.284307169E7	 	8.06154E-8	 	27767.78741	35.48972	 
925.0	1.0	0.0	8.07564	7.04638	-3.0832	16.8245	29.16092	1.00664	0.9934	151.77624	162.02307	56.46967	0.34387	 	8.18790373E7	 	7.14209E-8	 	27590.8268	35.39212	 
920.0	1.0	0.0	8.07807	7.04425	-3.11239	16.80125	29.07704	1.00534	0.99469	152.22869	162.32041	56.64554	0.3437	 	9.212032725E7	 	6.32159E-8	 	27414.35032	35.2953	 
915.0	1.0	0.0	8.0805	7.04214	-3.14148	16.77811	28.99299	1.00402	0.99599	152.67982	162.61584	56.82095	0.34352	 	1.037390066E8	 	5.59005E-8	 	27238.35407	35.19925	 
910.0	1.0	0.0	8.08292	7.04003	-3.17048	16.75506	28.90879	1.00271	0.9973	153.12963	162.90938	56.99591	0.34334	 	1.169333107E8	 	4.93842E-8	 	27062.83411	35.10399	 
905.0	1.0	0.0	8.08534	7.03793	-3.1994	16.73212	28.82443	1.0014	0.99861	153.57813	163.20105	57.17043	0.34316	 	1.319318662E8	 	4.35851E-8	 	26887.7865	35.00952	 
900.0	1.0	0.0	8.08774	7.03583	-3.22822	16.70927	28.73993	1.00008	0.99992	154.02534	163.49084	57.3445	0.34298	 	1.489986567E8	 	3.84289E-8	 	26713.20726	34.91585	 
895.0	1.0	0.0	8.09015	7.03374	-3.25697	16.68651	28.65527	0.99876	1.00124	154.47127	163.77879	57.51813	0.3428	 	1.684388089E8	 	3.38488E-8	 	26539.09242	34.82297	 
890.0	1.0	0.0	8.09254	7.03166	-3.28562	16.66384	28.57047	0.99743	1.00257	154.91591	164.0649	57.69133	0.34263	 	1.906053924E8	 	2.97843E-8	 	26365.43796	34.73089	 
885.0	1.0	0.0	8.09494	7.02958	-3.3142	16.64126	28.48553	0.99611	1.00391	155.35929	164.34918	57.86409	0.34245	 	2.159074419E8	 	2.61809E-8	 	26192.23988	34.63962	 
880.0	1.0	0.0	8.09732	7.02751	-3.34269	16.61877	28.40045	0.99478	1.00525	155.80142	164.63165	58.03642	0.34227	 	2.448193325E8	 	2.29894E-8	 	26019.49413	34.54915	 
875.0	1.0	0.0	8.0997	7.02545	-3.37109	16.59636	28.31524	0.99345	1.0066	156.2423	164.91233	58.20833	0.3421	 	2.778918818E8	 	2.01655E-8	 	25847.1967	34.45949	 
870.0	1.0	0.0	8.10208	7.02339	-3.39942	16.57403	28.22989	0.99211	1.00795	156.68194	165.19122	58.37982	0.34192	 	3.157654318E8	 	1.76695E-8	 	25675.34355	34.37063	 
865.0	1.0	0.0	8.10445	7.02133	-3.42767	16.55178	28.14441	0.99077	1.00931	157.12035	165.46835	58.55089	0.34174	 	3.591852153E8	 	1.54656E-8	 	25503.93063	34.28258	 
860.0	1.0	0.0	8.10681	7.01928	-3.45583	16.52961	28.0588	0.98943	1.01068	157.55755	165.74372	58.72155	0.34157	 	4.090196903E8	 	1.35217E-8	 	25332.95391	34.19534	 
855.0	1.0	0.0	8.10917	7.01724	-3.48392	16.50751	27.97307	0.98808	1.01206	157.99355	166.01734	58.89179	0.34139	 	4.662820428E8	 	1.18088E-8	 	25162.40936	34.10891	 
850.0	1.0	0.0	8.11152	7.01521	-3.51193	16.48548	27.88721	0.98673	1.01345	158.42835	166.28924	59.06163	0.34121	 	5.321558528E8	 	1.03011E-8	 	24992.29293	34.02328	 
845.0	1.0	0.0	8.11382	7.01322	-3.53927	16.46612	27.7982	0.98548	1.01473	158.85044	166.55059	59.22663	0.34104	 	6.073158046E8	 	8.98612E-9	 	24830.21746	32.4151	 
840.0	1.0	0.0	8.11612	7.01123	-3.56656	16.44674	27.70918	0.98423	1.01602	159.27177	166.81058	59.3914	0.34087	 	6.939141752E8	 	7.82951E-9	 	24665.10055	33.02338	 
835.0	1.0	0.0	8.11841	7.00925	-3.5938	16.42734	27.62016	0.98297	1.01733	159.69234	167.06921	59.55592	0.34069	 	7.938150861E8	 	6.81343E-9	 	24500.2522	32.96967	 
830.0	1.0	0.0	8.1207	7.00728	-3.62099	16.40792	27.53114	0.98169	1.01865	160.11215	167.32649	59.7202	0.34052	 	9.092063357E8	 	5.92187E-9	 	24335.67205	32.91603	 
825.0	1.0	0.0	8.12299	7.0053	-3.64813	16.38847	27.44212	0.98042	1.01998	160.5312	167.58242	59.88424	0.34035	 	1.042659027E9	 	5.14051E-9	 	24171.35974	32.86246	 
820.0	1.0	0.0	8.12528	7.00333	-3.67523	16.36901	27.3531	0.97913	1.02132	160.94949	167.837	60.04804	0.34017	 	1.19719881E9	 	4.45656E-9	 	24007.3149	32.80897	 
815.0	1.0	0.0	8.12756	7.00137	-3.70227	16.34952	27.26408	0.97783	1.02267	161.36703	168.09024	60.2116	0.34	 	1.376391113E9	 	3.85863E-9	 	23843.5372	32.75554	 
810.0	1.0	0.0	8.12984	6.9994	-3.72926	16.33002	27.17506	0.97653	1.02404	161.78381	168.34214	60.37491	0.33983	 	1.584443281E9	 	3.33656E-9	 	23680.02626	32.70219	 
805.0	1.0	0.0	8.13211	6.99745	-3.75621	16.31049	27.08603	0.97521	1.02542	162.19982	168.59271	60.53799	0.33965	 	1.826327124E9	 	2.88129E-9	 	23516.78172	32.64891	 
800.0	1.0	0.0	8.13439	6.99549	-3.7831	16.29094	26.99701	0.97389	1.02681	162.61508	168.84196	60.70083	0.33948	 	2.107926198E9	 	2.4848E-9	 	23353.80324	32.5957	 
795.0	1.0	0.0	8.13666	6.99354	-3.80995	16.27137	26.90798	0.97256	1.02821	163.02958	169.08988	60.86342	0.33931	 	2.436213067E9	 	2.13995E-9	 	23191.09045	32.54256	 
790.0	1.0	0.0	8.13892	6.99159	-3.83674	16.25178	26.81896	0.97122	1.02963	163.44333	169.33648	61.02577	0.33913	 	2.819462973E9	 	1.84041E-9	 	23028.643	32.48949	 
785.0	1.0	0.0	8.14119	6.98965	-3.86349	16.23216	26.72993	0.96987	1.03106	163.85631	169.58177	61.18789	0.33896	 	3.267511803E9	 	1.58058E-9	 	22866.46053	32.43649	 
780.0	1.0	0.0	8.14345	6.9877	-3.89018	16.21253	26.6409	0.96852	1.03251	164.26854	169.82575	61.34976	0.33879	 	3.792068007E9	 	1.3555E-9	 	22704.5427	32.38357	 
775.0	1.0	0.0	8.14571	6.98577	-3.91683	16.19287	26.55187	0.96715	1.03396	164.68001	170.06843	61.51139	0.33861	 	4.40709037E9	 	1.1608E-9	 	22542.88915	32.33071	 
770.0	1.0	0.0	8.14796	6.98383	-3.94342	16.1732	26.46284	0.96578	1.03544	165.09072	170.3098	61.67278	0.33844	 	5.129246275E9	 	9.92613E-10	 	22381.49952	32.27793	 
765.0	1.0	0.0	8.15021	6.9819	-3.96997	16.1535	26.37381	0.96439	1.03692	165.50067	170.54987	61.83392	0.33827	 	5.978468506E9	 	8.47533E-10	 	22220.37347	32.22521	 
760.0	1.0	0.0	8.15246	6.97998	-3.99646	16.13378	26.28478	0.963	1.03842	165.90987	170.78865	61.99483	0.33809	 	6.978632918E9	 	7.2257E-10	 	22059.51064	32.17257	 
755.0	1.0	0.0	8.15471	6.97806	-4.0229	16.11404	26.19575	0.96159	1.03994	166.31831	171.02615	62.15549	0.33792	 	8.158384588E9	 	6.1509E-10	 	21898.91069	32.11999	 
750.0	1.0	0.0	8.15695	6.97614	-4.0493	16.09428	26.10672	0.96018	1.04147	166.72599	171.26236	62.31592	0.33775	 	9.552146701E9	 	5.22787E-10	 	21738.57325	32.06749	 
745.0	1.0	0.0	8.15919	6.97422	-4.07564	16.07449	26.01768	0.95876	1.04302	167.13291	171.49729	62.4761	0.33757	 	1.12014E10	 	4.43637E-10	 	21578.498	32.01505	 
740.0	1.0	0.0	8.16143	6.97231	-4.10193	16.05469	25.92864	0.95733	1.04458	167.53907	171.73094	62.63604	0.3374	 	1.3155999999999998E10	 	3.7587E-10	 	21418.68458	31.96268	 
735.0	1.0	0.0	8.16366	6.9704	-4.12817	16.03486	25.83961	0.95588	1.04615	167.94448	171.96332	62.79574	0.33723	 	1.5476299999999998E10	 	3.17939E-10	 	21259.13263	31.91039	 
730.0	1.0	0.0	8.16589	6.9685	-4.15436	16.01502	25.75057	0.95443	1.04774	168.34913	172.19443	62.95519	0.33706	 	1.82354E10	 	2.68495E-10	 	21099.84182	31.85816	 
725.0	1.0	0.0	8.16812	6.9666	-4.1805	15.99515	25.66153	0.95297	1.04935	168.75303	172.42428	63.11441	0.33688	 	2.15218E10	 	2.26362E-10	 	20940.8118	31.806	 
720.0	1.0	0.0	8.17035	6.9647	-4.20658	15.97526	25.57249	0.9515	1.05097	169.15616	172.65287	63.27338	0.33671	 	2.5442799999999996E10	 	1.90518E-10	 	20782.04223	31.75391	 
715.0	1.0	0.0	8.17257	6.96281	-4.23262	15.95535	25.48345	0.95002	1.05261	169.55855	172.88021	63.43211	0.33654	 	3.0129199999999996E10	 	1.60074E-10	 	20623.53277	31.70189	 
710.0	1.0	0.0	8.17479	6.96092	-4.2586	15.93541	25.39441	0.94852	1.05427	169.96017	173.10629	63.5906	0.33636	 	3.57402E10	 	1.34261E-10	 	20465.28307	31.64994	 
705.0	1.0	0.0	8.177	6.95903	-4.28454	15.91546	25.30537	0.94702	1.05594	170.36103	173.33113	63.74884	0.33619	 	4.24702E10	 	1.12411E-10	 	20307.29278	31.59806	 
700.0	1.0	0.0	8.17921	6.95715	-4.31042	15.89549	25.21632	0.94551	1.05764	170.76114	173.55472	63.90685	0.33602	 	5.055709999999999E10	 	9.39474E-11	 	20149.56158	31.54624	 
695.0	1.0	0.0	8.18142	6.95527	-4.33625	15.87549	25.12728	0.94398	1.05934	171.1605	173.77708	64.06461	0.33584	 	6.029219999999999E10	 	7.83733E-11	 	19992.08913	31.49449	 
690.0	1.0	0.0	8.18363	6.9534	-4.36203	15.85547	25.03823	0.94245	1.06107	171.55909	173.9982	64.22213	0.33567	 	7.20335E10	 	6.52599E-11	 	19834.87508	31.44281	 
685.0	1.0	0.0	8.18583	6.95153	-4.38775	15.83544	24.94918	0.9409	1.06281	171.95694	174.21809	64.3794	0.3355	 	8.62212E10	 	5.42383E-11	 	19677.91909	31.3912	 
680.0	1.0	0.0	8.18803	6.94966	-4.41343	15.81538	24.86013	0.93934	1.06457	172.35402	174.43675	64.53644	0.33532	 	1.03398E11	 	4.4992E-11	 	19521.22084	31.33965	 
675.0	1.0	0.0	8.19022	6.9478	-4.43905	15.79529	24.77108	0.93777	1.06636	172.75035	174.65418	64.69323	0.33515	 	1.24235E11	 	3.72494E-11	 	19364.77999	31.28817	 
670.0	1.0	0.0	8.19241	6.94594	-4.46462	15.77519	24.68203	0.93619	1.06815	173.14592	174.8704	64.84978	0.33498	 	1.49562E11	 	3.07785E-11	 	19208.59619	31.23676	 
665.0	1.0	0.0	8.1946	6.94408	-4.49014	15.75507	24.59298	0.9346	1.06997	173.54073	175.08541	65.00609	0.3348	 	1.80408E11	 	2.53807E-11	 	19052.66913	31.18541	 
660.0	1.0	0.0	8.19679	6.94223	-4.51561	15.73492	24.50393	0.933	1.07181	173.93479	175.2992	65.16215	0.33463	 	2.18054E11	 	2.08869E-11	 	18896.99848	31.13413	 
655.0	1.0	0.0	8.19897	6.94039	-4.54102	15.71476	24.41487	0.93139	1.07367	174.3281	175.51178	65.31797	0.33446	 	2.64094E11	 	1.71532E-11	 	18741.5839	31.08292	 
650.0	1.0	0.0	8.20115	6.93854	-4.56638	15.69457	24.32582	0.92976	1.07555	174.72064	175.72316	65.47355	0.33428	 	3.2052E11	 	1.40574E-11	 	18586.42505	31.03177	 
645.0	1.0	0.0	8.20333	6.9367	-4.59169	15.67436	24.23676	0.92812	1.07744	175.11243	175.93334	65.62888	0.33411	 	3.89823E11	 	1.14956E-11	 	18431.52164	30.98068	 
640.0	1.0	0.0	8.2055	6.93487	-4.61695	15.65413	24.14771	0.92647	1.07936	175.50347	176.14232	65.78398	0.33394	 	4.75127E11	 	9.38034E-12	 	18276.87331	30.92967	 
635.0	1.0	0.0	8.20767	6.93303	-4.64215	15.63388	24.05865	0.92481	1.0813	175.89375	176.35012	65.93883	0.33376	 	5.80363E11	 	7.63739E-12	 	18122.47974	30.87871	 
630.0	1.0	0.0	8.20983	6.9312	-4.6673	15.61361	23.96959	0.92314	1.08326	176.28327	176.55672	66.09343	0.33359	 	7.10478E11	 	6.20434E-12	 	17968.34062	30.82782	 
625.0	1.0	0.0	8.21199	6.92938	-4.6924	15.59332	23.88053	0.92145	1.08525	176.67204	176.76214	66.2478	0.33342	 	8.71727E11	 	5.02869E-12	 	17814.45564	30.777	 
620.0	1.0	0.0	8.21415	6.92756	-4.71745	15.573	23.79146	0.91975	1.08725	177.06006	176.96637	66.40191	0.33325	 	1.07202E12	 	4.06637E-12	 	17660.82445	30.72624	 
615.0	1.0	0.0	8.21631	6.92574	-4.74244	15.55266	23.7024	0.91804	1.08928	177.44731	177.16943	66.55579	0.33307	 	1.32142E12	 	3.28045E-12	 	17507.44675	30.67554	 
610.0	1.0	0.0	8.21846	6.92393	-4.76738	15.53231	23.61333	0.91631	1.09133	177.83382	177.37132	66.70942	0.3329	 	1.63269E12	 	2.64008E-12	 	17354.32222	30.62491	 
605.0	1.0	0.0	8.22061	6.92212	-4.79227	15.51193	23.52427	0.91457	1.09341	178.21956	177.57204	66.86281	0.33273	 	2.02215E12	 	2.11954E-12	 	17201.45055	30.57433	 
600.0	1.0	0.0	8.22275	6.92031	-4.8171	15.49153	23.4352	0.91282	1.0955	178.60455	177.77159	67.01596	0.33255	 	2.51066E12	 	1.69741E-12	 	17048.83141	30.52383	 
595.0	1.0	0.0	8.22489	6.91851	-4.84188	15.47111	23.34613	0.91106	1.09763	178.98879	177.96998	67.16886	0.33238	 	3.12496E12	 	1.35593E-12	 	16896.46452	30.47338	 
590.0	1.0	0.0	8.22703	6.91671	-4.8666	15.45066	23.25706	0.90928	1.09977	179.37227	178.16721	67.32152	0.33221	 	3.89944E12	 	1.08036E-12	 	16744.34954	30.423	 
585.0	1.0	0.0	8.22917	6.91492	-4.89128	15.4302	23.16799	0.90749	1.10194	179.755	178.36328	67.47393	0.33203	 	4.87844E12	 	8.58556E-13	 	16592.48618	30.37267	 
580.0	1.0	0.0	8.2313	6.91313	-4.9159	15.40972	23.07892	0.90568	1.10414	180.13697	178.5582	67.62611	0.33186	 	6.11927E12	 	6.80475E-13	 	16440.87413	30.32241	 
575.0	1.0	0.0	8.23342	6.91134	-4.94046	15.38921	22.98984	0.90386	1.10636	180.51819	178.75198	67.77803	0.33169	 	7.69625E12	 	5.37874E-13	 	16289.51309	30.27221	 
570.0	1.0	0.0	8.23555	6.90956	-4.96497	15.36868	22.90077	0.90203	1.10861	180.89865	178.94461	67.92972	0.33151	 	9.70597E12	 	4.23987E-13	 	16138.40276	30.22207	 
565.0	1.0	0.0	8.23767	6.90778	-4.98943	15.34813	22.81169	0.90018	1.11089	181.27836	179.1361	68.08115	0.33134	 	1.22744E13	 	3.33278E-13	 	15987.54283	30.17199	 
560.0	1.0	0.0	8.23978	6.90601	-5.01383	15.32756	22.72262	0.89832	1.11319	181.65731	179.32646	68.23235	0.33117	 	1.55664E13	 	2.6123E-13	 	15836.933	30.12196	 
555.0	1.0	0.0	8.2419	6.90424	-5.03818	15.30697	22.63354	0.89644	1.11552	182.03551	179.51568	68.3833	0.33099	 	1.97979E13	 	2.04163E-13	 	15686.57299	30.072	 
550.0	1.0	0.0	8.24401	6.90247	-5.06248	15.28636	22.54446	0.89455	1.11788	182.41295	179.70377	68.53401	0.33082	 	2.52534E13	 	1.59091E-13	 	15536.46251	30.0221	 
545.0	1.0	0.0	8.24611	6.90071	-5.08672	15.26573	22.45537	0.89264	1.12027	182.78964	179.89073	68.68447	0.33065	 	3.23082E13	 	1.23597E-13	 	15386.60124	29.97225	 
540.0	1.0	0.0	8.24821	6.89895	-5.11091	15.24507	22.36629	0.89072	1.12268	183.16557	180.07657	68.83469	0.33047	 	4.14593E13	 	9.57273E-14	 	15236.98893	29.92246	 
535.0	1.0	0.0	8.25031	6.8972	-5.13504	15.22439	22.27721	0.88879	1.12513	183.54075	180.26129	68.98466	0.3303	 	5.33667E13	 	7.39109E-14	 	15087.62527	29.87273	 
530.0	1.0	0.0	8.25241	6.89545	-5.15912	15.2037	22.18812	0.88683	1.12761	183.91518	180.4449	69.13439	0.33013	 	6.89103E13	 	5.68852E-14	 	14938.50999	29.82306	 
525.0	1.0	0.0	8.2545	6.8937	-5.18314	15.18298	22.09903	0.88487	1.13011	184.28885	180.62739	69.28387	0.32995	 	8.92666E13	 	4.36398E-14	 	14789.6428	29.77344	 
520.0	1.0	0.0	8.25658	6.89196	-5.20711	15.16224	22.00994	0.88288	1.13265	184.66176	180.80877	69.43311	0.32978	 	1.16014E14	 	3.33681E-14	 	14641.02342	29.72388	 
515.0	1.0	0.0	8.25867	6.89022	-5.23102	15.14148	21.92085	0.88088	1.13523	185.03393	180.98905	69.58211	0.32961	 	1.51278E14	 	2.54284E-14	 	14492.65159	29.67437	 
510.0	1.0	0.0	8.26075	6.88848	-5.25488	15.12069	21.83176	0.87887	1.13783	185.40533	181.16823	69.73086	0.32944	 	1.97932E14	 	1.93115E-14	 	14344.52702	29.62491	 
505.0	1.0	0.0	8.26282	6.88675	-5.27868	15.09989	21.74267	0.87683	1.14047	185.77599	181.34631	69.87936	0.32926	 	2.5986799999999997E14	 	1.46149E-14	 	14196.64945	29.57551	 
500.0	1.0	0.0	8.26489	6.88503	-5.30243	15.07906	21.65357	0.87478	1.14314	186.14589	181.52329	70.02762	0.32909	 	3.4239E14	 	1.10212E-14	 	14049.01862	29.52617	 
495.0	1.0	0.0	8.26696	6.8833	-5.32613	15.05822	21.56448	0.87272	1.14585	186.51504	181.69918	70.17564	0.32892	 	4.52739E14	 	8.28105E-15	 	13901.63425	29.47687	 
490.0	1.0	0.0	8.26903	6.88159	-5.34976	15.03735	21.47538	0.87063	1.14859	186.88343	181.87398	70.3234	0.32874	 	6.00847E14	 	6.19916E-15	 	13754.4961	29.42763	 
485.0	1.0	0.0	8.27109	6.87987	-5.37335	15.01646	21.38628	0.86853	1.15137	187.25107	182.0477	70.47093	0.32857	 	8.0039E14	 	4.62317E-15	 	13607.60391	29.37844	 
480.0	1.0	0.0	8.27315	6.87816	-5.39688	14.99555	21.29718	0.86641	1.15418	187.61795	182.22033	70.61821	0.3284	 	1.07027E15	 	3.43459E-15	 	13460.95741	29.3293	 
475.0	1.0	0.0	8.2752	6.87645	-5.42035	14.97462	21.20807	0.86428	1.15703	187.98408	182.39189	70.76524	0.32822	 	1.43672E15	 	2.54158E-15	 	13314.55637	29.28021	 
470.0	1.0	0.0	8.27725	6.87475	-5.44376	14.95367	21.11897	0.86212	1.15993	188.34946	182.56237	70.91203	0.32805	 	1.93629E15	 	1.87324E-15	 	13168.40054	29.23117	 
465.0	1.0	0.0	8.27929	6.87305	-5.46713	14.93269	21.02986	0.85995	1.16286	188.71408	182.73178	71.05857	0.32788	 	2.62014E15	 	1.37501E-15	 	13022.48967	29.18217	 
460.0	1.0	0.0	8.28133	6.87136	-5.49043	14.9117	20.94076	0.85776	1.16583	189.07795	182.90012	71.20487	0.3277	 	3.56017E15	 	1.0051E-15	 	12876.82352	29.13323	 
455.0	1.0	0.0	8.28337	6.86967	-5.51368	14.89068	20.85165	0.85555	1.16884	189.44107	183.06739	71.35092	0.32753	 	4.85786E15	 	7.31581E-16	 	12731.40187	29.08433	 
450.0	1.0	0.0	8.28541	6.86798	-5.53687	14.86964	20.76254	0.85332	1.17189	189.80343	183.2336	71.49673	0.32736	 	6.65712E15	 	5.30186E-16	 	12586.22448	29.03548	 
445.0	1.0	0.0	8.28744	6.8663	-5.56001	14.84858	20.67342	0.85108	1.17498	190.16504	183.39876	71.64229	0.32718	 	9.16291E15	 	3.82533E-16	 	12441.29112	28.98667	 
440.0	1.0	0.0	8.28946	6.86462	-5.58309	14.8275	20.58431	0.84881	1.17812	190.5259	183.56286	71.7876	0.32701	 	1.26685E16	 	2.74753E-16	 	12296.60159	28.93791	 
435.0	1.0	0.0	8.29148	6.86295	-5.60612	14.8064	20.4952	0.84652	1.1813	190.886	183.7259	71.93267	0.32684	 	1.7595600000000002E16	 	1.9643E-16	 	12152.15565	28.88919	 
430.0	1.0	0.0	8.2935	6.86128	-5.62909	14.78528	20.40608	0.84422	1.18453	191.24535	183.8879	72.07749	0.32666	 	2.45535E16	 	1.39773E-16	 	12007.95311	28.84051	 
425.0	1.0	0.0	8.29552	6.85961	-5.652	14.76414	20.31696	0.84189	1.1878	191.60395	184.04885	72.22207	0.32649	 	3.4426500000000004E16	 	9.89788E-17	 	11863.99373	28.79188	 
420.0	1.0	0.0	8.29753	6.85795	-5.67485	14.74297	20.22784	0.83954	1.19112	191.96179	184.20876	72.36639	0.32632	 	4.85056E16	 	6.97464E-17	 	11720.27734	28.74328	 
415.0	1.0	0.0	8.29953	6.85629	-5.69765	14.72178	20.13872	0.83718	1.19449	192.31888	184.36762	72.51048	0.32615	 	6.8683800000000008E16	 	4.89008E-17	 	11576.80372	28.69472	 
410.0	1.0	0.0	8.30153	6.85464	-5.7204	14.70058	20.04959	0.83479	1.19791	192.67522	184.52545	72.65431	0.32597	 	9.77524E16	 	3.41095E-17	 	11433.5727	28.64621	 
405.0	1.0	0.0	8.30353	6.85299	-5.74308	14.67935	19.96047	0.83238	1.20138	193.0308	184.68225	72.7979	0.3258	 	1.3985E17	 	2.36674E-17	 	11290.58408	28.59772	 
400.0	1.0	0.0	8.30553	6.85134	-5.76571	14.6581	19.87134	0.82995	1.20489	193.38563	184.83802	72.94125	0.32563	 	2.01143E17	 	1.6334E-17	 	11147.83768	28.54928	 
395.0	1.0	0.0	8.30752	6.8497	-5.78828	14.63682	19.78221	0.82749	1.20847	193.73971	184.99276	73.08435	0.32545	 	2.90879E17	 	1.12111E-17	 	11005.33333	28.50087	 
390.0	1.0	0.0	8.3095	6.84807	-5.8108	14.61553	19.69308	0.82502	1.21209	194.09304	185.14648	73.2272	0.32528	 	4.22994E17	 	7.65181E-18	 	10863.07086	28.45249	 
385.0	1.0	0.0	8.31148	6.84643	-5.83326	14.59422	19.60395	0.82252	1.21577	194.44561	185.29917	73.3698	0.32511	 	6.18625E17	 	5.19259E-18	 	10721.05011	28.40415	 
380.0	1.0	0.0	8.31346	6.8448	-5.85566	14.57288	19.51481	0.82	1.21951	194.79743	185.45085	73.51216	0.32493	 	9.10015E17	 	3.50309E-18	 	10579.27092	28.35584	 
375.0	1.0	0.0	8.31544	6.84318	-5.878	14.55153	19.42567	0.81746	1.2233	195.1485	185.60151	73.65427	0.32476	 	1.34665E18	 	2.34913E-18	 	10437.73314	28.30756	 
370.0	1.0	0.0	8.3174	6.84156	-5.90029	14.53015	19.33653	0.81489	1.22716	195.49881	185.75116	73.79613	0.32459	 	2.00498E18	 	1.56563E-18	 	10296.43663	28.2593	 
365.0	1.0	0.0	8.31937	6.83994	-5.92252	14.50875	19.24739	0.8123	1.23107	195.84837	185.8998	73.93774	0.32441	 	3.0038E18	 	1.0369E-18	 	10155.38125	28.21107	 
360.0	1.0	0.0	8.32133	6.83833	-5.94469	14.48733	19.15825	0.80969	1.23505	196.19718	186.04744	74.07911	0.32424	 	4.52904E18	 	6.82318E-19	 	10014.5669	28.16287	 
355.0	1.0	0.0	8.32329	6.83672	-5.9668	14.46589	19.06911	0.80705	1.23908	196.54524	186.19407	74.22023	0.32407	 	6.87354E18	 	4.46036E-19	 	9873.99343	28.11469	 
350.0	1.0	0.0	8.32524	6.83512	-5.98886	14.44442	18.97996	0.80438	1.24319	196.89254	186.33971	74.36111	0.32389	 	1.05018E19	 	2.89612E-19	 	9733.66074	28.06654	 
345.0	1.0	0.0	8.32719	6.83352	-6.01086	14.42294	18.89081	0.8017	1.24736	197.23909	186.48435	74.50173	0.32372	 	1.61555E19	 	1.86749E-19	 	9593.56872	28.0184	 
340.0	1.0	0.0	8.32913	6.83193	-6.0328	14.40143	18.80166	0.79898	1.25159	197.58489	186.62799	74.64211	0.32355	 	2.50283E19	 	1.1957E-19	 	9453.71729	27.97029	 
335.0	1.0	0.0	8.33107	6.83033	-6.05468	14.37991	18.71251	0.79624	1.2559	197.92994	186.77064	74.78224	0.32338	 	3.90542E19	 	7.60027E-20	 	9314.10634	27.92219	 
330.0	1.0	0.0	8.33301	6.82875	-6.0765	14.35836	18.62336	0.79348	1.26028	198.27423	186.91231	74.92213	0.3232	 	6.13915E19	 	4.79517E-20	 	9174.73583	27.8741	 
325.0	1.0	0.0	8.33494	6.82717	-6.09827	14.33679	18.5342	0.79068	1.26473	198.61777	187.05299	75.06176	0.32303	 	9.72372E19	 	3.00237E-20	 	9035.60566	27.82603	 
320.0	1.0	0.0	8.33687	6.82559	-6.11998	14.3152	18.44504	0.78786	1.26926	198.96056	187.19268	75.20115	0.32286	 	1.55211E20	 	1.86521E-20	 	8896.71578	27.77798	 
315.0	1.0	0.0	8.33879	6.82401	-6.14163	14.29359	18.35588	0.78502	1.27386	199.3026	187.3314	75.34029	0.32268	 	2.4972899999999997E20	 	1.14949E-20	 	8758.06617	27.72992	 
310.0	1.0	0.0	8.34071	6.82244	-6.16322	14.27195	18.26672	0.78214	1.27854	199.64389	187.46914	75.47918	0.32251	 	4.0509299999999997E20	 	7.02607E-21	 	8619.65676	27.68188	 
305.0	1.0	0.0	8.34262	6.82088	-6.18475	14.2503	18.17755	0.77924	1.2833	199.98442	187.60591	75.61783	0.32234	 	6.626349999999999E20	 	4.25846E-21	 	8481.48754	27.63384	 
300.0	1.0	0.0	8.34453	6.81932	-6.20622	14.22862	18.08839	0.77631	1.28815	200.3242	187.74171	75.75622	0.32216	 	1.09326E21	 	2.55877E-21	 	8343.55849	27.58581	 
295.0	1.0	0.0	8.34644	6.81776	-6.22764	14.20693	17.99922	0.77335	1.29308	200.66323	187.87654	75.89437	0.32199	 	1.8197000000000001E21	 	1.52388E-21	 	8205.86962	27.53777	 
290.0	1.0	0.0	8.34834	6.81621	-6.249	14.18521	17.91005	0.77036	1.2981	201.00151	188.01041	76.03227	0.32182	 	3.05637E21	 	8.99302E-22	 	8068.42093	27.48974	 
285.0	1.0	0.0	8.35024	6.81466	-6.27029	14.16347	17.82087	0.76734	1.3032	201.33903	188.14332	76.16992	0.32164	 	5.18138E21	 	5.25765E-22	 	7931.21245	27.4417	 
280.0	1.0	0.0	8.35213	6.81311	-6.29153	14.14171	17.7317	0.76429	1.3084	201.6758	188.27526	76.30733	0.32147	 	8.8681E21	 	3.04438E-22	 	7794.24421	27.39365	 
275.0	1.0	0.0	8.35402	6.81157	-6.31271	14.11993	17.64252	0.76121	1.3137	202.01182	188.40625	76.44448	0.3213	 	1.53275E22	 	1.74547E-22	 	7657.51627	27.34559	 
270.0	1.0	0.0	8.3559	6.81004	-6.33383	14.09812	17.55334	0.7581	1.31909	202.34709	188.53629	76.58138	0.32112	 	2.67603E22	 	9.90641E-23	 	7521.02869	27.29752	 
265.0	1.0	0.0	8.35778	6.80851	-6.35489	14.0763	17.46416	0.75496	1.32458	202.68161	188.66537	76.71804	0.32095	 	4.72069E22	 	5.56397E-23	 	7384.78154	27.24943	 
260.0	1.0	0.0	8.35966	6.80698	-6.3759	14.05445	17.37497	0.75178	1.33017	203.01538	188.79351	76.85445	0.32078	 	8.41673E22	 	3.09167E-23	 	7248.77493	27.20132	 
255.0	1.0	0.0	8.36153	6.80546	-6.39684	14.03258	17.28579	0.74857	1.33587	203.34839	188.92071	76.99061	0.32061	 	1.51718E23	 	1.69905E-23	 	7113.00895	27.15319	 
250.0	1.0	0.0	8.36339	6.80394	-6.41772	14.0107	17.1966	0.74533	1.34168	203.68065	189.04696	77.12652	0.32043	 	2.76581E23	 	9.23189E-24	 	6977.48375	27.10504	 
245.0	1.0	0.0	8.36525	6.80243	-6.43855	13.98879	17.10741	0.74206	1.3476	204.01216	189.17227	77.26218	0.32026	 	5.10082E23	 	4.95795E-24	 	6842.19945	27.05686	 
240.0	1.0	0.0	8.36711	6.80092	-6.45931	13.96686	17.01821	0.73875	1.35364	204.34292	189.29664	77.39759	0.32009	 	9.52003E23	 	2.63083E-24	 	6707.15623	27.00864	 
235.0	1.0	0.0	8.36896	6.79941	-6.48001	13.9449	16.92902	0.7354	1.3598	204.67293	189.42008	77.53275	0.31991	 	1.79874E24	 	1.37882E-24	 	6572.35427	26.96039	 
230.0	1.0	0.0	8.37081	6.79791	-6.50066	13.92293	16.83982	0.73203	1.36607	205.00218	189.54259	77.66767	0.31974	 	3.44186E24	 	7.13496E-25	 	6437.79375	26.9121	 
225.0	1.0	0.0	8.37266	6.79641	-6.52124	13.90094	16.75062	0.72861	1.37248	205.33069	189.66417	77.80233	0.31957	 	6.67227E24	 	3.64396E-25	 	6303.4749	26.86377	 
220.0	1.0	0.0	8.37449	6.79492	-6.54177	13.87892	16.66141	0.72516	1.37901	205.65844	189.78483	77.93674	0.31939	 	1.31094E25	 	1.83604E-25	 	6169.39797	26.81539	 
215.0	1.0	0.0	8.37633	6.79343	-6.56223	13.85688	16.57221	0.72167	1.38567	205.98544	189.90456	78.07091	0.31922	 	2.61157E25	 	9.12301E-26	 	6035.5632	26.76695	 
210.0	1.0	0.0	8.37816	6.79195	-6.58264	13.83482	16.483	0.71814	1.39248	206.31169	190.02337	78.20482	0.31905	 	5.2773500000000005E25	 	4.46841E-26	 	5901.97087	26.71847	 
205.0	1.0	0.0	8.37998	6.79047	-6.60298	13.81275	16.39379	0.71458	1.39942	206.63719	190.14127	78.33849	0.31887	 	1.0822300000000001E26	 	2.15641E-26	 	5768.62132	26.66991	 
200.0	1.0	0.0	8.3818	6.789	-6.62326	13.79064	16.30457	0.71098	1.40652	206.96193	190.25825	78.4719	0.3187	 	2.2532800000000004E26	 	1.02488E-26	 	5635.51483	26.6213	 
195.0	1.0	0.0	8.38362	6.78752	-6.64349	13.76852	16.21536	0.70733	1.41376	207.28593	190.37431	78.60507	0.31853	 	4.7655500000000006E26	 	4.79467E-27	 	5502.65177	26.57261	 
190.0	1.0	0.0	8.38543	6.78606	-6.66365	13.74638	16.12614	0.70365	1.42116	207.60917	190.48947	78.73798	0.31835	 	1.0243199999999999E27	 	2.20685E-27	 	5370.03253	26.52385	 
185.0	1.0	0.0	8.38724	6.7846	-6.68375	13.72421	16.03692	0.69993	1.42872	207.93167	190.60372	78.87065	0.31818	 	2.23878E27	 	9.98811E-28	 	5237.6575	26.47501	 
180.0	1.0	0.0	8.38904	6.78314	-6.70379	13.70203	15.94769	0.69616	1.43645	208.25341	190.71707	79.00306	0.31801	 	4.978299999999999E27	 	4.44271E-28	 	5105.52711	26.42608	 
175.0	1.0	0.0	8.39083	6.78169	-6.72377	13.67982	15.85847	0.69235	1.44435	208.5744	190.82951	79.13523	0.31784	 	1.1269200000000001E28	 	1.94095E-28	 	4973.64182	26.37706	 
170.0	1.0	0.0	8.39263	6.78024	-6.74369	13.65759	15.76924	0.6885	1.45243	208.89464	190.94105	79.26714	0.31766	 	2.59846E28	 	8.32381E-29	 	4842.0021	26.32794	 
165.0	1.0	0.0	8.39441	6.7788	-6.76355	13.63534	15.68	0.68461	1.46069	209.21412	191.0517	79.39881	0.31749	 	6.106840000000001E28	 	3.50181E-29	 	4710.60849	26.27872	 
160.0	1.0	0.0	8.3962	6.77736	-6.78335	13.61307	15.59077	0.68067	1.46914	209.53286	191.16145	79.53022	0.31732	 	1.4638100000000002E29	 	1.44424E-29	 	4579.46152	26.22939	 
155.0	1.0	0.0	8.39798	6.77592	-6.80308	13.59078	15.50153	0.67669	1.47779	209.85085	191.27031	79.66138	0.31714	 	3.58115E29	 	5.83526E-30	 	4448.56176	26.17995	 
150.0	1.0	0.0	8.39975	6.77449	-6.82276	13.56847	15.41229	0.67266	1.48664	210.16808	191.37829	79.7923	0.31697	 	8.948300000000001E29	 	2.30802E-30	 	4317.90982	26.13039	 
145.0	1.0	0.0	8.40152	6.77306	-6.84237	13.54613	15.32304	0.66858	1.49571	210.48457	191.48537	79.92296	0.3168	 	2.28544E30	 	8.92993E-31	 	4187.50636	26.08069	 
140.0	1.0	0.0	8.40328	6.77164	-6.86192	13.52377	15.2338	0.66446	1.50499	210.8003	191.59157	80.05337	0.31662	 	5.97114E30	 	3.37705E-31	 	4057.35202	26.03087	 
135.0	1.0	0.0	8.40504	6.77023	-6.88141	13.5014	15.14455	0.66028	1.5145	211.11528	191.69689	80.18353	0.31645	 	1.59721E31	 	1.24722E-31	 	3927.44751	25.9809	 
130.0	1.0	0.0	8.40679	6.76881	-6.90084	13.479	15.0553	0.65606	1.52425	211.42951	191.80133	80.31344	0.31628	 	4.37792E31	 	4.49454E-32	 	3797.79359	25.93079	 
125.0	1.0	0.0	8.40854	6.76741	-6.92021	13.45658	14.96604	0.65179	1.53424	211.74299	191.9049	80.44309	0.3161	 	1.23075E32	 	1.57893E-32	 	3668.39101	25.88052	 
120.0	1.0	0.0	8.41029	6.766	-6.93951	13.43414	14.87678	0.64746	1.54449	212.05572	192.00759	80.5725	0.31593	 	3.55216E32	 	5.40198E-33	 	3539.24058	25.83009	 
115.0	1.0	0.0	8.41203	6.7646	-6.95876	13.41168	14.78752	0.64309	1.555	212.3677	192.10941	80.70165	0.31576	 	1.05359E33	 	1.7981E-33	 	3410.34316	25.77949	 
110.0	1.0	0.0	8.41376	6.76321	-6.97794	13.38919	14.69826	0.63866	1.56578	212.67893	192.21036	80.83056	0.31558	 	3.21497E33	 	5.81672E-34	 	3281.6996	25.72871	 
105.0	1.0	0.0	8.41549	6.76182	-6.99706	13.36669	14.60899	0.63418	1.57685	212.9894	192.31045	80.95921	0.31541	 	1.0104000000000001E34	 	1.82666E-34	 	3153.31082	25.67776	 
100.0	1.0	0.0	8.41722	6.76043	-7.01612	13.34416	14.51972	0.62964	1.58821	213.29913	192.40967	81.08761	0.31524	 	3.27445E34	 	5.56201E-35	 	3025.17775	25.62661	 
95.0	1.0	0.0	8.41894	6.75905	-7.03511	13.32161	14.43044	0.62504	1.59988	213.60811	192.50802	81.21576	0.31507	 	1.0956E35	 	1.64005E-35	 	2897.30137	25.57528	 
90.0	1.0	0.0	8.42065	6.75767	-7.05404	13.29905	14.34116	0.62039	1.61188	213.91633	192.60552	81.34366	0.31489	 	3.7897599999999996E35	 	4.67693E-36	 	2769.68268	25.52374	 
85.0	1.0	0.0	8.42236	6.7563	-7.07291	13.27646	14.25188	0.61569	1.62421	214.2238	192.70217	81.4713	0.31472	 	1.35712E36	 	1.28805E-36	 	2642.3227	25.472	 
80.0	1.0	0.0	8.42407	6.75494	-7.09172	13.25384	14.1626	0.61092	1.63688	214.53053	192.79795	81.59869	0.31455	 	5.0386399999999996E36	 	3.42084E-37	 	2515.22248	25.42004	 
75.0	1.0	0.0	8.42577	6.75357	-7.11047	13.23121	14.07331	0.60609	1.64992	214.8365	192.89289	81.72584	0.31437	 	1.9425499999999999E37	 	8.74746E-38	 	2388.38309	25.36788	 
70.0	1.0	0.0	8.42746	6.75221	-7.12915	13.20856	13.98402	0.6012	1.66334	215.14172	192.98698	81.85272	0.3142	 	7.789469999999999E37	 	2.15012E-38	 	2261.8056	25.3155	 
65.0	1.0	0.0	8.42915	6.75086	-7.14777	13.18588	13.89473	0.59625	1.67716	215.44619	193.08022	81.97936	0.31403	 	3.25447E38	 	5.07125E-39	 	2135.4911	25.2629	 
60.0	1.0	0.0	8.43084	6.74951	-7.16633	13.16319	13.80543	0.59123	1.69139	215.74992	193.17262	82.10575	0.31385	 	1.4193600000000002E39	 	1.1456E-39	 	2009.44066	25.21009	 
55.0	1.0	0.0	8.43252	6.74817	-7.18482	13.14047	13.71613	0.58615	1.70606	216.05289	193.26417	82.23188	0.31368	 	6.47437E39	 	2.47378E-40	 	1883.65538	25.15706	 
50.0	1.0	0.0	8.43419	6.74683	-7.20325	13.11773	13.62683	0.581	1.72117	216.35511	193.35488	82.35776	0.31351	 	3.09526E40	 	5.09558E-41	 	1758.13629	25.10382	 
45.0	1.0	0.0	8.43586	6.74549	-7.22162	13.09497	13.53752	0.57578	1.73676	216.65658	193.44476	82.48338	0.31333	 	1.5543700000000002E41	 	9.98995E-42	 	1632.88439	25.05038	 
40.0	1.0	0.0	8.43752	6.74416	-7.23992	13.07219	13.44821	0.5705	1.75285	216.9573	193.5338	82.60876	0.31316	 	8.21853E41	 	1.85971E-42	 	1507.90065	24.99675	 
35.0	1.0	0.0	8.43918	6.74283	-7.25817	13.04939	13.35889	0.56514	1.76947	217.25727	193.62201	82.73388	0.31299	 	4.5867399999999996E42	 	3.27903E-43	 	1383.18591	24.94295	 
30.0	1.0	0.0	8.44084	6.74151	-7.27634	13.02657	13.26957	0.55971	1.78662	217.55648	193.70938	82.85875	0.31282	 	2.70922E43	 	5.46135E-44	 	1258.74096	24.88899	 
25.0	1.0	0.0	8.44249	6.7402	-7.29446	 	13.18025	0.55421	1.80436	217.85495	193.79593	82.98337	0.31264	 	1.6984600000000002E44	 	8.56772E-45	 	1134.5664	 	 
