T (C)	Fraction solid (wt)-TOTAL	Fraction liquid (wt)-LIQUID	Density (g/(cm)^3)-TOTAL	Molar volume (cm^3)-TOTAL	Volume change (%)-  	Average expansion coeff. (10e-6 1/K)-  	Thermal conductivity (W/(m*K))-TOTAL	Electrical resistivity (10e-6 Ohm*m)-TOTAL	Electrical conductivity (10e6 1/(Ohm*m))-TOTAL	Young's modulus (GPa)-TOTAL	Bulk modulus (GPa)-TOTAL	Shear modulus(GPa)-TOTAL	Poisson's ratio-TOTAL	Liquid viscosity (mPa s)-  	Total viscosity (mPa s)-  	Liquid diffusivity (10e-9 (m^2)/s)-  	Total diffusivity (10e-9 (m^2)/s)-  	Surface Tension (mN/m)-  	Enthalpy (J/mole)-TOTAL	Specific heat (J/(mole K))-TOTAL	Latent heat (J/mole)-TOTAL
1400.0	0.0	1.0	7.61165	7.83931	0.0	26.45692	27.80265	1.4744	0.67824	0.0	129.28129	0.0	0.5	8.85847	8.85847	0.92186	0.92186	1812.5663	58758.96	 	0.0
1395.0	0.0	1.0	7.61556	7.83528	-0.0513771	26.41483	27.73416	1.47362	0.6786	0.0	129.45266	0.0	0.5	8.95748	8.95748	0.90894	0.90894	1814.66974	58553.052	41.1816	0.0
1390.0	0.0	1.0	7.61946	7.83127	-0.1026	26.37285	27.66566	1.47284	0.67896	0.0	129.62403	0.0	0.5	9.05819	9.05819	0.89614	0.89614	1816.77197	58347.63	41.0844	0.0
1385.0	0.0	1.0	7.62336	7.82726	-0.15367	26.33097	27.59717	1.47206	0.67932	0.0	129.79539	0.0	0.5	9.16066	9.16066	0.88345	0.88345	1818.87291	58142.692	40.9876	0.0
1380.0	0.0	1.0	7.62725	7.82327	-0.20459	26.28921	27.52867	1.47127	0.67968	0.0	129.96676	0.0	0.5	9.26491	9.26491	0.87088	0.87088	1820.97248	57938.236	40.8912	0.0
1375.0	0.0	1.0	7.63113	7.81929	-0.25535	26.24756	27.46017	1.47048	0.68005	0.0	130.13813	0.0	0.5	9.37099	9.37099	0.85842	0.85842	1823.07059	57734.259	40.7954	0.0
1370.0	0.0	1.0	7.63501	7.81533	-0.30596	26.20601	27.39168	1.46969	0.68042	0.0	130.30949	0.0	0.5	9.47895	9.47895	0.84606	0.84606	1825.16717	57530.758	40.7002	0.0
1365.0	0.0	1.0	7.63887	7.81137	-0.35642	26.16458	27.32318	1.46889	0.68079	0.0	130.48086	0.0	0.5	9.58882	9.58882	0.83383	0.83383	1827.26213	57327.73	40.6056	0.0
1360.0	0.0	1.0	7.64273	7.80743	-0.40672	26.12327	27.25468	1.46808	0.68116	0.0	130.65223	0.0	0.5	9.70065	9.70065	0.8217	0.8217	1829.35539	57125.173	40.5114	0.0
1355.0	0.0	1.0	7.64658	7.8035	-0.45687	26.08207	27.18619	1.46728	0.68153	0.0	130.8236	0.0	0.5	9.81448	9.81448	0.80968	0.80968	1831.44689	56923.084	40.4178	0.0
1350.0	0.0	1.0	7.65042	7.79958	-0.50687	26.04099	27.11769	1.46647	0.68191	0.0	130.99496	0.0	0.5	9.93036	9.93036	0.79778	0.79778	1833.53653	56721.46	40.3248	0.0
1345.0	0.0	1.0	7.65426	7.79567	-0.55671	26.00002	27.0492	1.46565	0.68229	0.0	131.16633	0.0	0.5	10.04834	10.04834	0.78598	0.78598	1835.62426	56520.3	40.232	0.0
1340.0	0.0	1.0	7.65809	7.79177	-0.60641	25.95918	26.9807	1.46483	0.68267	0.0	131.3377	0.0	0.5	10.16846	10.16846	0.77429	0.77429	1837.71001	56319.6	40.14	0.0
1335.0	0.0	1.0	7.6619	7.78789	-0.65594	25.91845	26.9122	1.46401	0.68306	0.0	131.50906	0.0	0.5	10.29078	10.29078	0.76272	0.76272	1839.79369	56119.358	40.0484	0.0
1333.98	0.0	1.0	7.66268	7.7871	-0.66604	25.91015	26.89821	1.46384	0.68314	0.0	131.54407	0.0	0.5	10.31604	10.31604	0.76037	0.76037	1840.21908	56078.513	39.98962	0.0
1330.0	0.0720606	0.92794	7.67936	7.77021	-0.88144	25.37891	27.09401	1.44966	0.68982	0.00278953	131.02147	9.36471E-4	0.48938	10.46889	13.57094	0.74741	0.57657	1841.39888	54855.266	307.45587	1064.305
1325.0	0.15187	0.84813	7.69818	7.75116	-1.12453	24.78518	27.30484	1.43398	0.69736	0.0556758	130.47635	0.0188407	0.47754	10.66392	55.76608	0.73145	0.13987	1842.88089	53482.572	274.5388	2237.666
1320.0	0.22125	0.77875	7.71491	7.73441	-1.33819	24.27091	27.48202	1.42028	0.70409	0.25357	130.04666	0.0864137	0.46717	10.8624	219.66092	0.71584	0.035399	1844.36199	52268.754	242.7636	3252.602
1315.0	0.28203	0.71797	7.72991	7.71934	-1.53037	23.81421	27.63098	1.40819	0.71013	0.67598	129.70962	0.23181	0.45803	11.06457	593.39601	0.70056	0.0130627	1845.84348	51186.246	216.5016	4136.674
1310.0	0.33563	0.66437	7.74345	7.7058	-1.70306	23.40999	27.75653	1.39741	0.71561	1.36805	129.45312	0.47177	0.44992	11.27057	1252.8568	0.68559	0.00616747	1847.32591	50213.226	194.604	4911.705
1305.0	0.38318	0.61682	7.75576	7.69349	-1.86013	23.04777	27.86211	1.38772	0.72061	2.34402	129.26433	0.81238	0.44268	11.48056	2259.20322	0.67092	0.00340941	1848.81007	49332.237	176.1978	5595.149
1300.0	0.42561	0.57439	7.76704	7.68229	-2.00299	22.72391	27.95061	1.37894	0.7252	3.59572	129.135	1.25183	0.43619	11.69465	3661.33361	0.65655	0.00209709	1850.29632	48529.184	160.6106	6201.097
1295.0	0.46367	0.53633	7.77742	7.67195	-2.13491	22.42935	28.02422	1.37095	0.72942	5.10283	129.05507	1.78379	0.43033	11.91304	5501.0699	0.64247	0.00139132	1851.78531	47792.588	147.3192	6741.027
1290.0	0.49798	0.50202	7.78704	7.66237	-2.25708	22.16092	28.08473	1.36363	0.73334	6.83649	129.01869	2.39872	0.42503	12.13588	7814.23681	0.62866	9.76339E-4	1853.27734	47113.021	135.9134	7224.364
1285.0	0.52904	0.47096	7.79599	7.65345	-2.37084	21.91506	28.13369	1.3569	0.73697	8.76628	129.02004	3.08629	0.4202	12.36337	10636.02037	0.61512	7.15018E-4	1854.7727	46482.686	126.067	7658.904
1280.0	0.55727	0.44273	7.80436	7.64513	-2.47697	21.68973	28.1725	1.35069	0.74036	10.86124	129.05519	3.83577	0.41578	12.59558	14001.49877	0.60184	5.41409E-4	1856.2715	45895.085	117.5202	8051.141
1275.0	0.58302	0.41698	7.81222	7.63728	-2.57715	21.4802	28.20211	1.34492	0.74354	13.09252	129.11863	4.63703	0.41174	12.83283	17947.79363	0.58881	4.21006E-4	1857.77406	45344.769	110.0632	8406.521
1270.0	0.60661	0.39339	7.81964	7.62985	-2.67187	21.2852	28.22348	1.33956	0.74651	15.43216	129.20758	5.48013	0.40801	13.0752	22513.48419	0.57603	3.34543E-4	1859.28044	44827.144	103.525	8729.639
1265.0	0.62827	0.37173	7.82667	7.62286	-2.76106	21.10507	28.23759	1.33456	0.74931	17.85825	129.32	6.35718	0.40457	13.32291	27746.66985	0.56349	2.70567E-4	1860.7904	44338.31	97.7668	9024.392
1260.0	0.64824	0.35176	7.83334	7.61617	-2.84639	20.93509	28.24503	1.32987	0.75195	20.34909	129.4519	7.26034	0.40139	13.57614	33694.95061	0.55118	2.22079E-4	1862.30428	43874.939	92.6742	9294.103
1255.0	0.66669	0.33331	7.8397	7.60981	-2.92754	20.77627	28.24645	1.32546	0.75445	22.88672	129.60214	8.18302	0.39843	13.83516	40415.28839	0.5391	1.84547E-4	1863.82176	43434.18	88.1518	9541.624
1250.0	0.68379	0.31621	7.84578	7.60372	-3.00521	20.62666	28.24255	1.32131	0.75682	25.45786	129.76852	9.12029	0.39567	14.10003	47974.14597	0.52724	1.54961E-4	1865.3428	43013.575	84.121	9769.408
1245.0	0.69967	0.30033	7.85162	7.59785	-3.08012	20.48417	28.23367	1.31739	0.75908	28.04791	129.94872	10.06676	0.3931	14.37111	56438.65263	0.5156	1.31288E-4	1866.8674	42610.999	80.5152	9979.583
1240.0	0.71448	0.28552	7.85723	7.59221	-3.15211	20.34943	28.22027	1.31367	0.76123	30.64598	130.14194	11.01831	0.39068	14.64858	65888.83728	0.50417	1.12087E-4	1868.39519	42224.602	77.2794	10173.99
1235.0	0.7283	0.2717	7.86263	7.58676	-3.22163	20.22109	28.20281	1.31014	0.76328	33.24373	130.34672	11.97177	0.38842	14.93263	76412.98213	0.49294	9.63306E-5	1869.926	41852.773	74.3658	10354.242
1230.0	0.74123	0.25877	7.86786	7.58149	-3.28879	20.09894	28.18161	1.30678	0.76524	35.83461	130.56201	12.92462	0.38629	15.22358	88115.99897	0.48192	8.32596E-5	1871.45947	41494.099	71.7348	10521.749
1225.0	0.75336	0.24664	7.87291	7.57638	-3.35398	19.98184	28.15704	1.30357	0.76712	38.41371	130.78666	13.87493	0.38428	15.5216	101107.4726	0.47109	7.23201E-5	1872.99537	41147.337	69.3524	10677.753
1220.0	0.76477	0.23523	7.87782	7.57143	-3.41719	19.86988	28.12933	1.3005	0.76894	40.97438	131.02001	14.82014	0.38239	15.82694	115508.2682	0.46046	6.30924E-5	1874.53326	40811.39	67.1894	10823.346
1215.0	0.7755	0.2245	7.88259	7.56659	-3.47892	19.76161	28.09872	1.29756	0.77068	43.51414	131.26069	15.75924	0.38059	16.14002	131457.7402	0.45002	5.52519E-5	1876.0729	40485.289	65.2202	10959.498
1210.0	0.78563	0.21437	7.88724	7.56188	-3.53903	19.65744	28.06554	1.29473	0.77236	46.03226	131.5085	16.69182	0.37889	16.46103	149117.5047	0.43976	4.85448E-5	1877.61366	40168.17	63.4238	11087.07
1205.0	0.79521	0.20479	7.89177	7.55727	-3.59772	19.55684	28.02987	1.292	0.77399	48.5238	131.7626	17.61599	0.37727	16.79028	168649.6527	0.42968	4.27779E-5	1879.1551	39859.264	61.7812	11206.828
1200.0	0.80428	0.19572	7.89619	7.55279	-3.65496	19.45998	27.99198	1.28938	0.77557	50.98754	132.02277	18.53117	0.37572	17.12806	190245.8915	0.41978	3.77936E-5	1880.69657	39557.885	60.2758	11319.458
1195.0	0.8129	0.1871	7.90052	7.54839	-3.71107	19.36581	27.95203	1.28684	0.7771	53.42499	132.28802	19.43784	0.37425	17.47479	214125.6012	0.41006	3.34648E-5	1882.23756	39263.415	58.894	11425.574
1190.0	0.82107	0.17893	7.90476	7.54407	-3.76622	19.27392	27.91013	1.28438	0.77859	55.83364	132.55786	20.33501	0.37284	17.83082	240516.3549	0.4005	2.96914E-5	1883.7775	38975.301	57.6228	11525.73
1185.0	0.82887	0.17113	7.90892	7.53983	-3.82026	19.18477	27.86648	1.28199	0.78003	58.21441	132.83228	21.22292	0.3715	18.19636	269686.8251	0.39111	2.63894E-5	1885.31545	38693.041	56.452	11620.422
1184.82	0.82914	0.17086	7.90907	7.53967	-3.82224	19.18149	27.86484	1.28191	0.78009	58.30067	132.84239	21.25512	0.37145	18.21003	270810.2972	0.39077	2.62766E-5	1885.37178	38682.849	 	11623.745
1180.0	0.83785	0.16215	7.91359	7.5351	-3.88063	19.07457	27.8294	1.2793	0.78168	61.07962	133.23141	22.29236	0.36997	18.52083	303988.458	0.38295	2.33314E-5	1886.89352	38384.454	61.7174	11741.832
1175.0	0.8464	0.1536	7.91816	7.53045	-3.93991	18.96691	27.79069	1.27667	0.78328	63.92269	133.63213	23.35496	0.3685	18.8531	342004.3188	0.3749	2.06666E-5	1888.48121	38082.261	60.4386	11857.236
1170.0	0.85454	0.14546	7.92265	7.52591	-3.99775	18.863	27.7502	1.27412	0.78485	66.72833	134.03017	24.40492	0.36711	19.19603	384071.7199	0.36693	1.83394E-5	1890.07305	37786.921	59.068	11966.173
1165.0	0.86232	0.13768	7.92705	7.52142	-4.05511	18.75969	27.70832	1.27163	0.78639	69.51383	134.42526	25.44868	0.36576	19.54974	430719.0045	0.35905	1.62966E-5	1891.66562	37497.593	57.8656	12069.484
1160.0	0.86979	0.13021	7.93138	7.51701	-4.11135	18.65916	27.66502	1.26919	0.7879	72.27984	134.81833	26.48638	0.36447	19.91555	482459.1333	0.35123	1.44983E-5	1893.25393	37213.516	56.8154	12167.926
1155.0	0.87701	0.12299	7.93566	7.51266	-4.16677	18.56038	27.62058	1.2668	0.78939	75.04007	135.20982	27.52309	0.36322	20.29417	539951.3605	0.34347	1.29094E-5	1894.83343	36934.003	55.9026	12262.185
1150.0	0.88404	0.11596	7.9399	7.50833	-4.22203	18.46127	27.57517	1.26444	0.79086	77.80536	135.59953	28.56291	0.362	20.68605	603912.4382	0.33578	1.15017E-5	1896.39985	36658.434	55.1138	12352.878
1145.0	0.8909	0.1091	7.94411	7.50404	-4.27678	18.36295	27.52889	1.26212	0.79232	80.58615	135.98816	29.6097	0.36081	21.09286	675171.4699	0.32815	1.02517E-5	1897.94757	36386.262	54.4344	12440.552
1142.47	0.89427	0.10573	7.94621	7.50189	-4.30415	18.31402	27.50489	1.26096	0.79305	81.98179	136.18396	30.13551	0.36022	21.30528	714177.5052	0.3243	9.67445E-6	1898.72294	36250.134	 	12483.34
1140.0	0.91872	0.0812769	7.95477	7.49354	-4.41078	18.00099	27.58836	1.25496	0.79684	87.77268	136.86897	32.35084	0.35658	21.38557	821160.1028	0.32252	8.39938E-6	1895.66234	35722.597	132.733	12920.095
1135.0	0.95115	0.0488472	7.96721	7.48153	-4.56391	17.57205	27.67667	1.24653	0.80223	98.12608	137.8881	36.2977	0.35168	21.53213	1012834.199	0.31919	6.78574E-6	1889.84823	34969.263	150.6668	13489.68
1130.0	0.96984	0.0301608	7.97567	7.47349	-4.66649	17.30833	27.69861	1.24112	0.80573	109.60029	138.61597	40.62891	0.3488	21.68059	1182062.625	0.31588	5.79362E-6	1884.66535	34464.231	101.0064	13811.335
1125.0	0.98173	0.0182682	7.98216	7.46743	-4.74386	17.12698	27.68712	1.23721	0.80827	119.0996	139.20055	44.21245	0.3469	21.8392	1344084.867	0.31247	5.07708E-6	1879.99673	34080.808	76.6846	14011.751
1120.0	0.98984	0.0101578	7.98753	7.46246	-4.80719	16.99134	27.65641	1.23415	0.81027	125.11784	139.70552	46.49292	0.34556	22.01321	1507203.555	0.30889	4.51141E-6	1875.75901	33764.675	63.2266	14145.246
1115.0	0.99566	0.00434057	7.99221	7.45817	-4.86197	16.88348	27.61345	1.23163	0.81193	128.98176	140.16237	47.96468	0.34455	22.20594	1676577.441	0.30511	4.0411E-6	1871.89283	33489.099	55.1152	14238.551
1110.0	1.0	0.0	7.99644	7.4543	-4.91122	16.79346	27.5623	1.22948	0.81335	131.79589	140.58827	49.04009	0.34376	 	1855879.426	 	3.63753E-6	 	33239.568	49.9062	14306.175
1105.0	1.0	0.0	7.99895	7.45198	-4.94093	16.76952	27.48612	1.22843	0.81405	132.23276	140.92171	49.20803	0.34361	 	2023809.772	 	3.32364E-6	 	33036.88339	40.53692	 
1100.0	1.0	0.0	8.00145	7.44965	-4.97063	16.74536	27.40993	1.22737	0.81475	132.66887	141.25348	49.37573	0.34346	 	2208327.15	 	3.03488E-6	 	32872.6357	32.84954	 
1095.0	1.0	0.0	8.00394	7.44732	-5.00027	16.7212	27.33373	1.22631	0.81545	133.10436	141.58398	49.54324	0.34332	 	2411204.835	 	2.7694E-6	 	32708.66886	32.79337	 
1090.0	1.0	0.0	8.00644	7.44501	-5.02984	16.69704	27.25752	1.22525	0.81616	133.53922	141.91321	49.71054	0.34317	 	2634418.806	 	2.52549E-6	 	32544.98226	32.73732	 
1085.0	1.0	0.0	8.00892	7.44269	-5.05935	16.67289	27.1813	1.22418	0.81688	133.97345	142.24117	49.87765	0.34302	 	2880173.44	 	2.30153E-6	 	32381.57534	32.68139	 
1080.0	1.0	0.0	8.01141	7.44038	-5.08879	16.64873	27.10508	1.2231	0.8176	134.40706	142.56787	50.04457	0.34287	 	3150929.699	 	2.09601E-6	 	32218.44748	32.62557	 
1075.0	1.0	0.0	8.01389	7.43808	-5.11817	16.62458	27.02886	1.22202	0.81832	134.84003	142.8933	50.21128	0.34273	 	3449437.022	 	1.90755E-6	 	32055.59811	32.56987	 
1070.0	1.0	0.0	8.01637	7.43578	-5.14748	16.60043	26.95262	1.22093	0.81905	135.27238	143.21748	50.3778	0.34258	 	3778769.431	 	1.73485E-6	 	31893.02665	32.51429	 
1065.0	1.0	0.0	8.01884	7.43349	-5.17672	16.57629	26.87638	1.21983	0.81978	135.70411	143.54041	50.54412	0.34243	 	4142366.432	 	1.57668E-6	 	31730.73251	32.45883	 
1060.0	1.0	0.0	8.02131	7.4312	-5.2059	16.55214	26.80014	1.21873	0.82053	136.13521	143.86208	50.71024	0.34229	 	4544079.399	 	1.43192E-6	 	31568.7151	32.40348	 
1055.0	1.0	0.0	8.02377	7.42892	-5.23501	16.528	26.72388	1.21763	0.82127	136.56568	144.18252	50.87617	0.34214	 	4988224.209	 	1.29953E-6	 	31406.97384	32.34825	 
1050.0	1.0	0.0	8.02623	7.42665	-5.26405	16.50386	26.64762	1.21651	0.82202	136.99552	144.5017	51.0419	0.34199	 	5479641.024	 	1.17854E-6	 	31245.50815	32.29314	 
1045.0	1.0	0.0	8.02869	7.42437	-5.29303	16.47972	26.57136	1.21539	0.82278	137.42474	144.81965	51.20743	0.34184	 	6023762.248	 	1.06803E-6	 	31084.31745	32.23814	 
1040.0	1.0	0.0	8.03114	7.42211	-5.32194	16.45558	26.49508	1.21427	0.82354	137.85333	145.13637	51.37276	0.3417	 	6626689.837	 	9.67174E-7	 	30923.40113	32.18326	 
1035.0	1.0	0.0	8.03359	7.41985	-5.35079	16.43145	26.4188	1.21314	0.82431	138.2813	145.45185	51.5379	0.34155	 	7295283.325	 	8.75189E-7	 	30762.75864	32.1285	 
1030.0	1.0	0.0	8.03603	7.41759	-5.37957	16.40732	26.34252	1.212	0.82508	138.70864	145.76611	51.70283	0.3414	 	8037260.146	 	7.91358E-7	 	30602.38939	32.07385	 
1025.0	1.0	0.0	8.03847	7.41534	-5.40829	16.38319	26.26622	1.21086	0.82586	139.13535	146.07914	51.86757	0.34126	 	8861310.056	 	7.15013E-7	 	30442.29278	32.01932	 
1020.0	1.0	0.0	8.0409	7.41309	-5.43694	16.35906	26.18992	1.20971	0.82665	139.56144	146.39095	52.03211	0.34111	 	9777225.76	 	6.45535E-7	 	30282.46824	31.96491	 
1015.0	1.0	0.0	8.04334	7.41085	-5.46553	16.33493	26.11361	1.20855	0.82744	139.9869	146.70155	52.19645	0.34096	 	1.079605217E7	 	5.82355E-7	 	30122.9152	31.91061	 
1010.0	1.0	0.0	8.04576	7.40862	-5.49404	16.31081	26.0373	1.20739	0.82823	140.41174	147.01093	52.3606	0.34081	 	1.19302571E7	 	5.24946E-7	 	29963.63306	31.85643	 
1005.0	1.0	0.0	8.04819	7.40639	-5.5225	16.28669	25.96097	1.20622	0.82904	140.83595	147.3191	52.52455	0.34067	 	1.319392667E7	 	4.72819E-7	 	29804.62125	31.80236	 
1000.0	1.0	0.0	8.0506	7.40416	-5.55088	16.26257	25.88464	1.20505	0.82984	141.25953	147.62606	52.68829	0.34052	 	1.460298916E7	 	4.25524E-7	 	29645.87918	31.74841	 
995.0	1.0	0.0	8.05302	7.40194	-5.57921	16.23845	25.80831	1.20386	0.83066	141.68249	147.93182	52.85184	0.34037	 	1.617547175E7	 	3.82649E-7	 	29487.40628	31.69458	 
990.0	1.0	0.0	8.05543	7.39972	-5.60746	16.21433	25.73196	1.20267	0.83148	142.10482	148.23639	53.0152	0.34023	 	1.793179523E7	 	3.43809E-7	 	29329.20197	31.64086	 
985.0	1.0	0.0	8.05784	7.39751	-5.63565	16.19022	25.65561	1.20148	0.83231	142.52653	148.53975	53.17835	0.34008	 	1.989511256E7	 	3.08655E-7	 	29171.26567	31.58726	 
980.0	1.0	0.0	8.06024	7.39531	-5.66378	16.16611	25.57925	1.20028	0.83314	142.94761	148.84193	53.3413	0.33993	 	2.209169832E7	 	2.7686E-7	 	29013.59678	31.53378	 
975.0	1.0	0.0	8.06264	7.39311	-5.69183	16.142	25.50288	1.19907	0.83398	143.36806	149.14291	53.50406	0.33979	 	2.455139697E7	 	2.48129E-7	 	28856.19476	31.48041	 
970.0	1.0	0.0	8.06503	7.39092	-5.71983	16.11789	25.4265	1.19785	0.83483	143.78789	149.44271	53.66662	0.33964	 	2.730813937E7	 	2.22187E-7	 	28699.059	31.42715	 
965.0	1.0	0.0	8.06742	7.38873	-5.74775	16.09378	25.35012	1.19663	0.83568	144.20709	149.74132	53.82898	0.33949	 	3.040053865E7	 	1.98783E-7	 	28542.18893	31.37401	 
960.0	1.0	0.0	8.06981	7.38654	-5.77561	16.06968	25.27373	1.1954	0.83654	144.62567	150.03876	53.99114	0.33935	 	3.387257811E7	 	1.77686E-7	 	28385.58399	31.32099	 
955.0	1.0	0.0	8.07219	7.38436	-5.80341	16.04558	25.19733	1.19416	0.83741	145.04362	150.33502	54.1531	0.3392	 	3.777440633E7	 	1.58687E-7	 	28229.24356	31.26808	 
950.0	1.0	0.0	8.07456	7.38219	-5.83114	16.02148	25.12092	1.19292	0.83828	145.46095	150.63011	54.31486	0.33905	 	4.216325709E7	 	1.4159E-7	 	28073.16711	31.21529	 
945.0	1.0	0.0	8.07694	7.38002	-5.8588	15.99738	25.0445	1.19167	0.83916	145.87765	150.92403	54.47643	0.33891	 	4.710451479E7	 	1.26219E-7	 	27917.35403	31.16262	 
940.0	1.0	0.0	8.07931	7.37786	-5.8864	15.97328	24.96808	1.19041	0.84005	146.29372	151.21678	54.63779	0.33876	 	5.267294963E7	 	1.12412E-7	 	27761.80375	31.11005	 
935.0	1.0	0.0	8.08167	7.3757	-5.91394	15.94919	24.89164	1.18914	0.84094	146.70917	151.50837	54.79896	0.33861	 	5.895415128E7	 	1.00021E-7	 	27606.5157	31.05761	 
930.0	1.0	0.0	8.08403	7.37355	-5.9414	15.92509	24.8152	1.18787	0.84184	147.12399	151.7988	54.95993	0.33847	 	6.604619455E7	 	8.89117E-8	 	27451.4893	31.00528	 
925.0	1.0	0.0	8.08639	7.3714	-5.9688	15.901	24.73875	1.18659	0.84275	147.53819	152.08808	55.1207	0.33832	 	7.406157677E7	 	7.89596E-8	 	27296.72398	30.95307	 
920.0	1.0	0.0	8.08874	7.36925	-5.99614	15.87692	24.66229	1.1853	0.84367	147.95176	152.3762	55.28127	0.33817	 	8.312947377E7	 	7.0053E-8	 	27142.21914	30.90097	 
915.0	1.0	0.0	8.09108	7.36712	-6.02341	15.85283	24.58582	1.184	0.84459	148.36471	152.66317	55.44164	0.33803	 	9.33983696E7	 	6.20896E-8	 	26987.97422	30.84898	 
910.0	1.0	0.0	8.09343	7.36498	-6.05062	15.82875	24.50935	1.1827	0.84552	148.77703	152.949	55.60181	0.33788	 	1.050391256E8	 	5.49763E-8	 	26833.98864	30.79712	 
905.0	1.0	0.0	8.09577	7.36286	-6.07775	15.80466	24.43286	1.18139	0.84646	149.18873	153.23368	55.76178	0.33773	 	1.18248566E8	 	4.86286E-8	 	26680.26182	30.74536	 
900.0	1.0	0.0	8.0981	7.36073	-6.10483	15.78058	24.35637	1.18007	0.84741	149.5998	153.51723	55.92155	0.33759	 	1.332536721E8	 	4.29696E-8	 	26526.79319	30.69373	 
895.0	1.0	0.0	8.10043	7.35862	-6.13184	15.7565	24.27986	1.17874	0.84836	150.01024	153.79963	56.08112	0.33744	 	1.503164943E8	 	3.79296E-8	 	26373.58216	30.64221	 
890.0	1.0	0.0	8.10276	7.35651	-6.15878	15.73243	24.20335	1.17741	0.84932	150.42006	154.08091	56.24049	0.33729	 	1.697399102E8	 	3.34456E-8	 	26220.62816	30.5908	 
885.0	1.0	0.0	8.10508	7.3544	-6.18565	15.70835	24.12683	1.17606	0.85029	150.82926	154.36105	56.39967	0.33715	 	1.918743853E8	 	2.94601E-8	 	26067.93063	30.53951	 
880.0	1.0	0.0	8.10739	7.3523	-6.21247	15.68428	24.0503	1.17471	0.85127	151.23782	154.64007	56.55864	0.337	 	2.171259174E8	 	2.59215E-8	 	25915.48892	30.48834	 
875.0	1.0	0.0	8.10971	7.3502	-6.23921	15.66021	23.97376	1.17335	0.85226	151.64577	154.91796	56.71741	0.33685	 	2.459653857E8	 	2.2783E-8	 	25763.30248	30.43729	 
870.0	1.0	0.0	8.11201	7.34811	-6.26589	15.63614	23.89721	1.17199	0.85325	152.05308	155.19473	56.87599	0.33671	 	2.789395655E8	 	2.00023E-8	 	25611.37077	30.38634	 
865.0	1.0	0.0	8.11432	7.34602	-6.29251	15.61207	23.82065	1.17061	0.85426	152.45978	155.47038	57.03436	0.33656	 	3.166841224E8	 	1.75412E-8	 	25459.69323	30.33551	 
860.41	1.0	0.0	8.11643	7.34411	-6.3169	15.58996	23.7503	1.16934	0.85518	152.83287	155.72265	57.17969	0.33643	 	3.561986647E8	 	1.55324E-8	 	25320.56493	 	 
860.0	1.0	0.0	8.11661	7.34395	-6.319	15.58827	23.7444	1.16921	0.85528	152.86625	155.7455	57.19268	0.33641	 	3.599062989E8	 	1.53668E-8	 	25305.90492	30.75766	 
855.0	1.0	0.0	8.11885	7.34192	-6.34477	15.56738	23.6718	1.16762	0.85644	153.27643	156.02584	57.35233	0.33627	 	4.09074922E8	 	1.34602E-8	 	25126.02608	35.97577	 
850.0	1.0	0.0	8.12108	7.33991	-6.37049	15.54644	23.59912	1.16603	0.85761	153.68559	156.3046	57.51164	0.33613	 	4.655017126E8	 	1.17761E-8	 	24947.11131	35.78295	 
845.0	1.0	0.0	8.12336	7.33784	-6.39685	15.5224	23.52275	1.1646	0.85866	154.0895	156.57552	57.66911	0.33598	 	5.309065501E8	 	1.02794E-8	 	24799.45551	29.53116	 
840.0	1.0	0.0	8.12565	7.33578	-6.42314	15.49837	23.44636	1.16317	0.85972	154.49279	156.84533	57.82638	0.33583	 	6.062165854E8	 	8.96216E-9	 	24649.03508	30.08408	 
835.0	1.0	0.0	8.12792	7.33373	-6.44936	15.47434	23.36997	1.16173	0.86078	154.89545	157.11405	57.98345	0.33569	 	6.930385894E8	 	7.80419E-9	 	24498.86537	30.03394	 
830.0	1.0	0.0	8.1302	7.33167	-6.47552	15.45031	23.29356	1.16029	0.86186	155.29749	157.38167	58.14032	0.33554	 	7.932570907E8	 	6.78746E-9	 	24348.94578	29.98392	 
825.0	1.0	0.0	8.13247	7.32963	-6.50162	15.42629	23.21715	1.15883	0.86294	155.6989	157.64819	58.29698	0.33539	 	9.090853265E8	 	5.89581E-9	 	24199.27574	29.93401	 
820.0	1.0	0.0	8.13473	7.32759	-6.52765	15.40227	23.14072	1.15736	0.86403	156.09969	157.91363	58.45345	0.33525	 	1.043126076E9	 	5.11481E-9	 	24049.85466	29.88422	 
815.0	1.0	0.0	8.13699	7.32555	-6.55361	15.37824	23.06428	1.15589	0.86514	156.49985	158.17798	58.60972	0.3351	 	1.198444397E9	 	4.43157E-9	 	23900.68196	29.83454	 
810.0	1.0	0.0	8.13925	7.32352	-6.57951	15.35423	22.98783	1.1544	0.86625	156.89938	158.44124	58.76578	0.33496	 	1.378654718E9	 	3.8346E-9	 	23751.75706	29.78498	 
805.0	1.0	0.0	8.1415	7.3215	-6.60534	15.33021	22.91138	1.15291	0.86737	157.29829	158.70343	58.92165	0.33481	 	1.588025279E9	 	3.31366E-9	 	23603.07937	29.73554	 
800.0	1.0	0.0	8.14375	7.31948	-6.6311	15.3062	22.8349	1.1514	0.86851	157.69658	158.96453	59.07731	0.33466	 	1.83160355E9	 	2.85967E-9	 	23454.64829	29.68622	 
795.0	1.0	0.0	8.14599	7.31746	-6.65681	15.28218	22.75842	1.14989	0.86965	158.09423	159.22456	59.23278	0.33452	 	2.115367082E9	 	2.46452E-9	 	23306.46326	29.63701	 
790.0	1.0	0.0	8.14823	7.31545	-6.68244	15.25817	22.68193	1.14837	0.8708	158.49127	159.48352	59.38804	0.33437	 	2.446405211E9	 	2.12106E-9	 	23158.52366	29.58792	 
785.0	1.0	0.0	8.15046	7.31345	-6.70801	15.23417	22.60543	1.14683	0.87197	158.88767	159.74141	59.5431	0.33422	 	2.833138274E9	 	1.82291E-9	 	23010.82891	29.53895	 
780.0	1.0	0.0	8.15269	7.31145	-6.73352	15.21016	22.52891	1.14529	0.87314	159.28346	159.99823	59.69796	0.33408	 	3.28558249E9	 	1.56446E-9	 	22863.37842	29.4901	 
775.0	1.0	0.0	8.15491	7.30946	-6.75896	15.18616	22.45238	1.14374	0.87432	159.67861	160.25398	59.85262	0.33393	 	3.815670522E9	 	1.34072E-9	 	22716.17157	29.44137	 
770.0	1.0	0.0	8.15713	7.30747	-6.78433	15.16216	22.37584	1.14218	0.87552	160.07314	160.50868	60.00707	0.33379	 	4.437640057E9	 	1.14731E-9	 	22569.20777	29.39276	 
765.0	1.0	0.0	8.15935	7.30548	-6.80964	15.13816	22.29929	1.1406	0.87673	160.46705	160.76232	60.16133	0.33364	 	5.168505606E9	 	9.80352E-10	 	22422.48643	29.34427	 
760.0	1.0	0.0	8.16156	7.3035	-6.83488	15.11416	22.22273	1.13902	0.87795	160.86033	161.0149	60.31538	0.33349	 	6.028632272E9	 	8.36433E-10	 	22276.00694	29.2959	 
755.0	1.0	0.0	8.16376	7.30153	-6.86006	15.09017	22.14615	1.13743	0.87918	161.25298	161.26643	60.46924	0.33335	 	7.042434727E9	 	7.12558E-10	 	22129.76867	29.24765	 
750.0	1.0	0.0	8.16597	7.29956	-6.88517	15.06617	22.06956	1.13583	0.88042	161.64501	161.51691	60.62289	0.3332	 	8.239230134E9	 	6.06093E-10	 	21983.77102	29.19953	 
745.0	1.0	0.0	8.16816	7.2976	-6.91022	15.04218	21.99296	1.13421	0.88167	162.03641	161.76635	60.77634	0.33306	 	9.654280736E9	 	5.14729E-10	 	21838.01336	29.15153	 
740.0	1.0	0.0	8.17036	7.29564	-6.9352	15.0182	21.91635	1.13259	0.88293	162.42718	162.01474	60.92958	0.33291	 	1.13301E10	 	4.36443E-10	 	21692.49508	29.10366	 
735.0	1.0	0.0	8.17254	7.29369	-6.96012	14.99421	21.83972	1.13095	0.88421	162.81733	162.26209	61.08263	0.33276	 	1.3317899999999998E10	 	3.69468E-10	 	21547.21556	29.05591	 
730.0	1.0	0.0	8.17473	7.29174	-6.98497	14.97023	21.76308	1.12931	0.8855	163.20686	162.5084	61.23547	0.33262	 	1.5679699999999998E10	 	3.1226E-10	 	21402.17414	29.00828	 
725.0	1.0	0.0	8.17691	7.28979	-7.00976	14.94625	21.68643	1.12765	0.8868	163.59575	162.75367	61.38811	0.33247	 	1.84905E10	 	2.63471E-10	 	21257.37021	28.96079	 
720.0	1.0	0.0	8.17908	7.28786	-7.03448	14.92227	21.60976	1.12598	0.88811	163.98403	162.99792	61.54055	0.33233	 	2.18415E10	 	2.21932E-10	 	21112.80311	28.91342	 
715.0	1.0	0.0	8.18125	7.28592	-7.05914	14.89829	21.53308	1.1243	0.88944	164.37167	163.24113	61.69278	0.33218	 	2.5843299999999996E10	 	1.86621E-10	 	20968.47219	28.86618	 
710.0	1.0	0.0	8.18342	7.284	-7.08373	14.87431	21.45639	1.12261	0.89078	164.75869	163.48331	61.84482	0.33203	 	3.0630699999999996E10	 	1.56657E-10	 	20824.37679	28.81908	 
705.0	1.0	0.0	8.18558	7.28207	-7.10825	14.85034	21.37969	1.12091	0.89213	165.14508	163.72447	61.99665	0.33189	 	3.6368E10	 	1.31272E-10	 	20680.51626	28.77211	 
700.0	1.0	0.0	8.18773	7.28016	-7.13271	14.82637	21.30297	1.1192	0.8935	165.53085	163.96461	62.14828	0.33174	 	4.32563E10	 	1.09804E-10	 	20536.88991	28.72527	 
695.0	1.0	0.0	8.18988	7.27824	-7.15711	14.8024	21.22623	1.11747	0.89488	165.91599	164.20373	62.2997	0.3316	 	5.154139999999999E10	 	9.16796E-11	 	20393.49707	28.67857	 
690.0	1.0	0.0	8.19203	7.27634	-7.18144	14.77844	21.14948	1.11573	0.89627	166.30051	164.44183	62.45093	0.33145	 	6.152539999999999E10	 	7.64058E-11	 	20250.33704	28.63201	 
685.0	1.0	0.0	8.19417	7.27443	-7.2057	14.75447	21.07272	1.11398	0.89768	166.6844	164.67892	62.60195	0.3313	 	7.35791E10	 	6.35573E-11	 	20107.40912	28.58558	 
680.0	1.0	0.0	8.19631	7.27254	-7.2299	14.73051	20.99595	1.11222	0.8991	167.06766	164.91499	62.75276	0.33116	 	8.81596E10	 	5.27689E-11	 	19964.71259	28.53931	 
675.0	1.0	0.0	8.19844	7.27064	-7.25403	14.70655	20.91915	1.11045	0.90054	167.4503	165.15006	62.90338	0.33101	 	1.05831E11	 	4.37271E-11	 	19822.24674	28.49317	 
670.0	1.0	0.0	8.20057	7.26876	-7.2781	14.68259	20.84235	1.10866	0.90199	167.83231	165.38412	63.05379	0.33087	 	1.27291E11	 	3.61634E-11	 	19680.01084	28.44718	 
665.0	1.0	0.0	8.20269	7.26688	-7.30211	14.65864	20.76553	1.10687	0.90345	168.21369	165.61718	63.204	0.33072	 	1.53404E11	 	2.98484E-11	 	19538.00411	28.40135	 
660.0	1.0	0.0	8.20481	7.265	-7.32605	14.63469	20.68869	1.10506	0.90493	168.59445	165.84924	63.354	0.33057	 	1.85245E11	 	2.45863E-11	 	19396.22657	28.35551	 
655.0	1.0	0.0	8.20693	7.26313	-7.34992	14.61074	20.61184	1.10323	0.90643	168.97458	166.0803	63.5038	0.33043	 	2.24149E11	 	2.02101E-11	 	19254.68205	28.3089	 
650.0	1.0	0.0	8.20904	7.26126	-7.37373	14.58679	20.53497	1.1014	0.90794	169.35408	166.31036	63.6534	0.33028	 	2.71783E11	 	1.65781E-11	 	19113.3758	28.26125	 
645.0	1.0	0.0	8.21114	7.2594	-7.39747	14.56284	20.45809	1.09955	0.90946	169.73296	166.53944	63.80279	0.33014	 	3.30234E11	 	1.357E-11	 	18972.30724	28.21371	 
640.0	1.0	0.0	8.21324	7.25754	-7.42115	14.5389	20.38119	1.09769	0.91101	170.11121	166.76752	63.95198	0.32999	 	4.02112E11	 	1.10836E-11	 	18831.47582	28.16628	 
635.0	1.0	0.0	8.21534	7.25569	-7.44476	14.51495	20.30428	1.09581	0.91257	170.48883	166.99461	64.10097	0.32985	 	4.90697E11	 	9.03297E-12	 	18690.88099	28.11897	 
630.0	1.0	0.0	8.21743	7.25385	-7.46831	14.49101	20.22734	1.09392	0.91414	170.86583	167.22072	64.24975	0.3297	 	6.0012E11	 	7.34528E-12	 	18550.52221	28.07176	 
625.0	1.0	0.0	8.21951	7.25201	-7.49179	14.46708	20.1504	1.09202	0.91573	171.2422	167.44584	64.39833	0.32955	 	7.3559E11	 	5.95936E-12	 	18410.39887	28.02467	 
620.0	1.0	0.0	8.22159	7.25017	-7.51521	14.44314	20.07343	1.09011	0.91734	171.61795	167.66999	64.54671	0.32941	 	9.03698E11	 	4.82378E-12	 	18270.51035	27.9777	 
615.0	1.0	0.0	8.22367	7.24834	-7.53856	14.41921	19.99645	1.08818	0.91897	171.99306	167.89316	64.69488	0.32926	 	1.1128E12	 	3.89544E-12	 	18130.85614	27.93084	 
610.0	1.0	0.0	8.22574	7.24651	-7.56185	14.39528	19.91945	1.08623	0.92061	172.36755	168.11535	64.84284	0.32912	 	1.37352E12	 	3.13824E-12	 	17991.43571	27.88409	 
605.0	1.0	0.0	8.22781	7.24469	-7.58507	14.37135	19.84244	1.08428	0.92227	172.74142	168.33657	64.99061	0.32897	 	1.69939E12	 	2.5221E-12	 	17852.24853	27.83744	 
600.0	1.0	0.0	8.22987	7.24288	-7.60823	14.34742	19.7654	1.0823	0.92395	173.11465	168.55682	65.13817	0.32883	 	2.10771E12	 	2.02193E-12	 	17713.29405	27.7909	 
595.0	1.0	0.0	8.23193	7.24107	-7.63132	14.3235	19.68835	1.08032	0.92565	173.48726	168.7761	65.28552	0.32868	 	2.62062E12	 	1.61688E-12	 	17574.57175	27.74446	 
590.0	1.0	0.0	8.23398	7.23926	-7.65435	14.29957	19.61128	1.07832	0.92737	173.85925	168.99442	65.43267	0.32854	 	3.26659E12	 	1.28967E-12	 	17436.0811	27.69813	 
585.0	1.0	0.0	8.23603	7.23746	-7.67731	14.27565	19.5342	1.0763	0.92911	174.2306	169.21177	65.57961	0.32839	 	4.08226E12	 	1.026E-12	 	17297.82158	27.6519	 
580.0	1.0	0.0	8.23807	7.23567	-7.70021	14.25173	19.45709	1.07427	0.93086	174.60133	169.42817	65.72635	0.32824	 	5.11494E12	 	8.14088E-13	 	17159.79267	27.60578	 
575.0	1.0	0.0	8.24011	7.23388	-7.72304	14.22782	19.37997	1.07222	0.93264	174.97143	169.6436	65.87289	0.3281	 	6.42593E12	 	6.44204E-13	 	17021.99382	27.55977	 
570.0	1.0	0.0	8.24215	7.23209	-7.7458	14.2039	19.30283	1.07016	0.93444	175.3409	169.85808	66.01922	0.32795	 	8.0948E12	 	5.08377E-13	 	16884.42457	27.51385	 
565.0	1.0	0.0	8.24417	7.23031	-7.76851	14.17999	19.22566	1.06809	0.93625	175.70975	170.07161	66.16534	0.32781	 	1.02252E13	 	4.0007E-13	 	16747.08436	27.46804	 
560.0	1.0	0.0	8.2462	7.22854	-7.79114	14.15608	19.14848	1.06599	0.93809	176.07797	170.28419	66.31126	0.32766	 	1.29526E13	 	3.13944E-13	 	16609.97271	27.42233	 
555.0	1.0	0.0	8.24822	7.22677	-7.81372	14.13218	19.07128	1.06389	0.93995	176.44556	170.49582	66.45698	0.32752	 	1.64544E13	 	2.45649E-13	 	16473.0891	27.37672	 
550.0	1.0	0.0	8.25023	7.225	-7.83622	14.10827	18.99406	1.06176	0.94183	176.81253	170.70651	66.60249	0.32737	 	2.09637E13	 	1.91645E-13	 	16336.43304	27.33121	 
545.0	1.0	0.0	8.25224	7.22325	-7.85866	14.08437	18.91682	1.05962	0.94373	177.17886	170.91625	66.74779	0.32723	 	2.6788E13	 	1.49066E-13	 	16200.00403	27.2858	 
540.0	1.0	0.0	8.25425	7.22149	-7.88104	14.06047	18.83956	1.05747	0.94566	177.54457	171.12505	66.89289	0.32708	 	3.43339E13	 	1.15594E-13	 	16063.80156	27.24049	 
535.0	1.0	0.0	8.25625	7.21974	-7.90335	14.03657	18.76227	1.05529	0.94761	177.90965	171.33291	67.03778	0.32694	 	4.41406E13	 	8.93594E-14	 	15927.82517	27.19528	 
530.0	1.0	0.0	8.25824	7.218	-7.9256	14.01267	18.68497	1.0531	0.94958	178.27411	171.53984	67.18247	0.32679	 	5.69263E13	 	6.88606E-14	 	15792.07435	27.15016	 
525.0	1.0	0.0	8.26023	7.21626	-7.94778	13.98878	18.60765	1.05089	0.95157	178.63793	171.74584	67.32695	0.32665	 	7.36497E13	 	5.28932E-14	 	15656.54864	27.10514	 
520.0	1.0	0.0	8.26222	7.21453	-7.9699	13.96489	18.5303	1.04867	0.95359	179.00113	171.9509	67.47123	0.3265	 	9.5596E13	 	4.04951E-14	 	15521.24754	27.06022	 
515.0	1.0	0.0	8.2642	7.2128	-7.99195	13.941	18.45293	1.04643	0.95563	179.3637	172.15503	67.6153	0.32635	 	1.24493E14	 	3.08994E-14	 	15386.17059	27.01539	 
510.0	1.0	0.0	8.26617	7.21107	-8.01394	13.91711	18.37554	1.04417	0.9577	179.72565	172.35824	67.75916	0.32621	 	1.62673E14	 	2.34972E-14	 	15251.31733	26.97065	 
505.0	1.0	0.0	8.26814	7.20935	-8.03586	13.89322	18.29813	1.04189	0.95979	180.08696	172.56052	67.90282	0.32606	 	2.13294E14	 	1.78062E-14	 	15116.68728	26.92601	 
500.0	1.0	0.0	8.27011	7.20764	-8.05772	13.86934	18.22069	1.0396	0.96191	180.44765	172.76188	68.04627	0.32592	 	2.8064999999999997E14	 	1.34458E-14	 	14982.28	26.88146	 
495.0	1.0	0.0	8.27207	7.20593	-8.07951	13.84546	18.14323	1.03728	0.96406	180.80771	172.96232	68.18952	0.32577	 	3.70597E14	 	1.01165E-14	 	14848.09502	26.837	 
490.0	1.0	0.0	8.27402	7.20423	-8.10124	13.82158	18.06575	1.03495	0.96623	181.16714	173.16185	68.33255	0.32563	 	4.91157E14	 	7.58361E-15	 	14714.1319	26.79262	 
485.0	1.0	0.0	8.27597	7.20253	-8.12291	13.7977	17.98824	1.0326	0.96843	181.52594	173.36046	68.47539	0.32548	 	6.5336E14	 	5.66356E-15	 	14580.3902	26.74834	 
480.0	1.0	0.0	8.27792	7.20084	-8.1445	13.77383	17.91071	1.03023	0.97066	181.88411	173.55815	68.61801	0.32534	 	8.7243E14	 	4.21345E-15	 	14446.86948	26.70414	 
475.0	1.0	0.0	8.27986	7.19915	-8.16604	13.74996	17.83316	1.02784	0.97291	182.24166	173.75494	68.76043	0.32519	 	1.16946E15	 	3.1224E-15	 	14313.56931	26.66003	 
470.0	1.0	0.0	8.2818	7.19747	-8.18751	13.72609	17.75558	1.02543	0.9752	182.59858	173.95082	68.90264	0.32505	 	1.57382E15	 	2.30466E-15	 	14180.48926	26.61601	 
465.0	1.0	0.0	8.28373	7.19579	-8.20891	13.70222	17.67797	1.02301	0.97751	182.95487	174.14579	69.04465	0.3249	 	2.12653E15	 	1.69418E-15	 	14047.62891	26.57207	 
460.0	1.0	0.0	8.28565	7.19412	-8.23025	13.67835	17.60034	1.02056	0.97986	183.31053	174.33986	69.18645	0.32476	 	2.88516E15	 	1.24025E-15	 	13914.98785	26.52821	 
455.0	1.0	0.0	8.28758	7.19245	-8.25152	13.65449	17.52268	1.01809	0.98223	183.66556	174.53303	69.32804	0.32461	 	3.93087E15	 	9.04105E-16	 	13782.56568	26.48443	 
450.0	1.0	0.0	8.28949	7.19079	-8.27273	13.63063	17.445	1.0156	0.98464	184.01997	174.7253	69.46942	0.32447	 	5.37855E15	 	6.56221E-16	 	13650.362	26.44074	 
445.0	1.0	0.0	8.2914	7.18913	-8.29388	13.60677	17.36729	1.01309	0.98708	184.37374	174.91667	69.6106	0.32432	 	7.39157E15	 	4.74204E-16	 	13518.3764	26.39712	 
440.0	1.0	0.0	8.29331	7.18748	-8.31496	13.58291	17.28955	1.01056	0.98955	184.72689	175.10715	69.75157	0.32418	 	1.02034E16	 	3.41132E-16	 	13386.60851	26.35358	 
435.0	1.0	0.0	8.29521	7.18583	-8.33597	13.55906	17.21178	1.00801	0.99205	185.07941	175.29673	69.89233	0.32403	 	1.41492E16	 	2.44276E-16	 	13255.05794	26.31011	 
430.0	1.0	0.0	8.29711	7.18419	-8.35692	13.5352	17.13399	1.00544	0.99459	185.4313	175.48543	70.03289	0.32389	 	1.97122E16	 	1.741E-16	 	13123.72432	26.26672	 
425.0	1.0	0.0	8.299	7.18255	-8.37781	13.51135	17.05617	1.00284	0.99716	185.78256	175.67323	70.17323	0.32374	 	2.75932E16	 	1.2349E-16	 	12992.60732	26.2234	 
420.0	1.0	0.0	8.30089	7.18092	-8.39863	13.48751	16.97832	1.00023	0.99977	186.13319	175.86016	70.31337	0.3236	 	3.8813E16	 	8.7164E-17	 	12861.70653	26.18016	 
415.0	1.0	0.0	8.30277	7.17929	-8.41938	13.46366	16.90043	0.99759	1.00242	186.48319	176.04619	70.45331	0.32345	 	5.48662E16	 	6.1216E-17	 	12731.02168	26.13697	 
410.0	1.0	0.0	8.30464	7.17767	-8.44008	13.43982	16.82252	0.99493	1.0051	186.83257	176.23135	70.59303	0.32331	 	7.7953E16	 	4.2773E-17	 	12600.55249	26.09384	 
405.0	1.0	0.0	8.30651	7.17605	-8.4607	13.41597	16.74458	0.99224	1.00782	187.18131	176.41563	70.73255	0.32316	 	1.1133E17	 	2.97305E-17	 	12470.29868	26.05076	 
400.0	1.0	0.0	8.30838	7.17444	-8.48126	13.39213	16.66661	0.98953	1.01058	187.52943	176.59903	70.87185	0.32302	 	1.59841E17	 	2.05547E-17	 	12340.26001	26.00773	 
395.0	1.0	0.0	8.31024	7.17283	-8.50176	13.3683	16.5886	0.9868	1.01337	187.87692	176.78155	71.01095	0.32287	 	2.30736E17	 	1.41334E-17	 	12210.43622	25.96476	 
390.0	1.0	0.0	8.3121	7.17123	-8.52219	13.34446	16.51057	0.98405	1.01621	188.22378	176.96321	71.14984	0.32273	 	3.34924E17	 	9.66388E-18	 	12080.82708	25.92183	 
385.0	1.0	0.0	8.31395	7.16963	-8.54256	13.32063	16.4325	0.98127	1.01909	188.57001	177.14399	71.28853	0.32258	 	4.8892E17	 	6.57013E-18	 	11951.43236	25.87894	 
380.0	1.0	0.0	8.3158	7.16804	-8.56286	13.2968	16.3544	0.97846	1.02201	188.91561	177.3239	71.427	0.32244	 	7.17866E17	 	4.44075E-18	 	11822.25186	25.8361	 
375.0	1.0	0.0	8.31764	7.16645	-8.5831	13.27297	16.27626	0.97563	1.02497	189.26058	177.50295	71.56527	0.32229	 	1.06029E18	 	2.98359E-18	 	11693.28536	25.7933	 
370.0	1.0	0.0	8.31947	7.16487	-8.60328	13.24914	16.19809	0.97278	1.02798	189.60492	177.68113	71.70333	0.32215	 	1.57556E18	 	1.99234E-18	 	11564.53269	25.75054	 
365.0	1.0	0.0	8.3213	7.1633	-8.62339	13.22532	16.11988	0.9699	1.03103	189.94863	177.85846	71.84118	0.322	 	2.35584E18	 	1.3221E-18	 	11435.99363	25.70781	 
360.0	1.0	0.0	8.32313	7.16173	-8.64343	13.2015	16.04164	0.96699	1.03413	190.29172	178.03492	71.97882	0.32186	 	3.54497E18	 	8.71726E-19	 	11307.66804	25.66512	 
355.0	1.0	0.0	8.32495	7.16016	-8.66341	13.17768	15.96337	0.96406	1.03728	190.63417	178.21052	72.11625	0.32171	 	5.36916E18	 	5.7101E-19	 	11179.55577	25.62245	 
350.0	1.0	0.0	8.32677	7.1586	-8.68333	13.15386	15.88505	0.9611	1.04047	190.97599	178.38527	72.25347	0.32157	 	8.1864E18	 	3.71524E-19	 	11051.65667	25.57982	 
345.0	1.0	0.0	8.32858	7.15704	-8.70318	13.13004	15.8067	0.95812	1.04371	191.31719	178.55917	72.39048	0.32143	 	1.25673E19	 	2.4007E-19	 	10923.97061	25.53721	 
340.0	1.0	0.0	8.33038	7.15549	-8.72296	13.10623	15.72831	0.9551	1.04701	191.65775	178.73221	72.52729	0.32128	 	1.9428E19	 	1.54037E-19	 	10796.49748	25.49463	 
335.0	1.0	0.0	8.33218	7.15394	-8.74268	13.08242	15.64988	0.95206	1.05035	191.99769	178.9044	72.66388	0.32114	 	3.025E19	 	9.81232E-20	 	10669.23718	25.45206	 
330.0	1.0	0.0	8.33398	7.1524	-8.76234	13.05861	15.57141	0.94899	1.05375	192.337	179.07575	72.80027	0.32099	 	4.74472E19	 	6.20442E-20	 	10542.18964	25.40951	 
325.0	1.0	0.0	8.33577	7.15087	-8.78193	13.0348	15.4929	0.9459	1.0572	192.67567	179.24625	72.93644	0.32085	 	7.49832E19	 	3.89343E-20	 	10415.35478	25.36697	 
320.0	1.0	0.0	8.33755	7.14934	-8.80146	13.011	15.41435	0.94277	1.0607	193.01372	179.41591	73.07241	0.3207	 	1.1941799999999998E20	 	2.42428E-20	 	10288.73256	25.32444	 
315.0	1.0	0.0	8.33933	7.14781	-8.82092	12.98719	15.33576	0.93961	1.06427	193.35114	179.58473	73.20817	0.32056	 	1.91694E20	 	1.4975E-20	 	10162.32296	25.28192	 
310.0	1.0	0.0	8.34111	7.14629	-8.84032	12.96339	15.25712	0.93643	1.06789	193.68793	179.75271	73.34371	0.32041	 	3.1022299999999997E20	 	9.17474E-21	 	10036.12595	25.2394	 
305.0	1.0	0.0	8.34288	7.14477	-8.85966	12.9396	15.17844	0.93321	1.07157	194.02408	179.91985	73.47905	0.32027	 	5.0623799999999993E20	 	5.57407E-21	 	9910.14154	25.19688	 
300.0	1.0	0.0	8.34464	7.14326	-8.87893	12.9158	15.09971	0.92996	1.07531	194.35961	180.08616	73.61418	0.32012	 	8.331939999999999E20	 	3.35744E-21	 	9784.36978	25.15435	 
295.0	1.0	0.0	8.3464	7.14176	-8.89813	12.89201	15.02094	0.92668	1.07912	194.69451	180.25163	73.7491	0.31998	 	1.3834E21	 	2.00449E-21	 	9658.8107	25.11182	 
290.0	1.0	0.0	8.34815	7.14026	-8.91727	12.86821	14.94212	0.92337	1.08298	195.02878	180.41627	73.8838	0.31983	 	2.3177000000000001E21	 	1.18591E-21	 	9533.46436	25.06927	 
285.0	1.0	0.0	8.3499	7.13876	-8.93635	12.84442	14.86326	0.92003	1.08692	195.36242	180.58009	74.0183	0.31969	 	3.9190700000000003E21	 	6.95111E-22	 	9408.33089	25.02669	 
280.0	1.0	0.0	8.35164	7.13727	-8.95536	12.82064	14.78435	0.91666	1.09092	195.69543	180.74307	74.15259	0.31955	 	6.69011E21	 	4.03549E-22	 	9283.41039	24.9841	 
275.0	1.0	0.0	8.35338	7.13579	-8.97431	12.79685	14.70538	0.91325	1.09499	196.02781	180.90524	74.28667	0.3194	 	1.1532399999999998E22	 	2.31988E-22	 	9158.703	24.94148	 
270.0	1.0	0.0	8.35512	7.13431	-8.99319	12.77307	14.62637	0.90981	1.09913	196.35956	181.06657	74.42053	0.31926	 	2.00799E22	 	1.32022E-22	 	9034.2089	24.89882	 
265.0	1.0	0.0	8.35684	7.13283	-9.01201	12.74929	14.5473	0.90633	1.10335	196.69068	181.22709	74.55419	0.31911	 	3.5324599999999997E22	 	7.43554E-23	 	8909.92827	24.85613	 
260.0	1.0	0.0	8.35857	7.13136	-9.03076	12.72551	14.46818	0.90282	1.10764	197.02117	181.38679	74.68764	0.31897	 	6.28051E22	 	4.14325E-23	 	8785.86135	24.81338	 
255.0	1.0	0.0	8.36028	7.1299	-9.04945	12.70173	14.38901	0.89927	1.11201	197.35103	181.54568	74.82087	0.31882	 	1.12887E23	 	2.28349E-23	 	8662.00841	24.77059	 
250.0	1.0	0.0	8.362	7.12844	-9.06808	12.67796	14.30978	0.89569	1.11645	197.68026	181.70375	74.9539	0.31868	 	2.05193E23	 	1.24437E-23	 	8538.36971	24.72774	 
245.0	1.0	0.0	8.3637	7.12698	-9.08664	12.65419	14.23049	0.89208	1.12098	198.00886	181.861	75.08671	0.31853	 	3.7730099999999996E23	 	6.70277E-24	 	8414.94559	24.68482	 
240.0	1.0	0.0	8.36541	7.12553	-9.10513	12.63042	14.15115	0.88842	1.12559	198.33683	182.01745	75.21932	0.31839	 	7.020499999999999E23	 	3.56749E-24	 	8291.73639	24.64184	 
235.0	1.0	0.0	8.3671	7.12409	-9.12356	12.60665	14.07175	0.88473	1.13029	198.66417	182.17308	75.35171	0.31825	 	1.32238E24	 	1.87552E-24	 	8168.74252	24.59877	 
230.0	1.0	0.0	8.36879	7.12265	-9.14193	12.58288	13.99228	0.881	1.13508	198.99088	182.32791	75.48389	0.3181	 	2.52237E24	 	9.73588E-25	 	8045.96441	24.55562	 
225.0	1.0	0.0	8.37048	7.12121	-9.16023	12.55912	13.91275	0.87723	1.13995	199.31696	182.48194	75.61586	0.31796	 	4.87407E24	 	4.98833E-25	 	7923.40252	24.51238	 
220.0	1.0	0.0	8.37216	7.11978	-9.17847	12.53536	13.83316	0.87342	1.14492	199.64241	182.63516	75.74762	0.31781	 	9.545000000000001E24	 	2.52168E-25	 	7801.05736	24.46903	 
215.0	1.0	0.0	8.37384	7.11836	-9.19664	12.5116	13.75351	0.86957	1.14999	199.96723	182.78758	75.87917	0.31767	 	1.89513E25	 	1.25719E-25	 	7678.92949	24.42557	 
210.0	1.0	0.0	8.37551	7.11694	-9.21475	12.48784	13.67378	0.86568	1.15516	200.29142	182.9392	76.01051	0.31752	 	3.81653E25	 	6.17875E-26	 	7557.01952	24.38199	 
205.0	1.0	0.0	8.37717	7.11552	-9.2328	12.46409	13.59399	0.86175	1.16042	200.61498	183.09003	76.14163	0.31738	 	7.79929E25	 	2.99224E-26	 	7435.3281	24.33828	 
200.0	1.0	0.0	8.37883	7.11411	-9.25078	12.44034	13.51413	0.85778	1.1658	200.93792	183.24006	76.27255	0.31724	 	1.61809E26	 	1.4272E-26	 	7313.85592	24.29444	 
195.0	1.0	0.0	8.38049	7.11271	-9.2687	12.41659	13.43419	0.85377	1.17128	201.26022	183.3893	76.40325	0.31709	 	3.4097200000000006E26	 	6.7012E-27	 	7192.60375	24.25043	 
190.0	1.0	0.0	8.38214	7.11131	-9.28655	12.39284	13.35418	0.84971	1.17687	201.58189	183.53774	76.53374	0.31695	 	7.30173E26	 	3.09587E-27	 	7071.5724	24.20627	 
185.0	1.0	0.0	8.38378	7.10991	-9.30434	12.36909	13.27409	0.84561	1.18258	201.90293	183.6854	76.66402	0.3168	 	1.58983E27	 	1.40651E-27	 	6950.76275	24.16193	 
180.0	1.0	0.0	8.38542	7.10853	-9.32206	12.34535	13.19393	0.84146	1.18841	202.22335	183.83227	76.79409	0.31666	 	3.52154E27	 	6.28052E-28	 	6830.17573	24.1174	 
175.0	1.0	0.0	8.38705	7.10714	-9.33972	12.32161	13.11368	0.83727	1.19436	202.54313	183.97835	76.92395	0.31652	 	7.94003E27	 	2.75479E-28	 	6709.81235	24.07268	 
170.0	1.0	0.0	8.38868	7.10576	-9.35731	12.29787	13.03335	0.83303	1.20044	202.86229	184.12366	77.0536	0.31637	 	1.82339E28	 	1.1862E-28	 	6589.67368	24.02773	 
165.0	1.0	0.0	8.3903	7.10439	-9.37484	12.27413	12.95293	0.82874	1.20664	203.18081	184.26818	77.18303	0.31623	 	4.2675200000000005E28	 	5.01111E-29	 	6469.76088	23.98256	 
160.0	1.0	0.0	8.39192	7.10302	-9.39231	12.2504	12.87243	0.82441	1.21299	203.49871	184.41192	77.31225	0.31608	 	1.01859E29	 	2.07552E-29	 	6350.07516	23.93714	 
155.0	1.0	0.0	8.39353	7.10165	-9.40971	12.22666	12.79184	0.82003	1.21947	203.81598	184.55488	77.44126	0.31594	 	2.48111E29	 	8.4224E-30	 	6230.61786	23.89146	 
150.0	1.0	0.0	8.39514	7.1003	-9.42705	12.20293	12.71115	0.8156	1.2261	204.13262	184.69707	77.57006	0.3158	 	6.1720800000000005E29	 	3.34618E-30	 	6111.39037	23.8455	 
145.0	1.0	0.0	8.39674	7.09894	-9.44432	12.17921	12.63037	0.81111	1.23287	204.44863	184.83849	77.69865	0.31565	 	1.56921E30	 	1.30058E-30	 	5992.39417	23.79924	 
140.0	1.0	0.0	8.39834	7.09759	-9.46153	12.15548	12.54948	0.80658	1.2398	204.76401	184.97913	77.82702	0.31551	 	4.08076E30	 	4.94144E-31	 	5873.63087	23.75266	 
135.0	1.0	0.0	8.39993	7.09625	-9.47868	12.13176	12.4685	0.802	1.24689	205.07876	185.119	77.95519	0.31536	 	1.08635E31	 	1.83374E-31	 	5755.10217	23.70574	 
130.0	1.0	0.0	8.40151	7.09491	-9.49576	12.10803	12.38741	0.79736	1.25414	205.39289	185.25811	78.08314	0.31522	 	2.96309E31	 	6.64062E-32	 	5636.80988	23.65846	 
125.0	1.0	0.0	8.40309	7.09357	-9.51278	12.08431	12.30621	0.79266	1.26157	205.70638	185.39645	78.21088	0.31508	 	8.2883E31	 	2.3446E-32	 	5518.75593	23.61079	 
120.0	1.0	0.0	8.40467	7.09225	-9.52973	12.0606	12.2249	0.78791	1.26917	206.01925	185.53403	78.33841	0.31493	 	2.37985E32	 	8.06299E-33	 	5400.94239	23.56271	 
115.0	1.0	0.0	8.40624	7.09092	-9.54662	12.03688	12.14347	0.78311	1.27696	206.33149	185.67085	78.46572	0.31479	 	7.02157E32	 	2.69806E-33	 	5283.37142	23.51419	 
110.0	1.0	0.0	8.4078	7.0896	-9.56344	12.01317	12.06192	0.77825	1.28494	206.6431	185.80691	78.59283	0.31464	 	2.131E33	 	8.77551E-34	 	5166.0454	23.46521	 
105.0	1.0	0.0	8.40936	7.08829	-9.5802	11.98946	11.98025	0.77333	1.29311	206.95409	185.94221	78.71972	0.3145	 	6.66012E33	 	2.77121E-34	 	5048.96678	23.41572	 
100.0	1.0	0.0	8.41091	7.08698	-9.5969	11.96575	11.89845	0.76835	1.30149	207.26445	186.07675	78.8464	0.31436	 	2.14607E34	 	8.48645E-35	 	4932.13824	23.36571	 
95.0	1.0	0.0	8.41246	7.08568	-9.61353	11.94204	11.81651	0.76331	1.31008	207.57418	186.21054	78.97287	0.31421	 	7.13853E34	 	2.51711E-35	 	4815.5626	23.31513	 
90.0	1.0	0.0	8.414	7.08438	-9.63009	11.91834	11.73444	0.75821	1.3189	207.88328	186.34358	79.09913	0.31407	 	2.45441E35	 	7.22147E-36	 	4699.24285	23.26395	 
85.0	1.0	0.0	8.41554	7.08308	-9.6466	11.89464	11.65223	0.75305	1.32794	208.19176	186.47587	79.22517	0.31392	 	8.734949999999999E35	 	2.0012E-36	 	4583.18224	23.21212	 
80.0	1.0	0.0	8.41707	7.0818	-9.66304	11.87094	11.56986	0.74782	1.33722	208.49961	186.60742	79.35101	0.31378	 	3.22244E36	 	5.34885E-37	 	4467.38417	23.15962	 
75.0	1.0	0.0	8.4186	7.08051	-9.67941	11.84724	11.48734	0.74253	1.34675	208.80684	186.73821	79.47663	0.31364	 	1.23422E37	 	1.37676E-37	 	4351.85231	23.10637	 
70.0	1.0	0.0	8.42012	7.07923	-9.69572	11.82354	11.40466	0.73717	1.35654	209.11344	186.86827	79.60204	0.31349	 	4.91585E37	 	3.407E-38	 	4236.59054	23.05235	 
65.0	1.0	0.0	8.42163	7.07796	-9.71197	11.79985	11.32182	0.73174	1.3666	209.41942	186.99758	79.72724	0.31335	 	2.0396399999999998E38	 	8.09177E-39	 	4121.60302	22.9975	 
60.0	1.0	0.0	8.42314	7.07669	-9.72815	11.77616	11.2388	0.72625	1.37694	209.72477	187.12616	79.85223	0.31321	 	8.83193E38	 	1.84107E-39	 	4006.89423	22.94176	 
55.0	1.0	0.0	8.42464	7.07543	-9.74427	11.75247	11.1556	0.72068	1.38757	210.0295	187.254	79.977	0.31306	 	3.99903E39	 	4.00501E-40	 	3892.46889	22.88507	 
50.0	1.0	0.0	8.42614	7.07417	-9.76032	11.72878	11.07222	0.71505	1.39851	210.3336	187.3811	80.10157	0.31292	 	1.89737E40	 	8.31264E-41	 	3778.33209	22.82736	 
45.0	1.0	0.0	8.42764	7.07292	-9.77631	11.7051	10.98863	0.70934	1.40976	210.63708	187.50747	80.22592	0.31277	 	9.45371E40	 	1.64254E-41	 	3664.48925	22.76857	 
40.0	1.0	0.0	8.42913	7.07167	-9.79224	11.68141	10.90485	0.70356	1.42135	210.93994	187.63312	80.35006	0.31263	 	4.9582100000000006E41	 	3.08258E-42	 	3550.9462	22.70861	 
35.0	1.0	0.0	8.43061	7.07042	-9.8081	11.65773	10.82085	0.6977	1.43329	211.24218	187.75803	80.474	0.31249	 	2.74413E42	 	5.48081E-43	 	3437.70915	22.64741	 
30.0	1.0	0.0	8.43208	7.06918	-9.8239	11.63405	10.73662	0.69176	1.44559	211.5438	187.88222	80.59772	0.31234	 	1.60692E43	 	9.20765E-44	 	3324.78479	22.58487	 
25.0	1.0	0.0	8.43356	7.06795	-9.83963	 	10.65217	0.68575	1.45827	211.84479	188.00569	80.72123	0.3122	 	9.98462E43	 	1.45744E-44	 	3212.18028	 	 
