T (C)	Fraction solid (wt)-TOTAL	Fraction liquid (wt)-LIQUID	Density (g/(cm)^3)-TOTAL	Molar volume (cm^3)-TOTAL	Volume change (%)-  	Average expansion coeff. (10e-6 1/K)-  	Thermal conductivity (W/(m*K))-TOTAL	Electrical resistivity (10e-6 Ohm*m)-TOTAL	Electrical conductivity (10e6 1/(Ohm*m))-TOTAL	Young's modulus (GPa)-TOTAL	Bulk modulus (GPa)-TOTAL	Shear modulus(GPa)-TOTAL	Poisson's ratio-TOTAL	Liquid viscosity (mPa s)-  	Total viscosity (mPa s)-  	Liquid diffusivity (10e-9 (m^2)/s)-  	Total diffusivity (10e-9 (m^2)/s)-  	Surface Tension (mN/m)-  	Enthalpy (J/mole)-TOTAL	Specific heat (J/(mole K))-TOTAL	Latent heat (J/mole)-TOTAL
1400.0	0.74543	0.25457	7.52482	7.44642	0.0	20.84276	32.18253	1.27374	0.78509	30.03804	115.6338	10.80814	0.3896	7.74735	9341.82255	1.05407	8.74158E-4	1819.68101	51717.087	 	0.0
1395.0	0.80723	0.19277	7.53704	7.43435	-0.16204	20.49067	32.40674	1.26115	0.79293	41.72156	114.99512	15.11501	0.38014	7.79295	13627.9249	1.04477	5.97437E-4	1820.85381	50604.597	222.498	901.596
1390.0	0.84797	0.15203	7.54596	7.42556	-0.28009	20.25265	32.5321	1.25252	0.79839	51.21683	114.69353	18.64046	0.37381	7.83296	17613.06797	1.03632	4.60875E-4	1822.04804	49803.578	160.2038	1492.232
1385.0	0.87625	0.12375	7.55296	7.4187	-0.3723	20.08168	32.59764	1.24625	0.80241	58.81717	114.59737	21.47639	0.36935	7.86831	21327.10772	1.02856	3.79471E-4	1823.26484	49186.49	123.4176	1899.45
1380.0	0.89673	0.10327	7.55875	7.41301	-0.44874	19.95158	32.62489	1.24145	0.80551	64.9268	114.63333	23.76427	0.36606	7.89982	24849.12619	1.02137	3.24704E-4	1824.5049	48684.789	100.3402	2191.789
1375.0	0.91207	0.08793	7.56376	7.4081	-0.51463	19.84879	32.62669	1.23763	0.808	69.90041	114.75822	25.63173	0.36355	7.92811	28260.71069	1.01464	2.84643E-4	1825.7669	48259.134	85.131	2408.588
1370.0	0.92388	0.076118	7.56823	7.40372	-0.57345	19.76427	32.61084	1.23447	0.81006	74.00922	114.94498	27.17767	0.36158	7.95372	31630.11362	1.00831	2.5355E-4	1827.04995	47885.684	74.69	2573.685
1365.0	0.93319	0.066806	7.57233	7.39971	-0.6273	19.69256	32.58238	1.23179	0.81183	77.45687	115.17597	28.47695	0.35999	7.97711	35014.13816	1.00229	2.28348E-4	1828.35266	47549.328	67.2712	2702.189
1360.0	0.94068	0.059317	7.57616	7.39597	-0.67751	19.63016	32.54465	1.22945	0.81337	80.39302	115.43956	29.58493	0.35868	7.99873	38459.86813	0.99653	2.07255E-4	1829.67372	47240.113	61.843	2804.049
1355.0	0.94681	0.053193	7.57979	7.39243	-0.72506	19.57452	32.49995	1.22738	0.81475	82.92837	115.72752	30.54269	0.35758	8.01882	42006.8748	0.99099	1.89174E-4	1831.01197	46951.269	57.7688	2886.034
1350.0	0.95189	0.04811	7.58326	7.38905	-0.77049	19.52428	32.4499	1.22549	0.816	85.14662	116.03405	31.3814	0.35664	8.03777	45690.34439	0.98562	1.73389E-4	1832.3655	46678.056	54.6426	2952.881
1345.0	0.95616	0.043837	7.58661	7.38578	-0.8143	19.4781	32.39568	1.22376	0.81715	87.10999	116.35502	32.12431	0.35583	8.05577	49541.78173	0.98039	1.59417E-4	1833.73331	46417.073	52.1966	3007.988
1340.0	0.9598	0.040205	7.58986	7.38262	-0.85684	19.43505	32.33814	1.22215	0.81823	88.86729	116.68716	32.78967	0.35511	8.07305	53591.26746	0.97527	1.46915E-4	1835.1144	46165.83	50.2486	3053.844
1335.0	0.96291	0.037088	7.59304	7.37953	-0.89834	19.39456	32.27792	1.22064	0.81924	90.45488	117.02816	33.39112	0.35448	8.08983	57867.16591	0.97023	1.35638E-4	1836.50745	45922.464	48.6732	3092.308
1330.0	0.96561	0.034387	7.59616	7.3765	-0.93902	19.35602	32.21552	1.2192	0.82021	91.9028	117.37606	33.93993	0.3539	8.10621	62398.34843	0.96526	1.25397E-4	1837.91193	45685.561	47.3806	3124.793
1325.0	0.96797	0.03203	7.59922	7.37352	-0.97899	19.31918	32.15131	1.21783	0.82114	93.23357	117.72957	34.44456	0.35339	8.12242	67213.7574	0.96033	1.1605E-4	1839.32647	45454.029	46.3064	3152.387
1320.0	0.97004	0.029958	7.60224	7.37059	-1.01834	19.28376	32.08561	1.2165	0.82203	94.46565	118.08751	34.91195	0.35291	8.13858	72343.1559	0.95542	1.07485E-4	1840.75022	45227.014	45.403	3175.942
1315.0	0.97188	0.028124	7.60523	7.3677	-1.05721	19.24944	32.01864	1.21522	0.8229	95.61376	118.44904	35.34765	0.35248	8.15478	77817.68493	0.95053	9.96093E-5	1842.18268	45003.84	44.6348	3196.133
1310.0	0.97351	0.026493	7.60818	7.36484	-1.09563	19.2161	31.9506	1.21397	0.82374	96.69058	118.81328	35.75644	0.35207	8.17113	83670.52148	0.94564	9.23499E-5	1843.62305	44783.965	43.975	3213.498
1308.96	0.97382	0.026179	7.60879	7.36425	-1.10355	19.20928	31.9364	1.21372	0.82391	96.90511	118.88908	35.83789	0.35199	8.17464	84932.32145	0.94462	9.09184E-5	1843.92317	44738.838	43.59844	3216.762
1306.65	1.0	-2.5962E-9	7.61643	7.35686	-1.20276	18.9638	31.99813	1.2096	0.82672	109.23674	118.94736	40.54997	0.34694	 	97915.23908	 	7.87477E-5	 	44139.592	 	3722.329
1305.0	1.0	0.0	7.61735	7.35597	-1.2147	18.95443	31.97287	1.2093	0.82693	109.39151	119.07914	40.60885	0.34689	 	100078.3396	 	7.69653E-5	 	44075.48622	167.30437	 
1300.0	1.0	0.0	7.62008	7.35333	-1.25007	18.92833	31.89595	1.20837	0.82756	109.86003	119.47655	40.78715	0.34675	 	106977.7295	 	7.17734E-5	 	43880.97795	38.90165	 
1295.0	1.0	0.0	7.6228	7.35071	-1.28537	18.90224	31.81904	1.20744	0.8282	110.32795	119.87257	40.96526	0.3466	 	114401.3881	 	6.69026E-5	 	43686.82726	38.83014	 
1290.0	1.0	0.0	7.62553	7.34808	-1.32059	18.87616	31.74212	1.20651	0.82884	110.79526	120.26719	41.14318	0.34646	 	122392.7286	 	6.2335E-5	 	43493.03341	38.75877	 
1285.0	1.0	0.0	7.62824	7.34547	-1.35574	18.85009	31.6652	1.20557	0.82948	111.26197	120.66041	41.32092	0.34632	 	130999.048	 	5.80534E-5	 	43299.59568	38.68755	 
1280.0	1.0	0.0	7.63096	7.34285	-1.39081	18.82403	31.58828	1.20463	0.83013	111.72809	121.05225	41.49847	0.34617	 	140271.9	 	5.40418E-5	 	43106.51335	38.61647	 
1275.0	1.0	0.0	7.63366	7.34025	-1.42581	18.79797	31.51136	1.20368	0.83078	112.1936	121.4427	41.67584	0.34603	 	150267.5057	 	5.02846E-5	 	42913.78567	38.54553	 
1270.0	1.0	0.0	7.63637	7.33765	-1.46073	18.77193	31.43445	1.20273	0.83144	112.65851	121.83177	41.85303	0.34588	 	161047.2076	 	4.67672E-5	 	42721.41195	38.47474	 
1265.0	1.0	0.0	7.63907	7.33505	-1.49558	18.74589	31.35753	1.20177	0.8321	113.12282	122.21947	42.03003	0.34574	 	172677.9693	 	4.34759E-5	 	42529.39144	38.4041	 
1260.0	1.0	0.0	7.64177	7.33246	-1.53035	18.71987	31.28061	1.20081	0.83277	113.58652	122.60579	42.20684	0.34559	 	185232.9284	 	4.03974E-5	 	42337.72344	38.3336	 
1255.0	1.0	0.0	7.64446	7.32988	-1.56505	18.69385	31.20369	1.19985	0.83344	114.04963	122.99074	42.38347	0.34545	 	198792.0068	 	3.75192E-5	 	42146.40719	38.26325	 
1250.0	1.0	0.0	7.64715	7.3273	-1.59967	18.66784	31.12677	1.19888	0.83411	114.51214	123.37433	42.55991	0.34531	 	213442.5852	 	3.48296E-5	 	41955.44199	38.19304	 
1245.0	1.0	0.0	7.64984	7.32473	-1.63422	18.64184	31.04985	1.1979	0.83479	114.97404	123.75656	42.73616	0.34516	 	229280.25	 	3.23173E-5	 	41764.82711	38.12298	 
1240.0	1.0	0.0	7.65252	7.32216	-1.66869	18.61585	30.97293	1.19692	0.83548	115.43535	124.13743	42.91223	0.34502	 	246409.6188	 	2.99717E-5	 	41574.56183	38.05306	 
1235.0	1.0	0.0	7.6552	7.3196	-1.70309	18.58986	30.89601	1.19594	0.83616	115.89605	124.51694	43.08812	0.34487	 	264945.2554	 	2.77827E-5	 	41384.64541	37.98328	 
1230.0	1.0	0.0	7.65787	7.31705	-1.73741	18.56389	30.81909	1.19495	0.83686	116.35616	124.89511	43.26382	0.34473	 	285012.6829	 	2.5741E-5	 	41195.07714	37.91365	 
1225.0	1.0	0.0	7.66054	7.31449	-1.77166	18.53793	30.74217	1.19395	0.83755	116.81566	125.27193	43.43933	0.34458	 	306749.5074	 	2.38374E-5	 	41005.85631	37.84417	 
1220.0	1.0	0.0	7.66321	7.31195	-1.80584	18.51197	30.66525	1.19295	0.83826	117.27456	125.64741	43.61466	0.34444	 	330306.664	 	2.20634E-5	 	40816.98216	37.77483	 
1215.0	1.0	0.0	7.66587	7.30941	-1.83994	18.48602	30.58833	1.19195	0.83896	117.73286	126.02155	43.78981	0.3443	 	355849.8003	 	2.04111E-5	 	40628.454	37.70563	 
1210.0	1.0	0.0	7.66853	7.30688	-1.87396	18.46009	30.51141	1.19094	0.83967	118.19057	126.39436	43.96476	0.34415	 	383560.8125	 	1.88729E-5	 	40440.27109	37.63658	 
1205.0	1.0	0.0	7.67118	7.30435	-1.90791	18.43416	30.43449	1.18992	0.84039	118.64767	126.76583	44.13954	0.34401	 	413639.5523	 	1.74415E-5	 	40252.43271	37.56768	 
1200.0	1.0	0.0	7.67383	7.30183	-1.94179	18.40824	30.35757	1.1889	0.84111	119.10417	127.13598	44.31412	0.34386	 	446305.7257	 	1.61102E-5	 	40064.93815	37.49891	 
1195.0	1.0	0.0	7.67648	7.29931	-1.97559	18.38233	30.28065	1.18788	0.84184	119.56007	127.50481	44.48852	0.34372	 	481801.0044	 	1.48727E-5	 	39877.78668	37.43029	 
1190.0	1.0	0.0	7.67912	7.2968	-2.00931	18.35643	30.20373	1.18685	0.84257	120.01538	127.87232	44.66274	0.34357	 	520391.3777	 	1.37229E-5	 	39690.97756	37.36182	 
1185.0	1.0	0.0	7.68176	7.29429	-2.04297	18.33053	30.12681	1.18581	0.84331	120.47008	128.23851	44.83676	0.34343	 	562369.7717	 	1.26551E-5	 	39504.51009	37.29349	 
1180.0	1.0	0.0	7.68439	7.29179	-2.07654	18.30465	30.04989	1.18477	0.84405	120.92418	128.60339	45.01061	0.34329	 	608058.9693	 	1.16641E-5	 	39318.38355	37.22531	 
1175.0	1.0	0.0	7.68702	7.2893	-2.11005	18.27878	29.97297	1.18372	0.84479	121.37769	128.96696	45.18426	0.34314	 	657814.8679	 	1.07448E-5	 	39132.59721	37.15727	 
1170.0	1.0	0.0	7.68965	7.28681	-2.14347	18.25291	29.89605	1.18267	0.84554	121.83059	129.32923	45.35774	0.343	 	712030.114	 	9.89236E-6	 	38947.15035	37.08937	 
1165.0	1.0	0.0	7.69227	7.28432	-2.17683	18.22706	29.81913	1.18161	0.8463	122.28289	129.6902	45.53102	0.34285	 	771138.1646	 	9.10246E-6	 	38762.04225	37.02162	 
1160.0	1.0	0.0	7.69489	7.28185	-2.21011	18.20121	29.74221	1.18055	0.84706	122.7346	130.04987	45.70412	0.34271	 	835617.825	 	8.37087E-6	 	38577.27219	36.95401	 
1155.0	1.0	0.0	7.6975	7.27937	-2.24331	18.17537	29.66528	1.17948	0.84783	123.1857	130.40824	45.87703	0.34256	 	905998.3237	 	7.69366E-6	 	38392.83944	36.88655	 
1150.0	1.0	0.0	7.70011	7.27691	-2.27645	18.14955	29.58836	1.17841	0.8486	123.63621	130.76533	46.04976	0.34242	 	982864.9935	 	7.06714E-6	 	38208.74329	36.81923	 
1145.0	1.0	0.0	7.70272	7.27445	-2.3095	18.12373	29.51144	1.17733	0.84938	124.08612	131.12113	46.2223	0.34228	 	1066865.631	 	6.48783E-6	 	38024.98303	36.75205	 
1140.0	1.0	0.0	7.70532	7.27199	-2.34249	18.09792	29.43452	1.17624	0.85016	124.53542	131.47565	46.39465	0.34213	 	1158717.628	 	5.95247E-6	 	37841.55793	36.68502	 
1135.0	1.0	0.0	7.70792	7.26954	-2.37539	18.07212	29.3576	1.17515	0.85095	124.98413	131.82889	46.56682	0.34199	 	1259215.96	 	5.45802E-6	 	37658.46727	36.61813	 
1130.0	1.0	0.0	7.71051	7.26709	-2.40823	18.04633	29.28067	1.17406	0.85175	125.43224	132.18085	46.7388	0.34184	 	1369242.165	 	5.00162E-6	 	37475.71034	36.55139	 
1125.0	1.0	0.0	7.7131	7.26465	-2.44099	18.02055	29.20375	1.17295	0.85255	125.87975	132.53155	46.9106	0.3417	 	1489774.413	 	4.58057E-6	 	37293.28641	36.48479	 
1120.0	1.0	0.0	7.71568	7.26222	-2.47368	17.99477	29.12683	1.17185	0.85335	126.32666	132.88097	47.08221	0.34155	 	1621898.829	 	4.19238E-6	 	37111.19477	36.41833	 
1115.0	1.0	0.0	7.71827	7.25979	-2.50629	17.96901	29.04991	1.17073	0.85417	126.77298	133.22913	47.25363	0.34141	 	1766822.227	 	3.83469E-6	 	36929.43469	36.35202	 
1110.0	1.0	0.0	7.72084	7.25737	-2.53883	17.94326	28.97298	1.16961	0.85498	127.21869	133.57603	47.42487	0.34127	 	1925886.443	 	3.5053E-6	 	36748.00547	36.28585	 
1105.0	1.0	0.0	7.72341	7.25495	-2.57129	17.91752	28.89606	1.16849	0.85581	127.66381	133.92167	47.59592	0.34112	 	2100584.472	 	3.20216E-6	 	36566.90638	36.21982	 
1100.0	1.0	0.0	7.72598	7.25254	-2.60368	17.89178	28.81914	1.16736	0.85664	128.10832	134.26606	47.76678	0.34098	 	2292578.66	 	2.92335E-6	 	36386.13672	36.15393	 
1095.0	1.0	0.0	7.72855	7.25013	-2.636	17.86606	28.74221	1.16622	0.85747	128.55224	134.60919	47.93746	0.34083	 	2503721.228	 	2.66707E-6	 	36205.69575	36.08819	 
1090.0	1.0	0.0	7.73111	7.24773	-2.66824	17.84034	28.66529	1.16507	0.85831	128.99556	134.95108	48.10795	0.34069	 	2736077.43	 	2.43166E-6	 	36025.58276	36.0226	 
1085.0	1.0	0.0	7.73366	7.24534	-2.70041	17.81464	28.58836	1.16392	0.85916	129.43828	135.29172	48.27826	0.34054	 	2991951.723	 	2.21554E-6	 	35845.79705	35.95714	 
1080.0	1.0	0.0	7.73622	7.24295	-2.73251	17.78894	28.51144	1.16277	0.86002	129.8804	135.63113	48.44838	0.3404	 	3273917.352	 	2.01727E-6	 	35666.33789	35.89183	 
1075.0	1.0	0.0	7.73876	7.24056	-2.76453	17.76326	28.43451	1.16161	0.86088	130.32192	135.96929	48.61831	0.34026	 	3584849.819	 	1.8355E-6	 	35487.20458	35.82666	 
1070.0	1.0	0.0	7.74131	7.23818	-2.79648	17.73758	28.35759	1.16044	0.86174	130.76285	136.30623	48.78805	0.34011	 	3927964.783	 	1.66895E-6	 	35308.39638	35.76164	 
1065.0	1.0	0.0	7.74385	7.23581	-2.82835	17.71191	28.28067	1.15926	0.86262	131.20318	136.64193	48.95761	0.33997	 	4306861.019	 	1.51646E-6	 	35129.9126	35.69676	 
1060.0	1.0	0.0	7.74638	7.23344	-2.86015	17.68626	28.20374	1.15808	0.8635	131.64291	136.9764	49.12698	0.33982	 	4725569.125	 	1.37693E-6	 	34951.75251	35.63202	 
1055.0	1.0	0.0	7.74891	7.23108	-2.89188	17.66061	28.12682	1.15689	0.86439	132.08204	137.30966	49.29616	0.33968	 	5188606.819	 	1.24935E-6	 	34773.91541	35.56742	 
1050.0	1.0	0.0	7.75144	7.22872	-2.92353	17.63497	28.04989	1.1557	0.86528	132.52057	137.64169	49.46516	0.33953	 	5701041.756	 	1.13277E-6	 	34596.40057	35.50297	 
1049.23	1.0	0.0	7.75183	7.22836	-2.9284	17.63103	28.03805	1.15551	0.86542	132.58804	137.69271	49.49117	0.33951	 	5784687.007	 	1.11574E-6	 	34569.09599	 	 
1045.0	1.0	0.0	7.75403	7.22631	-2.95594	17.6064	27.97449	1.15443	0.86623	132.97714	137.98555	49.6412	0.33938	 	6274770.136	 	1.02531E-6	 	34414.38714	36.40269	 
1040.0	1.0	0.0	7.75662	7.22389	-2.98839	17.5774	27.89931	1.15315	0.86719	133.43588	138.33012	49.81813	0.33923	 	6912265.705	 	9.27215E-7	 	34231.98931	36.47957	 
1035.0	1.0	0.0	7.75921	7.22148	-3.02073	17.54852	27.82406	1.15187	0.86815	133.89336	138.67299	49.99461	0.33908	 	7619853.333	 	8.37911E-7	 	34050.09399	36.37906	 
1030.0	1.0	0.0	7.76179	7.21908	-3.05295	17.51974	27.74874	1.15058	0.86913	134.34957	139.01417	50.17066	0.33893	 	8405824.661	 	7.5666E-7	 	33868.69621	36.27956	 
1025.0	1.0	0.0	7.76436	7.21669	-3.08507	17.49108	27.67337	1.14929	0.8701	134.80455	139.35369	50.34627	0.33877	 	9279521.561	 	6.82788E-7	 	33687.79102	36.18104	 
1020.0	1.0	0.0	7.76692	7.21431	-3.11708	17.46252	27.59793	1.14799	0.87109	135.2583	139.69154	50.52145	0.33862	 	1.025147665E7	 	6.15672E-7	 	33507.37354	36.0835	 
1015.0	1.0	0.0	7.76948	7.21193	-3.14898	17.43407	27.52244	1.14669	0.87208	135.71084	140.02775	50.6962	0.33847	 	1.133357623E7	 	5.54736E-7	 	33327.43889	35.98693	 
1010.0	1.0	0.0	7.77203	7.20957	-3.18077	17.40573	27.44689	1.14538	0.87307	136.16218	140.36233	50.87054	0.33832	 	1.253924545E7	 	4.99451E-7	 	33147.98228	35.89132	 
1005.0	1.0	0.0	7.77458	7.20721	-3.21246	17.37748	27.37128	1.14407	0.87407	136.61233	140.6953	51.04446	0.33817	 	1.388365905E7	 	4.49329E-7	 	32968.99892	35.79667	 
1000.0	1.0	0.0	7.77712	7.20485	-3.24405	17.34933	27.29562	1.14275	0.87508	137.06131	141.02666	51.21798	0.33802	 	1.538398602E7	 	4.03922E-7	 	32790.4841	35.70296	 
995.0	1.0	0.0	7.77965	7.20251	-3.27553	17.32127	27.2199	1.14143	0.87609	137.50914	141.35642	51.39109	0.33787	 	1.705966772E7	 	3.62816E-7	 	32612.43315	35.61019	 
990.0	1.0	0.0	7.78217	7.20017	-3.30691	17.29331	27.14414	1.14011	0.87711	137.95582	141.68461	51.5638	0.33772	 	1.893273861E7	 	3.25633E-7	 	32434.8414	35.51835	 
985.0	1.0	0.0	7.78469	7.19785	-3.33819	17.26544	27.06832	1.13877	0.87814	138.40136	142.01124	51.73612	0.33757	 	2.102819374E7	 	2.92023E-7	 	32257.70431	35.42742	 
980.0	1.0	0.0	7.7872	7.19552	-3.36936	17.23765	26.99246	1.13744	0.87917	138.84579	142.33631	51.90805	0.33742	 	2.337441243E7	 	2.61667E-7	 	32081.01732	35.3374	 
975.0	1.0	0.0	7.78971	7.19321	-3.40044	17.20996	26.91654	1.13609	0.88021	139.28912	142.65985	52.0796	0.33727	 	2.600364627E7	 	2.34271E-7	 	31904.77595	35.24827	 
970.0	1.0	0.0	7.79221	7.1909	-3.43142	17.18234	26.84058	1.13474	0.88126	139.73135	142.98186	52.25077	0.33712	 	2.895258191E7	 	2.09567E-7	 	31728.97578	35.16003	 
965.0	1.0	0.0	7.7947	7.1886	-3.4623	17.15481	26.76458	1.13339	0.88231	140.1725	143.30235	52.42157	0.33697	 	3.226298903E7	 	1.87308E-7	 	31553.61241	35.07267	 
960.0	1.0	0.0	7.79719	7.18631	-3.49309	17.12736	26.68853	1.13203	0.88337	140.61259	143.62135	52.592	0.33682	 	3.59824688E7	 	1.67268E-7	 	31378.68153	34.98618	 
955.0	1.0	0.0	7.79967	7.18402	-3.52378	17.09998	26.61245	1.13066	0.88444	141.05162	143.93885	52.76207	0.33668	 	4.01653252E7	 	1.49241E-7	 	31204.17885	34.90054	 
950.0	1.0	0.0	7.80214	7.18175	-3.55438	17.07268	26.53632	1.12929	0.88551	141.48961	144.25488	52.93177	0.33653	 	4.487356133E7	 	1.33038E-7	 	31030.10015	34.81574	 
945.0	1.0	0.0	7.80461	7.17948	-3.58488	17.04546	26.46015	1.12791	0.8866	141.92658	144.56944	53.10112	0.33638	 	5.01780469E7	 	1.18488E-7	 	30856.44126	34.73178	 
940.0	1.0	0.0	7.80707	7.17721	-3.61528	17.0183	26.38394	1.12653	0.88769	142.36252	144.88255	53.27013	0.33623	 	5.615986511E7	 	1.05433E-7	 	30683.1981	34.64863	 
935.0	1.0	0.0	7.80953	7.17495	-3.6456	16.99122	26.3077	1.12513	0.88878	142.79747	145.19422	53.43878	0.33608	 	6.291187539E7	 	9.37292E-8	 	30510.36658	34.5663	 
930.0	1.0	0.0	7.81198	7.1727	-3.67582	16.9642	26.23142	1.12374	0.88989	143.23142	145.50446	53.6071	0.33594	 	7.054053509E7	 	8.32468E-8	 	30337.94272	34.48477	 
925.0	1.0	0.0	7.81442	7.17046	-3.70596	16.93724	26.1551	1.12233	0.891	143.66438	145.81328	53.77508	0.33579	 	7.916801524E7	 	7.38666E-8	 	30165.92259	34.40403	 
920.0	1.0	0.0	7.81686	7.16822	-3.736	16.91035	26.07875	1.12092	0.89213	144.09638	146.1207	53.94273	0.33564	 	8.893467317E7	 	6.54803E-8	 	29994.30229	34.32406	 
915.0	1.0	0.0	7.81929	7.16599	-3.76595	16.88352	26.00237	1.1195	0.89326	144.52743	146.42673	54.11005	0.3355	 	1.000019128E8	 	5.79895E-8	 	29823.07801	34.24486	 
910.0	1.0	0.0	7.82172	7.16377	-3.79582	16.85675	25.92596	1.11808	0.89439	144.95752	146.73137	54.27705	0.33535	 	1.125555645E8	 	5.1305E-8	 	29652.24598	34.1664	 
905.0	1.0	0.0	7.82414	7.16155	-3.8256	16.83004	25.84952	1.11664	0.89554	145.38668	147.03463	54.44373	0.3352	 	1.268097886E8	 	4.53455E-8	 	29481.80252	34.08869	 
900.0	1.0	0.0	7.82656	7.15934	-3.85528	16.80339	25.77305	1.1152	0.8967	145.81492	147.33654	54.6101	0.33505	 	1.430116835E8	 	4.00377E-8	 	29311.74398	34.01171	 
895.0	1.0	0.0	7.82897	7.15714	-3.88489	16.77679	25.69655	1.11376	0.89786	146.24224	147.6371	54.77615	0.33491	 	1.614466594E8	 	3.53148E-8	 	29142.06676	33.93544	 
890.0	1.0	0.0	7.83137	7.15494	-3.9144	16.75024	25.62003	1.1123	0.89904	146.66866	147.93631	54.9419	0.33476	 	1.824447602E8	 	3.11165E-8	 	28972.76736	33.85988	 
885.0	1.0	0.0	7.83377	7.15275	-3.94383	16.72375	25.54348	1.11084	0.90022	147.09419	148.2342	55.10734	0.33462	 	2.063880522E8	 	2.73884E-8	 	28803.84233	33.78501	 
880.0	1.0	0.0	7.83617	7.15056	-3.97318	16.6973	25.4669	1.10937	0.90141	147.51883	148.53077	55.27249	0.33447	 	2.337193744E8	 	2.40812E-8	 	28635.28825	33.71082	 
875.0	1.0	0.0	7.83856	7.14838	-4.00244	16.6709	25.3903	1.10789	0.90262	147.9426	148.82602	55.43734	0.33432	 	2.649525597E8	 	2.11503E-8	 	28467.10181	33.63729	 
870.0	1.0	0.0	7.84094	7.14621	-4.03162	16.64455	25.31368	1.1064	0.90383	148.36551	149.11998	55.6019	0.33418	 	3.006845829E8	 	1.85558E-8	 	28299.27972	33.56442	 
865.0	1.0	0.0	7.84332	7.14404	-4.06071	16.61825	25.23703	1.10491	0.90505	148.78756	149.41265	55.76617	0.33403	 	3.416097697E8	 	1.62613E-8	 	28131.81878	33.49219	 
860.0	1.0	0.0	7.84569	7.14188	-4.08973	16.59199	25.16036	1.10341	0.90628	149.20877	149.70404	55.93016	0.33388	 	3.885367071E8	 	1.42345E-8	 	27964.71583	33.42059	 
855.0	1.0	0.0	7.84806	7.13973	-4.11865	16.56577	25.08367	1.1019	0.90752	149.62914	149.99416	56.09387	0.33374	 	4.424082105E8	 	1.2446E-8	 	27797.96779	33.34961	 
850.0	1.0	0.0	7.85042	7.13758	-4.1475	16.53959	25.00697	1.10038	0.90878	150.04869	150.28302	56.25729	0.33359	 	5.043249217E8	 	1.08696E-8	 	27631.57164	33.27923	 
845.0	1.0	0.0	7.85276	7.13545	-4.17611	16.51414	24.92991	1.09887	0.91003	150.46298	150.56736	56.41873	0.33345	 	5.75439211E8	 	9.48391E-9	 	27469.95874	32.32258	 
840.0	1.0	0.0	7.8551	7.13332	-4.20465	16.48869	24.85285	1.09735	0.91129	150.87666	150.85061	56.57997	0.3333	 	6.573597831E8	 	8.26489E-9	 	27305.33693	32.92436	 
835.0	1.0	0.0	7.85744	7.1312	-4.23312	16.46325	24.77579	1.09581	0.91256	151.28974	151.13278	56.74102	0.33316	 	7.518452023E8	 	7.19377E-9	 	27141.00668	32.86605	 
830.0	1.0	0.0	7.85977	7.12909	-4.26152	16.43782	24.69873	1.09427	0.91385	151.70223	151.41386	56.90188	0.33302	 	8.609589614E8	 	6.25373E-9	 	26976.9673	32.80788	 
825.0	1.0	0.0	7.86209	7.12698	-4.28984	16.41239	24.62167	1.09272	0.91514	152.11411	151.69385	57.06255	0.33287	 	9.871255812E8	 	5.4297E-9	 	26813.21813	32.74983	 
820.0	1.0	0.0	7.86442	7.12488	-4.31809	16.38697	24.54461	1.09116	0.91645	152.52539	151.97276	57.22303	0.33273	 	1.133197622E9	 	4.70826E-9	 	26649.75847	32.69193	 
815.0	1.0	0.0	7.86673	7.12278	-4.34627	16.36156	24.46754	1.08959	0.91777	152.93607	152.2506	57.38332	0.33258	 	1.302535845E9	 	4.07742E-9	 	26486.58767	32.63416	 
810.0	1.0	0.0	7.86904	7.12069	-4.37438	16.33616	24.39048	1.08801	0.91911	153.34615	152.52736	57.54342	0.33244	 	1.499105236E9	 	3.52649E-9	 	26323.70504	32.57653	 
805.0	1.0	0.0	7.87135	7.1186	-4.40242	16.31076	24.31342	1.08642	0.92045	153.75563	152.80305	57.70333	0.33229	 	1.727590218E9	 	3.04597E-9	 	26161.1099	32.51903	 
800.0	1.0	0.0	7.87366	7.11652	-4.43038	16.28537	24.23636	1.08482	0.92181	154.16452	153.07767	57.86305	0.33215	 	1.993533063E9	 	2.62738E-9	 	25998.80159	32.46166	 
795.0	1.0	0.0	7.87595	7.11444	-4.45827	16.25999	24.15929	1.08321	0.92318	154.5728	153.35122	58.02257	0.33201	 	2.303500457E9	 	2.26324E-9	 	25836.77943	32.40443	 
790.0	1.0	0.0	7.87825	7.11237	-4.4861	16.23461	24.08223	1.08159	0.92456	154.98048	153.62371	58.18191	0.33186	 	2.665284229E9	 	1.94687E-9	 	25675.04275	32.34734	 
785.0	1.0	0.0	7.88054	7.1103	-4.51385	16.20925	24.00516	1.07996	0.92596	155.38756	153.89514	58.34106	0.33172	 	3.088143637E9	 	1.67239E-9	 	25513.59088	32.29037	 
780.0	1.0	0.0	7.88282	7.10824	-4.54152	16.18388	23.9281	1.07832	0.92737	155.79404	154.16551	58.50001	0.33157	 	3.583098262E9	 	1.43456E-9	 	25352.42315	32.23355	 
775.0	1.0	0.0	7.8851	7.10618	-4.56913	16.15853	23.85103	1.07667	0.92879	156.19992	154.43482	58.65878	0.33143	 	4.163282668E9	 	1.22878E-9	 	25191.5389	32.17685	 
770.0	1.0	0.0	7.88738	7.10413	-4.59667	16.13318	23.77397	1.07501	0.93023	156.6052	154.70308	58.81735	0.33128	 	4.844376514E9	 	1.05098E-9	 	25030.93746	32.12029	 
765.0	1.0	0.0	7.88965	7.10209	-4.62413	16.10784	23.6969	1.07333	0.93168	157.00989	154.97029	58.97573	0.33114	 	5.645127046E9	 	8.9758E-10	 	24870.61816	32.06386	 
760.0	1.0	0.0	7.89192	7.10005	-4.65152	16.08251	23.61983	1.07165	0.93314	157.41397	155.23646	59.13392	0.331	 	6.587984856E9	 	7.65416E-10	 	24710.58035	32.00756	 
755.0	1.0	0.0	7.89418	7.09801	-4.67884	16.05719	23.54277	1.06995	0.93462	157.81745	155.50158	59.29192	0.33085	 	7.699878762E9	 	6.51717E-10	 	24550.82335	31.9514	 
750.0	1.0	0.0	7.89644	7.09598	-4.70609	16.03187	23.4657	1.06825	0.93611	158.22033	155.76565	59.44973	0.33071	 	9.013161851E9	 	5.5405E-10	 	24391.34652	31.89537	 
745.0	1.0	0.0	7.89869	7.09396	-4.73327	16.00656	23.38863	1.06653	0.93762	158.62262	156.02869	59.60735	0.33056	 	1.05668E10	 	4.7028E-10	 	24232.14918	31.83947	 
740.0	1.0	0.0	7.90094	7.09194	-4.76038	15.98125	23.31156	1.0648	0.93914	159.0243	156.2907	59.76478	0.33042	 	1.2407599999999998E10	 	3.9854E-10	 	24073.23069	31.7837	 
735.0	1.0	0.0	7.90318	7.08993	-4.78741	15.95595	23.23449	1.06306	0.94068	159.42539	156.55166	59.92201	0.33027	 	1.4592399999999998E10	 	3.37198E-10	 	23914.59038	31.72806	 
730.0	1.0	0.0	7.90542	7.08792	-4.81438	15.93066	23.15742	1.06131	0.94223	159.82587	156.8116	60.07906	0.33013	 	1.71897E10	 	2.84829E-10	 	23756.2276	31.67256	 
725.0	1.0	0.0	7.90765	7.08592	-4.84127	15.90538	23.08035	1.05955	0.9438	160.22576	157.07051	60.23591	0.32999	 	2.02825E10	 	2.40193E-10	 	23598.1417	31.61718	 
720.0	1.0	0.0	7.90988	7.08392	-4.86809	15.88011	23.00328	1.05777	0.94539	160.62504	157.3284	60.39257	0.32984	 	2.3971699999999996E10	 	2.0221E-10	 	23440.33202	31.56194	 
715.0	1.0	0.0	7.91211	7.08193	-4.89485	15.85484	22.92621	1.05598	0.94699	161.02373	157.58526	60.54905	0.3297	 	2.8379799999999996E10	 	1.69942E-10	 	23282.79793	31.50682	 
710.0	1.0	0.0	7.91433	7.07994	-4.92152	15.82958	22.84914	1.05418	0.9486	161.42182	157.8411	60.70532	0.32955	 	3.3656299999999996E10	 	1.42574E-10	 	23125.53875	31.45184	 
705.0	1.0	0.0	7.91654	7.07796	-4.94813	15.80432	22.77207	1.05237	0.95023	161.81931	158.09592	60.86141	0.32941	 	3.99835E10	 	1.19402E-10	 	22968.55386	31.39698	 
700.0	1.0	0.0	7.91876	7.07599	-4.97467	15.77908	22.69499	1.05055	0.95188	162.2162	158.34973	61.01731	0.32926	 	4.758439999999999E10	 	9.98165E-11	 	22811.84261	31.34225	 
695.0	1.0	0.0	7.92096	7.07401	-5.00114	15.75384	22.61792	1.04871	0.95355	162.61249	158.60253	61.17301	0.32912	 	5.673199999999999E10	 	8.32917E-11	 	22655.40434	31.28765	 
690.0	1.0	0.0	7.92316	7.07205	-5.02753	15.7286	22.54084	1.04686	0.95523	163.00818	158.85432	61.32853	0.32898	 	6.776169999999999E10	 	6.93739E-11	 	22499.23843	31.23318	 
685.0	1.0	0.0	7.92536	7.07009	-5.05386	15.70338	22.46377	1.045	0.95694	163.40328	159.1051	61.48385	0.32883	 	8.10861E10	 	5.76732E-11	 	22343.34423	31.17884	 
680.0	1.0	0.0	7.92755	7.06813	-5.08011	15.67816	22.38669	1.04313	0.95866	163.79777	159.35487	61.63898	0.32869	 	9.721329999999998E10	 	4.78544E-11	 	22187.72111	31.12463	 
675.0	1.0	0.0	7.92974	7.06618	-5.10629	15.65295	22.30962	1.04124	0.96039	164.19167	159.60365	61.79392	0.32854	 	1.16771E11	 	3.96303E-11	 	22032.36842	31.07054	 
670.0	1.0	0.0	7.93192	7.06424	-5.1324	15.62774	22.23254	1.03934	0.96215	164.58497	159.85142	61.94867	0.3284	 	1.40537E11	 	3.27549E-11	 	21877.28554	31.01658	 
665.0	1.0	0.0	7.9341	7.0623	-5.15844	15.60255	22.15547	1.03743	0.96392	164.97766	160.0982	62.10322	0.32825	 	1.69474E11	 	2.70181E-11	 	21722.47183	30.96274	 
660.0	1.0	0.0	7.93627	7.06037	-5.18441	15.57736	22.07839	1.0355	0.96572	165.36976	160.34398	62.25758	0.32811	 	2.0478E11	 	2.22408E-11	 	21567.92668	30.90903	 
655.0	1.0	0.0	7.93844	7.05844	-5.21031	15.55217	22.00131	1.03356	0.96753	165.76126	160.58877	62.41176	0.32797	 	2.47946E11	 	1.82704E-11	 	21413.64943	30.85545	 
650.0	1.0	0.0	7.9406	7.05652	-5.23614	15.527	21.92423	1.03161	0.96936	166.15217	160.83257	62.56574	0.32782	 	3.00833E11	 	1.49773E-11	 	21259.6395	30.80199	 
645.0	1.0	0.0	7.94276	7.0546	-5.2619	15.50183	21.84715	1.02964	0.97121	166.54247	161.07539	62.71952	0.32768	 	3.65771E11	 	1.22516E-11	 	21105.89622	30.74866	 
640.0	1.0	0.0	7.94492	7.05268	-5.28758	15.47667	21.77007	1.02766	0.97309	166.93218	161.31722	62.87312	0.32753	 	4.45679E11	 	1.00002E-11	 	20952.41901	30.69544	 
635.0	1.0	0.0	7.94707	7.05078	-5.3132	15.45151	21.69299	1.02566	0.97498	167.32128	161.55807	63.02652	0.32739	 	5.44227E11	 	8.1445E-12	 	20799.20722	30.64236	 
630.0	1.0	0.0	7.94921	7.04887	-5.33875	15.42637	21.61591	1.02365	0.97689	167.70979	161.79794	63.17973	0.32724	 	6.66037E11	 	6.61833E-12	 	20646.26026	30.58939	 
625.0	1.0	0.0	7.95135	7.04698	-5.36422	15.40123	21.53883	1.02163	0.97883	168.0977	162.03683	63.33275	0.3271	 	8.16947E11	 	5.36589E-12	 	20493.57752	30.53655	 
620.0	1.0	0.0	7.95349	7.04509	-5.38962	15.37609	21.46175	1.01959	0.98079	168.48502	162.27475	63.48558	0.32695	 	1.00434E12	 	4.34039E-12	 	20341.15836	30.48383	 
615.0	1.0	0.0	7.95562	7.0432	-5.41496	15.35097	21.38466	1.01754	0.98277	168.87173	162.5117	63.63822	0.32681	 	1.2376E12	 	3.50262E-12	 	20189.00221	30.43123	 
610.0	1.0	0.0	7.95774	7.04132	-5.44022	15.32585	21.30758	1.01547	0.98477	169.25785	162.74768	63.79066	0.32667	 	1.52864E12	 	2.81978E-12	 	20037.10843	30.37875	 
605.0	1.0	0.0	7.95986	7.03944	-5.46541	15.30074	21.2305	1.01339	0.98679	169.64336	162.98269	63.94291	0.32652	 	1.89267E12	 	2.26454E-12	 	19885.47646	30.32639	 
600.0	1.0	0.0	7.96198	7.03757	-5.49053	15.27563	21.15341	1.01129	0.98884	170.02828	163.21674	64.09497	0.32638	 	2.34913E12	 	1.81413E-12	 	19734.10567	30.27416	 
595.0	1.0	0.0	7.96409	7.03571	-5.51559	15.25054	21.07633	1.00917	0.99091	170.4126	163.44983	64.24683	0.32623	 	2.92294E12	 	1.44964E-12	 	19582.99548	30.22204	 
590.0	1.0	0.0	7.9662	7.03385	-5.54057	15.22545	20.99924	1.00704	0.993	170.79633	163.68195	64.39851	0.32609	 	3.64614E12	 	1.15542E-12	 	19432.14529	30.17004	 
585.0	1.0	0.0	7.9683	7.03199	-5.56548	15.20036	20.92215	1.0049	0.99512	171.17945	163.91312	64.54999	0.32594	 	4.55999E12	 	9.18514E-13	 	19281.55453	30.11815	 
580.0	1.0	0.0	7.97039	7.03014	-5.59032	15.17529	20.84507	1.00274	0.99727	171.56198	164.14334	64.70127	0.3258	 	5.71787E12	 	7.28246E-13	 	19131.22259	30.06639	 
575.0	1.0	0.0	7.97249	7.0283	-5.61509	15.15022	20.76798	1.00056	0.99944	171.94391	164.3726	64.85237	0.32566	 	7.1889E12	 	5.75833E-13	 	18981.1489	30.01474	 
570.0	1.0	0.0	7.97457	7.02646	-5.63979	15.12516	20.69089	0.99837	1.00163	172.32524	164.60091	65.00327	0.32551	 	9.06297E12	 	4.54068E-13	 	18831.33288	29.9632	 
565.0	1.0	0.0	7.97665	7.02462	-5.66441	15.1001	20.6138	0.99616	1.00385	172.70598	164.82828	65.15398	0.32537	 	1.14572E13	 	3.57051E-13	 	18681.77397	29.91178	 
560.0	1.0	0.0	7.97873	7.0228	-5.68897	15.07506	20.53671	0.99394	1.0061	173.08611	165.0547	65.3045	0.32522	 	1.45248E13	 	2.79963E-13	 	18532.47159	29.86048	 
555.0	1.0	0.0	7.9808	7.02097	-5.71346	15.05002	20.45962	0.99169	1.00838	173.46565	165.28018	65.45482	0.32508	 	1.84664E13	 	2.18883E-13	 	18383.42517	29.80928	 
550.0	1.0	0.0	7.98287	7.01915	-5.73788	15.02498	20.38253	0.98943	1.01068	173.84459	165.50472	65.60496	0.32493	 	2.35464E13	 	1.70625E-13	 	18234.63414	29.75821	 
545.0	1.0	0.0	7.98493	7.01734	-5.76223	14.99996	20.30544	0.98716	1.01301	174.22293	165.72832	65.75489	0.32479	 	3.01131E13	 	1.32606E-13	 	18086.09796	29.70724	 
540.0	1.0	0.0	7.98699	7.01553	-5.78651	14.97494	20.22835	0.98486	1.01537	174.60068	165.95098	65.90464	0.32465	 	3.86278E13	 	1.02744E-13	 	17937.81608	29.65638	 
535.0	1.0	0.0	7.98904	7.01373	-5.81071	14.94993	20.15125	0.98255	1.01776	174.97783	166.17271	66.05419	0.3245	 	4.9703E13	 	7.93589E-14	 	17789.78792	29.60563	 
530.0	1.0	0.0	7.99109	7.01193	-5.83485	14.92492	20.07416	0.98022	1.02017	175.35438	166.39352	66.20355	0.32436	 	6.41548E13	 	6.11019E-14	 	17642.01296	29.55499	 
525.0	1.0	0.0	7.99313	7.01014	-5.85892	14.89993	19.99706	0.97788	1.02262	175.73033	166.61339	66.35272	0.32421	 	8.30738E13	 	4.68929E-14	 	17494.49066	29.50446	 
520.0	1.0	0.0	7.99517	7.00835	-5.88292	14.87494	19.91997	0.97551	1.0251	176.10568	166.83233	66.50169	0.32407	 	1.07923E14	 	3.58697E-14	 	17347.22048	29.45404	 
515.0	1.0	0.0	7.99721	7.00657	-5.90685	14.84995	19.84287	0.97313	1.02761	176.48044	167.05036	66.65047	0.32392	 	1.4067099999999998E14	 	2.73457E-14	 	17200.20188	29.40372	 
510.0	1.0	0.0	7.99923	7.0048	-5.9307	14.82498	19.76578	0.97073	1.03016	176.8546	167.26746	66.79906	0.32378	 	1.83979E14	 	2.07761E-14	 	17053.43434	29.35351	 
505.0	1.0	0.0	8.00126	7.00302	-5.95449	14.80001	19.68868	0.96831	1.03273	177.22816	167.48364	66.94745	0.32364	 	2.4145E14	 	1.57298E-14	 	16906.91736	29.3034	 
500.0	1.0	0.0	8.00328	7.00126	-5.97821	14.77505	19.61158	0.96587	1.03534	177.60113	167.6989	67.09565	0.32349	 	3.1799E14	 	1.18669E-14	 	16760.65039	29.25339	 
495.0	1.0	0.0	8.00529	6.9995	-6.00186	14.75009	19.53448	0.96341	1.03798	177.9735	167.91325	67.24366	0.32335	 	4.20297E14	 	8.92023E-15	 	16614.63296	29.20349	 
490.0	1.0	0.0	8.0073	6.99774	-6.02543	14.72515	19.45738	0.96093	1.04066	178.34527	168.12669	67.39147	0.3232	 	5.5755499999999994E14	 	6.6805E-15	 	16468.86453	29.15368	 
485.0	1.0	0.0	8.0093	6.99599	-6.04894	14.70021	19.38028	0.95843	1.04337	178.71644	168.33922	67.53909	0.32306	 	7.42398E14	 	4.98431E-15	 	16323.34464	29.10398	 
480.0	1.0	0.0	8.0113	6.99425	-6.07238	14.67527	19.30318	0.95591	1.04612	179.08702	168.55084	67.68652	0.32291	 	9.92288E14	 	3.70451E-15	 	16178.07276	29.05438	 
475.0	1.0	0.0	8.01329	6.99251	-6.09575	14.65035	19.22608	0.95338	1.0489	179.457	168.76155	67.83375	0.32277	 	1.33144E15	 	2.74254E-15	 	16033.04844	29.00486	 
470.0	1.0	0.0	8.01528	6.99077	-6.11905	14.62543	19.14898	0.95082	1.05173	179.82638	168.97136	67.98079	0.32263	 	1.7936E15	 	2.02226E-15	 	15888.27119	28.95545	 
465.0	1.0	0.0	8.01727	6.98904	-6.14228	14.60052	19.07187	0.94824	1.05459	180.19517	169.18027	68.12764	0.32248	 	2.42595E15	 	1.48508E-15	 	15743.74054	28.90613	 
460.0	1.0	0.0	8.01924	6.98732	-6.16544	14.57561	18.99477	0.94564	1.05749	180.56335	169.38828	68.27429	0.32234	 	3.29478E15	 	1.08606E-15	 	15599.45602	28.8569	 
455.0	1.0	0.0	8.02122	6.9856	-6.18853	14.55072	18.91766	0.94302	1.06043	180.93094	169.5954	68.42075	0.32219	 	4.49363E15	 	7.9088E-16	 	15455.41718	28.80777	 
450.0	1.0	0.0	8.02319	6.98388	-6.21155	14.52583	18.84056	0.94037	1.06341	181.29794	169.80162	68.56701	0.32205	 	6.15505E15	 	5.73434E-16	 	15311.62358	28.75872	 
445.0	1.0	0.0	8.02515	6.98217	-6.2345	14.50094	18.76345	0.93771	1.06643	181.66433	170.00694	68.71308	0.3219	 	8.46776E15	 	4.13936E-16	 	15168.07476	28.70976	 
440.0	1.0	0.0	8.02711	6.98047	-6.25738	14.47607	18.68634	0.93502	1.06949	182.03013	170.21138	68.85896	0.32176	 	1.17017E16	 	2.97454E-16	 	15024.77031	28.66089	 
435.0	1.0	0.0	8.02906	6.97877	-6.28019	14.4512	18.60923	0.93232	1.0726	182.39534	170.41493	69.00464	0.32162	 	1.62447E16	 	2.12765E-16	 	14881.70978	28.6121	 
430.0	1.0	0.0	8.03101	6.97708	-6.30293	14.42634	18.53212	0.92958	1.07575	182.75994	170.61759	69.15013	0.32147	 	2.26569E16	 	1.51473E-16	 	14738.89279	28.5634	 
425.0	1.0	0.0	8.03296	6.97539	-6.32561	14.40148	18.45502	0.92683	1.07895	183.12395	170.81937	69.29542	0.32133	 	3.17512E16	 	1.07319E-16	 	14596.3189	28.51478	 
420.0	1.0	0.0	8.0349	6.97371	-6.34821	14.37664	18.3779	0.92405	1.08219	183.48737	171.02027	69.44052	0.32118	 	4.47129E16	 	7.56625E-17	 	14453.98774	28.46623	 
415.0	1.0	0.0	8.03683	6.97203	-6.37074	14.3518	18.30079	0.92125	1.08548	183.85018	171.22029	69.58543	0.32104	 	6.32801E16	 	5.30766E-17	 	14311.89891	28.41777	 
410.0	1.0	0.0	8.03876	6.97036	-6.39321	14.32696	18.22368	0.91843	1.08881	184.2124	171.41943	69.73014	0.3209	 	9.00137E16	 	3.7042E-17	 	14170.05204	28.36937	 
405.0	1.0	0.0	8.04068	6.96869	-6.4156	14.30214	18.14657	0.91558	1.0922	184.57402	171.6177	69.87466	0.32075	 	1.28709E17	 	2.57161E-17	 	14028.44675	28.32106	 
400.0	1.0	0.0	8.0426	6.96703	-6.43793	14.27732	18.06945	0.91271	1.09564	184.93505	171.81509	70.01898	0.32061	 	1.85018E17	 	1.77577E-17	 	13887.0827	28.27281	 
395.0	1.0	0.0	8.04451	6.96537	-6.46019	14.25251	17.99234	0.90981	1.09913	185.29548	172.01162	70.16311	0.32046	 	2.6741E17	 	1.2195E-17	 	13745.95953	28.22463	 
390.0	1.0	0.0	8.04642	6.96372	-6.48237	14.2277	17.91522	0.90689	1.10267	185.65531	172.20727	70.30705	0.32032	 	3.88646E17	 	8.32807E-18	 	13605.07694	28.17652	 
385.0	1.0	0.0	8.04833	6.96207	-6.50449	14.20291	17.8381	0.90395	1.10626	186.01455	172.40206	70.45078	0.32017	 	5.68065E17	 	5.65476E-18	 	13464.43458	28.12847	 
380.0	1.0	0.0	8.05022	6.96043	-6.52654	14.17812	17.76099	0.90097	1.10991	186.37319	172.59599	70.59433	0.32003	 	8.35152E17	 	3.81711E-18	 	13324.03215	28.08048	 
375.0	1.0	0.0	8.05212	6.95879	-6.54852	14.15333	17.68387	0.89798	1.11362	186.73123	172.78905	70.73768	0.31989	 	1.23514E18	 	2.56122E-18	 	13183.86936	28.03256	 
370.0	1.0	0.0	8.05401	6.95716	-6.57043	14.12856	17.60675	0.89495	1.11738	187.08868	172.98125	70.88084	0.31974	 	1.83784E18	 	1.70801E-18	 	13043.94593	27.98469	 
365.0	1.0	0.0	8.05589	6.95553	-6.59227	14.10379	17.52963	0.8919	1.1212	187.44553	173.1726	71.0238	0.3196	 	2.75172E18	 	1.13189E-18	 	12904.26158	27.93687	 
360.0	1.0	0.0	8.05777	6.95391	-6.61404	14.07903	17.45251	0.88882	1.12508	187.80178	173.36309	71.16656	0.31945	 	4.14639E18	 	7.45287E-19	 	12764.81609	27.8891	 
355.0	1.0	0.0	8.05964	6.95229	-6.63575	14.05427	17.37539	0.88572	1.12903	188.15744	173.55272	71.30913	0.31931	 	6.28883E18	 	4.87506E-19	 	12625.60918	27.84138	 
350.0	1.0	0.0	8.06151	6.95068	-6.65738	14.02952	17.29826	0.88258	1.13304	188.5125	173.7415	71.45151	0.31916	 	9.60226E18	 	3.16742E-19	 	12486.64066	27.7937	 
345.0	1.0	0.0	8.06337	6.94908	-6.67895	14.00478	17.22114	0.87942	1.13711	188.86696	173.92944	71.59369	0.31902	 	1.47622E19	 	2.04376E-19	 	12347.91032	27.74607	 
340.0	1.0	0.0	8.06523	6.94748	-6.70044	13.98005	17.14401	0.87623	1.14125	189.22083	174.11652	71.73568	0.31888	 	2.28546E19	 	1.30942E-19	 	12209.41797	27.69847	 
335.0	1.0	0.0	8.06708	6.94588	-6.72187	13.95532	17.06689	0.87302	1.14545	189.5741	174.30276	71.87747	0.31873	 	3.56383E19	 	8.32876E-20	 	12071.16345	27.6509	 
330.0	1.0	0.0	8.06893	6.94429	-6.74323	13.93061	16.98976	0.86977	1.14973	189.92678	174.48816	72.01907	0.31859	 	5.59836E19	 	5.25838E-20	 	11933.1466	27.60337	 
325.0	1.0	0.0	8.07077	6.94271	-6.76452	13.90589	16.91263	0.86649	1.15408	190.27886	174.67271	72.16047	0.31844	 	8.861E19	 	3.29469E-20	 	11795.36729	27.55586	 
320.0	1.0	0.0	8.07261	6.94113	-6.78574	13.88119	16.8355	0.86319	1.1585	190.63034	174.85643	72.30167	0.3183	 	1.4134099999999998E20	 	2.04825E-20	 	11657.82541	27.50838	 
315.0	1.0	0.0	8.07444	6.93955	-6.80689	13.85649	16.75837	0.85985	1.16299	190.98123	175.03931	72.44269	0.31815	 	2.2724799999999997E20	 	1.26321E-20	 	11520.52088	27.46091	 
310.0	1.0	0.0	8.07627	6.93798	-6.82797	13.8318	16.68124	0.85648	1.16757	191.33152	175.22135	72.5835	0.31801	 	3.68356E20	 	7.72678E-21	 	11383.45362	27.41345	 
305.0	1.0	0.0	8.07809	6.93642	-6.84899	13.80712	16.60411	0.85308	1.17222	191.68121	175.40256	72.72412	0.31787	 	6.020949999999999E20	 	4.68664E-21	 	11246.62359	27.36601	 
300.0	1.0	0.0	8.07991	6.93486	-6.86993	13.78244	16.52698	0.84965	1.17695	192.03031	175.58294	72.86455	0.31772	 	9.926259999999999E20	 	2.81818E-21	 	11110.03077	27.31856	 
295.0	1.0	0.0	8.08172	6.9333	-6.89081	13.75777	16.44984	0.84619	1.18177	192.37881	175.76248	73.00477	0.31758	 	1.65093E21	 	1.67966E-21	 	10973.67518	27.27112	 
290.0	1.0	0.0	8.08353	6.93175	-6.91162	13.73311	16.37271	0.84269	1.18667	192.72672	175.9412	73.14481	0.31743	 	2.77072E21	 	9.92015E-22	 	10837.55682	27.22367	 
285.0	1.0	0.0	8.08533	6.93021	-6.93236	13.70846	16.29557	0.83917	1.19166	193.07403	176.1191	73.28465	0.31729	 	4.6933900000000003E21	 	5.80432E-22	 	10701.67577	27.17621	 
280.0	1.0	0.0	8.08712	6.92867	-6.95303	13.68381	16.21843	0.8356	1.19674	193.42074	176.29617	73.42429	0.31714	 	8.02636E21	 	3.36365E-22	 	10566.03211	27.12873	 
275.0	1.0	0.0	8.08891	6.92713	-6.97363	13.65917	16.1413	0.83201	1.20191	193.76686	176.47242	73.56374	0.317	 	1.38612E22	 	1.93012E-22	 	10430.62597	27.08123	 
270.0	1.0	0.0	8.0907	6.92561	-6.99417	13.63454	16.06416	0.82838	1.20718	194.11238	176.64785	73.70299	0.31686	 	2.41798E22	 	1.09636E-22	 	10295.45748	27.0337	 
265.0	1.0	0.0	8.09248	6.92408	-7.01463	13.60991	15.98702	0.82471	1.21255	194.45731	176.82247	73.84204	0.31671	 	4.26182E22	 	6.16303E-23	 	10160.52682	26.98613	 
260.0	1.0	0.0	8.09426	6.92256	-7.03503	13.58529	15.90987	0.82101	1.21801	194.80164	176.99626	73.9809	0.31657	 	7.591969999999999E22	 	3.42753E-23	 	10025.83422	26.93852	 
255.0	1.0	0.0	8.09603	6.92105	-7.05536	13.56068	15.83273	0.81727	1.22358	195.14537	177.16925	74.11956	0.31642	 	1.3672899999999999E23	 	1.88531E-23	 	9891.37993	26.89086	 
250.0	1.0	0.0	8.09779	6.91954	-7.07562	13.53608	15.75559	0.8135	1.22926	195.48851	177.34142	74.25803	0.31628	 	2.4902999999999998E23	 	1.02532E-23	 	9757.16422	26.84314	 
245.0	1.0	0.0	8.09955	6.91804	-7.09581	13.51148	15.67844	0.80969	1.23504	195.83106	177.51278	74.3963	0.31613	 	4.58848E23	 	5.51155E-24	 	9623.18744	26.79536	 
240.0	1.0	0.0	8.10131	6.91654	-7.11593	13.48689	15.6013	0.80584	1.24094	196.173	177.68334	74.53438	0.31599	 	8.55573E23	 	2.92735E-24	 	9489.44993	26.7475	 
235.0	1.0	0.0	8.10306	6.91504	-7.13599	13.46231	15.52415	0.80196	1.24695	196.51436	177.85309	74.67226	0.31585	 	1.61499E24	 	1.53571E-24	 	9355.95214	26.69956	 
230.0	1.0	0.0	8.1048	6.91356	-7.15597	13.43773	15.447	0.79803	1.25309	196.85511	178.02203	74.80994	0.3157	 	3.08722E24	 	7.95456E-25	 	9222.6945	26.65153	 
225.0	1.0	0.0	8.10654	6.91207	-7.17589	13.41316	15.36985	0.79407	1.25934	197.19527	178.19017	74.94743	0.31556	 	5.9788E24	 	4.06661E-25	 	9089.67753	26.60339	 
220.0	1.0	0.0	8.10827	6.9106	-7.19574	13.3886	15.2927	0.79006	1.26572	197.53484	178.35751	75.08472	0.31541	 	1.1734900000000001E25	 	2.05109E-25	 	8956.90177	26.55515	 
215.0	1.0	0.0	8.11	6.90912	-7.21552	13.36404	15.21555	0.78602	1.27224	197.8738	178.52406	75.22181	0.31527	 	2.3353200000000003E25	 	1.02022E-25	 	8824.36784	26.50679	 
210.0	1.0	0.0	8.11173	6.90765	-7.23524	13.3395	15.1384	0.78193	1.27889	198.21218	178.68981	75.35871	0.31512	 	4.7141E25	 	5.0023E-26	 	8692.07641	26.45829	 
205.0	1.0	0.0	8.11344	6.90619	-7.25488	13.31496	15.06124	0.7778	1.28567	198.54995	178.85476	75.49541	0.31498	 	9.65675E25	 	2.41668E-26	 	8560.02818	26.40965	 
200.0	1.0	0.0	8.11516	6.90473	-7.27446	13.29042	14.98409	0.77363	1.2926	198.88714	179.01892	75.63192	0.31484	 	2.00838E26	 	1.14985E-26	 	8428.22395	26.36084	 
195.0	1.0	0.0	8.11686	6.90328	-7.29397	13.2659	14.90693	0.76942	1.29968	199.22372	179.18229	75.76823	0.31469	 	4.24279E26	 	5.38542E-27	 	8296.66457	26.31188	 
190.0	1.0	0.0	8.11857	6.90183	-7.31341	13.24138	14.82977	0.76516	1.30691	199.55971	179.34487	75.90434	0.31455	 	9.109020000000001E26	 	2.48163E-27	 	8165.35095	26.26272	 
185.0	1.0	0.0	8.12026	6.90039	-7.33278	13.21687	14.75261	0.76086	1.3143	199.89511	179.50666	76.04025	0.3144	 	1.98854E27	 	1.1245E-27	 	8034.28408	26.21337	 
180.0	1.0	0.0	8.12196	6.89895	-7.35209	13.19236	14.67545	0.75651	1.32185	200.22991	179.66767	76.17597	0.31426	 	4.4165099999999997E27	 	5.00783E-28	 	7903.46502	26.16381	 
175.0	1.0	0.0	8.12364	6.89752	-7.37132	13.16786	14.59829	0.75212	1.32957	200.56411	179.82789	76.31149	0.31411	 	9.98521E27	 	2.19055E-28	 	7772.89491	26.11402	 
170.0	1.0	0.0	8.12532	6.89609	-7.39049	13.14337	14.52113	0.74768	1.33747	200.89772	179.98734	76.44682	0.31397	 	2.29948E28	 	9.40607E-29	 	7642.575	26.06398	 
165.0	1.0	0.0	8.127	6.89467	-7.40959	13.11889	14.44396	0.74319	1.34554	201.23073	180.146	76.58194	0.31383	 	5.39722E28	 	3.96223E-29	 	7512.50659	26.01368	 
160.0	1.0	0.0	8.12867	6.89325	-7.42863	13.09441	14.3668	0.73866	1.3538	201.56315	180.30388	76.71687	0.31368	 	1.2920100000000001E29	 	1.63629E-29	 	7382.69109	25.9631	 
155.0	1.0	0.0	8.13034	6.89184	-7.44759	13.06995	14.28963	0.73408	1.36226	201.89497	180.46099	76.85161	0.31354	 	3.1565600000000002E29	 	6.62016E-30	 	7253.13003	25.91221	 
150.0	1.0	0.0	8.132	6.89043	-7.46649	13.04548	14.21246	0.72944	1.37091	202.2262	180.61733	76.98614	0.31339	 	7.876470000000001E29	 	2.6221E-30	 	7123.82502	25.861	 
145.0	1.0	0.0	8.13365	6.88903	-7.48532	13.02103	14.13529	0.72476	1.37977	202.55683	180.77289	77.12048	0.31325	 	2.00884E30	 	1.01595E-30	 	6994.77778	25.80945	 
140.0	1.0	0.0	8.1353	6.88763	-7.50408	12.99658	14.05812	0.72002	1.38884	202.88687	180.92768	77.25462	0.31311	 	5.24086E30	 	3.84762E-31	 	6865.99018	25.75752	 
135.0	1.0	0.0	8.13695	6.88624	-7.52278	12.97214	13.98095	0.71524	1.39814	203.21631	181.08171	77.38857	0.31296	 	1.39979E31	 	1.42313E-31	 	6737.46418	25.7052	 
130.0	1.0	0.0	8.13859	6.88486	-7.5414	12.94771	13.90377	0.7104	1.40767	203.54516	181.23496	77.52232	0.31282	 	3.83094E31	 	5.13628E-32	 	6609.2019	25.65246	 
125.0	1.0	0.0	8.14022	6.88347	-7.55996	12.92328	13.8266	0.7055	1.41743	203.87341	181.38745	77.65587	0.31267	 	1.0753E32	 	1.80719E-32	 	6481.20559	25.59926	 
120.0	1.0	0.0	8.14185	6.8821	-7.57845	12.89886	13.74942	0.70055	1.42745	204.20106	181.53918	77.78922	0.31253	 	3.0985299999999997E32	 	6.19284E-33	 	6353.47766	25.54559	 
115.0	1.0	0.0	8.14347	6.88073	-7.59688	12.87445	13.67224	0.69555	1.43772	204.52812	181.69015	77.92238	0.31238	 	9.17535E32	 	2.06473E-33	 	6226.02068	25.4914	 
110.0	1.0	0.0	8.14509	6.87936	-7.61523	12.85005	13.59506	0.69048	1.44826	204.85459	181.84035	78.05533	0.31224	 	2.79508E33	 	6.69054E-34	 	6098.83737	25.43666	 
105.0	1.0	0.0	8.1467	6.878	-7.63352	12.82565	13.51788	0.68536	1.45908	205.18046	181.9898	78.18809	0.3121	 	8.769200000000001E33	 	2.1047E-34	 	5971.93067	25.38134	 
100.0	1.0	0.0	8.14831	6.87664	-7.65174	12.80126	13.4407	0.68019	1.47019	205.50573	182.13849	78.32066	0.31195	 	2.8368200000000003E34	 	6.42004E-35	 	5845.30368	25.3254	 
95.0	1.0	0.0	8.14991	6.87529	-7.66989	12.77688	13.36352	0.67495	1.4816	205.83041	182.28643	78.45302	0.31181	 	9.47446E34	 	1.89652E-35	 	5718.95975	25.26879	 
90.0	1.0	0.0	8.15151	6.87394	-7.68798	12.7525	13.28633	0.66965	1.49332	206.15449	182.43361	78.58519	0.31166	 	3.27113E35	 	5.41844E-36	 	5592.90243	25.21147	 
85.0	1.0	0.0	8.1531	6.8726	-7.706	12.72813	13.20914	0.66429	1.50537	206.47798	182.58004	78.71716	0.31152	 	1.1691399999999999E36	 	1.49515E-36	 	5467.13548	25.15339	 
80.0	1.0	0.0	8.15469	6.87126	-7.72395	12.70377	13.13195	0.65886	1.51776	206.80088	182.72573	78.84893	0.31137	 	4.33213E36	 	3.97873E-37	 	5341.66296	25.0945	 
75.0	1.0	0.0	8.15627	6.86993	-7.74183	12.67941	13.05476	0.65338	1.53051	207.12317	182.87066	78.9805	0.31123	 	1.66676E37	 	1.01948E-37	 	5216.4892	25.03475	 
70.0	1.0	0.0	8.15784	6.8686	-7.75965	12.65507	12.97757	0.64782	1.54363	207.44488	183.01485	79.11188	0.31109	 	6.669579999999999E37	 	2.51115E-38	 	5091.61879	24.97408	 
65.0	1.0	0.0	8.15941	6.86728	-7.7774	12.63073	12.90038	0.6422	1.55714	207.76599	183.1583	79.24305	0.31094	 	2.78056E38	 	5.93558E-39	 	4967.05668	24.91242	 
60.0	1.0	0.0	8.16098	6.86597	-7.79508	12.60639	12.82318	0.63652	1.57105	208.0865	183.301	79.37403	0.3108	 	1.2099800000000001E39	 	1.34384E-39	 	4842.80813	24.84971	 
55.0	1.0	0.0	8.16254	6.86465	-7.81269	12.58207	12.74599	0.63076	1.58539	208.40642	183.44296	79.50481	0.31065	 	5.506640000000001E39	 	2.90852E-40	 	4718.87877	24.78587	 
50.0	1.0	0.0	8.16409	6.86335	-7.83024	12.55775	12.66879	0.62494	1.60017	208.72574	183.58419	79.6354	0.31051	 	2.62639E40	 	6.00525E-41	 	4595.27462	24.72083	 
45.0	1.0	0.0	8.16564	6.86205	-7.84772	12.53343	12.59159	0.61904	1.61541	209.04447	183.72467	79.76578	0.31036	 	1.3157E41	 	1.18021E-41	 	4472.00214	24.6545	 
40.0	1.0	0.0	8.16718	6.86075	-7.86513	12.50913	12.51439	0.61307	1.63114	209.36261	183.86442	79.89597	0.31022	 	6.9391200000000004E41	 	2.2026E-42	 	4349.06825	24.58678	 
35.0	1.0	0.0	8.16872	6.85946	-7.88248	12.48483	12.43718	0.60702	1.64738	209.68014	184.00344	80.02595	0.31008	 	3.8626499999999996E42	 	3.89371E-43	 	4226.48033	24.51758	 
30.0	1.0	0.0	8.17025	6.85817	-7.89975	12.46054	12.35998	0.60091	1.66416	209.99709	184.14172	80.15574	0.30993	 	2.27541E43	 	6.50256E-44	 	4104.24634	24.4468	 
25.0	1.0	0.0	8.17178	6.85689	-7.91697	 	12.28277	0.59471	1.68149	210.31344	184.27928	80.28533	0.30979	 	1.4225500000000002E44	 	1.02295E-44	 	3982.37479	 	 
