T (C)	Fraction solid (wt)-TOTAL	Fraction liquid (wt)-LIQUID	Density (g/(cm)^3)-TOTAL	Molar volume (cm^3)-TOTAL	Volume change (%)-  	Average expansion coeff. (10e-6 1/K)-  	Thermal conductivity (W/(m*K))-TOTAL	Electrical resistivity (10e-6 Ohm*m)-TOTAL	Electrical conductivity (10e6 1/(Ohm*m))-TOTAL	Young's modulus (GPa)-TOTAL	Bulk modulus (GPa)-TOTAL	Shear modulus(GPa)-TOTAL	Poisson's ratio-TOTAL	Liquid viscosity (mPa s)-  	Total viscosity (mPa s)-  	Liquid diffusivity (10e-9 (m^2)/s)-  	Total diffusivity (10e-9 (m^2)/s)-  	Surface Tension (mN/m)-  	Enthalpy (J/mole)-TOTAL	Specific heat (J/(mole K))-TOTAL	Latent heat (J/mole)-TOTAL
1400.0	0.0	1.0	7.45775	8.0435	0.0	34.68964	30.70687	1.33495	0.74909	0.0	122.41533	0.0	0.5	7.08116	7.08116	1.15323	1.15323	1838.39287	41392.204	 	0.0
1395.0	0.0	1.0	7.46205	8.03887	-0.0576237	34.65598	30.62367	1.33458	0.7493	0.0	122.55234	0.0	0.5	7.15773	7.15773	1.13749	1.13749	1842.5496	41193.303	39.7802	0.0
1390.0	0.0	1.0	7.46634	8.03425	-0.11509	34.62252	30.54047	1.3342	0.74951	0.0	122.68935	0.0	0.5	7.2356	7.2356	1.12187	1.12187	1846.73865	40994.832	39.6942	0.0
1385.0	0.0	1.0	7.47062	8.02964	-0.17239	34.58927	30.45727	1.33383	0.74972	0.0	122.82637	0.0	0.5	7.31479	7.31479	1.10639	1.10639	1850.95963	40796.79	39.6084	0.0
1380.0	0.0	1.0	7.4749	8.02504	-0.22953	34.55622	30.37408	1.33345	0.74994	0.0	122.96338	0.0	0.5	7.39533	7.39533	1.09104	1.09104	1855.21207	40599.174	39.5232	0.0
1375.0	0.0	1.0	7.47917	8.02046	-0.28651	34.52339	30.29088	1.33306	0.75015	0.0	123.10039	0.0	0.5	7.47726	7.47726	1.07582	1.07582	1859.49548	40401.98	39.4388	0.0
1370.0	0.0	1.0	7.48344	8.01589	-0.34333	34.49076	30.20768	1.33268	0.75037	0.0	123.2374	0.0	0.5	7.5606	7.5606	1.06074	1.06074	1863.80936	40205.206	39.3548	0.0
1365.0	0.0	1.0	7.4877	8.01133	-0.39998	34.45836	30.12449	1.33229	0.75059	0.0	123.37442	0.0	0.5	7.64539	7.64539	1.04578	1.04578	1868.15317	40008.849	39.2714	0.0
1360.0	0.0	1.0	7.49195	8.00679	-0.45648	34.42616	30.04129	1.33191	0.7508	0.0	123.51143	0.0	0.5	7.73166	7.73166	1.03096	1.03096	1872.52638	39812.907	39.1884	0.0
1355.0	0.0	1.0	7.49619	8.00226	-0.51281	34.39419	29.95809	1.33152	0.75102	0.0	123.64844	0.0	0.5	7.81944	7.81944	1.01626	1.01626	1876.92845	39617.377	39.106	0.0
1350.0	0.0	1.0	7.50042	7.99774	-0.56899	34.36244	29.8749	1.33112	0.75125	0.0	123.78546	0.0	0.5	7.90877	7.90877	1.0017	1.0017	1881.35882	39422.257	39.024	0.0
1345.0	0.0	1.0	7.50465	7.99323	-0.625	34.33092	29.7917	1.33073	0.75147	0.0	123.92247	0.0	0.5	7.99968	7.99968	0.98726	0.98726	1885.8169	39227.544	38.9426	0.0
1341.1	0.0	1.0	7.50794	7.98973	-0.66855	34.3065	29.72684	1.33042	0.75164	0.0	124.02928	0.0	0.5	8.07167	8.07167	0.9761	0.9761	1889.3111	39076.037	38.86998	0.0
1340.0	0.02647	0.97353	7.51721	7.97984	-0.79154	33.97887	29.80562	1.326	0.75415	4.92805E-5	124.82648	1.64626E-5	0.49674	8.09215	8.39019	0.97297	0.9384	1889.4764	38633.402	401.58863	399.833
1335.0	0.13793	0.86207	7.55655	7.93833	-1.30753	32.60774	30.14104	1.30718	0.76501	0.0372603	128.19765	0.0125632	0.48291	8.18701	15.24512	0.95871	0.51485	1890.17489	36763.147	374.051	2076.182
1330.0	0.23179	0.76821	7.59036	7.90294	-1.7475	31.44807	30.42179	1.29109	0.77454	0.30332	131.07619	0.10309	0.47109	8.28454	56.54438	0.94448	0.13838	1890.84191	35167.239	319.1816	3478.583
1325.0	0.31151	0.68849	7.61958	7.87267	-2.12387	30.46589	30.658	1.27714	0.783	1.00719	133.55799	0.34471	0.46094	8.38462	167.73262	0.9303	0.0465036	1891.47669	33791.824	275.083	4660.889
1320.0	0.37978	0.62022	7.64509	7.8463	-2.45169	29.61895	30.85686	1.26494	0.79055	2.25932	135.71264	0.77793	0.45214	8.48735	373.88212	0.91616	0.0207974	1892.09134	32595.198	239.3252	5664.799
1315.0	0.43866	0.56134	7.66757	7.82331	-2.73755	28.8894	31.02404	1.25418	0.79733	4.07589	137.60225	1.41085	0.44448	8.5929	688.83636	0.90207	0.0112528	1892.67975	31544.753	210.089	6522.921
1310.0	0.48979	0.51021	7.68748	7.80294	-2.99081	28.25084	31.16379	1.24462	0.80346	6.411	139.26915	2.22952	0.43775	8.70133	1118.19648	0.88802	0.0069102	1893.25324	30614.759	185.9988	7260.982
1305.0	0.53446	0.46554	7.70521	7.78487	-3.21548	27.69239	31.27998	1.23608	0.80901	9.18765	140.75191	3.20838	0.43182	8.81249	1662.97107	0.87405	0.00463181	1893.81001	29784.742	166.0034	7899.454
1300.0	0.57371	0.42629	7.72109	7.76879	-3.41539	27.20356	31.37533	1.22842	0.81405	12.31584	142.08042	4.3166	0.42657	8.92647	2321.54866	0.86016	0.00330734	1894.34944	29038.274	149.2936	8454.761
1295.0	0.60837	0.39163	7.73543	7.75424	-3.59625	26.76805	31.45257	1.22151	0.81866	15.71044	143.277	5.52453	0.42188	9.04347	3091.95274	0.84633	0.00247538	1894.88071	28362.081	135.2386	8940.177
1290.0	0.63912	0.36088	7.74847	7.74098	-3.76114	26.37718	31.51373	1.21525	0.82287	19.29131	144.36038	6.80386	0.41767	9.16352	3972.03631	0.83258	0.00192076	1895.40842	27745.355	123.3452	9366.506
1285.0	0.66653	0.33347	7.76033	7.72899	-3.91015	26.03124	31.56067	1.20956	0.82674	22.98926	145.34901	8.12973	0.4139	9.28663	4960.90976	0.81891	0.00153297	1895.92207	27179.242	113.2226	9742.6
1280.0	0.69107	0.30893	7.77121	7.71794	-4.04758	25.71769	31.59517	1.20437	0.83031	26.74949	146.25392	9.48237	0.41049	9.41285	6058.60736	0.80534	0.0012512	1896.43595	26656.438	104.5608	10075.761
1275.0	0.71311	0.28689	7.78121	7.70778	-4.17381	25.43578	31.61848	1.1996	0.83361	30.52488	147.08753	10.84451	0.40739	9.54228	7266.49106	0.79186	0.00103986	1896.94401	26170.886	97.1104	10372.045
1270.0	0.73298	0.26702	7.79045	7.6984	-4.29051	25.18078	31.63185	1.19522	0.83666	34.27845	147.85861	12.20247	0.40457	9.67493	8587.01433	0.77848	8.77107E-4	1897.44901	25717.53	90.6712	10636.504
1265.0	0.75096	0.24904	7.79905	7.68963	-4.39946	24.94752	31.63645	1.19118	0.8395	37.98468	148.57516	13.54669	0.40199	9.81103	10024.40655	0.76519	7.48905E-4	1897.95704	25292.13	85.08	10873.376
1260.0	0.76728	0.23272	7.80705	7.68145	-4.50121	24.73459	31.63323	1.18743	0.84216	41.62025	149.24309	14.86835	0.39963	9.95044	11583.55595	0.75202	6.45995E-4	1898.46637	24891.112	80.2036	11086.233
1259.72	0.76813	0.23187	7.80747	7.68102	-4.50651	24.72383	31.63277	1.18723	0.8423	41.81768	149.27895	14.9402	0.3995	9.95828	11673.66611	0.75129	6.40892E-4	1898.49431	24869.578	 	11097.281
1255.0	0.78509	0.21491	7.81508	7.67315	-4.60435	24.51563	31.63539	1.18347	0.84497	45.88701	149.98211	16.42307	0.39703	10.09805	13466.756	0.73861	5.53847E-4	1902.33422	24464.813	85.2598	11324.737
1250.0	0.80116	0.19884	7.82253	7.66541	-4.70059	24.31636	31.62929	1.17983	0.84758	50.03024	150.66699	17.93636	0.39466	10.24905	15499.41927	0.72535	4.79638E-4	1906.39257	24064.305	80.1016	11537.813
1245.0	0.81553	0.18447	7.82943	7.65821	-4.79012	24.13639	31.61516	1.17648	0.84999	53.99259	151.2992	19.38671	0.39252	10.40331	17677.59443	0.71225	4.19158E-4	1910.44186	23688.767	75.1076	11726.279
1240.0	0.82843	0.17157	7.83585	7.65144	-4.87426	23.97185	31.59413	1.17339	0.85223	57.77458	151.88558	20.77383	0.39056	10.56068	20011.2631	0.69932	3.69058E-4	1914.49004	23334.598	70.8338	11893.736
1235.0	0.84007	0.15993	7.84186	7.6451	-4.95312	23.82256	31.56694	1.17052	0.85432	61.37494	152.43275	22.09676	0.38878	10.7214	22511.43386	0.68656	3.26985E-4	1918.53154	22998.825	67.1546	12043.153
1230.0	0.85062	0.14938	7.84751	7.63911	-5.02754	23.68609	31.53435	1.16784	0.85628	64.8001	152.94571	23.35746	0.38714	10.8856	25191.93464	0.67396	2.91224E-4	1922.56967	22678.982	63.9686	12176.994
1225.0	0.86021	0.13979	7.85284	7.63341	-5.09844	23.55966	31.49708	1.16534	0.85812	68.06179	153.4288	24.55993	0.38563	11.05325	28069.2815	0.66153	2.60502E-4	1926.61065	22373.009	61.1946	12297.319
1220.0	0.86895	0.13105	7.8579	7.62799	-5.16587	23.44323	31.45558	1.16298	0.85986	71.16133	153.8851	25.70434	0.38423	11.22446	31158.4601	0.64927	2.33891E-4	1930.6509	22079.172	58.7674	12405.858
1215.0	0.87694	0.12306	7.8627	7.62279	-5.23042	23.33504	31.41032	1.16075	0.86151	74.11104	154.3182	26.79498	0.38293	11.39938	34479.60977	0.63717	2.10655E-4	1934.69403	21796.004	56.6336	12504.075
1210.0	0.88428	0.11572	7.86729	7.61781	-5.29234	23.23441	31.36175	1.15865	0.86308	76.91858	154.73045	27.83446	0.38172	11.57803	38052.58439	0.62523	1.90234E-4	1938.74031	21522.255	54.7498	12593.221
1205.0	0.89103	0.10897	7.87169	7.61302	-5.35197	23.14029	31.31016	1.15664	0.86457	79.5942	155.12445	28.82636	0.38058	11.76081	41901.77266	0.61343	1.72176E-4	1942.7899	21256.87	53.077	12674.348
1200.0	0.89726	0.10274	7.8759	7.60839	-5.40954	23.05207	31.25591	1.15473	0.866	82.14275	155.50148	29.77232	0.37952	11.94743	46049.44724	0.60181	1.56138E-4	1946.84537	20998.929	51.5882	12748.373
1195.0	0.90302	0.0969765	7.87996	7.60392	-5.46504	22.96984	31.19924	1.1529	0.86738	84.57285	155.86362	30.67535	0.37851	12.13811	50524.20804	0.59035	1.41827E-4	1950.90071	20747.641	50.2576	12816.086
1194.23	0.90387	0.0961338	7.88057	7.60325	-5.47345	22.9576	31.19026	1.15263	0.86758	84.93521	155.91805	30.81011	0.37837	12.16793	51244.23404	0.58859	1.3976E-4	1951.52686	20709.526	 	12825.907
1190.0	0.90848	0.0915175	7.88205	7.59748	-5.54507	22.80667	30.96585	1.15764	0.86383	87.00502	155.90598	31.58832	0.37717	12.30125	55360.05441	0.58053	1.28997E-4	1955.58002	20368.71001	75.7862	12882.472
1185.0	0.91448	0.0855204	7.895	7.5884	-5.65796	22.53416	30.56549	1.16879	0.85558	89.71506	155.75969	32.62286	0.37503	12.50365	62426.29534	0.56918	1.14004E-4	1960.45065	19911.59653	91.4227	12969.804
1180.0	0.92005	0.0799462	7.90724	7.57942	-5.76963	22.26332	30.17678	1.17979	0.84761	92.24639	155.61003	33.59294	0.373	12.71844	70312.4594	0.55765	1.00871E-4	1965.34966	19461.57719	90.00387	13058.48
1175.0	0.92512	0.0748835	7.91854	7.57084	-5.87631	22.00667	29.80961	1.19021	0.84019	94.6027	155.45846	34.49838	0.37112	12.9392	79023.24819	0.54625	8.94428E-5	1970.25274	19028.11004	86.69343	13138.644
1170.0	0.92973	0.0702678	7.92899	7.56262	-5.97852	21.76263	29.46497	1.19997	0.83335	96.80417	155.30873	35.34639	0.36936	13.16639	88647.30963	0.53497	7.94571E-5	1975.16431	18609.708	83.68041	13211.399
1165.0	0.93396	0.066042	7.93867	7.55474	-6.0765	21.5306	29.13973	1.20916	0.82702	98.86675	155.16359	36.14264	0.36773	13.40024	99282.56066	0.52382	7.06998E-5	1980.07925	18204.99266	80.94307	13277.669
1160.0	0.93784	0.0621581	7.94764	7.54718	-6.17053	21.30978	28.83207	1.21782	0.82114	100.80664	155.02478	36.893	0.3662	13.6407	111038.5411	0.51279	6.29948E-5	1984.99477	17812.84959	78.42861	13338.232
1155.0	0.94142	0.0585757	7.95599	7.5399	-6.26102	21.09892	28.54043	1.22597	0.81568	102.63605	154.89354	37.60188	0.36477	13.88833	124035.0674	0.50189	5.61974E-5	1989.91585	17432.37232	76.09545	13393.749
1150.0	0.94474	0.0552608	7.96376	7.53289	-6.34812	20.89771	28.26343	1.23365	0.8106	104.36742	154.77071	38.2738	0.36343	14.14301	138406.7487	0.49113	5.01857E-5	1994.83545	17062.67727	73.93901	13444.787
1145.0	0.94782	0.0521845	7.97102	7.52613	-6.4322	20.70496	27.9998	1.24089	0.80587	106.01192	154.65674	38.91288	0.36217	14.40534	154301.9669	0.48049	4.48577E-5	1999.75875	16702.97155	71.94114	13491.832
1140.0	0.95068	0.0493199	7.97781	7.5196	-6.51341	20.52028	27.7485	1.24771	0.80147	107.57807	154.55185	39.52223	0.36098	14.67556	171884.5099	0.46998	4.01271E-5	2004.68197	16352.54543	70.08522	13535.305
1135.0	0.95335	0.0466458	7.98417	7.51328	-6.59191	20.34323	27.5085	1.25415	0.79736	107.57792	154.43316	39.55475	0.35986	14.95359	191339.078	0.45961	3.59196E-5	2009.6004	16010.75777	68.35753	13575.577
1130.0	0.95586	0.0441439	7.99015	7.50716	-6.66801	20.17287	27.27895	1.26021	0.79352	109.27166	154.34615	40.20886	0.3588	15.24016	212868.8906	0.44937	3.2172E-5	2014.51903	15677.02443	66.74667	13612.967
1125.0	0.9582	0.041797	7.99578	7.50122	-6.74182	20.00892	27.05901	1.26592	0.78994	110.85846	154.26834	40.82291	0.3578	15.53545	236699.0954	0.43926	2.88299E-5	2019.43451	15350.81669	65.24155	13647.762
1120.0	0.96041	0.0395912	8.0011	7.49546	-6.81348	19.8509	26.84796	1.27131	0.78659	112.35831	154.19973	41.40426	0.35684	15.83975	263083.954	0.42928	2.58458E-5	2024.34395	15031.64718	63.8339	13680.213
1115.0	0.96249	0.0375134	8.00613	7.48985	-6.8832	19.69823	26.64514	1.27639	0.78346	113.78627	154.13998	41.95845	0.35594	16.15346	292303.8109	0.41943	2.31787E-5	2029.24983	14719.06902	62.51563	13710.545
1110.0	0.96445	0.0355519	8.01089	7.48439	-6.95106	19.55072	26.44996	1.28118	0.78053	115.15467	154.08889	42.49003	0.35508	16.47684	324670.7692	0.40972	2.07928E-5	2034.14732	14412.66961	61.27988	13738.962
1105.0	0.9663	0.0336959	8.01541	7.47907	-7.01724	19.40775	26.26186	1.28569	0.77779	116.47483	154.04622	43.00321	0.35426	16.81042	360537.1616	0.40013	1.86566E-5	2039.03855	14112.06781	60.12036	13765.647
1095.0	0.97114	0.02886	8.02378	7.46795	-7.15551	19.09672	25.90123	1.29413	0.77272	119.89121	154.05568	44.32273	0.35248	17.5557	446975.5323	0.38037	1.49395E-5	2048.3766	13490.51502	62.15528	13850.815
1090.0	0.97334	0.0266552	8.0276	7.46259	-7.22217	18.94791	25.72932	1.29802	0.7704	121.54625	154.07029	44.96205	0.35165	17.94916	497411.9753	0.37067	1.33756E-5	2053.01304	13188.44074	60.41486	13890.073
1085.0	0.97536	0.0246417	8.03121	7.45739	-7.28681	18.80491	25.56307	1.30167	0.76824	123.13617	154.08789	45.57638	0.35088	18.35433	553237.1438	0.36116	1.19818E-5	2057.65525	12893.51541	58.98507	13925.551
1080.0	0.9772	0.0227967	8.03464	7.45234	-7.34956	18.66742	25.40205	1.3051	0.76623	124.67445	154.10883	46.17079	0.35014	18.77091	615064.0628	0.35184	1.07377E-5	2062.29485	12605.10783	57.68152	13957.728
1075.0	0.9789	0.0211017	8.03791	7.44743	-7.41061	18.53477	25.24589	1.30832	0.76434	126.17119	154.13331	46.74907	0.34945	19.19946	683575.6781	0.34272	9.62583E-6	2066.93704	12322.66766	56.48803	13987.01
1070.0	0.98046	0.0195371	8.04103	7.44264	-7.47011	18.40649	25.09428	1.31134	0.76258	127.63511	154.16163	47.31452	0.34879	19.64017	759544.219	0.33378	8.63094E-6	2071.58074	12045.71307	55.39092	14013.741
1065.0	0.98191	0.0180897	8.04403	7.43798	-7.52815	18.28232	24.94689	1.31418	0.76093	129.06853	154.19378	47.86804	0.34817	20.09366	843818.6661	0.32504	7.74003E-6	2076.22414	11773.82127	54.37836	14038.216
1060.0	0.98325	0.0167466	8.04692	7.43342	-7.58485	18.1619	24.80348	1.31684	0.75939	130.47474	154.22996	48.41091	0.34758	20.55965	937367.0719	0.31648	6.94154E-6	2080.86327	11506.61621	53.44101	14060.688
1055.0	0.9845	0.0154967	8.04971	7.42895	-7.64035	18.04475	24.66379	1.31933	0.75796	131.85251	154.27014	48.94273	0.34701	21.03904	1041261.856	0.30811	6.22549E-6	2085.50639	11243.76403	52.57044	14081.374
1050.0	0.98567	0.0143314	8.0524	7.42458	-7.69471	17.93073	24.52762	1.32166	0.75662	133.20021	154.31439	49.46292	0.34647	21.53156	1156716.341	0.29993	5.58302E-6	2090.1471	10984.96494	51.75982	14100.464
1045.0	0.98676	0.0132419	8.05502	7.4203	-7.74797	17.81966	24.38652	1.32428	0.75513	134.51204	154.36267	49.96935	0.34595	22.03833	1285078.456	0.29193	5.00636E-6	2094.78123	10729.94867	51.00325	14118.121
1040.0	0.98778	0.0122205	8.05757	7.41609	-7.80027	17.71109	24.25385	1.32648	0.75388	135.7851	154.41495	50.46099	0.34545	22.55954	1427878.189	0.2841	4.48859E-6	2099.4184	10478.47532	50.29467	14134.49
1035.0	0.98874	0.0112618	8.06005	7.41196	-7.85162	17.60505	24.12671	1.32839	0.75279	137.01457	154.47127	50.93606	0.34497	23.09573	1586829.985	0.27645	4.02359E-6	2104.04612	10230.32196	49.63067	14149.695
1030.0	0.98964	0.0103603	8.06249	7.4079	-7.9021	17.50125	24.00241	1.33017	0.75179	138.19525	154.53151	51.39264	0.3445	23.64701	1763853.246	0.26897	3.60594E-6	2108.67353	9985.28939	49.00651	14163.847
1025.0	0.99049	0.00950945	8.06487	7.4039	-7.95174	17.3996	23.88079	1.33181	0.75086	139.32392	154.59563	51.82955	0.34406	24.21457	1961120.14	0.26166	3.23078E-6	2113.29284	9743.19387	48.4191	14177.045
1020.0	0.99129	0.008707	8.06736	7.39991	-8.00137	17.29698	23.76044	1.3334	0.74996	140.40255	154.66342	52.24763	0.34363	24.79864	2181470.162	0.25451	2.89325E-6	2117.91404	9502.2219	48.19439	14189.372
1015.0	0.99205	0.0079475	8.06967	7.39604	-8.04955	17.19891	23.64377	1.3348	0.74918	141.42382	154.73521	52.64398	0.34321	25.39933	2426935.338	0.24753	2.59057E-6	2122.52245	9265.44528	47.35532	14200.908
1010.0	0.99277	0.00722764	8.07194	7.39222	-8.09703	17.10253	23.52939	1.33608	0.74846	142.39071	154.8107	53.01981	0.34281	26.01787	2700967.233	0.24071	2.3187E-6	2127.12185	9031.14754	46.85955	14211.721
1005.0	0.99439	0.0056149	8.07408	7.38853	-8.14288	17.01155	23.42305	1.33692	0.74799	143.4032	154.89545	53.41705	0.3423	26.66785	3015420.332	0.23393	2.06881E-6	2131.85605	8785.04396	49.22072	14236.028
1000.0	0.99601	0.00399258	8.07616	7.38493	-8.18768	16.92371	23.3198	1.33758	0.74762	144.48022	154.98287	53.83834	0.3418	27.3431	3368167.763	0.22726	1.8449E-6	2136.60722	8540.60024	48.88874	14260.296
995.0	0.99747	0.00253008	8.07821	7.38138	-8.23173	16.83791	23.21802	1.33817	0.74729	145.93827	155.07212	54.40086	0.34132	28.04142	3762282.357	0.22073	1.64515E-6	2141.35011	8300.32126	48.0558	14281.956
990.0	0.99879	0.00120545	8.08024	7.3779	-8.2751	16.75391	23.11689	1.33873	0.74698	147.5022	155.16347	55.00225	0.34087	28.76416	4203009.273	0.21433	1.46684E-6	2146.0775	8063.77088	47.31008	14301.386
985.0	1.0	0.0	8.08225	7.37446	-8.31782	16.67161	23.01766	1.33917	0.74673	148.63055	155.2571	55.44067	0.34045	 	4696262.4	 	1.30758E-6	 	7830.58088	46.638	14318.894
980.0	1.0	0.0	8.08564	7.37136	-8.35634	16.60518	22.91422	1.33987	0.74634	148.94415	155.30092	55.56973	0.34016	 	5280197.245	 	1.15835E-6	 	7893.07803	-12.49943	 
975.0	1.0	0.0	8.08902	7.36829	-8.39454	16.53938	22.81254	1.34048	0.746	149.25704	155.34886	55.69837	0.33987	 	5942587.53	 	1.02513E-6	 	7696.92872	39.22986	 
970.0	1.0	0.0	8.09236	7.36524	-8.43241	16.47417	22.71255	1.34098	0.74572	149.56934	155.40081	55.82664	0.33959	 	6694742.129	 	9.06309E-7	 	7501.92883	38.99998	 
965.0	1.0	0.0	8.09568	7.36222	-8.46998	16.40952	22.61418	1.3414	0.74549	149.88119	155.45667	55.95459	0.33931	 	7549708.194	 	8.00442E-7	 	7308.03496	38.77878	 
960.0	1.0	0.0	8.09898	7.35922	-8.50725	16.34539	22.51736	1.34173	0.74531	150.1927	155.51636	56.08228	0.33904	 	8522557.255	 	7.06208E-7	 	7115.20568	38.56586	 
955.0	1.0	0.0	8.10226	7.35625	-8.54423	16.28175	22.42204	1.34197	0.74517	150.50397	155.57978	56.20976	0.33877	 	9630716.552	 	6.22414E-7	 	6923.40142	38.36085	 
950.0	1.0	0.0	8.10551	7.3533	-8.58094	16.21856	22.32815	1.34213	0.74509	150.81512	155.64686	56.33706	0.33851	 	1.089436097E7	 	5.4798E-7	 	6732.58444	38.1634	 
945.0	1.0	0.0	8.10874	7.35036	-8.61737	16.15581	22.23565	1.3422	0.74505	151.12624	155.7175	56.46424	0.33825	 	1.233687339E7	 	4.81928E-7	 	6542.7186	37.97317	 
940.0	1.0	0.0	8.11195	7.34745	-8.65355	16.09344	22.14447	1.34219	0.74505	151.43741	155.79162	56.59132	0.33799	 	1.398538506E7	 	4.23377E-7	 	6353.7694	37.78984	 
935.0	1.0	0.0	8.11514	7.34457	-8.68947	16.03145	22.05459	1.34211	0.7451	151.74871	155.86916	56.71835	0.33774	 	1.587141463E7	 	3.71528E-7	 	6165.70381	37.61312	 
930.0	1.0	0.0	8.11832	7.3417	-8.72515	15.9698	21.96594	1.34195	0.74518	152.06024	155.95004	56.84536	0.33749	 	1.803161886E7	 	3.25666E-7	 	5978.49024	37.44271	 
925.0	1.0	0.0	8.12147	7.33884	-8.7606	15.90846	21.87849	1.34171	0.74532	152.37205	156.03418	56.97238	0.33725	 	2.050868455E7	 	2.85141E-7	 	5792.09844	37.27836	 
920.0	1.0	0.0	8.1246	7.33601	-8.79581	15.84741	21.79219	1.34141	0.74549	152.68422	156.12151	57.09944	0.337	 	2.33523765E7	 	2.49374E-7	 	5606.49941	37.11981	 
915.0	1.0	0.0	8.12772	7.3332	-8.83081	15.78662	21.70702	1.34103	0.7457	152.99681	156.21198	57.22657	0.33676	 	2.662078605E7	 	2.1784E-7	 	5421.66537	36.96681	 
910.0	1.0	0.0	8.13083	7.3304	-8.86559	15.72607	21.62293	1.34058	0.74595	153.30988	156.30551	57.3538	0.33653	 	3.038180533E7	 	1.9007E-7	 	5237.56972	36.81913	 
905.0	1.0	0.0	8.13391	7.32762	-8.90016	15.66573	21.53989	1.34006	0.74624	153.62348	156.40205	57.48116	0.33629	 	3.471488156E7	 	1.65642E-7	 	5054.18687	36.67657	 
900.0	1.0	0.0	8.13698	7.32485	-8.93453	15.60559	21.45787	1.33947	0.74656	153.93767	156.50153	57.60865	0.33606	 	3.971310106E7	 	1.4418E-7	 	4871.49234	36.53891	 
895.0	1.0	0.0	8.14003	7.32211	-8.9687	15.54561	21.37685	1.33882	0.74693	154.25248	156.60389	57.73632	0.33584	 	4.548566911E7	 	1.25346E-7	 	4689.46257	36.40595	 
890.0	1.0	0.0	8.14307	7.31937	-9.00268	15.48579	21.29678	1.3381	0.74733	154.56798	156.70908	57.86417	0.33561	 	5.21608686E7	 	1.08837E-7	 	4508.07497	36.27752	 
885.0	1.0	0.0	8.1461	7.31665	-9.03647	15.42609	21.21764	1.33732	0.74777	154.88419	156.81705	57.99222	0.33539	 	5.988958681E7	 	9.43844E-8	 	4327.30781	36.15343	 
880.0	1.0	0.0	8.14911	7.31395	-9.07009	15.3665	21.13942	1.33647	0.74824	155.20116	156.92773	58.1205	0.33517	 	6.884953774E7	 	8.17469E-8	 	4147.14009	36.03354	 
875.0	1.0	0.0	8.15211	7.31126	-9.10352	15.307	21.06208	1.33556	0.74875	155.51892	157.04109	58.24902	0.33495	 	7.925030606E7	 	7.07106E-8	 	3967.55169	35.91768	 
870.0	1.0	0.0	8.15509	7.30859	-9.13679	15.24757	20.98561	1.33459	0.74929	155.8375	157.15706	58.37779	0.33473	 	9.133939307E7	 	6.10846E-8	 	3788.52357	35.80562	 
865.0	1.0	0.0	8.15807	7.30592	-9.16989	15.18819	20.90997	1.33356	0.74987	156.15693	157.2756	58.50683	0.33452	 	1.054094827E8	 	5.26995E-8	 	3610.0372	35.69727	 
860.0	1.0	0.0	8.16102	7.30327	-9.20283	15.12884	20.83516	1.33247	0.75049	156.47724	157.39666	58.63615	0.33431	 	1.218071565E8	 	4.54048E-8	 	3432.07473	35.59249	 
855.0	1.0	0.0	8.16397	7.30064	-9.2356	15.06951	20.76115	1.33132	0.75114	156.79846	157.52019	58.76576	0.3341	 	1.409433983E8	 	3.90669E-8	 	3254.61898	35.49115	 
850.0	1.0	0.0	8.16691	7.29801	-9.26823	15.01017	20.68792	1.33011	0.75182	157.12059	157.64615	58.89568	0.33389	 	1.63306226E8	 	3.35677E-8	 	3077.65345	35.39311	 
845.0	1.0	0.0	8.16915	7.29601	-9.29317	14.98576	20.62796	1.32804	0.75299	157.44882	157.84515	59.02478	0.33375	 	1.853694508E8	 	2.94407E-8	 	2929.35322	29.66005	 
840.0	1.0	0.0	8.1714	7.294	-9.31806	14.96135	20.56799	1.32595	0.75418	157.77654	158.04337	59.15372	0.33361	 	2.106531684E8	 	2.57913E-8	 	2778.21814	30.22702	 
835.0	1.0	0.0	8.17363	7.29201	-9.34288	14.93694	20.50801	1.32386	0.75537	158.10374	158.24081	59.28248	0.33348	 	2.396618636E8	 	2.25676E-8	 	2627.27596	30.18844	 
830.0	1.0	0.0	8.17587	7.29002	-9.36764	14.91253	20.44801	1.32175	0.75657	158.43042	158.43748	59.41108	0.33334	 	2.729843727E8	 	1.97235E-8	 	2476.52591	30.15001	 
825.0	1.0	0.0	8.17809	7.28803	-9.39233	14.88812	20.388	1.31963	0.75779	158.7566	158.63337	59.53951	0.3332	 	3.113088704E8	 	1.7217E-8	 	2325.9672	30.11174	 
820.0	1.0	0.0	8.18032	7.28605	-9.41697	14.8637	20.32798	1.3175	0.75901	159.08226	158.82849	59.66776	0.33307	 	3.554406753E8	 	1.50106E-8	 	2175.59901	30.07364	 
815.0	1.0	0.0	8.18254	7.28407	-9.44153	14.83928	20.26794	1.31536	0.76025	159.40741	159.02284	59.79585	0.33293	 	4.063234336E8	 	1.30708E-8	 	2025.4205	30.0357	 
810.0	1.0	0.0	8.18475	7.2821	-9.46604	14.81487	20.20789	1.31321	0.76149	159.73204	159.21642	59.92377	0.33279	 	4.650643577E8	 	1.13674E-8	 	1875.4308	29.99794	 
805.0	1.0	0.0	8.18696	7.28014	-9.49047	14.79045	20.14783	1.31104	0.76275	160.05617	159.40924	60.05153	0.33266	 	5.329643367E8	 	9.87342E-9	 	1725.62896	29.96037	 
800.0	1.0	0.0	8.18917	7.27818	-9.51485	14.76603	20.08775	1.30887	0.76402	160.37977	159.60129	60.17911	0.33252	 	6.115539136E8	 	8.5647E-9	 	1576.01406	29.92298	 
795.0	1.0	0.0	8.19137	7.27622	-9.53916	14.7416	20.02766	1.30668	0.7653	160.70287	159.79259	60.30652	0.33238	 	7.02636333E8	 	7.41973E-9	 	1426.58508	29.8858	 
790.0	1.0	0.0	8.19356	7.27427	-9.56341	14.71718	19.96756	1.30447	0.76659	161.02545	159.98312	60.43376	0.33225	 	8.083391254E8	 	6.4193E-9	 	1277.341	29.84882	 
785.0	1.0	0.0	8.19576	7.27232	-9.58759	14.69276	19.90743	1.30226	0.7679	161.34752	160.1729	60.56084	0.33211	 	9.311760132E8	 	5.54628E-9	 	1128.28073	29.81205	 
780.0	1.0	0.0	8.19794	7.27038	-9.61171	14.66833	19.8473	1.30003	0.76921	161.66908	160.36192	60.68774	0.33197	 	1.074121317E9	 	4.78546E-9	 	979.40316	29.77551	 
775.0	1.0	0.0	8.20012	7.26845	-9.63577	14.6439	19.78715	1.2978	0.77054	161.99012	160.55019	60.81447	0.33184	 	1.240699522E9	 	4.12329E-9	 	830.70709	29.73921	 
770.0	1.0	0.0	8.2023	7.26652	-9.65976	14.61947	19.72698	1.29554	0.77188	162.31065	160.73772	60.94104	0.3317	 	1.435093268E9	 	3.54775E-9	 	682.19131	29.70316	 
765.0	1.0	0.0	8.20448	7.2646	-9.68369	14.59504	19.6668	1.29328	0.77323	162.63067	160.92449	61.06743	0.33157	 	1.662273742E9	 	3.04821E-9	 	533.85451	29.66736	 
760.0	1.0	0.0	8.20664	7.26268	-9.70756	14.57061	19.60661	1.291	0.77459	162.95017	161.11051	61.19366	0.33143	 	1.928158398E9	 	2.61521E-9	 	385.69536	29.63183	 
755.0	1.0	0.0	8.20881	7.26076	-9.73136	14.54617	19.5464	1.28871	0.77597	163.26916	161.29579	61.31971	0.33129	 	2.23980201E9	 	2.24044E-9	 	237.71243	29.59659	 
750.0	1.0	0.0	8.21097	7.25885	-9.7551	14.52174	19.48617	1.28641	0.77736	163.58764	161.48033	61.4456	0.33116	 	2.605628519E9	 	1.91652E-9	 	89.90424	29.56164	 
745.0	1.0	0.0	8.21312	7.25695	-9.77877	14.4973	19.42592	1.28409	0.77876	163.90561	161.66413	61.57131	0.33102	 	3.035712815E9	 	1.63696E-9	 	-57.73077	29.527	 
740.0	1.0	0.0	8.21527	7.25505	-9.80238	14.47286	19.36566	1.28176	0.78018	164.22306	161.84719	61.69686	0.33089	 	3.542123828E9	 	1.39604E-9	 	-205.19422	29.49269	 
735.0	1.0	0.0	8.21742	7.25315	-9.82592	14.44842	19.30539	1.27942	0.7816	164.54	162.02951	61.82223	0.33075	 	4.139342941E9	 	1.18872E-9	 	-352.48785	29.45873	 
730.0	1.0	0.0	8.21956	7.25127	-9.84941	14.42398	19.24509	1.27706	0.78305	164.85642	162.2111	61.94744	0.33062	 	4.844775196E9	 	1.0106E-9	 	-499.61346	29.42512	 
725.0	1.0	0.0	8.22169	7.24938	-9.87282	14.39954	19.18478	1.27469	0.7845	165.17234	162.39196	62.07247	0.33048	 	5.679374931E9	 	8.57792E-10	 	-646.57295	29.3919	 
720.0	1.0	0.0	8.22382	7.2475	-9.89618	14.37509	19.12445	1.27231	0.78597	165.48774	162.57209	62.19734	0.33034	 	6.668412858E9	 	7.26907E-10	 	-793.36833	29.35908	 
715.0	1.0	0.0	8.22595	7.24563	-9.91947	14.35065	19.06411	1.26991	0.78746	165.80262	162.75148	62.32203	0.33021	 	7.842418262E9	 	6.14978E-10	 	-940.00173	29.32668	 
710.0	1.0	0.0	8.22807	7.24376	-9.9427	14.3262	19.00374	1.2675	0.78896	166.117	162.93015	62.44655	0.33007	 	9.238338418E9	 	5.19413E-10	 	-1086.47535	29.29472	 
705.0	1.0	0.0	8.23019	7.2419	-9.96586	14.30175	18.94336	1.26507	0.79047	166.43086	163.1081	62.57091	0.32994	 	1.0901E10	 	4.37953E-10	 	-1232.79156	29.26324	 
700.0	1.0	0.0	8.2323	7.24004	-9.98896	14.2773	18.88296	1.26263	0.792	166.74421	163.28532	62.69509	0.3298	 	1.2884699999999998E10	 	3.68631E-10	 	-1378.95285	29.23226	 
695.0	1.0	0.0	8.23441	7.23819	-10.01199	14.25285	18.82254	1.26017	0.79354	167.05704	163.46183	62.8191	0.32967	 	1.5255799999999998E10	 	3.09738E-10	 	-1524.96183	29.2018	 
690.0	1.0	0.0	8.23651	7.23634	-10.03496	14.22839	18.7621	1.2577	0.7951	167.36936	163.63761	62.94294	0.32953	 	1.80949E10	 	2.59791E-10	 	-1670.8213	29.17189	 
685.0	1.0	0.0	8.23861	7.2345	-10.05787	14.20394	18.70164	1.25522	0.79667	167.68117	163.81268	63.06661	0.3294	 	2.15006E10	 	2.17505E-10	 	-1816.53419	29.14258	 
680.0	1.0	0.0	8.2407	7.23266	-10.08071	14.17948	18.64117	1.25272	0.79826	167.99247	163.98703	63.19011	0.32926	 	2.5593599999999996E10	 	1.81768E-10	 	-1962.10361	29.11388	 
675.0	1.0	0.0	8.24279	7.23083	-10.10349	14.15502	18.58067	1.25021	0.79987	168.30325	164.16067	63.31343	0.32913	 	3.0521799999999996E10	 	1.51619E-10	 	-2107.53286	29.08585	 
670.0	1.0	0.0	8.24487	7.229	-10.12621	14.13056	18.52015	1.24768	0.80149	168.61352	164.33359	63.43659	0.32899	 	3.6467E10	 	1.26231E-10	 	-2252.82543	29.05851	 
665.0	1.0	0.0	8.24695	7.22718	-10.14886	14.1061	18.45961	1.24513	0.80313	168.92328	164.50581	63.55957	0.32886	 	4.3653E10	 	1.04893E-10	 	-2397.98504	29.03192	 
660.0	1.0	0.0	8.24902	7.22536	-10.17144	14.08164	18.39905	1.24257	0.80478	169.23252	164.67732	63.68239	0.32872	 	5.235579999999999E10	 	8.69908E-11	 	-2543.00522	29.00403	 
655.0	1.0	0.0	8.25109	7.22355	-10.19397	14.05718	18.33847	1.24	0.80645	169.54125	164.84812	63.80503	0.32859	 	6.291669999999999E10	 	7.2001E-11	 	-2687.82801	28.96456	 
650.0	1.0	0.0	8.25316	7.22174	-10.21643	14.03271	18.27787	1.23741	0.80814	169.84947	165.01822	63.9275	0.32845	 	7.57586E10	 	5.9474E-11	 	-2832.37659	28.90972	 
645.0	1.0	0.0	8.25522	7.21994	-10.23882	14.00824	18.21725	1.2348	0.80985	170.15717	165.18762	64.0498	0.32832	 	9.14064E10	 	4.90257E-11	 	-2976.65215	28.85511	 
640.0	1.0	0.0	8.25727	7.21815	-10.26115	13.98378	18.1566	1.23218	0.81157	170.46436	165.35632	64.17193	0.32818	 	1.10513E11	 	4.03288E-11	 	-3120.65593	28.80076	 
635.0	1.0	0.0	8.25932	7.21636	-10.28342	13.95931	18.09593	1.22954	0.81331	170.77104	165.52432	64.29388	0.32805	 	1.33893E11	 	3.31044E-11	 	-3264.38912	28.74664	 
630.0	1.0	0.0	8.26136	7.21457	-10.30562	13.93483	18.03524	1.22689	0.81507	171.0772	165.69162	64.41567	0.32792	 	1.62565E11	 	2.71156E-11	 	-3407.85296	28.69277	 
625.0	1.0	0.0	8.2634	7.21279	-10.32776	13.91036	17.97453	1.22421	0.81685	171.38285	165.85823	64.53728	0.32778	 	1.97803E11	 	2.21617E-11	 	-3551.0488	28.63917	 
620.0	1.0	0.0	8.26544	7.21101	-10.34984	13.88589	17.91379	1.22153	0.81865	171.68799	166.02414	64.65872	0.32765	 	2.41209E11	 	1.80725E-11	 	-3693.97832	28.5859	 
615.0	1.0	0.0	8.26747	7.20924	-10.37185	13.86141	17.85303	1.21882	0.82046	171.99262	166.18937	64.77999	0.32751	 	2.94798E11	 	1.47045E-11	 	-3836.64248	28.53283	 
610.0	1.0	0.0	8.26949	7.20748	-10.3938	13.83693	17.79224	1.2161	0.8223	172.29673	166.3539	64.90109	0.32738	 	3.61111E11	 	1.19366E-11	 	-3979.04247	28.48	 
605.0	1.0	0.0	8.27151	7.20572	-10.41568	13.81246	17.73143	1.21336	0.82416	172.60033	166.51775	65.02201	0.32725	 	4.43365E11	 	9.66706E-12	 	-4121.17952	28.42741	 
600.0	1.0	0.0	8.27353	7.20396	-10.4375	13.78798	17.67059	1.21061	0.82603	172.90341	166.68091	65.14277	0.32711	 	5.45635E11	 	7.8104E-12	 	-4263.05479	28.37505	 
595.0	1.0	0.0	8.27554	7.20221	-10.45925	13.76349	17.60973	1.20784	0.82793	173.20599	166.84339	65.26335	0.32698	 	6.73103E11	 	6.29506E-12	 	-4404.66948	28.32294	 
590.0	1.0	0.0	8.27754	7.20047	-10.48095	13.73901	17.54884	1.20505	0.82984	173.50805	167.00518	65.38376	0.32684	 	8.32372E11	 	5.06123E-12	 	-4546.0248	28.27106	 
585.0	1.0	0.0	8.27954	7.19873	-10.50257	13.71453	17.48793	1.20224	0.83178	173.80959	167.1663	65.50399	0.32671	 	1.03188E12	 	4.05903E-12	 	-4687.12191	28.21942	 
580.0	1.0	0.0	8.28154	7.19699	-10.52414	13.69004	17.42699	1.19941	0.83374	174.11063	167.32673	65.62406	0.32658	 	1.28243E12	 	3.24698E-12	 	-4827.96201	28.16802	 
575.0	1.0	0.0	8.28353	7.19526	-10.54564	13.66555	17.36602	1.19657	0.83572	174.41114	167.48649	65.74395	0.32644	 	1.5979E12	 	2.59066E-12	 	-4968.5463	28.11686	 
570.0	1.0	0.0	8.28552	7.19354	-10.56707	13.64106	17.30502	1.19371	0.83772	174.71115	167.64557	65.86367	0.32631	 	1.99618E12	 	2.06154E-12	 	-5108.87592	28.06592	 
565.0	1.0	0.0	8.2875	7.19182	-10.58844	13.61657	17.244	1.19083	0.83975	175.01064	167.80398	65.98321	0.32618	 	2.50036E12	 	1.63608E-12	 	-5248.95208	28.01523	 
560.0	1.0	0.0	8.28947	7.19011	-10.60975	13.59208	17.18294	1.18793	0.8418	175.30962	167.96172	66.10259	0.32604	 	3.14036E12	 	1.29488E-12	 	-5388.77594	27.96477	 
555.0	1.0	0.0	8.29144	7.1884	-10.63099	13.56759	17.12186	1.18502	0.84387	175.60809	168.11878	66.22179	0.32591	 	3.95505E12	 	1.02198E-12	 	-5528.34869	27.91455	 
550.0	1.0	0.0	8.29341	7.1867	-10.65217	13.54309	17.06074	1.18208	0.84597	175.90604	168.27518	66.34082	0.32578	 	4.99507E12	 	8.04311E-13	 	-5667.67149	27.86456	 
545.0	1.0	0.0	8.29537	7.185	-10.67328	13.5186	16.9996	1.17913	0.84809	176.20348	168.43091	66.45967	0.32564	 	6.3266E12	 	6.31174E-13	 	-5806.74549	27.8148	 
540.0	1.0	0.0	8.29732	7.1833	-10.69434	13.4941	16.93843	1.17615	0.85023	176.50041	168.58598	66.57835	0.32551	 	8.03639E12	 	4.93852E-13	 	-5945.57188	27.76528	 
535.0	1.0	0.0	8.29927	7.18162	-10.71532	13.4696	16.87722	1.17316	0.8524	176.79682	168.74038	66.69686	0.32538	 	1.02385E13	 	3.85249E-13	 	-6084.15183	27.71599	 
530.0	1.0	0.0	8.30122	7.17993	-10.73624	13.4451	16.81598	1.17015	0.85459	177.09272	168.89412	66.8152	0.32524	 	1.30835E13	 	2.99613E-13	 	-6222.48646	27.66693	 
525.0	1.0	0.0	8.30316	7.17826	-10.7571	13.42059	16.75471	1.16712	0.85681	177.38811	169.0472	66.93336	0.32511	 	1.67704E13	 	2.32289E-13	 	-6360.57696	27.6181	 
520.0	1.0	0.0	8.30509	7.17658	-10.7779	13.39609	16.69341	1.16406	0.85906	177.68298	169.19963	67.05135	0.32498	 	2.15636E13	 	1.79523E-13	 	-6498.42447	27.5695	 
515.0	1.0	0.0	8.30702	7.17492	-10.79863	13.37158	16.63207	1.16099	0.86133	177.97734	169.35139	67.16916	0.32484	 	2.78155E13	 	1.38296E-13	 	-6636.03014	27.52113	 
510.0	1.0	0.0	8.30895	7.17325	-10.81929	13.34708	16.57069	1.1579	0.86363	178.27119	169.5025	67.2868	0.32471	 	3.59967E13	 	1.06186E-13	 	-6773.39514	27.473	 
505.0	1.0	0.0	8.31087	7.1716	-10.83989	13.32257	16.50929	1.15478	0.86596	178.56452	169.65296	67.40427	0.32458	 	4.67389E13	 	8.12591E-14	 	-6910.5206	27.42509	 
500.0	1.0	0.0	8.31278	7.16994	-10.86043	13.29806	16.44784	1.15165	0.86832	178.85734	169.80276	67.52157	0.32445	 	6.0892E13	 	6.19712E-14	 	-7047.40766	27.37741	 
495.0	1.0	0.0	8.31469	7.1683	-10.88091	13.27355	16.38636	1.1485	0.8707	179.14964	169.95192	67.63869	0.32431	 	7.96046E13	 	4.70971E-14	 	-7184.05745	27.32996	 
490.0	1.0	0.0	8.3166	7.16666	-10.90132	13.24904	16.32485	1.14532	0.87312	179.44143	170.10042	67.75564	0.32418	 	1.04434E14	 	3.56661E-14	 	-7320.4711	27.28273	 
485.0	1.0	0.0	8.3185	7.16502	-10.92166	13.22452	16.26329	1.14212	0.87556	179.73271	170.24828	67.87241	0.32405	 	1.3749899999999998E14	 	2.69118E-14	 	-7456.64975	27.23573	 
480.0	1.0	0.0	8.32039	7.16339	-10.94194	13.2	16.2017	1.1389	0.87804	180.02348	170.39549	67.98901	0.32392	 	1.81695E14	 	2.02314E-14	 	-7592.59449	27.18895	 
475.0	1.0	0.0	8.32228	7.16176	-10.96216	13.17549	16.14006	1.13566	0.88054	180.31373	170.54206	68.10543	0.32378	 	2.40993E14	 	1.5152E-14	 	-7728.30646	27.14239	 
470.0	1.0	0.0	8.32417	7.16014	-10.98231	13.15097	16.07839	1.1324	0.88308	180.60347	170.68799	68.22168	0.32365	 	3.20862E14	 	1.13043E-14	 	-7863.78677	27.09606	 
465.0	1.0	0.0	8.32604	7.15852	-11.0024	13.12645	16.01668	1.12912	0.88565	180.89269	170.83328	68.33776	0.32352	 	4.28859E14	 	8.40073E-15	 	-7999.03651	27.04995	 
460.0	1.0	0.0	8.32792	7.15691	-11.02242	13.10193	15.95492	1.12581	0.88825	181.1814	170.97792	68.45366	0.32339	 	5.75479E14	 	6.21799E-15	 	-8134.05681	27.00406	 
455.0	1.0	0.0	8.32979	7.15531	-11.04238	13.0774	15.89312	1.12248	0.89089	181.4696	171.12193	68.56939	0.32326	 	7.75352E14	 	4.58362E-15	 	-8268.84874	26.95839	 
450.0	1.0	0.0	8.33165	7.15371	-11.06228	13.05288	15.83128	1.11912	0.89356	181.75728	171.26531	68.68495	0.32312	 	1.04896E15	 	3.36478E-15	 	-8403.41341	26.91294	 
445.0	1.0	0.0	8.33351	7.15211	-11.08211	13.02835	15.76939	1.11575	0.89626	182.04445	171.40805	68.80033	0.32299	 	1.4251E15	 	2.45955E-15	 	-8537.75192	26.8677	 
440.0	1.0	0.0	8.33536	7.15052	-11.10188	13.00382	15.70746	1.11235	0.899	182.3311	171.55015	68.91553	0.32286	 	1.94446E15	 	1.79006E-15	 	-8671.86533	26.82268	 
435.0	1.0	0.0	8.33721	7.14894	-11.12158	12.9793	15.64549	1.10893	0.90177	182.61724	171.69163	69.03056	0.32273	 	2.66476E15	 	1.29704E-15	 	-8805.75471	26.77788	 
430.0	1.0	0.0	8.33905	7.14736	-11.14122	12.95476	15.58346	1.10548	0.90459	182.90287	171.83247	69.14542	0.3226	 	3.66829E15	 	9.35558E-16	 	-8939.42116	26.73329	 
425.0	1.0	0.0	8.34089	7.14578	-11.1608	12.93023	15.52139	1.10201	0.90744	183.18798	171.97269	69.2601	0.32246	 	5.07292E15	 	6.71704E-16	 	-9072.86557	26.68888	 
420.0	1.0	0.0	8.34272	7.14421	-11.18031	12.9057	15.45927	1.09851	0.91032	183.47258	172.11228	69.3746	0.32233	 	7.04827E15	 	4.79989E-16	 	-9206.08924	26.64474	 
415.0	1.0	0.0	8.34455	7.14265	-11.19975	12.88116	15.3971	1.09499	0.91325	183.75667	172.25124	69.48894	0.3222	 	9.83973E15	 	3.4134E-16	 	-9339.09262	26.60068	 
410.0	1.0	0.0	8.34637	7.14109	-11.21914	12.85663	15.33487	1.09145	0.91622	184.04024	172.38958	69.60309	0.32207	 	1.3804E16	 	2.41545E-16	 	-9471.87588	26.55665	 
405.0	1.0	0.0	8.34819	7.13954	-11.23845	12.83209	15.2726	1.08787	0.91922	184.3233	172.5273	69.71707	0.32194	 	1.94623E16	 	1.70066E-16	 	-9604.43921	26.51267	 
400.0	1.0	0.0	8.35	7.13799	-11.25771	12.80755	15.21027	1.08428	0.92227	184.60584	172.6644	69.83088	0.32181	 	2.75804E16	 	1.19124E-16	 	-9736.78279	26.46871	 
395.0	1.0	0.0	8.3518	7.13645	-11.2769	12.78301	15.14789	1.08066	0.92536	184.88787	172.80088	69.94451	0.32168	 	3.92891E16	 	8.30021E-17	 	-9868.90677	26.4248	 
390.0	1.0	0.0	8.3536	7.13491	-11.29602	12.75847	15.08545	1.07701	0.9285	185.16939	172.93674	70.05796	0.32154	 	5.62679E16	 	5.75225E-17	 	-10000.81133	26.38091	 
385.0	1.0	0.0	8.3554	7.13337	-11.31508	12.73392	15.02295	1.07334	0.93167	185.45039	173.07199	70.17124	0.32141	 	8.10252E16	 	3.96453E-17	 	-10132.49661	26.33706	 
380.0	1.0	0.0	8.35719	7.13185	-11.33408	12.70938	14.9604	1.06964	0.9349	185.73088	173.20662	70.28435	0.32128	 	1.17329E17	 	2.71704E-17	 	-10263.96275	26.29323	 
375.0	1.0	0.0	8.35898	7.13032	-11.35301	12.68483	14.89778	1.06591	0.93817	186.01085	173.34063	70.39727	0.32115	 	1.70871E17	 	1.85137E-17	 	-10395.2099	26.24943	 
370.0	1.0	0.0	8.36075	7.12881	-11.37188	12.66028	14.83511	1.06215	0.94148	186.29031	173.47404	70.51003	0.32102	 	2.50306E17	 	1.25409E-17	 	-10526.23817	26.20565	 
365.0	1.0	0.0	8.36253	7.12729	-11.39068	12.63573	14.77237	1.05837	0.94485	186.56926	173.60683	70.6226	0.32089	 	3.68869E17	 	8.44378E-18	 	-10657.04768	26.1619	 
360.0	1.0	0.0	8.3643	7.12579	-11.40942	12.61118	14.70957	1.05456	0.94826	186.84769	173.73902	70.73501	0.32076	 	5.46932E17	 	5.65015E-18	 	-10787.63855	26.11817	 
355.0	1.0	0.0	8.36606	7.12428	-11.4281	12.58663	14.64671	1.05073	0.95172	187.12561	173.8706	70.84723	0.32063	 	8.16052E17	 	3.75692E-18	 	-10918.01086	26.07446	 
350.0	1.0	0.0	8.36782	7.12279	-11.44671	12.56207	14.58377	1.04686	0.95524	187.40301	174.00157	70.95928	0.3205	 	1.22544E18	 	2.48193E-18	 	-11048.16471	26.03077	 
345.0	1.0	0.0	8.36957	7.12129	-11.46526	12.53752	14.52077	1.04297	0.9588	187.6799	174.13194	71.07115	0.32037	 	1.85234E18	 	1.62877E-18	 	-11178.10015	25.98709	 
340.0	1.0	0.0	8.37132	7.11981	-11.48374	12.51296	14.4577	1.03904	0.96242	187.95627	174.2617	71.18285	0.32024	 	2.81887E18	 	1.06164E-18	 	-11307.81728	25.94343	 
335.0	1.0	0.0	8.37306	7.11833	-11.50216	12.4884	14.39456	1.03509	0.9661	188.23213	174.39086	71.29437	0.32011	 	4.31947E18	 	6.87175E-19	 	-11437.31613	25.89977	 
330.0	1.0	0.0	8.3748	7.11685	-11.52051	12.46384	14.33134	1.03111	0.96983	188.50748	174.51943	71.40572	0.31997	 	6.66588E18	 	4.41626E-19	 	-11566.59674	25.85612	 
325.0	1.0	0.0	8.37653	7.11538	-11.5388	12.43928	14.26805	1.0271	0.97362	188.78231	174.64739	71.51688	0.31984	 	1.03618E19	 	2.81749E-19	 	-11695.65916	25.81248	 
320.0	1.0	0.0	8.37826	7.11391	-11.55702	12.41471	14.20468	1.02306	0.97746	189.05662	174.77476	71.62787	0.31971	 	1.62272E19	 	1.78406E-19	 	-11824.50338	25.76884	 
315.0	1.0	0.0	8.37998	7.11245	-11.57519	12.39015	14.14123	1.01898	0.98137	189.33042	174.90153	71.73869	0.31958	 	2.56072E19	 	1.12102E-19	 	-11953.12939	25.7252	 
310.0	1.0	0.0	8.38169	7.111	-11.59328	12.36558	14.0777	1.01488	0.98534	189.60371	175.0277	71.84933	0.31945	 	4.07267E19	 	6.98856E-20	 	-12081.53721	25.68156	 
305.0	1.0	0.0	8.3834	7.10955	-11.61131	12.34101	14.01409	1.01075	0.98937	189.87649	175.15328	71.95979	0.31932	 	6.52953E19	 	4.32161E-20	 	-12209.72679	25.63792	 
300.0	1.0	0.0	8.38511	7.1081	-11.62928	12.31645	13.95039	1.00658	0.99346	190.14874	175.27827	72.07007	0.31919	 	1.0555099999999998E20	 	2.65029E-20	 	-12337.69809	25.59426	 
295.0	1.0	0.0	8.38681	7.10666	-11.64718	12.29188	13.88661	1.00238	0.99762	190.42049	175.40267	72.18018	0.31906	 	1.72073E20	 	1.61153E-20	 	-12465.45104	25.55059	 
290.0	1.0	0.0	8.3885	7.10523	-11.66502	12.2673	13.82273	0.99815	1.00185	190.69172	175.52649	72.29011	0.31893	 	2.8296399999999997E20	 	9.71359E-21	 	-12592.98558	25.50691	 
285.0	1.0	0.0	8.39019	7.1038	-11.6828	12.24273	13.75877	0.99389	1.00615	190.96243	175.64971	72.39987	0.3188	 	4.6948399999999993E20	 	5.80252E-21	 	-12720.3016	25.4632	 
280.0	1.0	0.0	8.39187	7.10237	-11.70051	12.21815	13.69471	0.98959	1.01052	191.23263	175.77234	72.50944	0.31867	 	7.861149999999999E20	 	3.43434E-21	 	-12847.39899	25.41948	 
275.0	1.0	0.0	8.39355	7.10095	-11.71815	12.19358	13.63055	0.98526	1.01496	191.50232	175.8944	72.61884	0.31854	 	1.32872E21	 	2.0135E-21	 	-12974.27762	25.37573	 
270.0	1.0	0.0	8.39522	7.09954	-11.73573	12.169	13.56629	0.9809	1.01947	191.77149	176.01586	72.72807	0.31841	 	2.26768E21	 	1.16903E-21	 	-13100.93731	25.33194	 
265.0	1.0	0.0	8.39689	7.09813	-11.75325	12.14442	13.50193	0.9765	1.02406	192.04014	176.13675	72.83711	0.31828	 	3.90877E21	 	6.7197E-22	 	-13227.37792	25.28812	 
260.0	1.0	0.0	8.39855	7.09673	-11.7707	12.11984	13.43746	0.97207	1.02873	192.30828	176.25705	72.94598	0.31816	 	6.80668E21	 	3.82297E-22	 	-13353.59923	25.24426	 
255.0	1.0	0.0	8.4002	7.09533	-11.78809	12.09526	13.37288	0.96761	1.03348	192.57591	176.37678	73.05467	0.31803	 	1.1978199999999998E22	 	2.15205E-22	 	-13479.60103	25.20036	 
250.0	1.0	0.0	8.40185	7.09393	-11.80541	12.07067	13.3082	0.9631	1.03831	192.84302	176.49592	73.16318	0.3179	 	2.13078E22	 	1.19832E-22	 	-13605.38305	25.15641	 
245.0	1.0	0.0	8.4035	7.09255	-11.82267	12.04609	13.24339	0.95857	1.04322	193.10962	176.61449	73.27152	0.31777	 	3.8327799999999995E22	 	6.59824E-23	 	-13730.94504	25.1124	 
240.0	1.0	0.0	8.40514	7.09116	-11.83987	12.0215	13.17847	0.95399	1.04823	193.3757	176.73249	73.37967	0.31764	 	6.97362E22	 	3.59147E-23	 	-13856.2867	25.06833	 
235.0	1.0	0.0	8.40677	7.08979	-11.857	11.99691	13.11343	0.94938	1.05332	193.64126	176.84991	73.48765	0.31751	 	1.2838599999999999E23	 	1.93179E-23	 	-13981.40769	25.0242	 
230.0	1.0	0.0	8.4084	7.08841	-11.87406	11.97232	13.04826	0.94474	1.0585	193.90632	176.96675	73.59545	0.31738	 	2.39247E23	 	1.02645E-23	 	-14106.30766	24.98	 
225.0	1.0	0.0	8.41002	7.08705	-11.89106	11.94773	12.98297	0.94005	1.06377	194.17085	177.08303	73.70308	0.31725	 	4.5144099999999995E23	 	5.38575E-24	 	-14230.98623	24.93571	 
220.0	1.0	0.0	8.41164	7.08568	-11.908	11.92314	12.91754	0.93533	1.06914	194.43487	177.19873	73.81052	0.31712	 	8.62873E23	 	2.78945E-24	 	-14355.44296	24.89135	 
215.0	1.0	0.0	8.41325	7.08433	-11.92487	11.89854	12.85197	0.93057	1.07461	194.69838	177.31387	73.91779	0.31699	 	1.67131E24	 	1.42555E-24	 	-14479.67741	24.84689	 
210.0	1.0	0.0	8.41485	7.08297	-11.94168	11.87394	12.78626	0.92577	1.08018	194.96137	177.42843	74.02488	0.31686	 	3.28177E24	 	7.18555E-25	 	-14603.68908	24.80233	 
205.0	1.0	0.0	8.41646	7.08163	-11.95842	11.84935	12.72041	0.92094	1.08585	195.22385	177.54243	74.13179	0.31674	 	6.53566E24	 	3.57077E-25	 	-14727.47745	24.75767	 
200.0	1.0	0.0	8.41805	7.08029	-11.9751	11.82475	12.65441	0.91606	1.09163	195.48581	177.65587	74.23852	0.31661	 	1.32067E25	 	1.74861E-25	 	-14851.04194	24.7129	 
195.0	1.0	0.0	8.41964	7.07895	-11.99172	11.80015	12.58825	0.91114	1.09752	195.74725	177.76874	74.34507	0.31648	 	2.70909E25	 	8.43428E-26	 	-14974.38195	24.668	 
190.0	1.0	0.0	8.42122	7.07762	-12.00827	11.77555	12.52193	0.90618	1.10353	196.00818	177.88105	74.45145	0.31635	 	5.6440500000000005E25	 	4.00514E-26	 	-15097.49681	24.62297	 
185.0	1.0	0.0	8.4228	7.07629	-12.02475	11.75094	12.45544	0.90119	1.10965	196.2686	177.9928	74.55764	0.31622	 	1.19486E26	 	1.87145E-26	 	-15220.38583	24.5778	 
180.0	1.0	0.0	8.42437	7.07497	-12.04117	11.72634	12.38879	0.89615	1.11589	196.5285	178.10398	74.66366	0.31609	 	2.5717500000000003E26	 	8.60004E-27	 	-15343.04824	24.53248	 
175.0	1.0	0.0	8.42594	7.07366	-12.05753	11.70173	12.32195	0.89107	1.12225	196.78788	178.21461	74.7695	0.31596	 	5.63079E26	 	3.88455E-27	 	-15465.48325	24.487	 
170.0	1.0	0.0	8.4275	7.07234	-12.07382	11.67712	12.25494	0.88594	1.12874	197.04675	178.32468	74.87516	0.31584	 	1.25485E27	 	1.72364E-27	 	-15587.68999	24.44135	 
165.0	1.0	0.0	8.42906	7.07104	-12.09005	11.65251	12.18773	0.88078	1.13536	197.3051	178.4342	74.98064	0.31571	 	2.8481E27	 	7.50852E-28	 	-15709.66755	24.39551	 
160.0	1.0	0.0	8.43061	7.06974	-12.10621	11.6279	12.12033	0.87557	1.14212	197.56294	178.54316	75.08594	0.31558	 	6.587759999999999E27	 	3.20913E-28	 	-15831.41494	24.34948	 
155.0	1.0	0.0	8.43215	7.06844	-12.12231	11.60329	12.05272	0.87032	1.14901	197.82026	178.65156	75.19107	0.31545	 	1.55391E28	 	1.3448E-28	 	-15952.93113	24.30324	 
150.0	1.0	0.0	8.43369	7.06716	-12.13834	11.57868	11.98491	0.86502	1.15604	198.07707	178.75941	75.29601	0.31532	 	3.74043E28	 	5.52153E-29	 	-16074.21499	24.25677	 
145.0	1.0	0.0	8.43522	7.06587	-12.15431	11.55406	11.91688	0.85968	1.16323	198.33336	178.86671	75.40077	0.31519	 	9.19478E28	 	2.21961E-29	 	-16195.26534	24.21007	 
140.0	1.0	0.0	8.43675	7.06459	-12.17022	11.52944	11.84862	0.85429	1.17056	198.58914	178.97346	75.50536	0.31507	 	2.31002E29	 	8.7293E-30	 	-16316.08091	24.16311	 
135.0	1.0	0.0	8.43827	7.06332	-12.18606	11.50483	11.78012	0.84886	1.17805	198.8444	179.07967	75.60976	0.31494	 	5.93596E29	 	3.35595E-30	 	-16436.66036	24.11589	 
130.0	1.0	0.0	8.43979	7.06205	-12.20183	11.48021	11.71138	0.84338	1.1857	199.09914	179.18532	75.71399	0.31481	 	1.56147E30	 	1.26014E-30	 	-16557.00225	24.06838	 
125.0	1.0	0.0	8.4413	7.06078	-12.21754	11.45559	11.64239	0.83786	1.19352	199.35337	179.29043	75.81804	0.31468	 	4.2085E30	 	4.6175E-31	 	-16677.10505	24.02056	 
120.0	1.0	0.0	8.4428	7.05953	-12.23319	11.43096	11.57314	0.83229	1.20151	199.60708	179.39499	75.9219	0.31456	 	1.16325E31	 	1.64958E-31	 	-16796.96714	23.97242	 
115.0	1.0	0.0	8.4443	7.05827	-12.24877	11.40634	11.50361	0.82667	1.20967	199.86028	179.49901	76.02559	0.31443	 	3.3006E31	 	5.73976E-32	 	-16916.58677	23.92393	 
110.0	1.0	0.0	8.4458	7.05702	-12.26429	11.38171	11.4338	0.821	1.21802	200.11296	179.60248	76.1291	0.3143	 	9.62354E31	 	1.94322E-32	 	-17035.96211	23.87507	 
105.0	1.0	0.0	8.44728	7.05578	-12.27974	11.35709	11.36369	0.81529	1.22656	200.36513	179.70542	76.23242	0.31417	 	2.88646E32	 	6.39418E-33	 	-17155.0912	23.82582	 
100.0	1.0	0.0	8.44877	7.05454	-12.29513	11.33246	11.29327	0.80952	1.23529	200.61678	179.80781	76.33557	0.31405	 	8.916239999999999E32	 	2.04262E-33	 	-17273.97193	23.77615	 
95.0	1.0	0.0	8.45024	7.05331	-12.31045	11.30783	11.22253	0.80371	1.24423	200.86791	179.90966	76.43854	0.31392	 	2.83989E33	 	6.32717E-34	 	-17392.60208	23.72603	 
90.0	1.0	0.0	8.45171	7.05208	-12.32571	11.2832	11.15146	0.79785	1.25337	201.11853	180.01098	76.54132	0.31379	 	9.33849E33	 	1.898E-34	 	-17510.97929	23.67544	 
85.0	1.0	0.0	8.45318	7.05086	-12.3409	11.25856	11.08004	0.79194	1.26273	201.36863	180.11176	76.64393	0.31366	 	3.1745800000000003E34	 	5.50637E-35	 	-17629.10102	23.62435	 
80.0	1.0	0.0	8.45464	7.04965	-12.35603	11.23393	11.00825	0.78597	1.27231	201.61822	180.212	76.74636	0.31354	 	1.1172299999999999E35	 	1.54278E-35	 	-17746.96457	23.57271	 
75.0	1.0	0.0	8.45609	7.04843	-12.3711	11.20929	10.93608	0.77996	1.28212	201.86729	180.31171	76.8486	0.31341	 	4.07658E35	 	4.16828E-36	 	-17864.56707	23.5205	 
70.0	1.0	0.0	8.45754	7.04723	-12.3861	11.18465	10.8635	0.77389	1.29217	202.11584	180.41088	76.95067	0.31328	 	1.54465E36	 	1.08428E-36	 	-17981.90546	23.46768	 
65.0	1.0	0.0	8.45898	7.04603	-12.40103	11.16001	10.79051	0.76777	1.30247	202.36388	180.50953	77.05255	0.31315	 	6.08801E36	 	2.71095E-37	 	-18098.97645	23.4142	 
60.0	1.0	0.0	8.46042	7.04483	-12.4159	11.13537	10.71709	0.7616	1.31302	202.61141	180.60764	77.15426	0.31303	 	2.50033E37	 	6.50322E-38	 	-18215.77656	23.36002	 
55.0	1.0	0.0	8.46185	7.04364	-12.43071	11.11073	10.6432	0.75538	1.32383	202.85841	180.70522	77.25578	0.3129	 	1.0720599999999999E38	 	1.49397E-38	 	-18332.30205	23.3051	 
50.0	1.0	0.0	8.46327	7.04245	-12.44545	11.08609	10.56883	0.74911	1.33492	203.1049	180.80227	77.35712	0.31277	 	4.80841E38	 	3.28012E-39	 	-18448.54894	23.24938	 
45.0	1.0	0.0	8.46469	7.04127	-12.46013	11.06144	10.49396	0.74278	1.3463	203.35088	180.8988	77.45829	0.31265	 	2.2608500000000002E39	 	6.86826E-40	 	-18564.51297	23.19281	 
40.0	1.0	0.0	8.4661	7.0401	-12.47474	11.0368	10.41855	0.7364	1.35797	203.59634	180.9948	77.55927	0.31252	 	1.11689E40	 	1.36845E-40	 	-18680.18957	23.13532	 
35.0	1.0	0.0	8.46751	7.03893	-12.48929	11.01215	10.34259	0.72996	1.36994	203.84128	181.09027	77.66007	0.31239	 	5.81115E40	 	2.58814E-41	 	-18795.57383	23.07685	 
30.0	1.0	0.0	8.46891	7.03776	-12.50377	10.9875	10.26603	0.72347	1.38223	204.08571	181.18522	77.76069	0.31227	 	3.1925700000000003E41	 	4.63451E-42	 	-18910.66056	23.01734	 
25.0	1.0	0.0	8.47031	7.0366	-12.51819	 	10.18886	0.71693	1.39484	204.32962	181.27965	77.86113	0.31214	 	1.8571E42	 	7.83587E-43	 	-19025.44411	 	 
