T (C)	Fraction solid (wt)-TOTAL	Fraction liquid (wt)-LIQUID	Density (g/(cm)^3)-TOTAL	Molar volume (cm^3)-TOTAL	Volume change (%)-  	Average expansion coeff. (10e-6 1/K)-  	Thermal conductivity (W/(m*K))-TOTAL	Electrical resistivity (10e-6 Ohm*m)-TOTAL	Electrical conductivity (10e6 1/(Ohm*m))-TOTAL	Young's modulus (GPa)-TOTAL	Bulk modulus (GPa)-TOTAL	Shear modulus(GPa)-TOTAL	Poisson's ratio-TOTAL	Liquid viscosity (mPa s)-  	Total viscosity (mPa s)-  	Liquid diffusivity (10e-9 (m^2)/s)-  	Total diffusivity (10e-9 (m^2)/s)-  	Surface Tension (mN/m)-  	Enthalpy (J/mole)-TOTAL	Specific heat (J/(mole K))-TOTAL	Latent heat (J/mole)-TOTAL
1400.0	0.0	1.0	7.20506	7.90703	0.0	32.48755	29.20254	1.40372	0.71239	0.0	121.30183	0.0	0.5	7.14359	7.14359	1.14316	1.14316	1808.25199	43996.566	 	0.0
1395.0	0.0	1.0	7.20919	7.90251	-0.0572435	32.44817	29.13245	1.40289	0.71281	0.0	121.44425	0.0	0.5	7.22123	7.22123	1.12748	1.12748	1812.20228	43794.797	40.3538	0.0
1390.0	0.0	1.0	7.21331	7.89799	-0.11433	32.40895	29.06235	1.40206	0.71324	0.0	121.58667	0.0	0.5	7.30018	7.30018	1.11195	1.11195	1816.18027	43593.48	40.2634	0.0
1385.0	0.0	1.0	7.21742	7.89349	-0.17125	32.36989	28.99225	1.40123	0.71366	0.0	121.72909	0.0	0.5	7.38049	7.38049	1.09654	1.09654	1820.18553	43392.61	40.174	0.0
1380.0	0.0	1.0	7.22153	7.88901	-0.22801	32.331	28.92215	1.40039	0.71409	0.0	121.87151	0.0	0.5	7.46217	7.46217	1.08127	1.08127	1824.21759	43192.185	40.085	0.0
1375.0	0.0	1.0	7.22563	7.88453	-0.28461	32.29226	28.85206	1.39954	0.71452	0.0	122.01393	0.0	0.5	7.54526	7.54526	1.06613	1.06613	1828.27599	42992.203	39.9964	0.0
1370.0	0.0	1.0	7.22972	7.88007	-0.34104	32.25369	28.78196	1.39869	0.71495	0.0	122.15635	0.0	0.5	7.62979	7.62979	1.05112	1.05112	1832.36026	42792.661	39.9084	0.0
1365.0	0.0	1.0	7.2338	7.87562	-0.39732	32.21529	28.71186	1.39784	0.71539	0.0	122.29876	0.0	0.5	7.71579	7.71579	1.03624	1.03624	1836.46991	42593.556	39.821	0.0
1360.0	0.0	1.0	7.23788	7.87118	-0.45344	32.17705	28.64177	1.39699	0.71583	0.0	122.44118	0.0	0.5	7.8033	7.8033	1.02149	1.02149	1840.60445	42394.886	39.734	0.0
1355.0	0.0	1.0	7.24195	7.86676	-0.50939	32.13899	28.57167	1.39613	0.71627	0.0	122.5836	0.0	0.5	7.89234	7.89234	1.00687	1.00687	1844.76336	42196.649	39.6474	0.0
1350.0	0.0	1.0	7.24602	7.86234	-0.56519	32.1011	28.50157	1.39526	0.71671	0.0	122.72602	0.0	0.5	7.98296	7.98296	0.99239	0.99239	1848.94616	41998.841	39.5616	0.0
1345.0	0.0	1.0	7.25007	7.85795	-0.62082	32.06338	28.43148	1.39439	0.71716	0.0	122.86844	0.0	0.5	8.07519	8.07519	0.97803	0.97803	1853.15232	41801.461	39.476	0.0
1340.0	0.0	1.0	7.25412	7.85356	-0.67629	32.02584	28.36138	1.39352	0.71761	0.0	123.01086	0.0	0.5	8.16906	8.16906	0.9638	0.9638	1857.38132	41604.506	39.391	0.0
1337.48	0.0	1.0	7.25616	7.85136	-0.70416	32.00701	28.32609	1.39308	0.71783	0.0	123.08256	0.0	0.5	8.21696	8.21696	0.95669	0.95669	1859.51891	41505.507	39.32792	0.0010
1335.0	0.0743406	0.92566	7.27908	7.82672	-1.01576	31.16851	28.50278	1.38231	0.72343	0.00282135	124.31626	9.46373E-4	0.49061	8.24563	9.59962	0.9519	0.81763	1857.40304	40294.684	487.69822	1113.289
1330.0	0.20526	0.79474	7.32024	7.78263	-1.57338	29.67275	28.81624	1.36302	0.73366	0.16874	126.4936	0.0572451	0.47385	8.30605	42.27446	0.94203	0.18509	1853.12646	38145.14	429.9088	3066.721
1325.4	0.30406	0.69594	7.35206	7.749	-1.99861	28.54172	29.05108	1.34812	0.74177	0.83036	128.17085	0.28417	0.46102	8.36413	170.82489	0.93281	0.0456731	1849.28152	36498.345	 	4533.327
1325.0	0.31654	0.68346	7.35611	7.74476	-2.0523	28.39432	29.08157	1.34637	0.74274	0.97715	128.40918	0.33479	0.45936	8.37244	199.52866	0.93165	0.039093	1848.97245	36290.234	370.9812	4725.932
1320.0	0.45463	0.54537	7.4015	7.69726	-2.65298	26.7506	29.42622	1.32644	0.7539	4.28124	130.97547	1.48565	0.44086	8.48438	852.85732	0.91648	0.00911732	1844.88233	33974.796	463.0876	6846.089
1315.23	0.55032	0.44968	7.43392	7.66383	-3.07583	25.61061	29.66254	1.31194	0.76223	9.42208	132.7731	3.29946	0.42782	8.59749	1910.00341	0.90172	0.00405889	1841.04479	32333.795	 	8301.255
1315.0	0.56211	0.43789	7.43725	7.66041	-3.11909	25.48845	29.69535	1.3103	0.76319	10.286	133.0109	3.60611	0.42619	8.60461	2083.75199	0.90084	0.00371991	1841.36961	32139.777	367.0038	8486.243
1314.03	0.60963	0.39037	7.45073	7.64661	-3.29356	24.99601	29.82982	1.30359	0.76711	14.40716	133.95324	5.07442	0.41959	8.63523	2911.69616	0.8971	0.00266052	1842.75523	31358.157	 	9230.105
1314.03	0.60963	0.39037	7.45073	7.64661	-3.29356	24.99601	29.82982	1.30359	0.76711	14.40716	133.95324	5.07442	0.41959	8.63523	2911.69616	0.8971	0.00266052	1842.75523	31358.156	 	9230.106
1310.0	0.81781	0.18219	7.51155	7.58502	-4.07246	22.78313	30.5607	1.26918	0.78791	49.33249	137.76904	17.74842	0.38977	8.73675	9816.04701	0.88442	7.87177E-4	1845.33513	27878.67478	852.22044	12552.335
1305.0	0.91745	0.0825486	7.54206	7.55427	-4.46143	21.72345	30.8897	1.2517	0.79891	80.36347	139.60884	29.2198	0.37515	8.85011	16429.53345	0.87033	4.68824E-4	1848.64531	26156.73602	344.38775	14078.207
1300.0	0.95902	0.0409752	7.55578	7.54023	-4.63893	21.2824	30.98737	1.2438	0.80399	97.2112	140.44546	35.50794	0.36887	8.95499	20779.51965	0.85742	3.69506E-4	1852.05366	25341.99994	162.94722	14694.902
1295.0	0.98026	0.0197403	7.56519	7.5311	-4.75444	21.02238	31.01061	1.23892	0.80715	107.02873	141.03279	39.18927	0.36554	9.05401	24103.08335	0.84534	3.17542E-4	1855.52563	24838.39501	100.72099	15000.92
1290.0	0.99251	0.0074865	7.5726	7.52417	-4.84203	20.84372	31.00027	1.23538	0.80947	113.23508	141.50913	41.52319	0.36352	9.14908	26962.80096	0.83389	2.82958E-4	1859.05131	24543.02698	59.07361	15099.242
1285.0	1.0	0.0	7.57885	7.51847	-4.91412	20.71017	30.97002	1.23263	0.81127	117.34933	141.92734	43.0736	0.3622	 	29609.55256	 	2.56841E-4	 	24172.95641	74.01411	15272.638
1280.0	1.0	0.0	7.58145	7.5159	-4.94668	20.69462	30.89258	1.23176	0.81185	117.7527	142.19299	43.22849	0.36198	 	31567.15988	 	2.4014E-4	 	23983.50514	37.89025	 
1275.0	1.0	0.0	7.58404	7.51333	-4.97916	20.67917	30.81508	1.23088	0.81243	118.15497	142.45684	43.38302	0.36177	 	33667.48981	 	2.24434E-4	 	23797.39267	37.22249	 
1270.0	1.0	0.0	7.58663	7.51077	-5.01157	20.66382	30.73752	1.23	0.81301	118.55614	142.71893	43.53718	0.36155	 	35921.90961	 	2.0967E-4	 	23611.69244	37.14005	 
1265.0	1.0	0.0	7.58921	7.50821	-5.04391	20.64855	30.6599	1.22912	0.81359	118.95623	142.97925	43.69098	0.36134	 	38342.7673	 	1.95795E-4	 	23426.40017	37.05845	 
1260.0	1.0	0.0	7.59179	7.50566	-5.07618	20.63339	30.58222	1.22824	0.81418	119.35524	143.23783	43.84442	0.36112	 	40943.4804	 	1.82762E-4	 	23241.51166	36.9777	 
1255.0	1.0	0.0	7.59437	7.50311	-5.10837	20.61832	30.50449	1.22735	0.81476	119.75317	143.49467	43.99751	0.36091	 	43738.64243	 	1.70525E-4	 	23057.02274	36.89778	 
1250.0	1.0	0.0	7.59694	7.50057	-5.1405	20.60334	30.4267	1.22646	0.81535	120.15004	143.7498	44.15023	0.3607	 	46744.12374	 	1.59039E-4	 	22872.92937	36.81868	 
1245.0	1.0	0.0	7.59951	7.49804	-5.17256	20.58846	30.34886	1.22557	0.81595	120.54584	144.00321	44.30261	0.36048	 	49977.20109	 	1.48262E-4	 	22689.22751	36.74037	 
1240.0	1.0	0.0	7.60207	7.49551	-5.20454	20.57367	30.27097	1.22468	0.81654	120.94059	144.25494	44.45463	0.36027	 	53456.68656	 	1.38155E-4	 	22505.91324	36.66285	 
1235.0	1.0	0.0	7.60463	7.49299	-5.23646	20.55898	30.19302	1.22378	0.81714	121.33428	144.50498	44.6063	0.36006	 	57203.07468	 	1.2868E-4	 	22322.98269	36.58611	 
1230.0	1.0	0.0	7.60719	7.49047	-5.26831	20.54438	30.11503	1.22288	0.81774	121.72693	144.75336	44.75763	0.35985	 	61238.70568	 	1.19802E-4	 	22140.43203	36.51013	 
1225.0	1.0	0.0	7.60974	7.48795	-5.30009	20.52988	30.03699	1.22198	0.81834	122.11854	145.00009	44.90861	0.35963	 	65587.94345	 	1.11485E-4	 	21958.25752	36.4349	 
1220.0	1.0	0.0	7.61229	7.48545	-5.3318	20.51547	29.9589	1.22108	0.81895	122.50911	145.24517	45.05924	0.35942	 	70277.36862	 	1.03699E-4	 	21776.45549	36.36041	 
1215.0	1.0	0.0	7.61483	7.48294	-5.36344	20.50116	29.88076	1.22017	0.81956	122.89865	145.48863	45.20953	0.35921	 	75336.00816	 	9.64119E-5	 	21595.02232	36.28663	 
1210.0	1.0	0.0	7.61738	7.48045	-5.39501	20.48694	29.80258	1.21926	0.82017	123.28717	145.73047	45.35949	0.359	 	80795.55543	 	8.95951E-5	 	21413.95445	36.21357	 
1205.0	1.0	0.0	7.61991	7.47796	-5.42652	20.47282	29.72435	1.21835	0.82078	123.67467	145.97071	45.5091	0.35879	 	86690.65793	 	8.3221E-5	 	21233.24841	36.14121	 
1200.0	1.0	0.0	7.62245	7.47547	-5.45796	20.45879	29.64608	1.21744	0.8214	124.06116	146.20936	45.65838	0.35858	 	93059.19276	 	7.72635E-5	 	21052.90074	36.06953	 
1195.0	1.0	0.0	7.62498	7.47299	-5.48933	20.44486	29.56776	1.21652	0.82202	124.44664	146.44643	45.80732	0.35837	 	99942.60744	 	7.16979E-5	 	20872.90809	35.99853	 
1190.0	1.0	0.0	7.62751	7.47051	-5.52064	20.43103	29.4894	1.2156	0.82264	124.83112	146.68194	45.95593	0.35816	 	107386.2594	 	6.65008E-5	 	20693.26716	35.92819	 
1185.0	1.0	0.0	7.63003	7.46804	-5.55188	20.41729	29.411	1.21467	0.82327	125.2146	146.91589	46.10421	0.35795	 	115439.8372	 	6.165E-5	 	20513.97469	35.85849	 
1180.0	1.0	0.0	7.63255	7.46558	-5.58306	20.40365	29.33256	1.21374	0.8239	125.59709	147.1483	46.25215	0.35774	 	124157.7832	 	5.71246E-5	 	20335.02752	35.78943	 
1175.0	1.0	0.0	7.63506	7.46312	-5.61416	20.39011	29.25409	1.21281	0.82453	125.9786	147.37919	46.39977	0.35753	 	133599.8021	 	5.29047E-5	 	20156.42249	35.72101	 
1170.0	1.0	0.0	7.63757	7.46067	-5.64521	20.37666	29.17557	1.21188	0.82517	126.35912	147.60855	46.54707	0.35733	 	143831.3844	 	4.89716E-5	 	19978.15655	35.65319	 
1165.0	1.0	0.0	7.64008	7.45822	-5.67619	20.36332	29.09701	1.21094	0.82581	126.73867	147.83641	46.69404	0.35712	 	154924.4249	 	4.53076E-5	 	19800.22669	35.58597	 
1160.0	1.0	0.0	7.64259	7.45577	-5.7071	20.35007	29.01842	1.21	0.82645	127.11724	148.06278	46.84068	0.35691	 	166957.8901	 	4.18959E-5	 	19622.62996	35.51935	 
1155.0	1.0	0.0	7.64509	7.45333	-5.73795	20.33692	28.93979	1.20905	0.8271	127.49485	148.28767	46.98701	0.3567	 	180018.5632	 	3.87207E-5	 	19445.36344	35.4533	 
1150.0	1.0	0.0	7.64759	7.4509	-5.76873	20.32387	28.86113	1.2081	0.82774	127.8715	148.51108	47.13301	0.3565	 	194201.8686	 	3.57671E-5	 	19268.42433	35.38782	 
1145.0	1.0	0.0	7.65008	7.44847	-5.79945	20.31092	28.78243	1.20715	0.8284	128.24719	148.73303	47.2787	0.35629	 	209612.8184	 	3.30211E-5	 	19091.80982	35.3229	 
1140.0	1.0	0.0	7.65257	7.44605	-5.83011	20.29808	28.70369	1.20619	0.82906	128.62194	148.95354	47.42407	0.35608	 	226367.0102	 	3.04693E-5	 	18915.51718	35.25853	 
1138.89	1.0	0.0	7.65312	7.44551	-5.83692	20.29523	28.68616	1.20598	0.8292	128.70524	149.00244	47.4564	0.35604	 	230292.8611	 	2.99262E-5	 	18876.3079	 	 
1135.0	1.0	0.0	7.65734	7.44141	-5.88872	20.18991	28.4604	1.2122	0.82495	129.28345	148.88026	47.69652	0.35527	 	247296.7273	 	2.77918E-5	 	18620.68843	58.96575	 
1130.0	1.0	0.0	7.66266	7.43624	-5.95406	20.05775	28.18439	1.21972	0.81986	129.99179	148.71862	47.99153	0.35432	 	271198.3825	 	2.52525E-5	 	18297.4387	64.64995	 
1125.0	1.0	0.0	7.66787	7.43119	-6.01801	19.92917	27.92182	1.22681	0.81512	130.66346	148.55383	48.27212	0.35341	 	297620.0087	 	2.29286E-5	 	17980.21632	63.44448	 
1120.0	1.0	0.0	7.67298	7.42624	-6.08063	19.804	27.66903	1.23359	0.81064	131.30162	148.38751	48.53948	0.35252	 	326848.8505	 	2.08036E-5	 	17668.7533	62.2926	 
1115.0	1.0	0.0	7.678	7.42139	-6.14198	19.68207	27.4249	1.2401	0.80639	131.90901	148.22097	48.79464	0.35168	 	359207.2048	 	1.88616E-5	 	17362.79508	61.19164	 
1110.0	1.0	0.0	7.68292	7.41663	-6.20212	19.56324	27.18887	1.24636	0.80234	132.4881	148.05522	49.03853	0.35086	 	395056.9649	 	1.70882E-5	 	17062.09969	60.13908	 
1105.0	1.0	0.0	7.68776	7.41197	-6.26111	19.44735	26.9605	1.25238	0.79848	133.0411	147.89107	49.27198	0.35007	 	434804.7859	 	1.54699E-5	 	16766.4369	59.13256	 
1100.0	1.0	0.0	7.69251	7.40739	-6.319	19.33426	26.7394	1.25815	0.79482	133.56997	147.72917	49.49575	0.34931	 	478908.0204	 	1.39943E-5	 	16475.58749	58.16988	 
1095.0	1.0	0.0	7.69718	7.40289	-6.37583	19.22384	26.52519	1.26369	0.79133	134.07651	147.57001	49.71051	0.34857	 	527881.4121	 	1.26498E-5	 	16189.34254	57.24899	 
1090.0	1.0	0.0	7.70177	7.39848	-6.43165	19.11597	26.31755	1.26901	0.78802	134.56233	147.41399	49.9169	0.34786	 	582304.7722	 	1.14256E-5	 	15907.50262	56.36798	 
1085.0	1.0	0.0	7.70629	7.39414	-6.48651	19.01051	26.11613	1.2741	0.78487	135.02893	147.26141	50.11548	0.34718	 	642831.7585	 	1.03119E-5	 	15629.87707	55.52511	 
1080.0	1.0	0.0	7.71073	7.38988	-6.54044	18.90736	25.92062	1.27899	0.78187	135.47765	147.11253	50.30678	0.34651	 	710199.94	 	9.29934E-6	 	15356.28309	54.71879	 
1075.0	1.0	0.0	7.71511	7.38568	-6.5935	18.8064	25.73073	1.28367	0.77902	135.90976	146.96752	50.49129	0.34587	 	785242.2839	 	8.37956E-6	 	15086.54453	53.94771	 
1070.0	1.0	0.0	7.71943	7.38156	-6.64571	18.70751	25.54617	1.28815	0.77631	136.32643	146.82653	50.66947	0.34525	 	868900.4047	 	7.54469E-6	 	14820.49012	53.21088	 
1065.0	1.0	0.0	7.72368	7.37749	-6.69712	18.6106	25.36665	1.29243	0.77373	136.72877	146.68969	50.84174	0.34465	 	962240.0375	 	6.78747E-6	 	14557.95027	52.50797	 
1060.0	1.0	0.0	7.72788	7.37349	-6.74776	18.51554	25.1919	1.29653	0.77129	137.11787	146.55711	51.00854	0.34407	 	1066469.185	 	6.10123E-6	 	14298.74961	51.84013	 
1055.0	1.0	0.0	7.73202	7.36954	-6.79769	18.42219	25.02165	1.30046	0.76896	137.49488	146.42894	51.17033	0.3435	 	1182960.859	 	5.47978E-6	 	14042.68487	51.21295	 
1050.0	1.0	0.0	7.73611	7.36564	-6.84697	18.3303	24.8555	1.30423	0.76674	137.86148	146.30551	51.32776	0.34295	 	1313290.963	 	4.91739E-6	 	13789.41278	50.65442	 
1048.69	1.0	0.0	7.73737	7.36444	-6.8622	18.29763	24.80395	1.30564	0.76591	138.00131	146.29038	51.38653	0.34278	 	1351340.353	 	4.77419E-6	 	13711.2464	 	 
1045.0	1.0	0.0	7.74032	7.36163	-6.89772	18.23209	24.68552	1.30824	0.76438	138.26001	146.20259	51.49779	0.34239	 	1460548.682	 	4.40489E-6	 	13527.47453	52.38765	 
1040.0	1.0	0.0	7.74429	7.35786	-6.94536	18.14451	24.52828	1.31164	0.76241	138.60198	146.08709	51.64497	0.34187	 	1624113.072	 	3.94625E-6	 	13280.70328	49.35425	 
1035.0	1.0	0.0	7.7482	7.35415	-6.99236	18.0584	24.37481	1.31487	0.76053	138.93423	145.97573	51.78807	0.34137	 	1807504.203	 	3.53236E-6	 	13036.75005	48.79065	 
1030.0	1.0	0.0	7.75207	7.35048	-7.03877	17.97369	24.22493	1.31795	0.75876	139.25742	145.86851	51.92735	0.34089	 	2013301.631	 	3.15916E-6	 	12795.50058	48.24989	 
1025.0	1.0	0.0	7.75589	7.34685	-7.0846	17.89033	24.07847	1.32088	0.75707	139.57214	145.76543	52.06305	0.34041	 	2244442.804	 	2.82295E-6	 	12556.84621	47.73087	 
1020.0	1.0	0.0	7.75967	7.34327	-7.12987	17.80825	23.93527	1.32366	0.75548	139.87899	145.66646	52.1954	0.33996	 	2504275.909	 	2.52031E-6	 	12320.68373	47.2325	 
1015.0	1.0	0.0	7.76341	7.33974	-7.1746	17.72739	23.79518	1.32631	0.75397	140.1785	145.57161	52.32462	0.33951	 	2796620.665	 	2.24812E-6	 	12086.91495	46.75376	 
1010.0	1.0	0.0	7.76711	7.33624	-7.21882	17.64769	23.65805	1.32882	0.75255	140.47118	145.48085	52.45092	0.33907	 	3125838.876	 	2.00354E-6	 	11855.44646	46.2937	 
1005.0	1.0	0.0	7.77077	7.33278	-7.26254	17.56911	23.52375	1.33119	0.75121	140.7575	145.39416	52.57449	0.33865	 	3496915.894	 	1.78395E-6	 	11626.18947	45.8514	 
1000.0	1.0	0.0	7.7744	7.32936	-7.30577	17.49158	23.39215	1.33345	0.74994	141.03793	145.31152	52.6955	0.33823	 	3915555.71	 	1.58699E-6	 	11399.05938	45.42602	 
995.0	1.0	0.0	7.77799	7.32598	-7.34854	17.41506	23.26314	1.33558	0.74874	141.31287	145.23289	52.81413	0.33783	 	4388290.059	 	1.41046E-6	 	11173.97568	45.01674	 
990.0	1.0	0.0	7.78154	7.32264	-7.39087	17.33949	23.1366	1.33759	0.74762	141.58273	145.15826	52.93055	0.33744	 	4922606.371	 	1.25241E-6	 	10950.8618	44.62278	 
985.0	1.0	0.0	7.78506	7.31932	-7.43276	17.26485	23.01243	1.33948	0.74656	141.84788	145.0876	53.0449	0.33705	 	5527096.168	 	1.11102E-6	 	10729.6447	44.24342	 
980.0	1.0	0.0	7.78855	7.31604	-7.47424	17.19107	22.89052	1.34126	0.74557	142.10869	145.02088	53.15733	0.33668	 	6211627.288	 	9.84656E-7	 	10510.25485	43.87797	 
975.0	1.0	0.0	7.79201	7.3128	-7.51531	17.11812	22.77078	1.34293	0.74464	142.36549	144.95809	53.26797	0.33631	 	6987545.028	 	8.71824E-7	 	10292.62596	43.52578	 
970.0	1.0	0.0	7.79544	7.30958	-7.556	17.04595	22.65313	1.3445	0.74377	142.6186	144.89918	53.37696	0.33596	 	7867906.918	 	7.71172E-7	 	10076.69491	43.18621	 
965.0	1.0	0.0	7.79884	7.30639	-7.5963	16.97454	22.53748	1.34597	0.74296	142.86833	144.84415	53.48442	0.33561	 	8867756.232	 	6.81469E-7	 	9862.40146	42.85869	 
960.0	1.0	0.0	7.80221	7.30323	-7.63625	16.90383	22.42376	1.34733	0.74221	143.11495	144.79297	53.59048	0.33526	 	1.00044424E7	 	6.01603E-7	 	9649.68817	42.54266	 
955.0	1.0	0.0	7.80556	7.3001	-7.67584	16.83379	22.31188	1.34859	0.74151	143.35876	144.74561	53.69523	0.33493	 	1.129799576E7	 	5.30563E-7	 	9438.50021	42.23759	 
950.0	1.0	0.0	7.80888	7.297	-7.71509	16.76439	22.20178	1.34976	0.74087	143.6	144.70206	53.79878	0.3346	 	1.27715652E7	 	4.67436E-7	 	9228.78533	41.94298	 
945.0	1.0	0.0	7.81217	7.29392	-7.75401	16.69559	22.09339	1.35084	0.74028	143.83893	144.66229	53.90125	0.33428	 	1.445193451E7	 	4.11397E-7	 	9020.49357	41.65835	 
940.0	1.0	0.0	7.81544	7.29087	-7.79261	16.62735	21.98138	1.35215	0.73956	144.07577	144.62629	54.00272	0.33397	 	1.637012567E7	 	3.61701E-7	 	8813.57725	41.38326	 
935.0	1.0	0.0	7.81869	7.28784	-7.8309	16.55966	21.87614	1.35306	0.73907	144.31076	144.59404	54.10329	0.33366	 	1.856210997E7	 	3.17673E-7	 	8607.99079	41.11729	 
930.0	1.0	0.0	7.82192	7.28484	-7.86889	16.49247	21.77245	1.35387	0.73862	144.54412	144.56552	54.20304	0.33336	 	2.106964298E7	 	2.78708E-7	 	8403.69059	40.86004	 
925.0	1.0	0.0	7.82512	7.28186	-7.90659	16.42576	21.67026	1.35461	0.73822	144.77604	144.54072	54.30207	0.33306	 	2.394125062E7	 	2.44259E-7	 	8200.63506	40.61111	 
920.0	1.0	0.0	7.8283	7.2789	-7.944	16.3595	21.56951	1.35525	0.73787	145.00673	144.51963	54.40044	0.33277	 	2.723338985E7	 	2.13836E-7	 	7998.7843	40.37015	 
915.0	1.0	0.0	7.83146	7.27596	-7.98114	16.29365	21.47016	1.35582	0.73756	145.23637	144.50223	54.49825	0.33249	 	3.10118233E7	 	1.86995E-7	 	7798.10018	40.13682	 
910.0	1.0	0.0	7.8346	7.27305	-8.01802	16.2282	21.37216	1.35631	0.7373	145.46515	144.48851	54.59556	0.33221	 	3.535323952E7	 	1.63342E-7	 	7598.54613	39.91081	 
905.0	1.0	0.0	7.83772	7.27015	-8.05464	16.16311	21.27548	1.35671	0.73708	145.69323	144.47846	54.69244	0.33193	 	4.034717806E7	 	1.42519E-7	 	7400.08716	39.69179	 
900.0	1.0	0.0	7.84082	7.26727	-8.09101	16.09836	21.18007	1.35704	0.7369	145.9208	144.47208	54.78897	0.33166	 	4.60983023E7	 	1.2421E-7	 	7202.68962	39.47951	 
895.0	1.0	0.0	7.8439	7.26442	-8.12713	16.03392	21.08591	1.35729	0.73676	146.148	144.46935	54.88522	0.3314	 	5.272910927E7	 	1.08127E-7	 	7006.32139	39.27364	 
890.0	1.0	0.0	7.84697	7.26158	-8.16302	15.96977	20.99295	1.35746	0.73667	146.375	144.47029	54.98123	0.33114	 	6.038313629E7	 	9.40171E-8	 	6810.9515	39.07398	 
885.0	1.0	0.0	7.85002	7.25876	-8.19868	15.90588	20.90116	1.35756	0.73661	146.60194	144.47487	55.07709	0.33088	 	6.922878862E7	 	8.16516E-8	 	6616.55024	38.88025	 
880.0	1.0	0.0	7.85305	7.25596	-8.23412	15.84223	20.81053	1.35759	0.7366	146.82898	144.4831	55.17284	0.33063	 	7.946389371E7	 	7.08276E-8	 	6423.08893	38.69226	 
875.0	1.0	0.0	7.85606	7.25317	-8.26934	15.77879	20.721	1.35754	0.73662	147.05625	144.49497	55.26855	0.33038	 	9.132114244E7	 	6.1364E-8	 	6230.54002	38.50978	 
870.0	1.0	0.0	7.85906	7.25041	-8.30435	15.71555	20.63257	1.35743	0.73669	147.28388	144.51049	55.36427	0.33013	 	1.050745715E8	 	5.30997E-8	 	6038.87727	38.33255	 
865.0	1.0	0.0	7.86205	7.24765	-8.33915	15.65247	20.5452	1.35724	0.73679	147.51202	144.52966	55.46006	0.32989	 	1.210473413E8	 	4.58914E-8	 	5848.07532	38.16039	 
860.0	1.0	0.0	7.86501	7.24492	-8.37376	15.58955	20.45888	1.35697	0.73693	147.74079	144.55248	55.55596	0.32966	 	1.396210301E8	 	3.96117E-8	 	5658.10956	37.99315	 
855.0	1.0	0.0	7.86797	7.2422	-8.40817	15.52674	20.37358	1.35664	0.73711	147.9703	144.57896	55.65204	0.32942	 	1.612468211E8	 	3.41478E-8	 	5468.95628	37.83066	 
850.0	1.0	0.0	7.87091	7.23949	-8.44239	15.46404	20.28927	1.35624	0.73733	148.2007	144.6091	55.74834	0.32919	 	1.864588756E8	 	2.93996E-8	 	5280.5926	37.67274	 
845.0	1.0	0.0	7.87316	7.23742	-8.46858	15.43759	20.22927	1.35421	0.73844	148.52566	144.81957	55.87586	0.32907	 	2.11771322E8	 	2.57703E-8	 	5123.38271	31.44198	 
840.0	1.0	0.0	7.87541	7.23535	-8.49471	15.41113	20.16926	1.35217	0.73955	148.85019	145.02937	56.00325	0.32894	 	2.407952302E8	 	2.25628E-8	 	4963.18653	32.03924	 
835.0	1.0	0.0	7.87765	7.23329	-8.52076	15.38468	20.10924	1.35011	0.74068	149.1743	145.2385	56.1305	0.32882	 	2.741144817E8	 	1.97312E-8	 	4803.21381	31.99454	 
830.0	1.0	0.0	7.87989	7.23124	-8.54674	15.35822	20.04921	1.34804	0.74182	149.49799	145.44696	56.25761	0.32869	 	3.124109828E8	 	1.72344E-8	 	4643.46369	31.95002	 
825.0	1.0	0.0	7.88213	7.22919	-8.57266	15.33177	19.98917	1.34596	0.74296	149.82126	145.65476	56.38458	0.32857	 	3.564821494E8	 	1.50352E-8	 	4483.93525	31.90569	 
820.0	1.0	0.0	7.88435	7.22715	-8.5985	15.30531	19.92912	1.34387	0.74412	150.1441	145.8619	56.51142	0.32844	 	4.072616915E8	 	1.31007E-8	 	4324.62756	31.86154	 
815.0	1.0	0.0	7.88658	7.22511	-8.62427	15.27886	19.86906	1.34177	0.74529	150.46652	146.06837	56.63812	0.32831	 	4.658443572E8	 	1.14008E-8	 	4165.53966	31.81758	 
810.0	1.0	0.0	7.8888	7.22308	-8.64998	15.2524	19.80898	1.33965	0.74646	150.78852	146.27419	56.76468	0.32819	 	5.335154294E8	 	9.90897E-9	 	4006.67056	31.77382	 
805.0	1.0	0.0	7.89101	7.22105	-8.67561	15.22595	19.7489	1.33753	0.74765	151.1101	146.47934	56.8911	0.32806	 	6.117859397E8	 	8.60135E-9	 	3848.01923	31.73027	 
800.0	1.0	0.0	7.89322	7.21903	-8.70118	15.19949	19.6888	1.33539	0.74885	151.43125	146.68384	57.01739	0.32794	 	7.024347679E8	 	7.4566E-9	 	3689.58458	31.68693	 
795.0	1.0	0.0	7.89543	7.21701	-8.72667	15.17303	19.6287	1.33324	0.75006	151.75198	146.88769	57.14354	0.32781	 	8.075590472E8	 	6.45572E-9	 	3531.36553	31.64381	 
790.0	1.0	0.0	7.89763	7.215	-8.7521	15.14657	19.56858	1.33107	0.75127	152.07229	147.09088	57.26955	0.32769	 	9.296346024E8	 	5.58173E-9	 	3373.36092	31.60092	 
785.0	1.0	0.0	7.89982	7.213	-8.77745	15.12011	19.50845	1.32889	0.75251	152.39218	147.29343	57.39542	0.32756	 	1.071588529E9	 	4.81954E-9	 	3215.56957	31.55827	 
780.0	1.0	0.0	7.90201	7.211	-8.80274	15.09366	19.44831	1.32671	0.75375	152.71164	147.49532	57.52115	0.32744	 	1.23688648E9	 	4.15573E-9	 	3057.99022	31.51587	 
775.0	1.0	0.0	7.9042	7.209	-8.82795	15.0672	19.38815	1.3245	0.755	153.03069	147.69657	57.64675	0.32731	 	1.429637814E9	 	3.57836E-9	 	2900.62159	31.47372	 
770.0	1.0	0.0	7.90638	7.20702	-8.85309	15.04074	19.32799	1.32229	0.75626	153.34931	147.89717	57.77221	0.32719	 	1.654722437E9	 	3.07686E-9	 	2743.46235	31.43185	 
765.0	1.0	0.0	7.90855	7.20503	-8.87817	15.01428	19.26781	1.32006	0.75754	153.66751	148.09712	57.89753	0.32706	 	1.917944084E9	 	2.64187E-9	 	2586.51108	31.39025	 
760.0	1.0	0.0	7.91072	7.20306	-8.90317	14.98782	19.20762	1.31782	0.75883	153.98529	148.29644	58.02271	0.32694	 	2.226215818E9	 	2.26508E-9	 	2429.76635	31.34895	 
755.0	1.0	0.0	7.91289	7.20108	-8.92811	14.96136	19.14741	1.31557	0.76013	154.30264	148.49511	58.14776	0.32682	 	2.587784916E9	 	1.93917E-9	 	2273.2266	31.30795	 
750.0	1.0	0.0	7.91505	7.19912	-8.95298	14.93489	19.08719	1.3133	0.76144	154.61958	148.69315	58.27266	0.32669	 	3.01250593E9	 	1.65767E-9	 	2116.89025	31.26727	 
745.0	1.0	0.0	7.91721	7.19716	-8.97777	14.90843	19.02696	1.31102	0.76277	154.9361	148.89054	58.39743	0.32657	 	3.512172805E9	 	1.41489E-9	 	1960.75564	31.22692	 
740.0	1.0	0.0	7.91936	7.1952	-9.0025	14.88197	18.96671	1.30872	0.7641	155.25219	149.08731	58.52206	0.32644	 	4.100923523E9	 	1.20581E-9	 	1804.82104	31.18692	 
735.0	1.0	0.0	7.9215	7.19325	-9.02715	14.85551	18.90645	1.30642	0.76545	155.56786	149.28343	58.64656	0.32632	 	4.795733947E9	 	1.02602E-9	 	1649.0846	31.14729	 
730.0	1.0	0.0	7.92365	7.19131	-9.05174	14.82905	18.84618	1.30409	0.76682	155.88312	149.47893	58.77091	0.32619	 	5.617021585E9	 	8.71659E-10	 	1493.54441	31.10804	 
725.0	1.0	0.0	7.92578	7.18937	-9.07625	14.80258	18.78589	1.30176	0.76819	156.19795	149.6738	58.89513	0.32607	 	6.589385051E9	 	7.39329E-10	 	1338.19847	31.06919	 
720.0	1.0	0.0	7.92791	7.18744	-9.1007	14.77612	18.72558	1.29941	0.76958	156.51236	149.86803	59.01921	0.32594	 	7.742511343E9	 	6.26065E-10	 	1183.04466	31.03076	 
715.0	1.0	0.0	7.93004	7.18551	-9.12507	14.74965	18.66526	1.29704	0.77098	156.82635	150.06164	59.14315	0.32582	 	9.11229105E9	 	5.29276E-10	 	1028.08077	30.99278	 
710.0	1.0	0.0	7.93216	7.18359	-9.14938	14.72319	18.60493	1.29467	0.7724	157.13992	150.25462	59.26695	0.3257	 	1.07422E10	 	4.46698E-10	 	873.30447	30.95526	 
705.0	1.0	0.0	7.93428	7.18167	-9.17361	14.69672	18.54458	1.29227	0.77383	157.45307	150.44698	59.39062	0.32557	 	1.2684999999999998E10	 	3.7636E-10	 	718.71331	30.91823	 
700.0	1.0	0.0	7.93639	7.17976	-9.19778	14.67026	18.48421	1.28987	0.77527	157.76581	150.63872	59.51415	0.32545	 	1.5004699999999998E10	 	3.16548E-10	 	564.30468	30.88172	 
695.0	1.0	0.0	7.9385	7.17786	-9.22188	14.64379	18.42383	1.28745	0.77673	158.07812	150.82984	59.63754	0.32532	 	1.77794E10	 	2.65773E-10	 	410.07588	30.84576	 
690.0	1.0	0.0	7.9406	7.17596	-9.2459	14.61733	18.36342	1.28501	0.7782	158.39001	151.02033	59.76079	0.3252	 	2.11045E10	 	2.22744E-10	 	256.02402	30.81037	 
685.0	1.0	0.0	7.94269	7.17406	-9.26986	14.59086	18.30301	1.28256	0.77969	158.70148	151.21021	59.8839	0.32508	 	2.5096199999999996E10	 	1.86343E-10	 	102.14608	30.77559	 
680.0	1.0	0.0	7.94479	7.17217	-9.29374	14.56439	18.24257	1.28009	0.78119	159.01253	151.39948	60.00688	0.32495	 	2.9897199999999996E10	 	1.55603E-10	 	-51.56117	30.74145	 
675.0	1.0	0.0	7.94687	7.17029	-9.31756	14.53793	18.18212	1.27761	0.78271	159.32316	151.58813	60.12971	0.32483	 	3.56824E10	 	1.29691E-10	 	-205.10111	30.70799	 
670.0	1.0	0.0	7.94895	7.16841	-9.34131	14.51146	18.12165	1.27511	0.78424	159.63337	151.77616	60.25241	0.32471	 	4.26672E10	 	1.07888E-10	 	-358.47732	30.67524	 
665.0	1.0	0.0	7.95103	7.16654	-9.36498	14.48499	18.06116	1.2726	0.78579	159.94317	151.96359	60.37497	0.32458	 	5.111639999999999E10	 	8.95774E-11	 	-511.69359	30.64325	 
660.0	1.0	0.0	7.9531	7.16467	-9.38859	14.45852	18.00065	1.27007	0.78736	160.25254	152.1504	60.49739	0.32446	 	6.135749999999999E10	 	7.42284E-11	 	-664.74365	30.61001	 
655.0	1.0	0.0	7.95517	7.16281	-9.41213	14.43205	17.94012	1.26753	0.78893	160.56149	152.33661	60.61968	0.32433	 	7.37955E10	 	6.13868E-11	 	-817.57018	30.5653	 
650.0	1.0	0.0	7.95723	7.16096	-9.43559	14.40558	17.87958	1.26497	0.79053	160.87003	152.52221	60.74182	0.32421	 	8.89324E10	 	5.06639E-11	 	-970.09707	30.50538	 
645.0	1.0	0.0	7.95929	7.15911	-9.45899	14.37911	17.81901	1.2624	0.79214	161.17814	152.70721	60.86383	0.32409	 	1.07392E11	 	4.1728E-11	 	-1122.32568	30.44572	 
640.0	1.0	0.0	7.96134	7.15726	-9.48231	14.35264	17.75842	1.25981	0.79377	161.48584	152.8916	60.9857	0.32396	 	1.29952E11	 	3.42962E-11	 	-1274.25733	30.38633	 
635.0	1.0	0.0	7.96338	7.15542	-9.50557	14.32617	17.69782	1.2572	0.79542	161.79312	153.07539	61.10743	0.32384	 	1.57581E11	 	2.81281E-11	 	-1425.89333	30.3272	 
630.0	1.0	0.0	7.96542	7.15359	-9.52876	14.2997	17.63719	1.25457	0.79708	162.09998	153.25858	61.22902	0.32372	 	1.91493E11	 	2.30194E-11	 	-1577.23503	30.26834	 
625.0	1.0	0.0	7.96746	7.15176	-9.55187	14.27323	17.57654	1.25193	0.79876	162.40642	153.44117	61.35048	0.3236	 	2.33209E11	 	1.87971E-11	 	-1728.2839	30.20977	 
620.0	1.0	0.0	7.96949	7.14994	-9.57492	14.24676	17.51587	1.24928	0.80046	162.71244	153.62317	61.47179	0.32347	 	2.84639E11	 	1.5315E-11	 	-1879.0417	30.15156	 
615.0	1.0	0.0	7.97152	7.14812	-9.5979	14.22028	17.45517	1.2466	0.80218	163.01804	153.80457	61.59297	0.32335	 	3.48191E11	 	1.24496E-11	 	-2029.50953	30.09357	 
610.0	1.0	0.0	7.97354	7.14631	-9.6208	14.19381	17.39446	1.24391	0.80392	163.32323	153.98537	61.71401	0.32323	 	4.26907E11	 	1.00969E-11	 	-2179.6887	30.03583	 
605.0	1.0	0.0	7.97555	7.14451	-9.64364	14.16734	17.33372	1.2412	0.80567	163.62799	154.16558	61.83491	0.3231	 	5.24634E11	 	8.16957E-12	 	-2329.5805	29.97836	 
600.0	1.0	0.0	7.97756	7.14271	-9.66641	14.14086	17.27295	1.23848	0.80744	163.93234	154.3452	61.95567	0.32298	 	6.46256E11	 	6.59434E-12	 	-2479.18624	29.92115	 
595.0	1.0	0.0	7.97957	7.14091	-9.6891	14.11439	17.21217	1.23573	0.80924	164.23627	154.52423	62.0763	0.32286	 	7.97987E11	 	5.30989E-12	 	-2628.50723	29.8642	 
590.0	1.0	0.0	7.98157	7.13912	-9.71173	14.08791	17.15135	1.23297	0.81105	164.53978	154.70267	62.19678	0.32274	 	9.87753E11	 	4.26506E-12	 	-2777.54476	29.80751	 
585.0	1.0	0.0	7.98356	7.13734	-9.73429	14.06144	17.09052	1.2302	0.81288	164.84287	154.88052	62.31713	0.32261	 	1.22569E12	 	3.41719E-12	 	-2926.30013	29.75107	 
580.0	1.0	0.0	7.98555	7.13556	-9.75677	14.03496	17.02966	1.2274	0.81473	165.14555	155.05779	62.43734	0.32249	 	1.52479E12	 	2.73087E-12	 	-3074.77464	29.6949	 
575.0	1.0	0.0	7.98753	7.13379	-9.77919	14.00849	16.96877	1.22458	0.8166	165.44781	155.23448	62.55741	0.32237	 	1.90178E12	 	2.1767E-12	 	-3222.96958	29.63899	 
570.0	1.0	0.0	7.98951	7.13202	-9.80154	13.98201	16.90785	1.22175	0.8185	165.74965	155.41058	62.67734	0.32225	 	2.37819E12	 	1.73039E-12	 	-3370.88623	29.58333	 
565.0	1.0	0.0	7.99149	7.13026	-9.82382	13.95554	16.84691	1.2189	0.82041	166.05107	155.5861	62.79713	0.32212	 	2.98189E12	 	1.37188E-12	 	-3518.5259	29.52793	 
560.0	1.0	0.0	7.99346	7.12851	-9.84602	13.92906	16.78594	1.21603	0.82235	166.35207	155.76104	62.91678	0.322	 	3.74901E12	 	1.08466E-12	 	-3665.88985	29.47279	 
555.0	1.0	0.0	7.99542	7.12675	-9.86816	13.90258	16.72494	1.21314	0.82431	166.65266	155.9354	63.0363	0.32188	 	4.72652E12	 	8.55173E-13	 	-3812.97938	29.41791	 
550.0	1.0	0.0	7.99738	7.12501	-9.89023	13.8761	16.66392	1.21023	0.82629	166.95282	156.10919	63.15567	0.32176	 	5.9757E12	 	6.72321E-13	 	-3959.79576	29.36328	 
545.0	1.0	0.0	7.99933	7.12327	-9.91222	13.84963	16.60286	1.2073	0.82829	167.25258	156.2824	63.27491	0.32163	 	7.57672E12	 	5.27034E-13	 	-4106.34026	29.3089	 
540.0	1.0	0.0	8.00128	7.12154	-9.93415	13.82315	16.54177	1.20436	0.83032	167.55191	156.45504	63.39401	0.32151	 	9.63477E12	 	4.11923E-13	 	-4252.61417	29.25478	 
535.0	1.0	0.0	8.00322	7.11981	-9.95601	13.79667	16.48066	1.20139	0.83237	167.85083	156.6271	63.51297	0.32139	 	1.22883E13	 	3.20986E-13	 	-4398.61876	29.20092	 
530.0	1.0	0.0	8.00516	7.11809	-9.97779	13.77019	16.41951	1.1984	0.83444	168.14932	156.79859	63.63179	0.32127	 	1.57203E13	 	2.49358E-13	 	-4544.35529	29.14731	 
525.0	1.0	0.0	8.00709	7.11637	-9.99951	13.74371	16.35833	1.1954	0.83654	168.4474	156.96951	63.75047	0.32115	 	2.01728E13	 	1.9311E-13	 	-4689.82502	29.09395	 
520.0	1.0	0.0	8.00901	7.11466	-10.02116	13.71723	16.29712	1.19237	0.83867	168.74507	157.13987	63.86901	0.32102	 	2.5968E13	 	1.49074E-13	 	-4835.02921	29.04084	 
515.0	1.0	0.0	8.01093	7.11295	-10.04273	13.69075	16.23587	1.18932	0.84082	169.04232	157.30966	63.98742	0.3209	 	3.35354E13	 	1.14708E-13	 	-4979.96914	28.98799	 
510.0	1.0	0.0	8.01285	7.11125	-10.06424	13.66427	16.17459	1.18625	0.84299	169.33915	157.47888	64.10568	0.32078	 	4.34496E13	 	8.79723E-14	 	-5124.64603	28.93538	 
505.0	1.0	0.0	8.01476	7.10956	-10.08568	13.63778	16.11328	1.18317	0.84519	169.63556	157.64753	64.22381	0.32066	 	5.64824E13	 	6.72414E-14	 	-5269.06116	28.88303	 
500.0	1.0	0.0	8.01667	7.10787	-10.10705	13.6113	16.05193	1.18006	0.84742	169.93155	157.81563	64.34179	0.32054	 	7.36741E13	 	5.12195E-14	 	-5413.21576	28.83092	 
495.0	1.0	0.0	8.01857	7.10618	-10.12834	13.58482	15.99054	1.17693	0.84967	170.22713	157.98316	64.45964	0.32042	 	9.64314E13	 	3.88789E-14	 	-5557.11107	28.77906	 
490.0	1.0	0.0	8.02046	7.1045	-10.14957	13.55834	15.92912	1.17377	0.85195	170.52229	158.15013	64.57735	0.32029	 	1.2666399999999998E14	 	2.94065E-14	 	-5700.74833	28.72745	 
485.0	1.0	0.0	8.02235	7.10283	-10.17073	13.53185	15.86766	1.1706	0.85426	170.81704	158.31655	64.69492	0.32017	 	1.66975E14	 	2.2161E-14	 	-5844.12879	28.67609	 
480.0	1.0	0.0	8.02423	7.10116	-10.19181	13.50537	15.80616	1.1674	0.8566	171.11137	158.4824	64.81235	0.32005	 	2.20924E14	 	1.66389E-14	 	-5987.25367	28.62498	 
475.0	1.0	0.0	8.02611	7.0995	-10.21283	13.47889	15.74462	1.16419	0.85897	171.40528	158.6477	64.92964	0.31993	 	2.93399E14	 	1.24456E-14	 	-6130.12419	28.5741	 
470.0	1.0	0.0	8.02798	7.09785	-10.23378	13.4524	15.68304	1.16095	0.86137	171.69878	158.81245	65.04679	0.31981	 	3.91141E14	 	9.27321E-15	 	-6272.74157	28.52348	 
465.0	1.0	0.0	8.02985	7.09619	-10.25465	13.42592	15.62142	1.15768	0.86379	171.99185	158.97664	65.1638	0.31969	 	5.2347899999999994E14	 	6.88228E-15	 	-6415.10704	28.47309	 
460.0	1.0	0.0	8.03171	7.09455	-10.27546	13.39943	15.55976	1.1544	0.86625	172.28452	159.14028	65.28068	0.31957	 	7.03382E14	 	5.08731E-15	 	-6557.22181	28.42295	 
455.0	1.0	0.0	8.03357	7.09291	-10.2962	13.37295	15.49805	1.15109	0.86874	172.57676	159.30337	65.39741	0.31945	 	9.48955E14	 	3.74509E-15	 	-6699.08707	28.37305	 
450.0	1.0	0.0	8.03542	7.09128	-10.31686	13.34646	15.4363	1.14776	0.87126	172.86859	159.46591	65.51401	0.31933	 	1.28558E15	 	2.74547E-15	 	-6840.70403	28.32339	 
445.0	1.0	0.0	8.03727	7.08965	-10.33746	13.31997	15.37451	1.14441	0.87382	173.16	159.6279	65.63046	0.3192	 	1.74899E15	 	2.00408E-15	 	-6982.07389	28.27397	 
440.0	1.0	0.0	8.03911	7.08802	-10.35799	13.29349	15.31267	1.14103	0.8764	173.451	159.78934	65.74678	0.31908	 	2.38974E15	 	1.45652E-15	 	-7123.19784	28.22479	 
435.0	1.0	0.0	8.04094	7.08641	-10.37844	13.267	15.25078	1.13763	0.87902	173.74158	159.95024	65.86295	0.31896	 	3.27965E15	 	1.05386E-15	 	-7264.07706	28.17584	 
430.0	1.0	0.0	8.04277	7.08479	-10.39883	13.24051	15.18885	1.1342	0.88168	174.03174	160.11059	65.97899	0.31884	 	4.52127E15	 	7.59057E-16	 	-7404.71273	28.12713	 
425.0	1.0	0.0	8.0446	7.08319	-10.41915	13.21402	15.12686	1.13075	0.88437	174.32149	160.27041	66.09489	0.31872	 	6.26167E15	 	5.44183E-16	 	-7545.10586	28.07863	 
420.0	1.0	0.0	8.04641	7.08159	-10.43939	13.18753	15.06483	1.12727	0.8871	174.61082	160.42967	66.21064	0.3186	 	8.71285E15	 	3.88288E-16	 	-7685.25788	28.0304	 
415.0	1.0	0.0	8.04823	7.07999	-10.45957	13.16105	15.00274	1.12377	0.88986	174.89974	160.5884	66.32626	0.31848	 	1.21819E16	 	2.75711E-16	 	-7825.16932	27.98229	 
410.0	1.0	0.0	8.05004	7.0784	-10.47968	13.13456	14.9406	1.12025	0.89266	175.18824	160.74659	66.44174	0.31836	 	1.7116000000000002E16	 	1.94806E-16	 	-7964.84048	27.93423	 
405.0	1.0	0.0	8.05184	7.07682	-10.49971	13.10807	14.87841	1.1167	0.8955	175.47632	160.90424	66.55708	0.31824	 	2.41694E16	 	1.36945E-16	 	-8104.27166	27.88624	 
400.0	1.0	0.0	8.05363	7.07524	-10.51968	13.08158	14.81616	1.11312	0.89837	175.76399	161.06136	66.67228	0.31812	 	3.4304800000000004E16	 	9.57731E-17	 	-8243.46315	27.8383	 
395.0	1.0	0.0	8.05543	7.07367	-10.53958	13.05509	14.75385	1.10952	0.90129	176.05124	161.21794	66.78733	0.318	 	4.89464E16	 	6.66254E-17	 	-8382.41523	27.79042	 
390.0	1.0	0.0	8.05721	7.0721	-10.5594	13.02859	14.69148	1.10589	0.90425	176.33808	161.37398	66.90225	0.31788	 	7.0212600000000008E16	 	4.60981E-17	 	-8521.12816	27.74259	 
385.0	1.0	0.0	8.05899	7.07054	-10.57916	13.0021	14.62906	1.10224	0.90725	176.6245	161.5295	67.01703	0.31776	 	1.01272E17	 	3.17192E-17	 	-8659.60223	27.69481	 
380.0	1.0	0.0	8.06077	7.06898	-10.59885	12.97561	14.56658	1.09855	0.91029	176.9105	161.68448	67.13167	0.31764	 	1.46893E17	 	2.1702E-17	 	-8797.83769	27.64709	 
375.0	1.0	0.0	8.06254	7.06743	-10.61846	12.94912	14.50403	1.09485	0.91337	177.19609	161.83893	67.24617	0.31752	 	2.1429E17	 	1.47625E-17	 	-8935.83476	27.59941	 
370.0	1.0	0.0	8.0643	7.06588	-10.63801	12.92263	14.44142	1.09111	0.9165	177.48126	161.99285	67.36053	0.3174	 	3.14452E17	 	9.98262E-18	 	-9073.59372	27.55179	 
365.0	1.0	0.0	8.06606	7.06434	-10.65749	12.89613	14.37874	1.08735	0.91967	177.76602	162.14624	67.47475	0.31728	 	4.64212E17	 	6.70955E-18	 	-9211.11477	27.50421	 
360.0	1.0	0.0	8.06781	7.06281	-10.67689	12.86964	14.31599	1.08356	0.92289	178.05036	162.2991	67.58883	0.31716	 	6.89525E17	 	4.4817E-18	 	-9348.39813	27.45667	 
355.0	1.0	0.0	8.06956	7.06128	-10.69623	12.84314	14.25318	1.07974	0.92615	178.33429	162.45145	67.70277	0.31704	 	1.03067E18	 	2.97461E-18	 	-9485.44403	27.40918	 
350.0	1.0	0.0	8.0713	7.05976	-10.71549	12.81665	14.1903	1.07589	0.92946	178.6178	162.60326	67.81657	0.31692	 	1.55057E18	 	1.9615E-18	 	-9622.25264	27.36172	 
345.0	1.0	0.0	8.07303	7.05824	-10.73469	12.79016	14.12734	1.07201	0.93283	178.90089	162.75455	67.93023	0.3168	 	2.34817E18	 	1.28484E-18	 	-9758.82416	27.31431	 
340.0	1.0	0.0	8.07476	7.05673	-10.75382	12.76366	14.06431	1.06811	0.93624	179.18357	162.90532	68.04375	0.31668	 	3.58022E18	 	8.35879E-19	 	-9895.15877	27.26692	 
335.0	1.0	0.0	8.07649	7.05522	-10.77287	12.73716	14.0012	1.06417	0.9397	179.46584	163.05558	68.15712	0.31656	 	5.4967E18	 	5.40002E-19	 	-10031.25661	27.21957	 
330.0	1.0	0.0	8.07821	7.05372	-10.79186	12.71067	13.93801	1.06021	0.94321	179.74769	163.20531	68.27036	0.31644	 	8.49925E18	 	3.46363E-19	 	-10167.11786	27.17225	 
325.0	1.0	0.0	8.07992	7.05222	-10.81077	12.68417	13.87475	1.05621	0.94678	180.02912	163.35452	68.38346	0.31632	 	1.3238E19	 	2.20533E-19	 	-10302.74264	27.12496	 
320.0	1.0	0.0	8.08163	7.05073	-10.82962	12.65768	13.8114	1.05219	0.9504	180.31014	163.50321	68.49642	0.3162	 	2.07736E19	 	1.39361E-19	 	-10438.13107	27.07769	 
315.0	1.0	0.0	8.08333	7.04925	-10.84839	12.63118	13.74796	1.04813	0.95408	180.59074	163.65139	68.60924	0.31608	 	3.28493E19	 	8.73874E-20	 	-10573.28327	27.03044	 
310.0	1.0	0.0	8.08503	7.04777	-10.8671	12.60468	13.68444	1.04405	0.95781	180.87093	163.79906	68.72191	0.31596	 	5.23545E19	 	5.43642E-20	 	-10708.19933	26.98321	 
305.0	1.0	0.0	8.08672	7.04629	-10.88574	12.57818	13.62083	1.03993	0.96161	181.1507	163.94621	68.83445	0.31584	 	8.41168E19	 	3.35463E-20	 	-10842.87933	26.936	 
300.0	1.0	0.0	8.0884	7.04483	-10.9043	12.55168	13.55712	1.03578	0.96546	181.43006	164.09285	68.94684	0.31572	 	1.3627099999999998E20	 	2.05282E-20	 	-10977.32332	26.8888	 
295.0	1.0	0.0	8.09008	7.04336	-10.9228	12.52518	13.49332	1.0316	0.96937	181.709	164.23897	69.0591	0.31561	 	2.2264499999999997E20	 	1.24548E-20	 	-11111.53135	26.84161	 
290.0	1.0	0.0	8.09175	7.04191	-10.94122	12.49869	13.42942	1.02738	0.97335	181.98753	164.38459	69.17121	0.31549	 	3.66952E20	 	7.49034E-21	 	-11245.50347	26.79442	 
285.0	1.0	0.0	8.09342	7.04046	-10.95958	12.47219	13.36543	1.02314	0.97739	182.26564	164.5297	69.28319	0.31537	 	6.10229E20	 	4.46421E-21	 	-11379.23966	26.74724	 
280.0	1.0	0.0	8.09509	7.03901	-10.97786	12.44569	13.30133	1.01886	0.98149	182.54334	164.6743	69.39502	0.31525	 	1.02416E21	 	2.63609E-21	 	-11512.73992	26.70005	 
275.0	1.0	0.0	8.09674	7.03757	-10.99608	12.41918	13.23712	1.01455	0.98566	182.82062	164.81839	69.50671	0.31513	 	1.7352E21	 	1.54183E-21	 	-11646.00422	26.65286	 
270.0	1.0	0.0	8.09839	7.03614	-11.01422	12.39268	13.17281	1.0102	0.9899	183.09749	164.96198	69.61827	0.31501	 	2.96854E21	 	8.93025E-22	 	-11779.03251	26.60566	 
265.0	1.0	0.0	8.10004	7.03471	-11.0323	12.36618	13.10838	1.00582	0.99421	183.37394	165.10506	69.72968	0.31489	 	5.12945E21	 	5.12058E-22	 	-11911.82472	26.55844	 
260.0	1.0	0.0	8.10168	7.03328	-11.0503	12.33968	13.04384	1.00141	0.9986	183.64998	165.24764	69.84095	0.31477	 	8.95477E21	 	2.90591E-22	 	-12044.38076	26.51121	 
255.0	1.0	0.0	8.10331	7.03186	-11.06824	12.31318	12.97917	0.99696	1.00305	183.9256	165.38972	69.95208	0.31465	 	1.5798599999999999E22	 	1.63164E-22	 	-12176.70048	26.46395	 
250.0	1.0	0.0	8.10494	7.03045	-11.0861	12.28668	12.91439	0.99247	1.00758	184.20081	165.53129	70.06306	0.31454	 	2.8177199999999996E22	 	9.06183E-23	 	-12308.78377	26.41666	 
245.0	1.0	0.0	8.10656	7.02904	-11.1039	12.26017	12.84948	0.98795	1.01219	184.4756	165.67237	70.17391	0.31442	 	5.08188E22	 	4.97643E-23	 	-12440.63044	26.36933	 
240.0	1.0	0.0	8.10818	7.02764	-11.12162	12.23367	12.78443	0.9834	1.01688	184.74998	165.81295	70.28462	0.3143	 	9.27136E22	 	2.70139E-23	 	-12572.24028	26.32197	 
235.0	1.0	0.0	8.10979	7.02625	-11.13927	12.20716	12.71926	0.97881	1.02165	185.02394	165.95303	70.39518	0.31418	 	1.71159E23	 	1.44903E-23	 	-12703.61308	26.27456	 
230.0	1.0	0.0	8.11139	7.02486	-11.15686	12.18066	12.65394	0.97418	1.02651	185.29749	166.09261	70.50561	0.31406	 	3.19853E23	 	7.67775E-24	 	-12834.74858	26.2271	 
225.0	1.0	0.0	8.11299	7.02347	-11.17437	12.15416	12.58848	0.96951	1.03145	185.57062	166.2317	70.61589	0.31394	 	6.05272E23	 	4.01695E-24	 	-12965.64647	26.17958	 
220.0	1.0	0.0	8.11459	7.02209	-11.19182	12.12765	12.52288	0.96481	1.03648	185.84334	166.37029	70.72603	0.31383	 	1.16029E24	 	2.07443E-24	 	-13096.30644	26.13199	 
215.0	1.0	0.0	8.11618	7.02072	-11.20919	12.10114	12.45712	0.96007	1.04159	186.11564	166.50839	70.83603	0.31371	 	2.25411E24	 	1.05698E-24	 	-13226.72812	26.08434	 
210.0	1.0	0.0	8.11776	7.01935	-11.2265	12.07464	12.3912	0.95529	1.0468	186.38753	166.646	70.94589	0.31359	 	4.43967E24	 	5.31151E-25	 	-13356.91113	26.0366	 
205.0	1.0	0.0	8.11933	7.01799	-11.24373	12.04813	12.32512	0.95047	1.05211	186.65901	166.78311	71.05561	0.31347	 	8.86919E24	 	2.63128E-25	 	-13486.855	25.98877	 
200.0	1.0	0.0	8.1209	7.01663	-11.26089	12.02163	12.25888	0.94561	1.05751	186.93007	166.91974	71.16519	0.31335	 	1.79791E25	 	1.28445E-25	 	-13616.55928	25.94086	 
195.0	1.0	0.0	8.12247	7.01528	-11.27799	11.99512	12.19245	0.94072	1.06302	187.20071	167.05588	71.27462	0.31324	 	3.7000500000000003E25	 	6.17538E-26	 	-13746.02343	25.89283	 
190.0	1.0	0.0	8.12403	7.01393	-11.29501	11.96861	12.12585	0.93578	1.06862	187.47094	167.19153	71.38391	0.31312	 	7.7342000000000005E25	 	2.92276E-26	 	-13875.2469	25.84469	 
185.0	1.0	0.0	8.12558	7.01259	-11.31196	11.9421	12.05907	0.93081	1.07434	187.74076	167.32669	71.49307	0.313	 	1.6429000000000003E26	 	1.36108E-26	 	-14004.22905	25.79643	 
180.0	1.0	0.0	8.12713	7.01126	-11.32885	11.91559	11.99209	0.92579	1.08016	188.01016	167.46136	71.60208	0.31288	 	3.54837E26	 	6.23304E-27	 	-14132.96922	25.74803	 
175.0	1.0	0.0	8.12867	7.00993	-11.34566	11.88908	11.92491	0.92073	1.08609	188.27915	167.59556	71.71095	0.31276	 	7.79665E26	 	2.80545E-27	 	-14261.4667	25.6995	 
170.0	1.0	0.0	8.1302	7.0086	-11.3624	11.86258	11.85753	0.91564	1.09214	188.54772	167.72926	71.81967	0.31265	 	1.74382E27	 	1.24033E-27	 	-14389.7207	25.6508	 
165.0	1.0	0.0	8.13173	7.00729	-11.37908	11.83607	11.78993	0.9105	1.0983	188.81588	167.86249	71.92826	0.31253	 	3.9726E27	 	5.38313E-28	 	-14517.73038	25.60194	 
160.0	1.0	0.0	8.13326	7.00597	-11.39568	11.80956	11.72211	0.90531	1.10459	189.08362	167.99523	72.0367	0.31241	 	9.223639999999999E27	 	2.29204E-28	 	-14645.49484	25.55289	 
155.0	1.0	0.0	8.13478	7.00467	-11.41221	11.78304	11.65406	0.90009	1.111	189.35095	168.1275	72.145	0.31229	 	2.18411E28	 	9.56771E-29	 	-14773.01312	25.50366	 
150.0	1.0	0.0	8.13629	7.00336	-11.42867	11.75653	11.58577	0.89482	1.11754	189.61787	168.25928	72.25316	0.31218	 	5.2783E28	 	3.91279E-29	 	-14900.28417	25.45421	 
145.0	1.0	0.0	8.13779	7.00207	-11.44507	11.73002	11.51724	0.88951	1.12422	189.88437	168.39058	72.36118	0.31206	 	1.3028000000000001E29	 	1.56654E-29	 	-15027.30689	25.40454	 
140.0	1.0	0.0	8.13929	7.00078	-11.46139	11.70351	11.44844	0.88415	1.13103	190.15045	168.52141	72.46906	0.31194	 	3.2867E29	 	6.13528E-30	 	-15154.08005	25.35463	 
135.0	1.0	0.0	8.14079	6.99949	-11.47764	11.677	11.37939	0.87875	1.13798	190.41613	168.65176	72.57679	0.31183	 	8.4818E29	 	2.34865E-30	 	-15280.60239	25.30447	 
130.0	1.0	0.0	8.14228	6.99821	-11.49382	11.65049	11.31005	0.87331	1.14507	190.68138	168.78164	72.68439	0.31171	 	2.2409299999999998E30	 	8.78061E-31	 	-15406.87255	25.25403	 
125.0	1.0	0.0	8.14376	6.99694	-11.50993	11.62397	11.24042	0.86782	1.15231	190.94622	168.91104	72.79184	0.31159	 	6.0669E30	 	3.20307E-31	 	-15532.88904	25.2033	 
120.0	1.0	0.0	8.14524	6.99567	-11.52598	11.59746	11.1705	0.86229	1.15971	191.21065	169.03997	72.89914	0.31147	 	1.68464E31	 	1.13904E-31	 	-15658.65029	25.15225	 
115.0	1.0	0.0	8.14671	6.99441	-11.54195	11.57095	11.10026	0.85671	1.16726	191.47467	169.16842	73.00631	0.31136	 	4.80258E31	 	3.94468E-32	 	-15784.15464	25.10087	 
110.0	1.0	0.0	8.14817	6.99315	-11.55785	11.54443	11.0297	0.85108	1.17498	191.73827	169.29641	73.11333	0.31124	 	1.40707E32	 	1.32904E-32	 	-15909.40029	25.04913	 
105.0	1.0	0.0	8.14963	6.9919	-11.57368	11.51792	10.9588	0.84541	1.18286	192.00145	169.42392	73.22022	0.31112	 	4.24134E32	 	4.35159E-33	 	-16034.38531	24.997	 
100.0	1.0	0.0	8.15108	6.99065	-11.58944	11.4914	10.88754	0.83969	1.19091	192.26422	169.55096	73.32695	0.31101	 	1.31684E33	 	1.38305E-33	 	-16159.10768	24.94447	 
95.0	1.0	0.0	8.15253	6.98941	-11.60513	11.46489	10.81592	0.83393	1.19915	192.52658	169.67754	73.43355	0.31089	 	4.21624E33	 	4.26173E-34	 	-16283.56519	24.8915	 
90.0	1.0	0.0	8.15397	6.98818	-11.62075	11.43837	10.74391	0.82811	1.20756	192.78852	169.80365	73.54001	0.31077	 	1.39391E34	 	1.27156E-34	 	-16407.75551	24.83806	 
85.0	1.0	0.0	8.15541	6.98695	-11.63631	11.41185	10.6715	0.82225	1.21617	193.05005	169.92929	73.64632	0.31066	 	4.764820000000001E34	 	3.66864E-35	 	-16531.67613	24.78412	 
80.0	1.0	0.0	8.15683	6.98572	-11.65179	11.38534	10.59866	0.81635	1.22497	193.31116	170.05447	73.75249	0.31054	 	1.68645E35	 	1.02205E-35	 	-16655.32439	24.72965	 
75.0	1.0	0.0	8.15826	6.9845	-11.6672	11.35882	10.52539	0.81039	1.23397	193.57186	170.17918	73.85851	0.31042	 	6.189639999999999E35	 	2.74529E-36	 	-16778.69744	24.67461	 
70.0	1.0	0.0	8.15967	6.98329	-11.68254	11.3323	10.45166	0.80439	1.24318	193.83215	170.30343	73.9644	0.31031	 	2.3594699999999997E36	 	7.09833E-37	 	-16901.79222	24.61896	 
65.0	1.0	0.0	8.16109	6.98208	-11.69781	11.30578	10.37744	0.79833	1.25261	194.09202	170.42721	74.07014	0.31019	 	9.35728E36	 	1.76379E-37	 	-17024.60547	24.56265	 
60.0	1.0	0.0	8.16249	6.98088	-11.71301	11.27927	10.30272	0.79223	1.26225	194.35148	170.55054	74.17574	0.31007	 	3.86763E37	 	4.20418E-38	 	-17147.1337	24.50565	 
55.0	1.0	0.0	8.16389	6.97969	-11.72814	11.25275	10.22747	0.78609	1.27213	194.61052	170.6734	74.2812	0.30996	 	1.66925E38	 	9.59485E-39	 	-17269.37316	24.44789	 
50.0	1.0	0.0	8.16528	6.9785	-11.7432	11.22623	10.15167	0.77989	1.28223	194.86915	170.79581	74.38651	0.30984	 	7.53789E38	 	2.09238E-39	 	-17391.31986	24.38934	 
45.0	1.0	0.0	8.16667	6.97731	-11.75819	11.19971	10.07528	0.77364	1.29258	195.12736	170.91775	74.49168	0.30973	 	3.5690900000000006E39	 	4.35072E-40	 	-17512.96953	24.32993	 
40.0	1.0	0.0	8.16805	6.97613	-11.77311	11.17319	9.99827	0.76735	1.30319	195.38516	171.03924	74.59671	0.30961	 	1.77595E40	 	8.60614E-41	 	-17634.31755	24.2696	 
35.0	1.0	0.0	8.16943	6.97496	-11.78796	11.14667	9.92061	0.76101	1.31405	195.64255	171.16027	74.70159	0.30949	 	9.30932E40	 	1.61559E-41	 	-17755.359	24.20829	 
30.0	1.0	0.0	8.1708	6.97379	-11.80273	11.12015	9.84228	0.75462	1.32517	195.89952	171.28085	74.80633	0.30938	 	5.153940000000001E41	 	2.87081E-42	 	-17876.08861	24.14592	 
25.0	1.0	0.0	8.17216	6.97262	-11.81744	 	9.76322	0.74818	1.33657	196.15607	171.40097	74.91093	0.30926	 	3.0219599999999995E42	 	4.8154E-43	 	-17996.50069	 	 
