T (C)	Fraction solid (wt)-TOTAL	Fraction liquid (wt)-LIQUID	Density (g/(cm)^3)-TOTAL	Molar volume (cm^3)-TOTAL	Volume change (%)-  	Average expansion coeff. (10e-6 1/K)-  	Thermal conductivity (W/(m*K))-TOTAL	Electrical resistivity (10e-6 Ohm*m)-TOTAL	Electrical conductivity (10e6 1/(Ohm*m))-TOTAL	Young's modulus (GPa)-TOTAL	Bulk modulus (GPa)-TOTAL	Shear modulus(GPa)-TOTAL	Poisson's ratio-TOTAL	Liquid viscosity (mPa s)-  	Total viscosity (mPa s)-  	Liquid diffusivity (10e-9 (m^2)/s)-  	Total diffusivity (10e-9 (m^2)/s)-  	Surface Tension (mN/m)-  	Enthalpy (J/mole)-TOTAL	Specific heat (J/(mole K))-TOTAL	Latent heat (J/mole)-TOTAL
1400.0	0.0	1.0	7.04466	7.8244	0.0	31.8425	28.99676	1.41368	0.70737	0.0	121.46995	0.0	0.5	6.74517	6.74517	1.21068	1.21068	1725.84983	45246.151	 	0.0
1395.0	0.0	1.0	7.04861	7.82001	-0.0560777	31.80435	28.92526	1.41294	0.70774	0.0	121.61652	0.0	0.5	6.8175	6.8175	1.19425	1.19425	1728.00718	45042.67	40.6962	0.0
1390.0	0.0	1.0	7.05255	7.81563	-0.11199	31.76636	28.85376	1.4122	0.70812	0.0	121.76309	0.0	0.5	6.89106	6.89106	1.17796	1.17796	1730.17416	44839.659	40.6022	0.0
1385.0	0.0	1.0	7.05649	7.81127	-0.16775	31.72854	28.78226	1.41145	0.70849	0.0	121.90966	0.0	0.5	6.96586	6.96586	1.16181	1.16181	1732.35057	44637.112	40.5094	0.0
1380.0	0.0	1.0	7.06043	7.80692	-0.22335	31.69089	28.71077	1.4107	0.70887	0.0	122.05624	0.0	0.5	7.04193	7.04193	1.1458	1.1458	1734.5362	44435.029	40.4166	0.0
1375.0	0.0	1.0	7.06435	7.80258	-0.27878	31.6534	28.63927	1.40994	0.70925	0.0	122.20281	0.0	0.5	7.1193	7.1193	1.12992	1.12992	1736.73081	44233.406	40.3246	0.0
1370.0	0.0	1.0	7.06827	7.79826	-0.33406	31.61609	28.56777	1.40918	0.70963	0.0	122.34938	0.0	0.5	7.198	7.198	1.11417	1.11417	1738.93418	44032.24	40.2332	0.0
1365.0	0.0	1.0	7.07218	7.79394	-0.38917	31.57895	28.49628	1.40842	0.71002	0.0	122.49595	0.0	0.5	7.27805	7.27805	1.09856	1.09856	1741.14607	43831.529	40.1422	0.0
1360.0	0.0	1.0	7.07608	7.78965	-0.44413	31.54199	28.42478	1.40765	0.7104	0.0	122.64253	0.0	0.5	7.3595	7.3595	1.08309	1.08309	1743.36623	43631.271	40.0516	0.0
1355.0	0.0	1.0	7.07998	7.78536	-0.49892	31.5052	28.35328	1.40688	0.71079	0.0	122.7891	0.0	0.5	7.44237	7.44237	1.06775	1.06775	1745.59442	43431.462	39.9618	0.0
1350.0	0.0	1.0	7.08387	7.78108	-0.55355	31.4686	28.28179	1.40611	0.71118	0.0	122.93567	0.0	0.5	7.52669	7.52669	1.05255	1.05255	1747.83037	43232.101	39.8722	0.0
1345.0	0.0	1.0	7.08775	7.77682	-0.60803	31.43217	28.21029	1.40533	0.71158	0.0	123.08224	0.0	0.5	7.61249	7.61249	1.03748	1.03748	1750.07381	43033.184	39.7834	0.0
1340.0	0.0	1.0	7.09163	7.77257	-0.66234	31.39593	28.1388	1.40454	0.71197	0.0	123.22882	0.0	0.5	7.69981	7.69981	1.02254	1.02254	1752.32448	42834.71	39.6948	0.0
1335.0	0.0	1.0	7.09549	7.76833	-0.71649	31.35987	28.0673	1.40376	0.71237	0.0	123.37539	0.0	0.5	7.78869	7.78869	1.00774	1.00774	1754.5821	42636.675	39.607	0.0
1330.92	0.0	1.0	7.09864	7.76489	-0.76051	31.33062	28.00903	1.40311	0.7127	0.0	123.49485	0.0	0.5	7.8623	7.8623	0.99578	0.99578	1756.42709	42475.596	39.52684	0.0
1330.0	0.02483	0.97517	7.10613	7.75678	-0.86417	31.05327	28.06547	1.39948	0.71455	3.18278E-5	123.44607	1.06319E-5	0.4968	7.87639	8.14866	0.99342	0.96023	1756.0044	42097.395	408.94552	341.679
1325.0	0.1474	0.8526	7.14349	7.71615	-1.38341	29.66643	28.34414	1.3814	0.7239	0.040571	123.23666	0.0136985	0.48086	7.95326	21.98817	0.98075	0.35474	1753.80705	40220.85	375.309	2021.06
1320.0	0.24855	0.75145	7.17501	7.68229	-1.81613	28.52085	28.57087	1.36615	0.73198	0.33538	123.13983	0.11427	0.46752	8.03148	116.67474	0.96816	0.0666448	1751.82745	38645.916	314.9868	3399.263
1318.39	0.27693	0.72307	7.18399	7.67272	-1.93851	28.19954	28.63299	1.36181	0.73432	0.52011	123.13039	0.17766	0.46376	8.05702	177.32282	0.96412	0.0438066	1751.24445	38197.206	 	3784.666
1315.0	0.39159	0.60841	7.21993	7.63445	-2.42756	26.84396	28.90072	1.34632	0.74276	2.13001	123.41157	0.7355	0.44801	8.18286	711.45275	0.94727	0.0108951	1751.58751	36423.732	444.4368	5425.146
1310.0	0.51468	0.48532	7.25922	7.59317	-2.95519	25.39994	29.18544	1.32899	0.75245	6.57311	123.79438	2.29693	0.43085	8.36979	2245.80192	0.9232	0.00344062	1752.00535	34481.362	388.474	7171.644
1305.0	0.60131	0.39869	7.28756	7.56358	-3.33335	24.38499	29.37752	1.31613	0.7598	12.5726	124.1641	4.43141	0.41858	8.55978	4454.76009	0.89986	0.00172906	1752.47098	33069.457	282.381	8388.1
1300.0	0.66504	0.33496	7.30897	7.54137	-3.61719	23.64111	29.50701	1.3062	0.76558	19.1999	124.53114	6.81123	0.40943	8.75359	7104.19204	0.87714	0.00108079	1753.02147	31988.852	216.121	9273.679
1295.35	0.71047	0.28953	7.32468	7.52514	-3.82461	23.11192	29.58745	1.2988	0.76994	25.39678	124.87327	9.05202	0.40282	8.93787	9824.33847	0.85652	7.79233E-4	1753.63658	31182.176	 	9899.28
1295.0	0.71763	0.28237	7.3269	7.52282	-3.85436	23.02992	29.59832	1.29804	0.77039	26.48488	124.92421	9.44691	0.40178	8.95383	10274.12176	0.8548	7.44954E-4	1753.83976	31059.42023	185.88635	10007.8
1290.0	0.8073	0.1927	7.35531	7.49464	-4.21446	22.04744	29.70804	1.28912	0.77572	43.44896	125.53342	15.64685	0.38842	9.17701	17770.37012	0.83135	4.2933E-4	1756.71311	29507.59059	310.36593	11362.119
1285.0	0.86284	0.13716	7.3734	7.47674	-4.44323	21.45021	29.74453	1.28342	0.77917	57.63835	126.03841	20.88374	0.37998	9.39463	24998.77461	0.8095	3.04213E-4	1759.53416	28481.58395	205.20133	12191.092
1280.0	0.89961	0.10039	7.38583	7.46431	-4.60213	21.05819	29.74089	1.27946	0.78158	68.93704	126.49585	25.08122	0.37428	9.60682	31789.53917	0.78908	2.3846E-4	1762.30721	27741.60717	147.99536	12734.511
1275.0	0.92523	0.0747663	7.39491	7.45504	-4.72052	20.78525	29.71368	1.27651	0.78339	77.8679	126.93068	28.41442	0.37022	9.81391	38223.18306	0.76994	1.97685E-4	1765.0292	27170.3516	114.25111	13109.681
1270.0	0.94382	0.0561834	7.4019	7.44771	-4.81426	20.58477	29.67208	1.27417	0.78483	84.98649	127.35369	31.08031	0.36721	10.01576	44431.80351	0.75199	1.69512E-4	1767.70261	26705.17161	93.036	13379.248
1265.0	0.95773	0.0422699	7.40754	7.44161	-4.89225	20.43061	29.62145	1.27221	0.78603	90.73755	127.77023	33.23967	0.3649	10.21222	50540.03766	0.73513	1.48542E-4	1770.32958	26310.20256	78.99381	13579.068
1260.0	0.96842	0.0315827	7.41226	7.43632	-4.95977	20.30712	29.56506	1.27049	0.7871	95.4543	128.18311	35.01431	0.36308	10.40314	56654.57256	0.71929	1.3208E-4	1772.90993	25963.7188	69.29675	13730.867
1255.0	0.9768	0.0232016	7.4164	7.4316	-5.02012	20.20465	29.5046	1.26894	0.78806	99.38045	128.59341	36.49398	0.3616	10.58801	62875.97671	0.70443	1.18623E-4	1775.44448	25651.27858	62.48804	13848.443
1250.0	0.98348	0.0165165	7.42012	7.42726	-5.07555	20.11648	29.44163	1.2675	0.78896	102.69496	129.00278	37.74484	0.36038	10.76631	69278.28012	0.6905	1.07308E-4	1777.93456	25363.82326	57.49106	13940.917
1245.0	0.98889	0.0111106	7.4235	7.4232	-5.12749	20.03835	29.37697	1.26612	0.78982	105.5279	129.41181	38.81516	0.35936	10.93755	75917.16169	0.67746	9.76026E-5	1780.37725	25095.74107	53.61644	14014.53
1240.0	0.99331	0.00668833	7.42664	7.41933	-5.17698	19.96722	29.30979	1.26484	0.79061	107.97801	129.82052	39.74174	0.3585	11.10099	82854.4401	0.66528	8.9136E-5	1782.77677	24842.62821	50.62257	14073.68
1235.0	0.99696	0.00303698	7.42961	7.4156	-5.22466	19.90114	29.24363	1.26351	0.79144	110.12079	130.22863	40.55275	0.35775	11.25616	90149.76237	0.65394	8.1652E-5	1785.13239	24601.29994	48.26565	14121.546
1230.0	1.0	0.0	7.43246	7.41197	-5.27103	19.8386	29.17707	1.2622	0.79227	112.01291	130.63624	41.26943	0.35709	 	97859.60658	 	7.49697E-5	 	24369.40656	46.37868	14160.473
1225.0	1.0	0.0	7.43489	7.40955	-5.30196	19.82405	29.09934	1.26136	0.7928	112.49751	131.02201	41.45395	0.3569	 	105000.7799	 	6.96385E-5	 	24221.12659	29.65599	 
1221.24	1.0	0.0	7.43671	7.40773	-5.32517	19.81313	29.04095	1.26073	0.79319	112.86088	131.31044	41.59235	0.35675	 	110738.7766	 	6.58646E-5	 	24084.23328	 	 
1220.0	1.0	0.0	7.43749	7.40696	-5.3351	19.80242	29.0262	1.26032	0.79345	112.98478	131.40037	41.63982	0.35669	 	112710.0478	 	6.46588E-5	 	24034.27052	37.37122	 
1215.0	1.0	0.0	7.44063	7.40383	-5.37505	19.75899	28.96606	1.2587	0.79447	113.48186	131.75996	41.83035	0.35645	 	121025.6092	 	6.00145E-5	 	23833.50169	40.15377	 
1214.44	1.0	0.0	7.44098	7.40348	-5.3795	19.75413	28.95935	1.25852	0.79458	113.53713	131.79982	41.85153	0.35643	 	121992.1497	 	5.95167E-5	 	23811.14657	 	 
1210.0	1.0	0.0	7.4432	7.40128	-5.4077	19.73848	28.89184	1.2577	0.7951	113.96954	132.13802	42.01644	0.35625	 	130059.6115	 	5.56582E-5	 	23647.08466	37.28341	 
1205.0	1.0	0.0	7.44569	7.3988	-5.43935	19.72097	28.81583	1.25676	0.79569	114.45499	132.51662	42.20163	0.35605	 	139838.2263	 	5.15916E-5	 	23462.91481	36.83397	 
1200.0	1.0	0.0	7.44818	7.39633	-5.47092	19.70355	28.73977	1.25583	0.79629	114.93924	132.89315	42.38641	0.35585	 	150421.773	 	4.77995E-5	 	23279.22091	36.73878	 
1195.0	1.0	0.0	7.45066	7.39386	-5.50242	19.68623	28.66367	1.25489	0.79688	115.42229	133.26762	42.5708	0.35565	 	161882.26	 	4.42647E-5	 	23095.99656	36.64487	 
1190.0	1.0	0.0	7.45314	7.39141	-5.53384	19.669	28.58752	1.25394	0.79748	115.90416	133.64006	42.75479	0.35545	 	174298.646	 	4.09715E-5	 	22913.23619	36.55207	 
1185.0	1.0	0.0	7.45561	7.38895	-5.56519	19.65188	28.51132	1.253	0.79808	116.38485	134.01047	42.93839	0.35525	 	187757.5551	 	3.79046E-5	 	22730.93356	36.46053	 
1180.0	1.0	0.0	7.45808	7.38651	-5.59646	19.63484	28.43508	1.25205	0.79869	116.86438	134.37887	43.1216	0.35506	 	202354.0974	 	3.50498E-5	 	22549.08329	36.37005	 
1175.0	1.0	0.0	7.46055	7.38407	-5.62766	19.61791	28.3588	1.2511	0.7993	117.34275	134.74527	43.30443	0.35486	 	218192.7182	 	3.23937E-5	 	22367.67946	36.28077	 
1170.0	1.0	0.0	7.46301	7.38163	-5.65878	19.60107	28.28246	1.25014	0.79991	117.81996	135.1097	43.48687	0.35466	 	235388.2287	 	2.99236E-5	 	22186.71658	36.19258	 
1165.0	1.0	0.0	7.46547	7.3792	-5.68983	19.58433	28.20609	1.24919	0.80052	118.29604	135.47216	43.66893	0.35446	 	254066.868	 	2.76276E-5	 	22006.18922	36.10547	 
1160.0	1.0	0.0	7.46792	7.37678	-5.7208	19.56768	28.12967	1.24823	0.80114	118.77098	135.83268	43.85062	0.35427	 	274367.5499	 	2.54944E-5	 	21826.092	36.01944	 
1155.0	1.0	0.0	7.47037	7.37436	-5.75171	19.55114	28.05321	1.24726	0.80176	119.24479	136.19126	44.03193	0.35407	 	296443.2091	 	2.35136E-5	 	21646.41969	35.93446	 
1150.0	1.0	0.0	7.47281	7.37195	-5.78253	19.5347	27.9767	1.24629	0.80238	119.71748	136.54792	44.21287	0.35388	 	320462.3347	 	2.16751E-5	 	21467.16711	35.85052	 
1145.0	1.0	0.0	7.47525	7.36954	-5.81329	19.51835	27.90015	1.24532	0.80301	120.18907	136.90267	44.39344	0.35368	 	346610.6495	 	1.99695E-5	 	21288.3292	35.76758	 
1140.0	1.0	0.0	7.47769	7.36714	-5.84397	19.5021	27.82356	1.24435	0.80363	120.65955	137.25553	44.57364	0.35349	 	375093.0088	 	1.83881E-5	 	21109.90098	35.68564	 
1135.0	1.0	0.0	7.48012	7.36475	-5.87458	19.48596	27.74693	1.24337	0.80427	121.12894	137.60651	44.75348	0.35329	 	406135.4981	 	1.69225E-5	 	20931.87759	35.60468	 
1130.0	1.0	0.0	7.48255	7.36236	-5.90511	19.46991	27.67025	1.24239	0.8049	121.59724	137.95563	44.93296	0.3531	 	439987.8021	 	1.5565E-5	 	20754.25422	35.52467	 
1125.0	1.0	0.0	7.48497	7.35997	-5.93558	19.45397	27.59353	1.2414	0.80554	122.06446	138.3029	45.11209	0.3529	 	476925.8518	 	1.43084E-5	 	20577.02618	35.44561	 
1120.0	1.0	0.0	7.48739	7.35759	-5.96597	19.43813	27.51677	1.24041	0.80618	122.53062	138.64833	45.29085	0.35271	 	517254.7629	 	1.31456E-5	 	20400.18888	35.36746	 
1115.0	1.0	0.0	7.4898	7.35522	-5.99629	19.42239	27.43997	1.23942	0.80683	122.9957	138.99194	45.46927	0.35251	 	561312.1439	 	1.20703E-5	 	20223.73778	35.29022	 
1110.0	1.0	0.0	7.49222	7.35285	-6.02654	19.40675	27.36313	1.23842	0.80748	123.45974	139.33374	45.64734	0.35232	 	609471.7918	 	1.10765E-5	 	20047.66848	35.21386	 
1105.0	1.0	0.0	7.49462	7.35049	-6.05672	19.39121	27.28625	1.23742	0.80813	123.92272	139.67374	45.82506	0.35213	 	662147.8735	 	1.01585E-5	 	19871.97677	35.13834	 
1100.0	1.0	0.0	7.49703	7.34814	-6.08683	19.37578	27.20933	1.23642	0.80879	124.38466	140.01195	46.00243	0.35194	 	719799.5659	 	9.31093E-6	 	19696.65812	35.06373	 
1097.6	1.0	0.0	7.49818	7.34701	-6.10129	19.3684	27.17232	1.23594	0.8091	124.60648	140.174	46.08763	0.35184	 	749449.8646	 	8.9269E-6	 	19612.46206	 	 
1095.0	1.0	0.0	7.50049	7.34474	-6.13021	19.31346	27.07347	1.2381	0.80769	125.16558	140.47953	46.3061	0.3515	 	788067.7454	 	8.47338E-6	 	19457.2202	47.88758	 
1090.0	1.0	0.0	7.50488	7.34044	-6.18517	19.2095	26.88448	1.24225	0.80499	126.21738	141.05103	46.71739	0.35086	 	868617.9337	 	7.65952E-6	 	19161.87688	59.06866	 
1085.0	1.0	0.0	7.50921	7.33622	-6.23918	19.10797	26.70322	1.24609	0.80251	127.23724	141.60126	47.11653	0.35024	 	958050.243	 	6.91905E-6	 	18871.31828	58.11172	 
1080.0	1.0	0.0	7.51346	7.33206	-6.29226	19.00877	26.5278	1.24971	0.80018	128.2269	142.1317	47.50417	0.34964	 	1057414.281	 	6.24579E-6	 	18585.3456	57.19454	 
1075.0	1.0	0.0	7.51765	7.32798	-6.34447	18.91179	26.35777	1.25313	0.798	129.18798	142.64368	47.88091	0.34906	 	1167891.78	 	5.63407E-6	 	18303.77038	56.31504	 
1070.0	1.0	0.0	7.52177	7.32396	-6.39583	18.81694	26.19278	1.25635	0.79596	130.12196	143.13838	48.24731	0.34849	 	1290814.343	 	5.07864E-6	 	18026.41284	55.47151	 
1065.0	1.0	0.0	7.52584	7.32001	-6.44637	18.72412	26.03254	1.25937	0.79405	131.03021	143.61688	48.60387	0.34794	 	1427683.447	 	4.57467E-6	 	17753.102	54.66217	 
1060.0	1.0	0.0	7.52984	7.31611	-6.49614	18.63325	25.87679	1.26222	0.79226	131.914	144.08016	48.95107	0.34741	 	1580193.648	 	4.11771E-6	 	17483.67523	53.88535	 
1055.0	1.0	0.0	7.53379	7.31228	-6.54515	18.54424	25.72531	1.26489	0.79058	132.77454	144.5291	49.28936	0.34689	 	1750258.803	 	3.70366E-6	 	17217.977	53.13965	 
1050.0	1.0	0.0	7.53769	7.3085	-6.59345	18.45701	25.57785	1.26739	0.78902	133.61292	144.96451	49.61916	0.34638	 	1940042.337	 	3.32878E-6	 	16955.85882	52.42364	 
1045.0	1.0	0.0	7.54153	7.30477	-6.64105	18.37149	25.43422	1.26973	0.78757	134.4302	145.38713	49.94086	0.34589	 	2151991.601	 	2.98959E-6	 	16697.17962	51.73584	 
1040.0	1.0	0.0	7.54532	7.3011	-6.68799	18.28759	25.29421	1.27192	0.78621	135.22734	145.79764	50.25482	0.34542	 	2388877.652	 	2.68292E-6	 	16441.8034	51.07524	 
1035.0	1.0	0.0	7.54907	7.29748	-6.73429	18.20526	25.15764	1.27395	0.78496	136.00526	146.19666	50.56139	0.34495	 	2653840.686	 	2.40585E-6	 	16189.6009	50.4405	 
1030.0	1.0	0.0	7.55277	7.2939	-6.77997	18.12442	25.02432	1.27585	0.78379	136.76482	146.58478	50.8609	0.3445	 	2950442.015	 	2.15573E-6	 	15940.4486	49.83046	 
1025.0	1.0	0.0	7.55642	7.29038	-6.82505	18.04501	24.8941	1.2776	0.78272	137.50684	146.96253	51.15366	0.34406	 	3282724.319	 	1.93009E-6	 	15694.22844	49.24403	 
1020.0	1.0	0.0	7.56004	7.28689	-6.86957	17.96696	24.76681	1.27922	0.78173	138.23208	147.33042	51.43995	0.34363	 	3655280.443	 	1.72669E-6	 	15450.8269	48.68031	 
1015.0	1.0	0.0	7.56361	7.28345	-6.91354	17.89022	24.6423	1.28071	0.78082	138.94128	147.68891	51.72006	0.34321	 	4073333.09	 	1.54349E-6	 	15210.13589	48.1382	 
1010.0	1.0	0.0	7.56714	7.28005	-6.95698	17.81473	24.52043	1.28208	0.77998	139.63511	148.03843	51.99424	0.34279	 	4542826.386	 	1.3786E-6	 	14972.05207	47.61676	 
1005.0	1.0	0.0	7.57063	7.2767	-6.9999	17.74043	24.40106	1.28333	0.77922	140.31423	148.37939	52.26274	0.34239	 	5070531.824	 	1.23031E-6	 	14736.47598	47.11522	 
1000.0	1.0	0.0	7.57409	7.27337	-7.04234	17.66727	24.28408	1.28447	0.77853	140.97926	148.71218	52.52581	0.342	 	5664170.002	 	1.09706E-6	 	14503.31299	46.6326	 
995.0	1.0	0.0	7.57751	7.27009	-7.0843	17.59521	24.16935	1.2855	0.77791	141.63077	149.03715	52.78366	0.34162	 	6332552.203	 	9.77414E-7	 	14272.4724	46.16812	 
990.0	1.0	0.0	7.58089	7.26684	-7.1258	17.52418	24.05678	1.28642	0.77735	142.26934	149.35463	53.0365	0.34124	 	7085743.903	 	8.70074E-7	 	14043.86766	45.72095	 
985.0	1.0	0.0	7.58425	7.26363	-7.16686	17.45415	23.94624	1.28724	0.77685	142.89547	149.66495	53.28454	0.34087	 	7935254.091	 	7.73853E-7	 	13817.41534	45.29046	 
980.0	1.0	0.0	7.58757	7.26045	-7.2075	17.38507	23.83765	1.28797	0.77642	143.50968	149.96841	53.52797	0.34051	 	8894253.966	 	6.8767E-7	 	13593.03625	44.87582	 
975.0	1.0	0.0	7.59086	7.2573	-7.24773	17.31689	23.73091	1.2886	0.77604	144.11243	150.26529	53.76697	0.34016	 	9977833.434	 	6.10544E-7	 	13370.65448	44.47635	 
970.0	1.0	0.0	7.59412	7.25419	-7.28755	17.24957	23.62592	1.28914	0.77571	144.70419	150.55585	54.00171	0.33981	 	1.120329573E7	 	5.41582E-7	 	13150.19741	44.09141	 
965.0	1.0	0.0	7.59735	7.2511	-7.327	17.18308	23.52261	1.2896	0.77544	145.28539	150.84036	54.23237	0.33947	 	1.259050201E7	 	4.79973E-7	 	12931.59563	43.72036	 
960.0	1.0	0.0	7.60056	7.24804	-7.36607	17.11737	23.4209	1.28997	0.77521	145.85643	151.11905	54.4591	0.33914	 	1.416227377E7	 	4.24981E-7	 	12714.78278	43.36257	 
955.0	1.0	0.0	7.60373	7.24502	-7.40479	17.05241	23.32071	1.29026	0.77504	146.41771	151.39215	54.68205	0.33881	 	1.594485825E7	 	3.75939E-7	 	12499.69542	43.01747	 
950.0	1.0	0.0	7.60689	7.24201	-7.44315	16.98816	23.22196	1.29047	0.77491	146.96961	151.65989	54.90136	0.33849	 	1.796847498E7	 	3.32243E-7	 	12286.27317	42.68445	 
945.0	1.0	0.0	7.61001	7.23904	-7.48119	16.92459	23.12461	1.2906	0.77483	147.51246	151.92247	55.11718	0.33817	 	2.026795279E7	 	2.93344E-7	 	12074.45766	42.3631	 
940.0	1.0	0.0	7.61312	7.23609	-7.5189	16.86166	23.02858	1.29066	0.77479	148.04663	152.18008	55.32963	0.33786	 	2.288347442E7	 	2.58749E-7	 	11864.19375	42.05278	 
935.0	1.0	0.0	7.6162	7.23316	-7.55629	16.79934	22.93381	1.29066	0.7748	148.57243	152.43292	55.53884	0.33755	 	2.58614477E7	 	2.2801E-7	 	11655.4286	41.75303	 
930.0	1.0	0.0	7.61925	7.23026	-7.59338	16.7376	22.84026	1.29058	0.77485	149.09017	152.68118	55.74492	0.33725	 	2.925553057E7	 	2.00724E-7	 	11448.11168	41.46338	 
925.0	1.0	0.0	7.62229	7.22738	-7.63017	16.67641	22.74786	1.29044	0.77493	149.60014	152.92501	55.948	0.33696	 	3.312782597E7	 	1.76524E-7	 	11242.19478	41.18338	 
920.0	1.0	0.0	7.6253	7.22452	-7.66668	16.61575	22.65657	1.29023	0.77506	150.10263	153.16459	56.14818	0.33667	 	3.75502917E7	 	1.55085E-7	 	11037.63181	40.91259	 
915.0	1.0	0.0	7.62829	7.22169	-7.70291	16.55558	22.56635	1.28996	0.77522	150.59792	153.40009	56.34556	0.33638	 	4.260639912E7	 	1.36108E-7	 	10834.3788	40.6506	 
910.0	1.0	0.0	7.63127	7.21888	-7.73887	16.49589	22.47715	1.28963	0.77542	151.08625	153.63164	56.54025	0.33609	 	4.839308031E7	 	1.19328E-7	 	10632.39375	40.39701	 
905.0	1.0	0.0	7.63422	7.21608	-7.77457	16.43663	22.38893	1.28924	0.77565	151.56788	153.85941	56.73234	0.33582	 	5.502302393E7	 	1.04506E-7	 	10431.63654	40.15144	 
900.0	1.0	0.0	7.63716	7.21331	-7.81001	16.3778	22.30165	1.28879	0.77592	152.04304	154.08352	56.92192	0.33554	 	6.262739462E7	 	9.14273E-8	 	10232.06887	39.91353	 
895.0	1.0	0.0	7.64007	7.21056	-7.84521	16.31936	22.21528	1.28829	0.77622	152.51197	154.30413	57.10908	0.33527	 	7.135903035E7	 	7.98981E-8	 	10033.6542	39.68293	 
890.0	1.0	0.0	7.64297	7.20782	-7.88016	16.2613	22.12978	1.28773	0.77656	152.97488	154.52135	57.29391	0.335	 	8.139623552E7	 	6.97458E-8	 	9836.35761	39.45932	 
885.0	1.0	0.0	7.64585	7.2051	-7.91488	16.20358	22.04512	1.28712	0.77693	153.43199	154.73533	57.47648	0.33474	 	9.294727105E7	 	6.08156E-8	 	9640.14576	39.24237	 
880.0	1.0	0.0	7.64872	7.2024	-7.94938	16.1462	21.96128	1.28645	0.77733	153.88348	154.94617	57.65688	0.33448	 	1.062556798E8	 	5.29688E-8	 	9444.9867	39.03181	 
875.0	1.0	0.0	7.65157	7.19972	-7.98365	16.08913	21.87821	1.28574	0.77776	154.32957	155.15401	57.83517	0.33422	 	1.21606612E8	 	4.60817E-8	 	9250.84987	38.82737	 
870.0	1.0	0.0	7.6544	7.19706	-8.0177	16.03235	21.7959	1.28497	0.77823	154.77043	155.35895	58.01144	0.33396	 	1.393343279E8	 	4.00435E-8	 	9057.70665	38.62864	 
865.0	1.0	0.0	7.65722	7.19441	-8.05154	15.97585	21.71433	1.28416	0.77872	155.20625	155.56111	58.18575	0.33371	 	1.598311688E8	 	3.47556E-8	 	8865.52935	38.43546	 
860.0	1.0	0.0	7.66002	7.19178	-8.08518	15.91959	21.63346	1.2833	0.77924	155.6372	155.7606	58.35817	0.33347	 	1.835581907E8	 	3.01301E-8	 	8674.29192	38.24749	 
855.0	1.0	0.0	7.66281	7.18916	-8.11862	15.86357	21.55327	1.28239	0.77979	156.06344	155.95752	58.52876	0.33322	 	2.110579387E8	 	2.60887E-8	 	8483.96829	38.06473	 
850.0	1.0	0.0	7.66558	7.18656	-8.15186	15.80778	21.47375	1.28143	0.78038	156.48514	156.15197	58.69758	0.33298	 	2.429696228E8	 	2.25617E-8	 	8294.53469	37.88672	 
845.0	1.0	0.0	7.66778	7.1845	-8.17819	15.78308	21.40892	1.27959	0.7815	156.86422	156.39875	58.84597	0.33284	 	2.76284732E8	 	1.97529E-8	 	8137.95882	31.31517	 
840.0	1.0	0.0	7.66997	7.18245	-8.20445	15.75837	21.34407	1.27774	0.78263	157.24271	156.64459	58.99417	0.3327	 	3.14530754E8	 	1.72734E-8	 	7978.41982	31.9078	 
835.0	1.0	0.0	7.67216	7.1804	-8.23065	15.73366	21.27921	1.27588	0.78377	157.62061	156.88949	59.14218	0.33256	 	3.584903392E8	 	1.50872E-8	 	7819.11475	31.86101	 
830.0	1.0	0.0	7.67435	7.17835	-8.25679	15.70895	21.21433	1.27401	0.78493	157.99793	157.13346	59.29	0.33242	 	4.090786522E8	 	1.31618E-8	 	7660.04286	31.81438	 
825.0	1.0	0.0	7.67653	7.17631	-8.28286	15.68423	21.14944	1.27212	0.78609	158.37467	157.3765	59.43762	0.33228	 	4.673672E8	 	1.14681E-8	 	7501.20341	31.76789	 
820.0	1.0	0.0	7.67871	7.17428	-8.30887	15.6595	21.08453	1.27023	0.78726	158.75082	157.6186	59.58506	0.33214	 	5.346121953E8	 	9.97993E-9	 	7342.59562	31.72156	 
815.0	1.0	0.0	7.68088	7.17225	-8.33481	15.63477	21.01961	1.26832	0.78844	159.12639	157.85979	59.73231	0.332	 	6.12288363E8	 	8.674E-9	 	7184.21869	31.67539	 
810.0	1.0	0.0	7.68305	7.17022	-8.36069	15.61003	20.95468	1.26641	0.78963	159.50138	158.10005	59.87936	0.33186	 	7.021292926E8	 	7.52936E-9	 	7026.07181	31.62938	 
805.0	1.0	0.0	7.68521	7.1682	-8.3865	15.58529	20.88973	1.26448	0.79084	159.87579	158.33939	60.02623	0.33172	 	8.061756734E8	 	6.52734E-9	 	6868.15411	31.58354	 
800.0	1.0	0.0	7.68738	7.16619	-8.41225	15.56054	20.82476	1.26254	0.79205	160.24961	158.57781	60.1729	0.33158	 	9.268330354E8	 	5.65126E-9	 	6710.46474	31.53787	 
795.0	1.0	0.0	7.68953	7.16418	-8.43794	15.53579	20.75978	1.26059	0.79328	160.62286	158.81532	60.31939	0.33144	 	1.066940973E9	 	4.88628E-9	 	6553.00281	31.49239	 
790.0	1.0	0.0	7.69168	7.16217	-8.46356	15.51103	20.69479	1.25863	0.79451	160.99553	159.05193	60.46568	0.3313	 	1.229856256E9	 	4.21917E-9	 	6395.76736	31.44709	 
785.0	1.0	0.0	7.69383	7.16017	-8.48911	15.48627	20.62977	1.25666	0.79576	161.36762	159.28762	60.61179	0.33116	 	1.419552768E9	 	3.63817E-9	 	6238.75745	31.40198	 
780.0	1.0	0.0	7.69598	7.15818	-8.5146	15.4615	20.56474	1.25468	0.79702	161.73913	159.52241	60.75771	0.33102	 	1.640741863E9	 	3.13283E-9	 	6081.9721	31.35707	 
775.0	1.0	0.0	7.69812	7.15619	-8.54003	15.43672	20.4997	1.25269	0.79828	162.11006	159.7563	60.90344	0.33088	 	1.899017534E9	 	2.6939E-9	 	5925.41027	31.31237	 
770.0	1.0	0.0	7.70025	7.15421	-8.56539	15.41195	20.43464	1.25068	0.79957	162.48041	159.98929	61.04897	0.33074	 	2.201031791E9	 	2.31317E-9	 	5769.07089	31.26788	 
765.0	1.0	0.0	7.70238	7.15223	-8.59069	15.38716	20.36956	1.24866	0.80086	162.85019	160.22139	61.19432	0.3306	 	2.554706864E9	 	1.98338E-9	 	5612.95285	31.22361	 
760.0	1.0	0.0	7.70451	7.15025	-8.61592	15.36237	20.30446	1.24663	0.80216	163.21939	160.4526	61.33948	0.33046	 	2.969492394E9	 	1.69812E-9	 	5457.05502	31.17957	 
755.0	1.0	0.0	7.70663	7.14828	-8.64109	15.33758	20.23935	1.24459	0.80348	163.58801	160.68291	61.48446	0.33032	 	3.456677646E9	 	1.45172E-9	 	5301.3762	31.13577	 
750.0	1.0	0.0	7.70875	7.14632	-8.66619	15.31278	20.17422	1.24254	0.80481	163.95606	160.91234	61.62924	0.33018	 	4.029771154E9	 	1.23921E-9	 	5145.91513	31.09221	 
745.0	1.0	0.0	7.71086	7.14436	-8.69123	15.28797	20.10907	1.24047	0.80615	164.32353	161.14089	61.77383	0.33004	 	4.704963137E9	 	1.05619E-9	 	4990.67054	31.04892	 
740.0	1.0	0.0	7.71297	7.1424	-8.71621	15.26316	20.0439	1.23839	0.8075	164.69043	161.36855	61.91824	0.3299	 	5.501689709E9	 	8.98803E-10	 	4835.64107	31.00589	 
735.0	1.0	0.0	7.71508	7.14046	-8.74111	15.23835	19.97871	1.2363	0.80887	165.05675	161.59534	62.06246	0.32976	 	6.443322469E9	 	7.63663E-10	 	4680.82532	30.96315	 
730.0	1.0	0.0	7.71718	7.13851	-8.76596	15.21352	19.91351	1.2342	0.81024	165.4225	161.82126	62.20648	0.32962	 	7.558012823E9	 	6.47806E-10	 	4526.22181	30.9207	 
725.0	1.0	0.0	7.71928	7.13657	-8.79074	15.1887	19.84828	1.23208	0.81164	165.78768	162.0463	62.35032	0.32949	 	8.879727608E9	 	5.48634E-10	 	4371.829	30.87856	 
720.0	1.0	0.0	7.72137	7.13464	-8.81545	15.16387	19.78304	1.22995	0.81304	166.15228	162.27047	62.49398	0.32935	 	1.04495E10	 	4.63879E-10	 	4217.6453	30.83674	 
715.0	1.0	0.0	7.72346	7.13271	-8.8401	15.13903	19.71778	1.22781	0.81446	166.51631	162.49377	62.63744	0.32921	 	1.2317099999999998E10	 	3.91562E-10	 	4063.66901	30.79526	 
710.0	1.0	0.0	7.72554	7.13079	-8.86469	15.11419	19.65249	1.22566	0.81589	166.87977	162.71622	62.78072	0.32907	 	1.4542799999999998E10	 	3.29958E-10	 	3909.89836	30.75413	 
705.0	1.0	0.0	7.72762	7.12887	-8.8892	15.08934	19.58719	1.22349	0.81734	167.24266	162.9378	62.9238	0.32893	 	1.71998E10	 	2.77568E-10	 	3756.33151	30.71337	 
700.0	1.0	0.0	7.72969	7.12696	-8.91366	15.06449	19.52186	1.22131	0.8188	167.60497	163.15852	63.0667	0.32879	 	2.03774E10	 	2.33087E-10	 	3602.9665	30.673	 
695.0	1.0	0.0	7.73176	7.12505	-8.93805	15.03963	19.45652	1.21911	0.82027	167.96672	163.37839	63.20942	0.32865	 	2.4184299999999996E10	 	1.95387E-10	 	3449.8013	30.63304	 
690.0	1.0	0.0	7.73383	7.12314	-8.96237	15.01477	19.39115	1.2169	0.82176	168.32789	163.5974	63.35194	0.32851	 	2.8753499999999996E10	 	1.63489E-10	 	3296.83374	30.59351	 
685.0	1.0	0.0	7.73589	7.12125	-8.98663	14.9899	19.32576	1.21468	0.82326	168.6885	163.81557	63.49428	0.32838	 	3.4247899999999996E10	 	1.36548E-10	 	3144.06156	30.55444	 
680.0	1.0	0.0	7.73795	7.11935	-9.01083	14.96502	19.26035	1.21245	0.82478	169.04854	164.03289	63.63643	0.32824	 	4.0867E10	 	1.13835E-10	 	2991.48238	30.51584	 
675.0	1.0	0.0	7.74	7.11746	-9.03496	14.94015	19.19492	1.2102	0.82631	169.408	164.24936	63.77839	0.3281	 	4.885629999999999E10	 	9.47203E-11	 	2839.09368	30.47774	 
670.0	1.0	0.0	7.74205	7.11558	-9.05902	14.91526	19.12946	1.20794	0.82786	169.7669	164.46499	63.92016	0.32796	 	5.851819999999999E10	 	7.86641E-11	 	2686.89278	30.44018	 
665.0	1.0	0.0	7.74409	7.1137	-9.08302	14.89037	19.06398	1.20566	0.82942	170.12523	164.67978	64.06175	0.32782	 	7.02258E10	 	6.52022E-11	 	2534.87691	30.40317	 
660.0	1.0	0.0	7.74613	7.11183	-9.10695	14.86548	18.99848	1.20337	0.831	170.48299	164.89373	64.20315	0.32768	 	8.44406E10	 	5.3937E-11	 	2383.05043	30.3653	 
655.0	1.0	0.0	7.74817	7.10996	-9.13082	14.84058	18.93295	1.20106	0.8326	170.84019	165.10685	64.34436	0.32755	 	1.01735E11	 	4.45283E-11	 	2231.45416	30.31925	 
650.0	1.0	0.0	7.7502	7.1081	-9.15463	14.81567	18.8674	1.19874	0.83421	171.19681	165.31914	64.48539	0.32741	 	1.22818E11	 	3.66857E-11	 	2080.14225	30.26238	 
645.0	1.0	0.0	7.75222	7.10624	-9.17837	14.79076	18.80183	1.19641	0.83583	171.55288	165.5306	64.62623	0.32727	 	1.48575E11	 	3.01615E-11	 	1929.11366	30.20572	 
640.0	1.0	0.0	7.75424	7.10439	-9.20204	14.76585	18.73623	1.19406	0.83748	171.90837	165.74124	64.76688	0.32713	 	1.8011E11	 	2.47453E-11	 	1778.36736	30.14926	 
635.0	1.0	0.0	7.75626	7.10254	-9.22565	14.74093	18.6706	1.1917	0.83914	172.2633	165.95105	64.90735	0.32699	 	2.188E11	 	2.0258E-11	 	1627.90229	30.09301	 
630.0	1.0	0.0	7.75827	7.1007	-9.24919	14.716	18.60495	1.18932	0.84082	172.61766	166.16003	65.04762	0.32686	 	2.66375E11	 	1.65483E-11	 	1477.71742	30.03697	 
625.0	1.0	0.0	7.76028	7.09887	-9.27267	14.69107	18.53927	1.18692	0.84252	172.97146	166.3682	65.18772	0.32672	 	3.25006E11	 	1.34879E-11	 	1327.81148	29.98119	 
620.0	1.0	0.0	7.76228	7.09703	-9.29608	14.66613	18.47357	1.18451	0.84423	173.32469	166.57556	65.32762	0.32658	 	3.97426E11	 	1.09687E-11	 	1178.18284	29.92573	 
615.0	1.0	0.0	7.76428	7.09521	-9.31943	14.64119	18.40783	1.18209	0.84596	173.67736	166.7821	65.46734	0.32644	 	4.87085E11	 	8.89956E-12	 	1028.83078	29.87041	 
610.0	1.0	0.0	7.76627	7.09338	-9.34271	14.61624	18.34207	1.17965	0.84771	174.02947	166.98782	65.60687	0.32631	 	5.98348E11	 	7.2039E-12	 	879.75428	29.8153	 
605.0	1.0	0.0	7.76826	7.09157	-9.36593	14.59129	18.27628	1.17719	0.84948	174.38101	167.19274	65.74621	0.32617	 	7.3675E11	 	5.81749E-12	 	730.95231	29.76039	 
600.0	1.0	0.0	7.77025	7.08976	-9.38908	14.56633	18.21047	1.17472	0.85127	174.73199	167.39686	65.88537	0.32603	 	9.0933E11	 	4.68656E-12	 	582.42386	29.70569	 
595.0	1.0	0.0	7.77223	7.08795	-9.41216	14.54137	18.14462	1.17223	0.85307	175.0824	167.60016	66.02434	0.32589	 	1.12506E12	 	3.76622E-12	 	434.16792	29.65119	 
590.0	1.0	0.0	7.7742	7.08615	-9.43519	14.5164	18.07875	1.16973	0.8549	175.43225	167.80267	66.16313	0.32576	 	1.39541E12	 	3.01906E-12	 	286.18349	29.59689	 
585.0	1.0	0.0	7.77618	7.08435	-9.45814	14.49143	18.01284	1.1672	0.85675	175.78154	168.00438	66.30173	0.32562	 	1.73507E12	 	2.41398E-12	 	138.46952	29.54279	 
580.0	1.0	0.0	7.77814	7.08256	-9.48103	14.46645	17.9469	1.16467	0.85861	176.13027	168.20529	66.44014	0.32548	 	2.16292E12	 	1.92518E-12	 	-8.97495	29.48889	 
575.0	1.0	0.0	7.7801	7.08078	-9.50385	14.44147	17.88093	1.16211	0.8605	176.47844	168.40541	66.57837	0.32534	 	2.70329E12	 	1.53132E-12	 	-156.15096	29.4352	 
570.0	1.0	0.0	7.78206	7.079	-9.52661	14.41648	17.81493	1.15954	0.86241	176.82604	168.60473	66.71641	0.32521	 	3.38762E12	 	1.21478E-12	 	-303.05949	29.38171	 
565.0	1.0	0.0	7.78401	7.07722	-9.54931	14.39148	17.7489	1.15695	0.86434	177.17309	168.80327	66.85426	0.32507	 	4.25662E12	 	9.61044E-13	 	-449.70156	29.32841	 
560.0	1.0	0.0	7.78596	7.07545	-9.57193	14.36648	17.68284	1.15435	0.86629	177.51957	169.00102	66.99193	0.32493	 	5.36323E12	 	7.582E-13	 	-596.07814	29.27532	 
555.0	1.0	0.0	7.7879	7.07368	-9.5945	14.34148	17.61674	1.15173	0.86826	177.86549	169.19798	67.12941	0.3248	 	6.7764E12	 	5.96481E-13	 	-742.19025	29.22242	 
550.0	1.0	0.0	7.78984	7.07192	-9.61699	14.31647	17.5506	1.14909	0.87026	178.21086	169.39416	67.26671	0.32466	 	8.5863E12	 	4.67907E-13	 	-888.03887	29.16972	 
545.0	1.0	0.0	7.79178	7.07017	-9.63942	14.29145	17.48444	1.14643	0.87227	178.55566	169.58957	67.40382	0.32452	 	1.09111E13	 	3.65974E-13	 	-1033.62498	29.11722	 
540.0	1.0	0.0	7.79371	7.06842	-9.66179	14.26643	17.41823	1.14375	0.87431	178.8999	169.78419	67.54075	0.32439	 	1.39063E13	 	2.85394E-13	 	-1178.94958	29.06492	 
535.0	1.0	0.0	7.79563	7.06667	-9.68409	14.2414	17.35199	1.14106	0.87638	179.24359	169.97804	67.67748	0.32425	 	1.7777E13	 	2.21881E-13	 	-1324.01363	29.01281	 
530.0	1.0	0.0	7.79755	7.06493	-9.70632	14.21637	17.28572	1.13835	0.87847	179.58671	170.17111	67.81404	0.32411	 	2.27947E13	 	1.71969E-13	 	-1468.81814	28.9609	 
525.0	1.0	0.0	7.79946	7.0632	-9.72849	14.19134	17.2194	1.13562	0.88058	179.92928	170.36342	67.95041	0.32398	 	2.93198E13	 	1.32865E-13	 	-1613.36406	28.90918	 
520.0	1.0	0.0	7.80137	7.06147	-9.75059	14.1663	17.15305	1.13287	0.88271	180.27129	170.55495	68.08659	0.32384	 	3.78327E13	 	1.02323E-13	 	-1757.65238	28.85766	 
515.0	1.0	0.0	7.80328	7.05975	-9.77263	14.14125	17.08666	1.1301	0.88488	180.61274	170.74572	68.22258	0.3237	 	4.89754E13	 	7.85449E-14	 	-1901.68405	28.80633	 
510.0	1.0	0.0	7.80518	7.05803	-9.7946	14.1162	17.02023	1.12732	0.88706	180.95364	170.93573	68.35839	0.32357	 	6.36092E13	 	6.00914E-14	 	-2045.46004	28.7552	 
505.0	1.0	0.0	7.80708	7.05631	-9.8165	14.09114	16.95375	1.12451	0.88928	181.29397	171.12497	68.49402	0.32343	 	8.28936E13	 	4.58173E-14	 	-2188.98133	28.70426	 
500.0	1.0	0.0	7.80897	7.0546	-9.83834	14.06608	16.88724	1.12169	0.89152	181.63375	171.31345	68.62946	0.32329	 	1.08395E14	 	3.4813E-14	 	-2332.24885	28.6535	 
495.0	1.0	0.0	7.81085	7.0529	-9.86012	14.04101	16.82069	1.11884	0.89378	181.97297	171.50118	68.76471	0.32316	 	1.42238E14	 	2.63584E-14	 	-2475.26357	28.60294	 
490.0	1.0	0.0	7.81273	7.0512	-9.88183	14.01593	16.75409	1.11598	0.89608	182.31164	171.68815	68.89978	0.32302	 	1.87312E14	 	1.98852E-14	 	-2618.02644	28.55257	 
485.0	1.0	0.0	7.81461	7.04951	-9.90347	13.99086	16.68745	1.11309	0.8984	182.64975	171.87437	69.03466	0.32288	 	2.47568E14	 	1.49468E-14	 	-2760.5384	28.50239	 
480.0	1.0	0.0	7.81648	7.04782	-9.92504	13.96577	16.62076	1.11019	0.90075	182.98731	172.05983	69.16936	0.32275	 	3.2842E14	 	1.11928E-14	 	-2902.80039	28.4524	 
475.0	1.0	0.0	7.81835	7.04614	-9.94655	13.94068	16.55403	1.10726	0.90313	183.3243	172.24455	69.30387	0.32261	 	4.37328E14	 	8.34965E-15	 	-3044.81333	28.40259	 
470.0	1.0	0.0	7.82021	7.04446	-9.968	13.91559	16.48725	1.10432	0.90554	183.66075	172.42852	69.43819	0.32248	 	5.84599E14	 	6.20448E-15	 	-3186.57819	28.35297	 
465.0	1.0	0.0	7.82207	7.04279	-9.98938	13.89049	16.42042	1.10135	0.90797	183.99664	172.61175	69.57233	0.32234	 	7.84542E14	 	4.59214E-15	 	-3328.09587	28.30353	 
460.0	1.0	0.0	7.82392	7.04112	-10.01069	13.86538	16.35355	1.09837	0.91044	184.33197	172.79423	69.70629	0.3222	 	1.0571E15	 	3.38503E-15	 	-3469.3673	28.25429	 
455.0	1.0	0.0	7.82577	7.03946	-10.03194	13.84027	16.28662	1.09536	0.91294	184.66675	172.97597	69.84006	0.32207	 	1.4302E15	 	2.48491E-15	 	-3610.39339	28.20522	 
450.0	1.0	0.0	7.82761	7.0378	-10.05312	13.81516	16.21965	1.09233	0.91548	185.00097	173.15698	69.97364	0.32193	 	1.94308E15	 	1.81645E-15	 	-3751.17505	28.15633	 
445.0	1.0	0.0	7.82945	7.03615	-10.07423	13.79004	16.15262	1.08928	0.91804	185.33465	173.33725	70.10704	0.3218	 	2.65118E15	 	1.32209E-15	 	-3891.7132	28.10763	 
440.0	1.0	0.0	7.83128	7.0345	-10.09528	13.76491	16.08554	1.0862	0.92064	185.66776	173.51678	70.24026	0.32166	 	3.63312E15	 	9.5805E-16	 	-4032.00872	28.0591	 
435.0	1.0	0.0	7.83311	7.03286	-10.11626	13.73978	16.01841	1.08311	0.92327	186.00033	173.69559	70.37329	0.32153	 	5.00095E15	 	6.9113E-16	 	-4172.06253	28.01076	 
430.0	1.0	0.0	7.83494	7.03122	-10.13718	13.71465	15.95122	1.07999	0.92593	186.33234	173.87366	70.50613	0.32139	 	6.9151E15	 	4.96291E-16	 	-4311.87551	27.96259	 
425.0	1.0	0.0	7.83675	7.02959	-10.15803	13.6895	15.88398	1.07685	0.92863	186.6638	174.05101	70.63879	0.32126	 	9.6064E15	 	3.54711E-16	 	-4451.44841	27.91458	 
420.0	1.0	0.0	7.83857	7.02796	-10.17881	13.66436	15.81668	1.07369	0.93137	186.9947	174.22763	70.77126	0.32112	 	1.34086E16	 	2.52308E-16	 	-4590.78231	27.86678	 
415.0	1.0	0.0	7.84038	7.02634	-10.19953	13.6392	15.74932	1.0705	0.93414	187.32505	174.40353	70.90355	0.32099	 	1.88066E16	 	1.78591E-16	 	-4729.87763	27.81906	 
410.0	1.0	0.0	7.84218	7.02473	-10.22018	13.61405	15.6819	1.06729	0.93695	187.65485	174.5787	71.03565	0.32085	 	2.65086E16	 	1.25781E-16	 	-4868.73462	27.7714	 
405.0	1.0	0.0	7.84398	7.02312	-10.24077	13.58888	15.61441	1.06406	0.9398	187.9841	174.75316	71.16757	0.32071	 	3.75545E16	 	8.81355E-17	 	-5007.35353	27.72378	 
400.0	1.0	0.0	7.84577	7.02151	-10.26129	13.56372	15.54687	1.0608	0.94268	188.3128	174.9269	71.2993	0.32058	 	5.34791E16	 	6.14348E-17	 	-5145.73461	27.67622	 
395.0	1.0	0.0	7.84756	7.01991	-10.28174	13.53854	15.47926	1.05752	0.94561	188.64094	175.09992	71.43085	0.32044	 	7.65605E16	 	4.25947E-17	 	-5283.87808	27.6287	 
390.0	1.0	0.0	7.84934	7.01832	-10.30213	13.51337	15.41159	1.05422	0.94857	188.96854	175.27223	71.56221	0.32031	 	1.10198E17	 	2.93713E-17	 	-5421.78419	27.58122	 
385.0	1.0	0.0	7.85112	7.01673	-10.32245	13.48818	15.34385	1.05089	0.95158	189.29558	175.44383	71.69339	0.32017	 	1.59495E17	 	2.01402E-17	 	-5559.45314	27.53379	 
380.0	1.0	0.0	7.8529	7.01514	-10.3427	13.46299	15.27604	1.04753	0.95462	189.62207	175.61472	71.82438	0.32004	 	2.32156E17	 	1.37315E-17	 	-5696.88515	27.4864	 
375.0	1.0	0.0	7.85466	7.01356	-10.36289	13.4378	15.20816	1.04415	0.95771	189.94801	175.7849	71.95519	0.3199	 	3.39881E17	 	9.30754E-18	 	-5834.0804	27.43905	 
370.0	1.0	0.0	7.85643	7.01199	-10.38301	13.4126	15.14021	1.04075	0.96085	190.2734	175.95437	72.08581	0.31977	 	5.00551E17	 	6.2712E-18	 	-5971.03911	27.39174	 
365.0	1.0	0.0	7.85819	7.01042	-10.40307	13.38739	15.07218	1.03732	0.96402	190.59824	176.12314	72.21625	0.31964	 	7.41659E17	 	4.19957E-18	 	-6107.76145	27.34447	 
360.0	1.0	0.0	7.85994	7.00885	-10.42306	13.36218	15.00408	1.03386	0.96725	190.92253	176.29121	72.3465	0.3195	 	1.10575E18	 	2.79471E-18	 	-6244.24759	27.29723	 
355.0	1.0	0.0	7.86169	7.0073	-10.44298	13.33697	14.9359	1.03038	0.97051	191.24627	176.45858	72.47657	0.31937	 	1.65909E18	 	1.8479E-18	 	-6380.49768	27.25002	 
350.0	1.0	0.0	7.86343	7.00574	-10.46284	13.31175	14.86765	1.02687	0.97383	191.56946	176.62526	72.60645	0.31923	 	2.5056E18	 	1.21386E-18	 	-6516.5119	27.20284	 
345.0	1.0	0.0	7.86517	7.00419	-10.48263	13.28652	14.79931	1.02334	0.9772	191.89211	176.79123	72.73615	0.3191	 	3.80935E18	 	7.92009E-19	 	-6652.29038	27.15569	 
340.0	1.0	0.0	7.8669	7.00265	-10.50235	13.26129	14.73089	1.01977	0.98061	192.2142	176.95651	72.86566	0.31896	 	5.83117E18	 	5.13213E-19	 	-6787.83322	27.10857	 
335.0	1.0	0.0	7.86863	7.00111	-10.52201	13.23606	14.66238	1.01618	0.98407	192.53574	177.1211	72.99499	0.31883	 	8.9888E18	 	3.30214E-19	 	-6923.14058	27.06147	 
330.0	1.0	0.0	7.87036	6.99958	-10.5416	13.21081	14.59379	1.01257	0.98759	192.85674	177.285	73.12413	0.31869	 	1.39561E19	 	2.10935E-19	 	-7058.21254	27.01439	 
325.0	1.0	0.0	7.87207	6.99805	-10.56112	13.18557	14.5251	1.00892	0.99116	193.17718	177.44822	73.25309	0.31856	 	2.18283E19	 	1.33745E-19	 	-7193.04919	26.96733	 
320.0	1.0	0.0	7.87379	6.99653	-10.58058	13.16032	14.45633	1.00525	0.99478	193.49708	177.61074	73.38186	0.31843	 	3.43994E19	 	8.41589E-20	 	-7327.65062	26.92028	 
315.0	1.0	0.0	7.87549	6.99501	-10.59997	13.13506	14.38746	1.00154	0.99846	193.81643	177.77258	73.51045	0.31829	 	5.46312E19	 	5.25453E-20	 	-7462.01688	26.87325	 
310.0	1.0	0.0	7.8772	6.9935	-10.61929	13.1098	14.31849	0.99781	1.00219	194.13524	177.93374	73.63885	0.31816	 	8.74531E19	 	3.25456E-20	 	-7596.14802	26.82623	 
305.0	1.0	0.0	7.87889	6.99199	-10.63855	13.08453	14.24942	0.99405	1.00598	194.45349	178.09421	73.76707	0.31802	 	1.4113799999999998E20	 	1.99932E-20	 	-7730.04408	26.77921	 
300.0	1.0	0.0	7.88059	6.99049	-10.65774	13.05926	14.18026	0.99026	1.00983	194.7712	178.25401	73.8951	0.31789	 	2.2968899999999997E20	 	1.21791E-20	 	-7863.70509	26.7322	 
295.0	1.0	0.0	7.88227	6.989	-10.67687	13.03398	14.11098	0.98644	1.01374	195.08836	178.41313	74.02295	0.31776	 	3.77014E20	 	7.35515E-21	 	-7997.13101	26.68519	 
290.0	1.0	0.0	7.88396	6.9875	-10.69593	13.00869	14.0416	0.98259	1.01772	195.40497	178.57157	74.15061	0.31762	 	6.243059999999999E20	 	4.40264E-21	 	-8130.32187	26.63817	 
285.0	1.0	0.0	7.88563	6.98602	-10.71492	12.9834	13.97211	0.97871	1.02175	195.72104	178.72934	74.27809	0.31749	 	1.0431900000000001E21	 	2.61141E-21	 	-8263.2776	26.59115	 
280.0	1.0	0.0	7.8873	6.98454	-10.73384	12.95811	13.9025	0.9748	1.02585	196.03656	178.88644	74.40538	0.31735	 	1.75937E21	 	1.53452E-21	 	-8395.99817	26.54411	 
275.0	1.0	0.0	7.88897	6.98306	-10.7527	12.93281	13.83278	0.97086	1.03002	196.35153	179.04287	74.53249	0.31722	 	2.99566E21	 	8.93085E-22	 	-8528.48349	26.49706	 
270.0	1.0	0.0	7.89063	6.98159	-10.77149	12.90751	13.76294	0.96688	1.03425	196.66596	179.19863	74.65941	0.31709	 	5.15092E21	 	5.14661E-22	 	-8660.73347	26.45	 
265.0	1.0	0.0	7.89229	6.98013	-10.79021	12.8822	13.69297	0.96288	1.03855	196.97984	179.35372	74.78615	0.31695	 	8.94645E21	 	2.93589E-22	 	-8792.748	26.4029	 
260.0	1.0	0.0	7.89394	6.97867	-10.80887	12.85688	13.62287	0.95884	1.04293	197.29317	179.50815	74.9127	0.31682	 	1.57005E22	 	1.65738E-22	 	-8924.52693	26.35579	 
255.0	1.0	0.0	7.89559	6.97721	-10.82746	12.83156	13.55265	0.95477	1.04737	197.60596	179.66192	75.03907	0.31669	 	2.78485E22	 	9.25642E-23	 	-9056.07011	26.30863	 
250.0	1.0	0.0	7.89723	6.97576	-10.84599	12.80624	13.48229	0.95067	1.05189	197.91821	179.81502	75.16525	0.31655	 	4.99398E22	 	5.11289E-23	 	-9187.37734	26.26145	 
245.0	1.0	0.0	7.89886	6.97432	-10.86444	12.78091	13.41179	0.94653	1.05649	198.2299	179.96747	75.29125	0.31642	 	9.057049999999999E22	 	2.79226E-23	 	-9318.44841	26.21421	 
240.0	1.0	0.0	7.90049	6.97288	-10.88283	12.75557	13.34114	0.94236	1.06116	198.54106	180.11925	75.41706	0.31629	 	1.6617499999999998E23	 	1.50718E-23	 	-9449.28308	26.16693	 
235.0	1.0	0.0	7.90212	6.97145	-10.90116	12.73023	13.27035	0.93816	1.06592	198.85166	180.27038	75.54269	0.31615	 	3.0855399999999995E23	 	8.03799E-24	 	-9579.88109	26.1196	 
230.0	1.0	0.0	7.90374	6.97002	-10.91941	12.70488	13.19941	0.93392	1.07076	199.16173	180.42086	75.66813	0.31602	 	5.80014E23	 	4.23395E-24	 	-9710.24213	26.07221	 
225.0	1.0	0.0	7.90535	6.96859	-10.9376	12.67953	13.12831	0.92965	1.07568	199.47124	180.57068	75.79339	0.31589	 	1.1042E24	 	2.2019E-24	 	-9840.36587	26.02475	 
220.0	1.0	0.0	7.90696	6.96718	-10.95572	12.65417	13.05704	0.92534	1.08069	199.78022	180.71986	75.91846	0.31576	 	2.1297500000000001E24	 	1.13015E-24	 	-9970.25195	25.97722	 
215.0	1.0	0.0	7.90856	6.96576	-10.97378	12.62881	12.98561	0.92099	1.08578	200.08865	180.86838	76.04335	0.31562	 	4.16344E24	 	5.72252E-25	 	-10099.89996	25.9296	 
210.0	1.0	0.0	7.91016	6.96436	-10.99177	12.60344	12.91401	0.91662	1.09097	200.39653	181.01625	76.16805	0.31549	 	8.25281E24	 	2.85737E-25	 	-10229.30948	25.8819	 
205.0	1.0	0.0	7.91175	6.96295	-11.00969	12.57807	12.84222	0.9122	1.09625	200.70387	181.16348	76.29257	0.31536	 	1.65946E25	 	1.40632E-25	 	-10358.48002	25.83411	 
200.0	1.0	0.0	7.91334	6.96156	-11.02754	12.55269	12.77026	0.90775	1.10163	201.01067	181.31007	76.4169	0.31522	 	3.3864300000000003E25	 	6.81937E-26	 	-10487.41108	25.78621	 
195.0	1.0	0.0	7.91492	6.96017	-11.04533	12.52731	12.6981	0.90326	1.1071	201.31692	181.45601	76.54105	0.31509	 	7.01672E25	 	3.2564E-26	 	-10616.1021	25.7382	 
190.0	1.0	0.0	7.9165	6.95878	-11.06305	12.50192	12.62574	0.89873	1.11268	201.62263	181.60131	76.66501	0.31496	 	1.4769200000000001E26	 	1.53056E-26	 	-10744.55248	25.69008	 
185.0	1.0	0.0	7.91807	6.9574	-11.0807	12.47653	12.55319	0.89417	1.11836	201.92779	181.74598	76.78879	0.31483	 	3.15964E26	 	7.07713E-27	 	-10872.76156	25.64182	 
180.0	1.0	0.0	7.91964	6.95602	-11.09829	12.45113	12.48042	0.88957	1.12414	202.23242	181.89	76.91238	0.31469	 	6.873920000000001E26	 	3.21754E-27	 	-11000.72865	25.59342	 
175.0	1.0	0.0	7.9212	6.95465	-11.11581	12.42572	12.40743	0.88493	1.13004	202.5365	182.03339	77.03579	0.31456	 	1.52161E27	 	1.43749E-27	 	-11128.45301	25.54487	 
170.0	1.0	0.0	7.92275	6.95329	-11.13326	12.40031	12.33421	0.88025	1.13604	202.84003	182.17615	77.15901	0.31443	 	3.4291899999999997E27	 	6.30733E-28	 	-11255.93381	25.49616	 
165.0	1.0	0.0	7.9243	6.95192	-11.15064	12.3749	12.26077	0.87553	1.14216	203.14303	182.31827	77.28205	0.3143	 	7.872869999999999E27	 	2.71629E-28	 	-11383.1702	25.44728	 
160.0	1.0	0.0	7.92585	6.95057	-11.16796	12.34948	12.18707	0.87077	1.1484	203.44548	182.45976	77.4049	0.31416	 	1.8425000000000001E28	 	1.14741E-28	 	-11510.16124	25.39821	 
155.0	1.0	0.0	7.92739	6.94922	-11.18521	12.32405	12.11313	0.86598	1.15477	203.74738	182.60062	77.52757	0.31403	 	4.3985200000000005E28	 	4.7509E-29	 	-11636.90595	25.34894	 
150.0	1.0	0.0	7.92892	6.94788	-11.20239	12.29862	12.03893	0.86114	1.16125	204.04875	182.74086	77.65005	0.3139	 	1.07186E29	 	1.92684E-29	 	-11763.40327	25.29946	 
145.0	1.0	0.0	7.93045	6.94654	-11.21951	12.27319	11.96445	0.85626	1.16787	204.34957	182.88046	77.77234	0.31377	 	2.66819E29	 	7.64895E-30	 	-11889.65205	25.24976	 
140.0	1.0	0.0	7.93197	6.9452	-11.23656	12.24774	11.88969	0.85134	1.17462	204.64985	183.01945	77.89445	0.31364	 	6.79023E29	 	2.96968E-30	 	-12015.65109	25.19981	 
135.0	1.0	0.0	7.93349	6.94387	-11.25354	12.2223	11.81464	0.84638	1.1815	204.94959	183.15781	78.01638	0.3135	 	1.7680399999999998E30	 	1.12672E-30	 	-12141.39907	25.1496	 
130.0	1.0	0.0	7.935	6.94255	-11.27045	12.19685	11.73929	0.84138	1.18853	205.24879	183.29554	78.13812	0.31337	 	4.7141899999999996E30	 	4.17394E-31	 	-12266.89464	25.09911	 
125.0	1.0	0.0	7.93651	6.94123	-11.2873	12.17139	11.66361	0.83633	1.19569	205.54745	183.43266	78.25967	0.31324	 	1.2883099999999998E31	 	1.50839E-31	 	-12392.13629	25.04833	 
120.0	1.0	0.0	7.93801	6.93992	-11.30408	12.14593	11.58761	0.83125	1.20301	205.84556	183.56916	78.38104	0.31311	 	3.61193E31	 	5.31259E-32	 	-12517.12246	24.99723	 
115.0	1.0	0.0	7.93951	6.93861	-11.32079	12.12046	11.51127	0.82612	1.21048	206.14313	183.70504	78.50223	0.31298	 	1.0399E32	 	1.82177E-32	 	-12641.85146	24.9458	 
110.0	1.0	0.0	7.941	6.93731	-11.33743	12.09499	11.43457	0.82095	1.21811	206.44017	183.84031	78.62323	0.31284	 	3.07774E32	 	6.07608E-33	 	-12766.32151	24.89401	 
105.0	1.0	0.0	7.94248	6.93601	-11.35401	12.06951	11.35749	0.81573	1.22589	206.73666	183.97497	78.74404	0.31271	 	9.37418E32	 	1.96887E-33	 	-12890.53068	24.84183	 
100.0	1.0	0.0	7.94396	6.93472	-11.37052	12.04403	11.28003	0.81047	1.23385	207.03261	184.10901	78.86467	0.31258	 	2.94169E33	 	6.19117E-34	 	-13014.47693	24.78925	 
95.0	1.0	0.0	7.94544	6.93343	-11.38696	12.01854	11.20216	0.80517	1.24197	207.32802	184.24244	78.98511	0.31245	 	9.52252E33	 	1.88695E-34	 	-13138.15808	24.73623	 
90.0	1.0	0.0	7.94691	6.93215	-11.40333	11.99304	11.12387	0.79983	1.25027	207.62288	184.37526	79.10537	0.31232	 	3.18387E34	 	5.56696E-35	 	-13261.57181	24.68275	 
85.0	1.0	0.0	7.94837	6.93088	-11.41964	11.96754	11.04514	0.79444	1.25875	207.91721	184.50747	79.22544	0.31219	 	1.10102E35	 	1.58766E-35	 	-13384.71564	24.62877	 
80.0	1.0	0.0	7.94983	6.92961	-11.43588	11.94204	10.96594	0.789	1.26742	208.211	184.63908	79.34533	0.31206	 	3.94359E35	 	4.37073E-36	 	-13507.58691	24.57425	 
75.0	1.0	0.0	7.95128	6.92834	-11.45205	11.91653	10.88626	0.78353	1.27628	208.50425	184.77008	79.46503	0.31192	 	1.4652199999999998E36	 	1.15971E-36	 	-13630.1828	24.51918	 
70.0	1.0	0.0	7.95272	6.92708	-11.46816	11.89102	10.80608	0.778	1.28534	208.79695	184.90048	79.58454	0.31179	 	5.65625E36	 	2.96103E-37	 	-13752.5003	24.4635	 
65.0	1.0	0.0	7.95417	6.92583	-11.48419	11.8655	10.72536	0.77244	1.2946	209.08912	185.03028	79.70387	0.31166	 	2.27248E37	 	7.26266E-38	 	-13874.53617	24.40717	 
60.0	1.0	0.0	7.9556	6.92458	-11.50016	11.83997	10.64408	0.76683	1.30407	209.38074	185.15948	79.82302	0.31153	 	9.519219999999999E37	 	1.70815E-38	 	-13996.28698	24.35016	 
55.0	1.0	0.0	7.95703	6.92333	-11.51606	11.81444	10.56223	0.76117	1.31376	209.67183	185.28808	79.94197	0.3114	 	4.1654399999999994E38	 	3.84502E-39	 	-14117.74902	24.29241	 
50.0	1.0	0.0	7.95845	6.92209	-11.5319	11.78891	10.47975	0.75547	1.32367	209.96238	185.41608	80.06075	0.31127	 	1.9079100000000003E39	 	8.26673E-40	 	-14238.91837	24.23387	 
45.0	1.0	0.0	7.95987	6.92086	-11.54766	11.76336	10.39663	0.74973	1.33381	210.25239	185.54349	80.17933	0.31114	 	9.167E39	 	1.69391E-40	 	-14359.79081	24.17449	 
40.0	1.0	0.0	7.96129	6.91963	-11.56336	11.73782	10.31284	0.74394	1.34419	210.54185	185.6703	80.29774	0.31101	 	4.6309E40	 	3.30046E-41	 	-14480.3618	24.1142	 
35.0	1.0	0.0	7.96269	6.91841	-11.57899	11.71227	10.22832	0.73811	1.3548	210.83078	185.79652	80.41595	0.31088	 	2.46565E41	 	6.09983E-42	 	-14600.62651	24.05294	 
30.0	1.0	0.0	7.9641	6.91719	-11.59455	11.68671	10.14306	0.73224	1.36567	211.11917	185.92215	80.53398	0.31075	 	1.3872499999999999E42	 	1.06657E-42	 	-14720.57974	23.99065	 
25.0	1.0	0.0	7.96549	6.91598	-11.61005	 	10.057	0.72633	1.37679	211.40702	186.04719	80.65183	0.31062	 	8.270659999999999E42	 	1.75947E-43	 	-14840.21593	 	 
