T (C)	Fraction solid (wt)-TOTAL	Fraction liquid (wt)-LIQUID	Density (g/(cm)^3)-TOTAL	Molar volume (cm^3)-TOTAL	Volume change (%)-  	Average expansion coeff. (10e-6 1/K)-  	Thermal conductivity (W/(m*K))-TOTAL	Electrical resistivity (10e-6 Ohm*m)-TOTAL	Electrical conductivity (10e6 1/(Ohm*m))-TOTAL	Young's modulus (GPa)-TOTAL	Bulk modulus (GPa)-TOTAL	Shear modulus(GPa)-TOTAL	Poisson's ratio-TOTAL	Liquid viscosity (mPa s)-  	Total viscosity (mPa s)-  	Liquid diffusivity (10e-9 (m^2)/s)-  	Total diffusivity (10e-9 (m^2)/s)-  	Surface Tension (mN/m)-  	Enthalpy (J/mole)-TOTAL	Specific heat (J/(mole K))-TOTAL	Latent heat (J/mole)-TOTAL
1400.0	0.0	1.0	7.03265	7.85188	0.0	31.45887	28.14958	1.45623	0.68671	0.0	121.80592	0.0	0.5	6.97661	6.97661	1.17051	1.17051	1736.32741	45882.874	 	0.0
1395.0	0.0	1.0	7.03657	7.8475	-0.0558239	31.42024	28.08083	1.45543	0.68708	0.0	121.95575	0.0	0.5	7.05179	7.05179	1.15458	1.15458	1738.5773	45678.782	40.8184	0.0
1390.0	0.0	1.0	7.04049	7.84313	-0.11149	31.38176	28.01208	1.45463	0.68746	0.0	122.10557	0.0	0.5	7.12823	7.12823	1.13877	1.13877	1740.83855	45475.159	40.7246	0.0
1385.0	0.0	1.0	7.04441	7.83877	-0.16699	31.34344	27.94333	1.45382	0.68784	0.0	122.2554	0.0	0.5	7.20597	7.20597	1.1231	1.1231	1743.11097	45272.002	40.6314	0.0
1380.0	0.0	1.0	7.04832	7.83442	-0.22234	31.30528	27.87458	1.45301	0.68822	0.0	122.40522	0.0	0.5	7.28503	7.28503	1.10756	1.10756	1745.39437	45069.309	40.5386	0.0
1375.0	0.0	1.0	7.05222	7.83009	-0.27752	31.26729	27.80583	1.4522	0.68861	0.0	122.55505	0.0	0.5	7.36545	7.36545	1.09215	1.09215	1747.68854	44867.077	40.4464	0.0
1370.0	0.0	1.0	7.05611	7.82577	-0.33255	31.22946	27.73708	1.45138	0.689	0.0	122.70487	0.0	0.5	7.44726	7.44726	1.07688	1.07688	1749.99325	44665.303	40.3548	0.0
1365.0	0.0	1.0	7.06	7.82146	-0.38741	31.1918	27.66833	1.45056	0.68939	0.0	122.85469	0.0	0.5	7.53048	7.53048	1.06174	1.06174	1752.30827	44463.986	40.2634	0.0
1360.0	0.0	1.0	7.06388	7.81717	-0.44211	31.1543	27.59958	1.44974	0.68978	0.0	123.00452	0.0	0.5	7.61515	7.61515	1.04673	1.04673	1754.63337	44263.121	40.173	0.0
1355.0	0.0	1.0	7.06775	7.81288	-0.49666	31.11698	27.53083	1.44891	0.69017	0.0	123.15434	0.0	0.5	7.7013	7.7013	1.03185	1.03185	1756.96828	44062.708	40.0826	0.0
1350.0	0.0	1.0	7.07161	7.80861	-0.55104	31.07983	27.46208	1.44808	0.69057	0.0	123.30417	0.0	0.5	7.78896	7.78896	1.0171	1.0171	1759.31275	43862.743	39.993	0.0
1345.0	0.0	1.0	7.07547	7.80436	-0.60527	31.04286	27.39333	1.44724	0.69097	0.0	123.45399	0.0	0.5	7.87818	7.87818	1.00249	1.00249	1761.66651	43663.224	39.9038	0.0
1340.0	0.0	1.0	7.07932	7.80011	-0.65934	31.00606	27.32458	1.4464	0.69137	0.0	123.60381	0.0	0.5	7.96898	7.96898	0.988	0.988	1764.02928	43464.148	39.8152	0.0
1335.0	0.0	1.0	7.08317	7.79588	-0.71324	30.96944	27.25583	1.44555	0.69178	0.0	123.75364	0.0	0.5	8.06139	8.06139	0.97365	0.97365	1766.40077	43265.513	39.727	0.0
1330.9	0.0	1.0	7.08631	7.79241	-0.75737	30.93951	27.1994	1.44485	0.69211	0.0	123.87662	0.0	0.5	8.1385	8.1385	0.96196	0.96196	1768.35377	43102.791	39.64604	0.0
1330.0	0.02685	0.97315	7.09393	7.78407	-0.86367	30.654	27.26548	1.44055	0.69418	4.35786E-5	123.75305	1.45604E-5	0.49647	8.1558	8.46412	0.95939	0.92444	1767.96837	42695.067	455.2371	372.248
1325.0	0.16326	0.83674	7.13296	7.74147	-1.40616	29.20039	27.60304	1.41849	0.70497	0.0612412	123.15954	0.020712	0.4784	8.2543	29.52162	0.94498	0.26422	1765.86835	40615.317	415.95	2254.237
1320.0	0.2735	0.7265	7.16522	7.70663	-1.84988	28.02279	27.87369	1.40032	0.71412	0.49331	122.75801	0.16853	0.46359	8.35555	172.65368	0.93061	0.0450368	1763.94338	38907.151	341.6332	3765.078
1315.0	0.36386	0.63614	7.19227	7.67764	-2.21906	27.05365	28.09293	1.38503	0.722	1.57585	122.50321	0.54291	0.45131	8.45974	546.5842	0.91627	0.0141815	1762.19981	37481.067	285.2168	4994.267
1310.0	0.43888	0.56112	7.21526	7.65316	-2.53091	26.24499	28.27138	1.37196	0.72888	3.39243	122.36266	1.17712	0.44099	8.56702	1210.36179	0.90194	0.00638401	1760.64177	36272.334	241.7466	6006.535
1305.0	0.50188	0.49812	7.23504	7.63227	-2.79694	25.56482	28.4168	1.36063	0.73496	5.8897	122.31321	2.05612	0.43224	8.67769	2184.16337	0.88763	0.00352655	1759.26863	35233.379	207.791	6849.453
1300.0	0.55533	0.44467	7.25224	7.61418	-3.02732	24.98461	28.53479	1.35071	0.74035	8.94912	122.33531	3.14062	0.42474	8.79192	3466.33024	0.87332	0.00221507	1758.08238	34328.726	180.9306	7558.492
1295.0	0.60111	0.39889	7.26734	7.59839	-3.22844	24.48662	28.62999	1.34194	0.74519	12.43567	122.41606	4.38414	0.41826	8.90992	5046.54114	0.85901	0.00151663	1757.0806	33531.571	159.431	8160.456
1294.87	0.60219	0.39781	7.2677	7.59801	-3.23323	24.47491	28.63206	1.34173	0.74531	12.52804	122.41888	4.41718	0.4181	8.91301	5090.39235	0.85865	0.00150344	1757.05753	33512.491	 	8174.497
1290.0	0.65897	0.34103	7.28618	7.57874	-3.47873	23.83829	28.75819	1.3317	0.75092	18.26436	122.63239	6.47732	0.40987	9.10275	7754.27012	0.83814	9.8389E-4	1757.066	32544.266	197.461	8952.991
1287.79	0.68027	0.31973	7.29329	7.57133	-3.57308	23.59856	28.80164	1.32781	0.75312	20.88202	122.74055	7.42206	0.40675	9.19036	9055.24886	0.82898	8.41344E-4	1757.11678	32168.247	 	9243.228
1285.0	0.73465	0.26535	7.30965	7.55433	-3.78961	23.00371	28.89698	1.32106	0.75697	28.76682	122.97372	10.28322	0.39873	9.31239	12783.06467	0.81665	5.94923E-4	1758.73801	31246.421	259.569	10056.483
1280.0	0.8082	0.1918	7.33188	7.53132	-4.08267	22.21598	29.01158	1.31162	0.76242	42.94678	123.34308	15.4739	0.38772	9.52666	20076.85887	0.79572	3.77576E-4	1761.27402	29963.888	256.5066	11145.078
1276.43	0.84396	0.15604	7.34307	7.51975	-4.23002	21.83586	29.05208	1.30678	0.76524	51.59696	123.5976	18.66366	0.38228	9.67773	25088.76053	0.7815	3.01455E-4	1762.8636	29303.118	 	11667.795
1275.0	0.85562	0.14438	7.34672	7.51595	-4.27834	21.71534	29.06318	1.30508	0.76624	54.71108	123.70175	19.81577	0.38049	9.74197	27040.80578	0.77563	2.79435E-4	1763.53542	29079.608	176.856	11835.835
1270.0	0.89062	0.10938	7.35779	7.50443	-4.42507	21.35872	29.08513	1.29988	0.7693	64.96422	124.0516	23.62224	0.37506	9.96177	34066.29204	0.75606	2.2109E-4	1765.67429	28385.652	138.7912	12336.678
1265.0	0.91575	0.0842549	7.36628	7.49557	-4.53792	21.10211	29.07937	1.29592	0.77165	73.28425	124.40117	26.7248	0.37109	10.17754	40848.85815	0.73764	1.83783E-4	1767.56644	27837.532	109.624	12692.094
1260.0	0.93435	0.0656503	7.37311	7.48841	-4.62907	20.90961	29.05505	1.29279	0.77352	80.04952	124.75265	29.25612	0.36808	10.38922	47486.40748	0.72026	1.5758E-4	1769.26573	27385.003	90.5058	12952.327
1255.0	0.94849	0.0515124	7.37882	7.4824	-4.70559	20.76034	29.01795	1.29022	0.77506	85.59614	125.1068	31.33694	0.36574	10.59677	54084.7266	0.70385	1.37904E-4	1770.81115	26997.613	77.478	13147.825
1250.0	0.95947	0.0405326	7.38377	7.47717	-4.7722	20.6403	28.97173	1.28805	0.77636	90.19508	125.46409	33.06593	0.36387	10.80016	60742.48601	0.68833	1.22387E-4	1773.28183	26655.51258	68.42008	13297.859
1245.0	0.96816	0.0318423	7.38825	7.47266	-4.8297	20.54741	28.91682	1.28626	0.77745	94.05502	125.81498	34.51992	0.36233	10.99929	67599.15779	0.67365	1.09613E-4	1775.74946	26346.09681	61.88315	13415.083
1240.0	0.97515	0.0248542	7.39231	7.4685	-4.88269	20.46771	28.85824	1.28463	0.77843	97.33529	126.17201	35.75734	0.36105	11.19407	74675.2439	0.65975	9.8899E-5	1778.21584	26061.36674	56.94601	13508.07
1235.0	0.98084	0.0191558	7.39607	7.4646	-4.93236	20.39769	28.79706	1.28311	0.77936	100.15713	126.53403	36.82313	0.35998	11.38446	82043.37392	0.64657	8.97197E-5	1780.68108	25795.34945	53.20346	13582.791
1230.0	0.98555	0.0144507	7.3996	7.461	-4.97816	20.33921	28.73268	1.28172	0.7802	102.61475	126.89606	37.75253	0.35904	11.5704	89821.53023	0.63407	8.16787E-5	1783.14638	25542.91722	50.48645	13643.502
1225.0	0.98948	0.0105194	7.40291	7.45763	-5.02106	20.28931	28.6665	1.2804	0.781	104.78236	127.2615	38.57311	0.35823	11.75274	98076.53326	0.62216	7.4555E-5	1785.61028	25300.72492	48.43846	13693.297
1220.0	0.9928	0.00720443	7.40605	7.45429	-5.0636	20.24016	28.60226	1.279	0.78186	106.71223	127.63581	39.30414	0.35752	11.93166	106799.1861	0.61079	6.82374E-5	1788.07384	25067.6344	46.6181	13734.469
1215.0	0.99562	0.00438337	7.40906	7.45098	-5.10581	20.1916	28.53588	1.27768	0.78267	108.44658	128.01696	39.96145	0.35689	12.10721	116054.5788	0.59991	6.25851E-5	1790.53792	24841.91827	45.14323	13768.739
1210.0	0.99804	0.00196445	7.41198	7.44768	-5.14784	20.14324	28.47004	1.27633	0.7835	110.01955	128.40352	40.55786	0.35633	12.27939	125910.0532	0.58952	5.74925E-5	1793.00308	24622.25121	43.93341	13797.429
1205.0	1.0	0.0	7.41485	7.44441	-5.18944	20.09582	28.4041	1.27498	0.78433	111.40109	128.79267	41.08197	0.35584	 	136371.5541	 	5.29031E-5	 	24424.83052	39.48414	 
1200.0	1.0	0.0	7.41731	7.44194	-5.22088	20.08058	28.3277	1.27409	0.78487	111.87526	129.16914	41.26266	0.35565	 	146633.1877	 	4.90345E-5	 	24242.23545	36.51901	 
1198.33	1.0	0.0	7.41813	7.44112	-5.23134	20.07553	28.30224	1.2738	0.78505	112.03313	129.29422	41.32284	0.35558	 	150239.0085	 	4.78035E-5	 	24181.43964	 	 
1196.85	1.0	0.0	7.41913	7.44012	-5.24417	20.05975	28.28562	1.27326	0.78539	112.18126	129.40182	41.37963	0.35551	 	153526.3157	 	4.67326E-5	 	24119.78974	 	 
1195.0	1.0	0.0	7.42006	7.43919	-5.25602	20.0533	28.25783	1.27291	0.7856	112.35747	129.54057	41.44683	0.35544	 	157742.6822	 	4.54264E-5	 	24051.63671	38.11975	 
1190.0	1.0	0.0	7.42257	7.43667	-5.28803	20.03588	28.18257	1.27196	0.78619	112.83387	129.9149	41.62854	0.35525	 	169804.7543	 	4.20558E-5	 	23867.40602	36.84614	 
1185.0	1.0	0.0	7.42507	7.43416	-5.31996	20.01858	28.10726	1.27101	0.78677	113.30915	130.28724	41.80989	0.35505	 	182877.3562	 	3.89161E-5	 	23683.62718	36.75577	 
1180.0	1.0	0.0	7.42757	7.43166	-5.35181	20.00138	28.03192	1.27006	0.78737	113.78335	130.65762	41.99087	0.35486	 	197052.5146	 	3.59928E-5	 	23500.29545	36.66635	 
1175.0	1.0	0.0	7.43006	7.42917	-5.38359	19.98429	27.95655	1.2691	0.78796	114.25645	131.02606	42.1715	0.35466	 	212431.2902	 	3.32722E-5	 	23317.40515	36.57806	 
1170.0	1.0	0.0	7.43255	7.42668	-5.41529	19.96729	27.88114	1.26814	0.78856	114.72849	131.39257	42.35177	0.35447	 	229124.746	 	3.07416E-5	 	23134.9507	36.49089	 
1165.0	1.0	0.0	7.43504	7.4242	-5.44691	19.9504	27.80569	1.26718	0.78916	115.19945	131.75717	42.53168	0.35428	 	247254.9935	 	2.83887E-5	 	22952.92664	36.40481	 
1160.0	1.0	0.0	7.43752	7.42172	-5.47846	19.93362	27.7302	1.26621	0.78976	115.66936	132.11986	42.71125	0.35409	 	266956.3764	 	2.62022E-5	 	22771.32761	36.31981	 
1155.0	1.0	0.0	7.44	7.41925	-5.50993	19.91693	27.65468	1.26524	0.79037	116.13821	132.48068	42.89047	0.35389	 	288376.7965	 	2.41713E-5	 	22590.14832	36.23586	 
1150.0	1.0	0.0	7.44247	7.41678	-5.54133	19.90036	27.57913	1.26426	0.79098	116.60602	132.83962	43.06935	0.3537	 	311679.1689	 	2.22859E-5	 	22409.38364	36.15293	 
1145.0	1.0	0.0	7.44494	7.41432	-5.57265	19.88388	27.50354	1.26328	0.79159	117.07279	133.19672	43.24788	0.35351	 	337043.0292	 	2.05364E-5	 	22229.02852	36.07102	 
1140.0	1.0	0.0	7.4474	7.41187	-5.6039	19.86751	27.42791	1.2623	0.79221	117.53854	133.55197	43.42608	0.35332	 	364666.4173	 	1.89138E-5	 	22049.07802	35.9901	 
1135.0	1.0	0.0	7.44986	7.40942	-5.63507	19.85125	27.35225	1.26131	0.79283	118.00327	133.90539	43.60394	0.35313	 	394767.8396	 	1.74098E-5	 	21869.5273	35.91014	 
1130.0	1.0	0.0	7.45232	7.40698	-5.66617	19.8351	27.27656	1.26032	0.79345	118.46698	134.25701	43.78147	0.35294	 	427588.614	 	1.60164E-5	 	21690.3716	35.83114	 
1125.0	1.0	0.0	7.45477	7.40455	-5.69719	19.81905	27.20083	1.25932	0.79408	118.92969	134.60683	43.95867	0.35274	 	463395.3565	 	1.47261E-5	 	21511.60629	35.75306	 
1120.0	1.0	0.0	7.45722	7.40212	-5.72814	19.8031	27.12507	1.25833	0.79471	119.3914	134.95487	44.13554	0.35255	 	502482.859	 	1.3532E-5	 	21333.22684	35.67589	 
1115.0	1.0	0.0	7.45966	7.39969	-5.75901	19.78727	27.04928	1.25732	0.79534	119.85213	135.30113	44.31209	0.35236	 	545177.2556	 	1.24275E-5	 	21155.22879	35.59961	 
1110.0	1.0	0.0	7.4621	7.39727	-5.78982	19.77154	26.97345	1.25632	0.79598	120.31187	135.64564	44.48831	0.35217	 	591839.6055	 	1.14065E-5	 	20977.60781	35.5242	 
1105.0	1.0	0.0	7.46453	7.39486	-5.82055	19.75592	26.8976	1.2553	0.79662	120.77063	135.98841	44.66422	0.35198	 	642869.9132	 	1.04631E-5	 	20800.35963	35.44964	 
1101.72	1.0	0.0	7.46613	7.39328	-5.84064	19.74575	26.84789	1.25464	0.79704	121.07064	136.21202	44.77928	0.35186	 	678878.0822	 	9.88457E-6	 	20684.44614	 	 
1100.0	1.0	0.0	7.46779	7.39164	-5.86156	19.70412	26.77864	1.25631	0.79598	121.46922	136.44023	44.93465	0.35162	 	701764.077	 	9.55022E-6	 	20571.97514	45.6769	 
1095.0	1.0	0.0	7.47254	7.38694	-5.92139	19.58563	26.58134	1.26102	0.79301	122.5979	137.0833	45.37488	0.35094	 	772926.3697	 	8.63937E-6	 	20250.27812	64.3394	 
1090.0	1.0	0.0	7.47719	7.38234	-5.98	19.47033	26.39381	1.26534	0.7903	123.6884	137.70042	45.80058	0.35029	 	851887.7668	 	7.80994E-6	 	19934.89257	63.07711	 
1085.0	1.0	0.0	7.48177	7.37783	-6.03745	19.35809	26.21337	1.26938	0.78779	124.74295	138.29353	46.21259	0.34966	 	939562.9209	 	7.05519E-6	 	19625.5512	61.86827	 
1080.0	1.0	0.0	7.48625	7.37341	-6.09377	19.24878	26.03943	1.27315	0.78545	125.76359	138.86437	46.61167	0.34906	 	1036980.456	 	6.36887E-6	 	19321.99787	60.71067	 
1075.0	1.0	0.0	7.49066	7.36907	-6.14903	19.14225	25.87158	1.27668	0.78328	126.75222	139.41449	46.99851	0.34847	 	1145297.938	 	5.74522E-6	 	19023.98797	59.60198	 
1070.0	1.0	0.0	7.49499	7.36481	-6.20326	19.0384	25.70947	1.27996	0.78127	127.7106	139.94528	47.37377	0.3479	 	1265819.189	 	5.17892E-6	 	18731.28503	58.54059	 
1065.0	1.0	0.0	7.49925	7.36063	-6.25652	18.9371	25.55278	1.28302	0.77941	128.64034	140.45802	47.73806	0.34736	 	1400013.796	 	4.66508E-6	 	18443.66252	57.5245	 
1060.0	1.0	0.0	7.50344	7.35652	-6.30883	18.83824	25.40118	1.28585	0.77769	129.54298	140.95383	48.09196	0.34683	 	1549539.483	 	4.19917E-6	 	18160.90308	56.55189	 
1055.0	1.0	0.0	7.50756	7.35248	-6.36024	18.74172	25.25438	1.28848	0.77611	130.41993	141.43378	48.43599	0.34631	 	1716267.828	 	3.77702E-6	 	17882.79802	55.62101	 
1050.0	1.0	0.0	7.51161	7.34851	-6.41079	18.64743	25.1121	1.2909	0.77465	131.27254	141.89882	48.77067	0.34581	 	1902313.301	 	3.3948E-6	 	17609.14717	54.73017	 
1045.0	1.0	0.0	7.5156	7.34461	-6.46051	18.55527	24.97407	1.29313	0.77332	132.10205	142.34982	49.09646	0.34533	 	2110067.125	 	3.04898E-6	 	17339.75838	53.87776	 
1040.0	1.0	0.0	7.51954	7.34077	-6.50943	18.46514	24.84005	1.29517	0.7721	132.90965	142.78761	49.41382	0.34486	 	2342235.391	 	2.73634E-6	 	17074.44734	53.06221	 
1035.0	1.0	0.0	7.52341	7.33699	-6.5576	18.37695	24.7098	1.29704	0.77098	133.69644	143.21292	49.72315	0.34441	 	2601883.242	 	2.4539E-6	 	16813.03723	52.28202	 
1030.0	1.0	0.0	7.52724	7.33326	-6.60504	18.29061	24.58309	1.29875	0.76997	134.46347	143.62645	50.02487	0.34397	 	2892485.544	 	2.19892E-6	 	16555.35895	51.53565	 
1025.0	1.0	0.0	7.53101	7.32959	-6.65179	18.20603	24.45971	1.30029	0.76906	135.21173	144.02885	50.31934	0.34354	 	3217984.983	 	1.96892E-6	 	16301.25023	50.82175	 
1020.0	1.0	0.0	7.53472	7.32597	-6.69786	18.12313	24.33947	1.30168	0.76824	135.94215	144.42071	50.60693	0.34312	 	3582858.859	 	1.76159E-6	 	16050.55603	50.13884	 
1015.0	1.0	0.0	7.5384	7.32241	-6.7433	18.04183	24.22219	1.30292	0.7675	136.65561	144.80259	50.88797	0.34271	 	3992196.437	 	1.57486E-6	 	15803.12804	49.4856	 
1010.0	1.0	0.0	7.54202	7.31889	-6.78812	17.96205	24.10768	1.30403	0.76685	137.35295	145.175	51.16277	0.34231	 	4451787.181	 	1.40679E-6	 	15558.82455	48.8607	 
1005.0	1.0	0.0	7.5456	7.31541	-6.83235	17.88371	23.99579	1.30501	0.76628	138.03493	145.53844	51.43164	0.34193	 	4968223.774	 	1.25565E-6	 	15317.51022	48.26287	 
1000.0	1.0	0.0	7.54914	7.31198	-6.87602	17.80676	23.88637	1.30586	0.76578	138.70232	145.89335	51.69487	0.34155	 	5549019.782	 	1.11982E-6	 	15079.05579	47.69089	 
995.0	1.0	0.0	7.55264	7.3086	-6.91915	17.73111	23.77927	1.30659	0.76535	139.3558	146.24017	51.95271	0.34118	 	6202746.509	 	9.97868E-7	 	14843.33829	47.1435	 
990.0	1.0	0.0	7.5561	7.30525	-6.96176	17.6567	23.67435	1.3072	0.76499	139.99604	146.57927	52.20543	0.34082	 	6939191.28	 	8.8845E-7	 	14610.24026	46.61961	 
985.0	1.0	0.0	7.55952	7.30195	-7.00387	17.58348	23.5715	1.30771	0.7647	140.62366	146.91104	52.45327	0.34047	 	7769540.154	 	7.90358E-7	 	14379.64968	46.11811	 
980.0	1.0	0.0	7.5629	7.29868	-7.0455	17.51137	23.4706	1.30811	0.76446	141.23926	147.23583	52.69645	0.34012	 	8706590.4	 	7.02492E-7	 	14151.46032	45.63787	 
975.0	1.0	0.0	7.56625	7.29544	-7.08667	17.44033	23.37153	1.30842	0.76428	141.84338	147.55396	52.93518	0.33978	 	9764996.724	 	6.23852E-7	 	13925.57055	45.17795	 
970.0	1.0	0.0	7.56957	7.29225	-7.1274	17.3703	23.2742	1.30862	0.76416	142.43657	147.86574	53.16969	0.33945	 	1.096155719E7	 	5.53526E-7	 	13701.88439	44.73723	 
965.0	1.0	0.0	7.57286	7.28908	-7.1677	17.30122	23.17851	1.30874	0.76409	143.01931	148.17145	53.40014	0.33913	 	1.231554656E7	 	4.90689E-7	 	13480.30948	44.31498	 
960.0	1.0	0.0	7.57611	7.28595	-7.2076	17.23305	23.08437	1.30877	0.76408	143.59208	148.47138	53.62673	0.33881	 	1.384910203E7	 	4.34591E-7	 	13260.75908	43.91008	 
955.0	1.0	0.0	7.57934	7.28285	-7.24711	17.16573	22.9917	1.30872	0.76411	144.15532	148.76577	53.84964	0.3385	 	1.558767642E7	 	3.84553E-7	 	13043.15003	43.52181	 
950.0	1.0	0.0	7.58254	7.27978	-7.28623	17.09922	22.90042	1.30859	0.76418	144.70945	149.05487	54.06901	0.33819	 	1.756056365E7	 	3.3996E-7	 	12827.40368	43.14927	 
945.0	1.0	0.0	7.58571	7.27673	-7.325	17.03348	22.81046	1.30838	0.76431	145.25487	149.3389	54.28501	0.33789	 	1.980151396E7	 	3.00254E-7	 	12613.44535	42.79167	 
940.0	1.0	0.0	7.58886	7.27372	-7.36341	16.96845	22.72175	1.30809	0.76447	145.79196	149.61808	54.49778	0.3376	 	2.234945187E7	 	2.64932E-7	 	12401.20363	42.44834	 
935.0	1.0	0.0	7.59198	7.27073	-7.40149	16.90411	22.63423	1.30774	0.76468	146.32106	149.89261	54.70746	0.3373	 	2.524931849E7	 	2.33538E-7	 	12190.61111	42.11851	 
930.0	1.0	0.0	7.59507	7.26776	-7.43924	16.84042	22.54783	1.30732	0.76493	146.84252	150.16268	54.91417	0.33702	 	2.855305807E7	 	2.05662E-7	 	11981.6038	41.80146	 
925.0	1.0	0.0	7.59815	7.26482	-7.47668	16.77733	22.46251	1.30683	0.76521	147.35665	150.42848	55.11805	0.33674	 	3.232077499E7	 	1.80932E-7	 	11774.12037	41.49669	 
920.0	1.0	0.0	7.6012	7.26191	-7.51381	16.71481	22.37822	1.30628	0.76553	147.86377	150.69018	55.31921	0.33646	 	3.662208719E7	 	1.59015E-7	 	11568.10313	41.20345	 
915.0	1.0	0.0	7.60423	7.25901	-7.55065	16.65282	22.2949	1.30567	0.76589	148.36414	150.94794	55.51776	0.33619	 	4.153773352E7	 	1.3961E-7	 	11363.49709	40.92121	 
910.0	1.0	0.0	7.60724	7.25614	-7.58721	16.59134	22.21251	1.30499	0.76629	148.85804	151.20191	55.71381	0.33592	 	4.716144361E7	 	1.22445E-7	 	11160.25016	40.64939	 
905.0	1.0	0.0	7.61022	7.25329	-7.62349	16.53033	22.131	1.30426	0.76672	149.34574	151.45224	55.90745	0.33565	 	5.360216408E7	 	1.07277E-7	 	10958.31236	40.38756	 
900.0	1.0	0.0	7.61319	7.25047	-7.65951	16.46977	22.05035	1.30348	0.76718	149.82747	151.69908	56.09879	0.33539	 	6.098666451E7	 	9.3887E-8	 	10757.63666	40.13514	 
895.0	1.0	0.0	7.61614	7.24766	-7.69528	16.40961	21.97052	1.30264	0.76767	150.30347	151.94256	56.2879	0.33513	 	6.946264076E7	 	8.20794E-8	 	10558.17824	39.89169	 
890.0	1.0	0.0	7.61907	7.24487	-7.73079	16.34985	21.89146	1.30175	0.7682	150.77395	152.1828	56.47488	0.33488	 	7.920235689E7	 	7.16777E-8	 	10359.89455	39.65674	 
885.0	1.0	0.0	7.62199	7.2421	-7.76607	16.29044	21.81315	1.30081	0.76875	151.23913	152.41994	56.65981	0.33462	 	9.040698573E7	 	6.25244E-8	 	10162.74529	39.42985	 
880.0	1.0	0.0	7.62488	7.23935	-7.80111	16.23136	21.73556	1.29981	0.76934	151.69921	152.65408	56.84276	0.33438	 	1.033117403E8	 	5.44782E-8	 	9966.69142	39.21077	 
875.0	1.0	0.0	7.62776	7.23661	-7.83592	16.17259	21.65866	1.29877	0.76996	152.15437	152.88533	57.02381	0.33413	 	1.181919846E8	 	4.7413E-8	 	9771.69633	38.99902	 
870.0	1.0	0.0	7.63063	7.2339	-7.87052	16.11411	21.58242	1.29768	0.7706	152.6048	153.11382	57.20303	0.33389	 	1.353704664E8	 	4.1216E-8	 	9577.72572	38.79412	 
865.0	1.0	0.0	7.63348	7.2312	-7.9049	16.05589	21.50683	1.29655	0.77128	153.05068	153.33963	57.38049	0.33365	 	1.552259616E8	 	3.57867E-8	 	9384.7465	38.59584	 
860.0	1.0	0.0	7.63631	7.22852	-7.93907	15.99791	21.43186	1.29537	0.77198	153.49216	153.56288	57.55625	0.33341	 	1.782035657E8	 	3.10354E-8	 	9192.72719	38.40386	 
855.0	1.0	0.0	7.63913	7.22585	-7.97304	15.94016	21.35748	1.29414	0.77271	153.9294	153.78365	57.73037	0.33318	 	2.048269888E8	 	2.68823E-8	 	9001.63788	38.21786	 
850.0	1.0	0.0	7.64193	7.2232	-8.00681	15.8826	21.28368	1.29288	0.77347	154.36257	154.00204	57.90291	0.33294	 	2.357132309E8	 	2.32563E-8	 	8811.45004	38.03757	 
845.0	1.0	0.0	7.64415	7.2211	-8.03349	15.85693	21.22029	1.29097	0.77461	154.74109	154.25269	58.05088	0.33281	 	2.679974186E8	 	2.03637E-8	 	8653.10526	31.66896	 
840.0	1.0	0.0	7.64636	7.21901	-8.0601	15.83127	21.15689	1.28904	0.77577	155.11906	154.50242	58.19868	0.33267	 	3.050549396E8	 	1.78099E-8	 	8491.76741	32.26757	 
835.0	1.0	0.0	7.64857	7.21693	-8.08664	15.8056	21.09347	1.28711	0.77693	155.49647	154.75124	58.3463	0.33253	 	3.476426825E8	 	1.55579E-8	 	8330.66965	32.21955	 
830.0	1.0	0.0	7.65077	7.21485	-8.11311	15.77993	21.03004	1.28517	0.77811	155.87332	154.99916	58.49373	0.33239	 	3.966455667E8	 	1.35743E-8	 	8169.81122	32.17169	 
825.0	1.0	0.0	7.65297	7.21278	-8.13952	15.75425	20.96659	1.28322	0.77929	156.24962	155.24616	58.64098	0.33226	 	4.530995447E8	 	1.18292E-8	 	8009.19129	32.12399	 
820.0	1.0	0.0	7.65517	7.21071	-8.16585	15.72858	20.90314	1.28125	0.78049	156.62535	155.49227	58.78806	0.33212	 	5.182189763E8	 	1.02956E-8	 	7848.80906	32.07645	 
815.0	1.0	0.0	7.65736	7.20865	-8.19212	15.70291	20.83967	1.27928	0.78169	157.00054	155.73748	58.93495	0.33198	 	5.934292529E8	 	8.94966E-9	 	7688.66366	32.02908	 
810.0	1.0	0.0	7.65954	7.20659	-8.21832	15.67723	20.77619	1.27729	0.78291	157.37517	155.98179	59.08166	0.33184	 	6.804057336E8	 	7.76976E-9	 	7528.75424	31.98188	 
805.0	1.0	0.0	7.66173	7.20454	-8.24446	15.65155	20.71269	1.27529	0.78414	157.74924	156.22521	59.22819	0.33171	 	7.811202791E8	 	6.73671E-9	 	7369.07991	31.93487	 
800.0	1.0	0.0	7.6639	7.20249	-8.27052	15.62588	20.64918	1.27328	0.78537	158.12276	156.46773	59.37454	0.33157	 	8.978969503E8	 	5.83338E-9	 	7209.63974	31.88803	 
795.0	1.0	0.0	7.66608	7.20045	-8.29652	15.6002	20.58566	1.27126	0.78662	158.49572	156.70937	59.52071	0.33143	 	1.033478772E9	 	5.04449E-9	 	7050.43279	31.84139	 
790.0	1.0	0.0	7.66824	7.19841	-8.32245	15.57451	20.52212	1.26922	0.78788	158.86814	156.95013	59.6667	0.3313	 	1.191107877E9	 	4.35642E-9	 	6891.45809	31.79494	 
785.0	1.0	0.0	7.67041	7.19638	-8.34831	15.54883	20.45857	1.26718	0.78915	159.24	157.19	59.8125	0.33116	 	1.374621871E9	 	3.75708E-9	 	6732.71464	31.74869	 
780.0	1.0	0.0	7.67257	7.19436	-8.3741	15.52315	20.395	1.26512	0.79044	159.6113	157.429	59.95813	0.33102	 	1.588569854E9	 	3.23572E-9	 	6574.20137	31.70265	 
775.0	1.0	0.0	7.67472	7.19234	-8.39983	15.49746	20.33142	1.26305	0.79173	159.98206	157.66712	60.10358	0.33089	 	1.838352351E9	 	2.7828E-9	 	6415.91724	31.65683	 
770.0	1.0	0.0	7.67687	7.19032	-8.42549	15.47178	20.26783	1.26097	0.79304	160.35227	157.90436	60.24885	0.33075	 	2.130390332E9	 	2.38987E-9	 	6257.86112	31.61122	 
765.0	1.0	0.0	7.67902	7.18831	-8.45108	15.44609	20.20421	1.25888	0.79436	160.72192	158.14074	60.39394	0.33061	 	2.472329692E9	 	2.04946E-9	 	6100.03185	31.56585	 
760.0	1.0	0.0	7.68116	7.18631	-8.4766	15.4204	20.14059	1.25677	0.79569	161.09102	158.37625	60.53885	0.33048	 	2.873289037E9	 	1.75497E-9	 	5942.42826	31.52072	 
755.0	1.0	0.0	7.6833	7.18431	-8.50205	15.39471	20.07694	1.25466	0.79703	161.45958	158.61089	60.68358	0.33034	 	3.34416044E9	 	1.50057E-9	 	5785.0491	31.47583	 
750.0	1.0	0.0	7.68543	7.18232	-8.52744	15.36902	20.01329	1.25253	0.79839	161.82758	158.84467	60.82813	0.3302	 	3.897975092E9	 	1.28111E-9	 	5627.89307	31.43121	 
745.0	1.0	0.0	7.68756	7.18033	-8.55275	15.34333	19.94961	1.25038	0.79975	162.19504	159.0776	60.9725	0.33007	 	4.550348611E9	 	1.09208E-9	 	5470.95884	31.38685	 
740.0	1.0	0.0	7.68968	7.17835	-8.578	15.31763	19.88592	1.24823	0.80114	162.56194	159.30966	61.11669	0.32993	 	5.320024272E9	 	9.29495E-10	 	5314.245	31.34277	 
735.0	1.0	0.0	7.6918	7.17637	-8.60319	15.29194	19.82221	1.24606	0.80253	162.9283	159.54088	61.2607	0.32979	 	6.229536865E9	 	7.89871E-10	 	5157.75012	31.29898	 
730.0	1.0	0.0	7.69391	7.1744	-8.6283	15.26624	19.75849	1.24388	0.80394	163.29411	159.77124	61.40453	0.32966	 	7.306025369E9	 	6.70149E-10	 	5001.47267	31.25549	 
725.0	1.0	0.0	7.69602	7.17243	-8.65335	15.24054	19.69474	1.24169	0.80536	163.65937	160.00075	61.54819	0.32952	 	8.582229595E9	 	5.67652E-10	 	4845.41107	31.21232	 
720.0	1.0	0.0	7.69813	7.17047	-8.67832	15.21485	19.63098	1.23948	0.80679	164.02409	160.22942	61.69166	0.32939	 	1.00977E10	 	4.80041E-10	 	4689.56366	31.16948	 
715.0	1.0	0.0	7.70023	7.16851	-8.70323	15.18915	19.5672	1.23726	0.80824	164.38826	160.45724	61.83496	0.32925	 	1.1900399999999998E10	 	4.05274E-10	 	4533.92871	31.12699	 
710.0	1.0	0.0	7.70232	7.16656	-8.72807	15.16344	19.50341	1.23502	0.8097	164.75188	160.68423	61.97808	0.32911	 	1.4048299999999998E10	 	3.41572E-10	 	4378.5044	31.08486	 
705.0	1.0	0.0	7.70441	7.16462	-8.75285	15.13774	19.43959	1.23278	0.81118	165.11496	160.91038	62.12101	0.32898	 	1.6612099999999998E10	 	2.87388E-10	 	4223.28885	31.04311	 
700.0	1.0	0.0	7.7065	7.16268	-8.77755	15.11204	19.37576	1.23052	0.81267	165.4775	161.13569	62.26377	0.32884	 	1.96776E10	 	2.41376E-10	 	4068.28006	31.00176	 
695.0	1.0	0.0	7.70858	7.16074	-8.80219	15.08633	19.31191	1.22824	0.81417	165.83948	161.36017	62.40635	0.32871	 	2.3349599999999996E10	 	2.02372E-10	 	3913.47592	30.96083	 
690.0	1.0	0.0	7.71066	7.15882	-8.82676	15.06062	19.24803	1.22595	0.81569	166.20093	161.58381	62.54876	0.32857	 	2.7756099999999996E10	 	1.69364E-10	 	3758.87425	30.92034	 
685.0	1.0	0.0	7.71273	7.15689	-8.85126	15.03492	19.18414	1.22365	0.81723	166.56183	161.80664	62.69098	0.32844	 	3.3053799999999996E10	 	1.41481E-10	 	3604.47273	30.8803	 
680.0	1.0	0.0	7.7148	7.15497	-8.8757	15.00921	19.12023	1.22133	0.81878	166.92218	162.02863	62.83303	0.3283	 	3.94349E10	 	1.17969E-10	 	3450.26893	30.84076	 
675.0	1.0	0.0	7.71686	7.15306	-8.90006	14.9835	19.0563	1.219	0.82034	167.282	162.24981	62.9749	0.32816	 	4.713549999999999E10	 	9.81783E-11	 	3296.26029	30.80173	 
670.0	1.0	0.0	7.71892	7.15115	-8.92436	14.95778	18.99234	1.21666	0.82192	167.64127	162.47016	63.11658	0.32803	 	5.644649999999999E10	 	8.15513E-11	 	3142.44411	30.76324	 
665.0	1.0	0.0	7.72098	7.14925	-8.94859	14.93207	18.92837	1.2143	0.82352	167.99999	162.6897	63.2581	0.32789	 	6.772669999999999E10	 	6.76082E-11	 	2988.81751	30.72532	 
660.0	1.0	0.0	7.72303	7.14735	-8.97275	14.90636	18.86437	1.21192	0.82513	168.35818	162.90842	63.39943	0.32776	 	8.142E10	 	5.5938E-11	 	2835.38486	30.68653	 
655.0	1.0	0.0	7.72507	7.14546	-8.99684	14.88064	18.80035	1.20953	0.82676	168.71582	163.12633	63.54058	0.32762	 	9.807619999999998E10	 	4.61893E-11	 	2682.18693	30.63959	 
650.0	1.0	0.0	7.72711	7.14357	-9.02087	14.85492	18.73631	1.20713	0.82841	169.07292	163.34343	63.68156	0.32749	 	1.18378E11	 	3.80616E-11	 	2529.27788	30.58181	 
645.0	1.0	0.0	7.72915	7.14169	-9.04483	14.8292	18.67225	1.20471	0.83007	169.42948	163.55973	63.82236	0.32735	 	1.43176E11	 	3.1299E-11	 	2376.65661	30.52425	 
640.0	1.0	0.0	7.73118	7.13982	-9.06872	14.80348	18.60816	1.20228	0.83175	169.7855	163.77522	63.96298	0.32722	 	1.73529E11	 	2.56836E-11	 	2224.32204	30.46691	 
635.0	1.0	0.0	7.7332	7.13795	-9.09254	14.77776	18.54405	1.19983	0.83345	170.14098	163.9899	64.10342	0.32708	 	2.10763E11	 	2.10305E-11	 	2072.27308	30.40979	 
630.0	1.0	0.0	7.73522	7.13608	-9.11629	14.75204	18.47992	1.19736	0.83517	170.49592	164.20379	64.24369	0.32695	 	2.56538E11	 	1.71828E-11	 	1920.50866	30.35289	 
625.0	1.0	0.0	7.73724	7.13422	-9.13997	14.72632	18.41576	1.19488	0.8369	170.85032	164.41688	64.38378	0.32681	 	3.12939E11	 	1.4008E-11	 	1769.02741	30.29625	 
620.0	1.0	0.0	7.73925	7.13237	-9.16359	14.70059	18.35158	1.19239	0.83865	171.20418	164.62917	64.52369	0.32668	 	3.8259E11	 	1.1394E-11	 	1617.82757	30.23997	 
615.0	1.0	0.0	7.74126	7.13052	-9.18714	14.67487	18.28737	1.18987	0.84042	171.5575	164.84067	64.66342	0.32654	 	4.68802E11	 	9.24663E-12	 	1466.90841	30.18383	 
610.0	1.0	0.0	7.74326	7.12867	-9.21062	14.64914	18.22314	1.18735	0.84221	171.91029	165.05138	64.80298	0.32641	 	5.75765E11	 	7.48645E-12	 	1316.26889	30.1279	 
605.0	1.0	0.0	7.74526	7.12684	-9.23403	14.62341	18.15888	1.1848	0.84402	172.26253	165.2613	64.94236	0.32627	 	7.08789E11	 	6.04698E-12	 	1165.90793	30.07219	 
600.0	1.0	0.0	7.74725	7.125	-9.25738	14.59768	18.09459	1.18224	0.84585	172.61424	165.47044	65.08156	0.32614	 	8.74628E11	 	4.87251E-12	 	1015.82448	30.01669	 
595.0	1.0	0.0	7.74924	7.12318	-9.28065	14.57195	18.03028	1.17966	0.8477	172.9654	165.67879	65.22058	0.326	 	1.08188E12	 	3.91652E-12	 	866.01749	29.9614	 
590.0	1.0	0.0	7.75122	7.12135	-9.30386	14.54622	17.96594	1.17707	0.84957	173.31603	165.88636	65.35943	0.32587	 	1.34156E12	 	3.14025E-12	 	716.48589	29.90632	 
585.0	1.0	0.0	7.7532	7.11954	-9.327	14.52048	17.90157	1.17446	0.85146	173.66613	166.09316	65.49809	0.32573	 	1.66773E12	 	2.51145E-12	 	567.22864	29.85145	 
580.0	1.0	0.0	7.75517	7.11773	-9.35007	14.49475	17.83718	1.17183	0.85336	174.01568	166.29917	65.63659	0.3256	 	2.0785E12	 	2.00338E-12	 	418.2447	29.79679	 
575.0	1.0	0.0	7.75714	7.11592	-9.37308	14.46901	17.77275	1.16919	0.85529	174.36471	166.50442	65.7749	0.32547	 	2.59717E12	 	1.59389E-12	 	269.53301	29.74234	 
570.0	1.0	0.0	7.7591	7.11412	-9.39601	14.44327	17.7083	1.16653	0.85725	174.71319	166.70889	65.91304	0.32533	 	3.25387E12	 	1.26471E-12	 	121.09253	29.6881	 
565.0	1.0	0.0	7.76106	7.11232	-9.41888	14.41753	17.64381	1.16385	0.85922	175.06114	166.91259	66.051	0.3252	 	4.08759E12	 	1.00079E-12	 	-27.07776	29.63406	 
560.0	1.0	0.0	7.76302	7.11053	-9.44168	14.39179	17.5793	1.16115	0.86122	175.40855	167.11552	66.18878	0.32506	 	5.14901E12	 	7.89744E-13	 	-174.97893	29.58023	 
555.0	1.0	0.0	7.76497	7.10875	-9.46441	14.36605	17.51475	1.15843	0.86323	175.75543	167.31769	66.32639	0.32493	 	6.50415E12	 	6.21449E-13	 	-322.61199	29.52661	 
550.0	1.0	0.0	7.76691	7.10697	-9.48707	14.34031	17.45017	1.1557	0.86528	176.10177	167.51909	66.46381	0.32479	 	8.23929E12	 	4.87613E-13	 	-469.97799	29.4732	 
545.0	1.0	0.0	7.76885	7.10519	-9.50967	14.31456	17.38556	1.15295	0.86734	176.44758	167.71974	66.60107	0.32466	 	1.04675E13	 	3.81483E-13	 	-617.07794	29.41999	 
540.0	1.0	0.0	7.77078	7.10343	-9.53219	14.28882	17.32091	1.15018	0.86943	176.79285	167.91963	66.73814	0.32453	 	1.33376E13	 	2.97563E-13	 	-763.91286	29.36698	 
535.0	1.0	0.0	7.77271	7.10166	-9.55465	14.26307	17.25624	1.14739	0.87154	177.13759	168.11876	66.87504	0.32439	 	1.70456E13	 	2.31401E-13	 	-910.48379	29.31419	 
530.0	1.0	0.0	7.77464	7.0999	-9.57704	14.23732	17.19152	1.14459	0.87368	177.48179	168.31713	67.01176	0.32426	 	2.18512E13	 	1.79394E-13	 	-1056.79173	29.26159	 
525.0	1.0	0.0	7.77656	7.09815	-9.59936	14.21157	17.12678	1.14176	0.87584	177.82546	168.51476	67.14831	0.32412	 	2.80989E13	 	1.38638E-13	 	-1202.83771	29.2092	 
520.0	1.0	0.0	7.77847	7.0964	-9.62161	14.18582	17.06199	1.13892	0.87803	178.1686	168.71163	67.28467	0.32399	 	3.62476E13	 	1.06798E-13	 	-1348.62272	29.157	 
515.0	1.0	0.0	7.78038	7.09466	-9.6438	14.16007	16.99717	1.13605	0.88024	178.51121	168.90776	67.42086	0.32386	 	4.69107E13	 	8.20018E-14	 	-1494.14779	29.10501	 
510.0	1.0	0.0	7.78229	7.09293	-9.66592	14.13432	16.93232	1.13317	0.88248	178.85328	169.10314	67.55688	0.32372	 	6.0911E13	 	6.27532E-14	 	-1639.41391	29.05322	 
505.0	1.0	0.0	7.78419	7.09119	-9.68797	14.10856	16.86742	1.13027	0.88475	179.19482	169.29778	67.69272	0.32359	 	7.93554E13	 	4.78601E-14	 	-1784.42207	29.00163	 
500.0	1.0	0.0	7.78608	7.08947	-9.70995	14.08281	16.80249	1.12734	0.88704	179.53583	169.49167	67.82838	0.32346	 	1.03739E14	 	3.63753E-14	 	-1929.17328	28.95024	 
495.0	1.0	0.0	7.78797	7.08775	-9.73186	14.05705	16.73752	1.1244	0.88936	179.8763	169.68483	67.96386	0.32332	 	1.3608999999999998E14	 	2.75491E-14	 	-2073.66852	28.89905	 
490.0	1.0	0.0	7.78986	7.08603	-9.7537	14.03129	16.6725	1.12144	0.89171	180.21624	169.87725	68.09917	0.32319	 	1.79164E14	 	2.07895E-14	 	-2217.90879	28.84805	 
485.0	1.0	0.0	7.79174	7.08432	-9.77548	14.00553	16.60745	1.11845	0.89409	180.55566	170.06894	68.2343	0.32306	 	2.3673E14	 	1.56311E-14	 	-2361.89505	28.79725	 
480.0	1.0	0.0	7.79361	7.08262	-9.79719	13.97977	16.54235	1.11545	0.8965	180.89454	170.25989	68.36926	0.32292	 	3.13951E14	 	1.17086E-14	 	-2505.62828	28.74665	 
475.0	1.0	0.0	7.79548	7.08092	-9.81883	13.95401	16.47722	1.11243	0.89894	181.23289	170.45011	68.50403	0.32279	 	4.17935E14	 	8.73708E-15	 	-2649.10947	28.69624	 
470.0	1.0	0.0	7.79735	7.07923	-9.8404	13.92824	16.41203	1.10938	0.9014	181.57071	170.63961	68.63864	0.32266	 	5.5850599999999994E14	 	6.49434E-15	 	-2792.33957	28.64602	 
465.0	1.0	0.0	7.79921	7.07754	-9.8619	13.90248	16.34681	1.10631	0.9039	181.90799	170.82837	68.77306	0.32252	 	7.49296E14	 	4.80815E-15	 	-2935.31954	28.59599	 
460.0	1.0	0.0	7.80106	7.07585	-9.88334	13.87671	16.28153	1.10322	0.90643	182.24475	171.01642	68.90731	0.32239	 	1.0093E15	 	3.54536E-15	 	-3078.05035	28.54616	 
455.0	1.0	0.0	7.80291	7.07418	-9.9047	13.85094	16.21622	1.10011	0.909	182.58098	171.20374	69.04138	0.32226	 	1.36509E15	 	2.60343E-15	 	-3220.53293	28.49652	 
450.0	1.0	0.0	7.80476	7.0725	-9.926	13.82517	16.15085	1.09698	0.91159	182.91668	171.39034	69.17528	0.32212	 	1.85403E15	 	1.9037E-15	 	-3362.76824	28.44706	 
445.0	1.0	0.0	7.8066	7.07084	-9.94723	13.7994	16.08544	1.09383	0.91422	183.25185	171.57622	69.309	0.32199	 	2.52886E15	 	1.38605E-15	 	-3504.75721	28.39779	 
440.0	1.0	0.0	7.80843	7.06918	-9.96839	13.77363	16.01997	1.09065	0.91688	183.58649	171.76138	69.44254	0.32186	 	3.46435E15	 	1.00472E-15	 	-3646.50079	28.34872	 
435.0	1.0	0.0	7.81026	7.06752	-9.98948	13.74786	15.95446	1.08745	0.91958	183.9206	171.94583	69.57591	0.32173	 	4.76705E15	 	7.25041E-16	 	-3787.99988	28.29982	 
430.0	1.0	0.0	7.81209	7.06587	-10.01051	13.72209	15.88889	1.08423	0.92232	184.25418	172.12957	69.7091	0.32159	 	6.58945E15	 	5.20818E-16	 	-3929.25542	28.25111	 
425.0	1.0	0.0	7.81391	7.06422	-10.03147	13.69631	15.82327	1.08098	0.92508	184.58723	172.3126	69.84211	0.32146	 	9.15086E15	 	3.72369E-16	 	-4070.26822	28.20256	 
420.0	1.0	0.0	7.81572	7.06258	-10.05235	13.67053	15.7576	1.07771	0.92789	184.91976	172.49491	69.97495	0.32133	 	1.27683E16	 	2.6496E-16	 	-4211.03933	28.15422	 
415.0	1.0	0.0	7.81753	7.06095	-10.07317	13.64476	15.69187	1.07442	0.93073	185.25175	172.67653	70.10761	0.3212	 	1.7902200000000002E16	 	1.87613E-16	 	-4351.56923	28.10598	 
410.0	1.0	0.0	7.81934	7.05932	-10.09393	13.61898	15.62609	1.0711	0.93362	185.58322	172.85743	70.24009	0.32106	 	2.52248E16	 	1.32183E-16	 	-4491.8582	28.05779	 
405.0	1.0	0.0	7.82114	7.05769	-10.11461	13.5932	15.56025	1.06776	0.93654	185.91416	173.03764	70.3724	0.32093	 	3.5722700000000004E16	 	9.26547E-17	 	-4631.90651	28.00966	 
400.0	1.0	0.0	7.82293	7.05608	-10.13523	13.56741	15.49434	1.0644	0.9395	186.24458	173.21714	70.50454	0.3208	 	5.08519E16	 	6.46087E-17	 	-4771.71446	27.96159	 
395.0	1.0	0.0	7.82472	7.05446	-10.15577	13.54163	15.42838	1.06101	0.9425	186.57446	173.39595	70.63649	0.32067	 	7.27721E16	 	4.48121E-17	 	-4911.28227	27.91356	 
390.0	1.0	0.0	7.8265	7.05285	-10.17625	13.51585	15.36236	1.0576	0.94554	186.90382	173.57405	70.76827	0.32053	 	1.04706E17	 	3.09121E-17	 	-5050.61023	27.86559	 
385.0	1.0	0.0	7.82828	7.05125	-10.19666	13.49006	15.29627	1.05416	0.94863	187.23265	173.75147	70.89988	0.3204	 	1.51487E17	 	2.12049E-17	 	-5189.69855	27.81766	 
380.0	1.0	0.0	7.83006	7.04965	-10.217	13.46427	15.23012	1.05069	0.95175	187.56096	173.92819	71.0313	0.32027	 	2.20413E17	 	1.44631E-17	 	-5328.54748	27.76979	 
375.0	1.0	0.0	7.83182	7.04806	-10.23728	13.43849	15.1639	1.0472	0.95493	187.88874	174.10422	71.16255	0.32014	 	3.22561E17	 	9.80732E-18	 	-5467.15725	27.72195	 
370.0	1.0	0.0	7.83359	7.04648	-10.25748	13.4127	15.09762	1.04369	0.95814	188.21599	174.27955	71.29363	0.32001	 	4.74851E17	 	6.61061E-18	 	-5605.52806	27.67416	 
365.0	1.0	0.0	7.83535	7.0449	-10.27762	13.38691	15.03126	1.04014	0.96141	188.54272	174.45421	71.42453	0.31987	 	7.03291E17	 	4.42868E-18	 	-5743.66013	27.62641	 
360.0	1.0	0.0	7.8371	7.04332	-10.29769	13.36111	14.96483	1.03658	0.96472	188.86892	174.62817	71.55525	0.31974	 	1.04811E18	 	2.9484E-18	 	-5881.55365	27.5787	 
355.0	1.0	0.0	7.83885	7.04175	-10.31769	13.33532	14.89833	1.03298	0.96807	189.19459	174.80145	71.6858	0.31961	 	1.57194E18	 	1.95035E-18	 	-6019.2088	27.53103	 
350.0	1.0	0.0	7.84059	7.04018	-10.33762	13.30952	14.83176	1.02936	0.97148	189.51974	174.97405	71.81617	0.31948	 	2.37296E18	 	1.2817E-18	 	-6156.62574	27.48339	 
345.0	1.0	0.0	7.84233	7.03862	-10.35748	13.28373	14.76511	1.02571	0.97494	189.84437	175.14597	71.94636	0.31935	 	3.60611E18	 	8.36645E-19	 	-6293.80464	27.43578	 
340.0	1.0	0.0	7.84406	7.03707	-10.37727	13.25793	14.69838	1.02203	0.97845	190.16847	175.31721	72.07638	0.31921	 	5.51762E18	 	5.42377E-19	 	-6430.74565	27.3882	 
335.0	1.0	0.0	7.84578	7.03552	-10.397	13.23213	14.63156	1.01832	0.98201	190.49204	175.48778	72.20622	0.31908	 	8.50162E18	 	3.49137E-19	 	-6567.4489	27.34065	 
330.0	1.0	0.0	7.84751	7.03398	-10.41666	13.20633	14.56467	1.01459	0.98562	190.81509	175.65767	72.33589	0.31895	 	1.31936E19	 	2.23125E-19	 	-6703.9145	27.29312	 
325.0	1.0	0.0	7.84922	7.03244	-10.43625	13.18053	14.49769	1.01083	0.98929	191.13761	175.82689	72.46538	0.31882	 	2.06261E19	 	1.4154E-19	 	-6840.14256	27.24561	 
320.0	1.0	0.0	7.85093	7.03091	-10.45577	13.15473	14.43063	1.00704	0.99301	191.45962	175.99543	72.59469	0.31869	 	3.24894E19	 	8.91064E-20	 	-6976.13317	27.19812	 
315.0	1.0	0.0	7.85264	7.02938	-10.47522	13.12892	14.36347	1.00322	0.99679	191.78109	176.16331	72.72383	0.31856	 	5.1573E19	 	5.56612E-20	 	-7111.88641	27.15065	 
310.0	1.0	0.0	7.85434	7.02786	-10.49461	13.10312	14.29622	0.99937	1.00063	192.10204	176.33052	72.85279	0.31843	 	8.2517E19	 	3.44924E-20	 	-7247.40233	27.10318	 
305.0	1.0	0.0	7.85604	7.02634	-10.51392	13.07731	14.22888	0.99549	1.00453	192.42247	176.49706	72.98157	0.31829	 	1.3310499999999998E20	 	2.11998E-20	 	-7382.681	27.05573	 
300.0	1.0	0.0	7.85773	7.02483	-10.53317	13.05151	14.16144	0.99158	1.00849	192.74238	176.66294	73.11018	0.31816	 	2.1650599999999997E20	 	1.29207E-20	 	-7517.72239	27.00828	 
295.0	1.0	0.0	7.85941	7.02332	-10.55235	13.0257	14.09391	0.98764	1.01252	193.06176	176.82816	73.23861	0.31803	 	3.55192E20	 	7.80703E-21	 	-7652.52656	26.96083	 
290.0	1.0	0.0	7.86109	7.02182	-10.57146	12.99989	14.02627	0.98367	1.0166	193.38062	176.99272	73.36687	0.3179	 	5.8786099999999997E20	 	4.67559E-21	 	-7787.09347	26.91338	 
285.0	1.0	0.0	7.86276	7.02033	-10.5905	12.97407	13.95852	0.97966	1.02076	193.69895	177.15661	73.49495	0.31777	 	9.817619999999999E20	 	2.7748E-21	 	-7921.42309	26.86592	 
280.0	1.0	0.0	7.86443	7.01884	-10.60947	12.94826	13.89067	0.97563	1.02498	194.01677	177.31985	73.62285	0.31764	 	1.65487E21	 	1.63142E-21	 	-8055.51537	26.81846	 
275.0	1.0	0.0	7.8661	7.01735	-10.62838	12.92245	13.82271	0.97157	1.02927	194.33405	177.48244	73.75058	0.31751	 	2.81617E21	 	9.50007E-22	 	-8189.37023	26.77097	 
270.0	1.0	0.0	7.86776	7.01587	-10.64722	12.89663	13.75463	0.96747	1.03362	194.65082	177.64437	73.87813	0.31738	 	4.83955E21	 	5.47774E-22	 	-8322.98758	26.72347	 
265.0	1.0	0.0	7.86941	7.0144	-10.66599	12.87081	13.68643	0.96334	1.03806	194.96707	177.80565	74.00551	0.31725	 	8.4008E21	 	3.12658E-22	 	-8456.3673	26.67594	 
260.0	1.0	0.0	7.87106	7.01293	-10.68468	12.845	13.61812	0.95918	1.04256	195.28279	177.96628	74.1327	0.31712	 	1.4734299999999999E22	 	1.76607E-22	 	-8589.50924	26.62839	 
255.0	1.0	0.0	7.8727	7.01147	-10.70332	12.81918	13.54967	0.95498	1.04714	195.59799	178.12626	74.25973	0.31699	 	2.6118999999999996E22	 	9.86933E-23	 	-8722.41322	26.5808	 
250.0	1.0	0.0	7.87434	7.01001	-10.72188	12.79336	13.4811	0.95075	1.0518	195.91267	178.2856	74.38657	0.31686	 	4.68098E22	 	5.45477E-23	 	-8855.07906	26.53317	 
245.0	1.0	0.0	7.87597	7.00856	-10.74037	12.76753	13.4124	0.94649	1.05654	196.22682	178.44429	74.51324	0.31672	 	8.484129999999999E22	 	2.98081E-23	 	-8987.50652	26.48549	 
240.0	1.0	0.0	7.87759	7.00711	-10.7588	12.74171	13.34357	0.94219	1.06136	196.54046	178.60233	74.63974	0.31659	 	1.55565E23	 	1.60998E-23	 	-9119.69533	26.43776	 
235.0	1.0	0.0	7.87921	7.00567	-10.77716	12.71589	13.27459	0.93786	1.06626	196.85357	178.75973	74.76605	0.31646	 	2.8866599999999996E23	 	8.59177E-24	 	-9251.64523	26.38998	 
230.0	1.0	0.0	7.88083	7.00424	-10.79545	12.69006	13.20547	0.93349	1.07125	197.16616	178.9165	74.8922	0.31633	 	5.42272E23	 	4.52863E-24	 	-9383.35588	26.34213	 
225.0	1.0	0.0	7.88244	7.00281	-10.81367	12.66423	13.13619	0.92909	1.07632	197.47823	179.07262	75.01816	0.3162	 	1.03166E24	 	2.35674E-24	 	-9514.82691	26.29421	 
220.0	1.0	0.0	7.88404	7.00138	-10.83182	12.63841	13.06677	0.92465	1.08149	197.78978	179.22811	75.14395	0.31607	 	1.98846E24	 	1.21045E-24	 	-9646.05796	26.24621	 
215.0	1.0	0.0	7.88564	6.99996	-10.8499	12.61258	12.99718	0.92017	1.08675	198.10081	179.38296	75.26956	0.31594	 	3.88452E24	 	6.13342E-25	 	-9777.04858	26.19812	 
210.0	1.0	0.0	7.88724	6.99855	-10.86792	12.58674	12.92743	0.91566	1.0921	198.41132	179.53718	75.395	0.31581	 	7.694430000000001E24	 	3.06473E-25	 	-9907.79831	26.14994	 
205.0	1.0	0.0	7.88883	6.99714	-10.88586	12.56091	12.85752	0.91111	1.09756	198.72131	179.69077	75.52026	0.31568	 	1.54605E25	 	1.50948E-25	 	-10038.30661	26.10166	 
200.0	1.0	0.0	7.89041	6.99573	-10.90374	12.53508	12.78742	0.90653	1.10311	199.03078	179.84373	75.64534	0.31555	 	3.15265E25	 	7.32503E-26	 	-10168.57297	26.05327	 
195.0	1.0	0.0	7.89199	6.99433	-10.92155	12.50924	12.71715	0.90191	1.10876	199.33972	179.99605	75.77025	0.31542	 	6.52737E25	 	3.50053E-26	 	-10298.59674	26.00476	 
190.0	1.0	0.0	7.89356	6.99294	-10.93929	12.48341	12.64669	0.89724	1.11452	199.64815	180.14776	75.89498	0.31529	 	1.3728600000000001E26	 	1.64658E-26	 	-10428.37729	25.95611	 
185.0	1.0	0.0	7.89512	6.99155	-10.95696	12.45757	12.57603	0.89254	1.12039	199.95606	180.29883	76.01953	0.31516	 	2.9346700000000004E26	 	7.61965E-27	 	-10557.91393	25.90733	 
180.0	1.0	0.0	7.89669	6.99017	-10.97456	12.43173	12.50518	0.88781	1.12637	200.26344	180.44928	76.14391	0.31503	 	6.379320000000001E26	 	3.46701E-27	 	-10687.20587	25.85839	 
175.0	1.0	0.0	7.89824	6.9888	-10.9921	12.40589	12.43412	0.88303	1.13247	200.57031	180.59911	76.26811	0.3149	 	1.41096E27	 	1.55023E-27	 	-10816.2523	25.80929	 
170.0	1.0	0.0	7.89979	6.98742	-11.00957	12.38005	12.36284	0.87821	1.13868	200.87666	180.74832	76.39214	0.31477	 	3.17711E27	 	6.80777E-28	 	-10945.05236	25.76001	 
165.0	1.0	0.0	7.90134	6.98606	-11.02696	12.35421	12.29134	0.87335	1.14501	201.18249	180.8969	76.51599	0.31464	 	7.28781E27	 	2.93435E-28	 	-11073.60509	25.71055	 
160.0	1.0	0.0	7.90288	6.9847	-11.04429	12.32836	12.21962	0.86845	1.15147	201.4878	181.04487	76.63966	0.31451	 	1.7040600000000001E28	 	1.24062E-28	 	-11201.90949	25.66088	 
155.0	1.0	0.0	7.90441	6.98334	-11.06155	12.30252	12.14765	0.86351	1.15806	201.79259	181.19223	76.76315	0.31438	 	4.06435E28	 	5.14152E-29	 	-11329.96448	25.611	 
150.0	1.0	0.0	7.90594	6.98199	-11.07875	12.27667	12.07544	0.85853	1.16478	202.09686	181.33897	76.88647	0.31425	 	9.89502E28	 	2.0872E-29	 	-11457.76889	25.56088	 
145.0	1.0	0.0	7.90746	6.98065	-11.09587	12.25082	12.00296	0.85351	1.17163	202.40061	181.48509	77.00961	0.31413	 	2.46084E29	 	8.29344E-30	 	-11585.32149	25.51052	 
140.0	1.0	0.0	7.90898	6.97931	-11.11292	12.22497	11.93023	0.84845	1.17862	202.70384	181.63061	77.13258	0.314	 	6.25645E29	 	3.22304E-30	 	-11712.62096	25.45989	 
135.0	1.0	0.0	7.91049	6.97797	-11.12991	12.19912	11.85721	0.84334	1.18576	203.00656	181.77551	77.25537	0.31387	 	1.62743E30	 	1.22407E-30	 	-11839.66587	25.40898	 
130.0	1.0	0.0	7.91199	6.97665	-11.14683	12.17327	11.78391	0.83819	1.19304	203.30875	181.91981	77.37798	0.31374	 	4.3348299999999996E30	 	4.53922E-31	 	-11966.4547	25.35777	 
125.0	1.0	0.0	7.9135	6.97532	-11.16368	12.14742	11.71031	0.833	1.20048	203.61043	182.0635	77.50042	0.31361	 	1.18339E31	 	1.64212E-31	 	-12092.98587	25.30623	 
120.0	1.0	0.0	7.91499	6.97401	-11.18046	12.12156	11.63639	0.82776	1.20808	203.91159	182.20658	77.62268	0.31348	 	3.3142199999999997E31	 	5.78981E-32	 	-12219.25763	25.25435	 
115.0	1.0	0.0	7.91648	6.97269	-11.19717	12.09571	11.56216	0.82248	1.21583	204.21223	182.34906	77.74476	0.31335	 	9.53136E31	 	1.98761E-32	 	-12345.26814	25.2021	 
110.0	1.0	0.0	7.91796	6.97139	-11.21381	12.06985	11.48758	0.81716	1.22375	204.51235	182.49094	77.86667	0.31322	 	2.81775E32	 	6.63671E-33	 	-12471.01545	25.14946	 
105.0	1.0	0.0	7.91944	6.97009	-11.23039	12.04399	11.41266	0.81179	1.23185	204.81196	182.63221	77.9884	0.31309	 	8.57233E32	 	2.15304E-33	 	-12596.49745	25.0964	 
100.0	1.0	0.0	7.92092	6.96879	-11.24689	12.01813	11.33737	0.80638	1.24012	205.11105	182.77289	78.10995	0.31296	 	2.68686E33	 	6.77838E-34	 	-12721.71192	25.04289	 
95.0	1.0	0.0	7.92238	6.9675	-11.26333	11.99227	11.26169	0.80092	1.24857	205.40962	182.91296	78.23132	0.31283	 	8.686940000000001E33	 	2.06845E-34	 	-12846.65647	24.98891	 
90.0	1.0	0.0	7.92384	6.96621	-11.2797	11.96641	11.18562	0.79541	1.25721	205.70767	183.05244	78.35252	0.31271	 	2.90083E34	 	6.11013E-35	 	-12971.32855	24.93441	 
85.0	1.0	0.0	7.9253	6.96493	-11.296	11.94055	11.10913	0.78986	1.26604	206.0052	183.19133	78.47355	0.31258	 	1.0018399999999999E35	 	1.74483E-35	 	-13095.72544	24.87938	 
80.0	1.0	0.0	7.92675	6.96366	-11.31223	11.91468	11.0322	0.78427	1.27508	206.30222	183.32962	78.59439	0.31245	 	3.58359E35	 	4.80981E-36	 	-13219.84424	24.82376	 
75.0	1.0	0.0	7.9282	6.96239	-11.32839	11.88882	10.95482	0.77862	1.28432	206.59872	183.46732	78.71506	0.31232	 	1.3296399999999998E36	 	1.27796E-36	 	-13343.68186	24.76752	 
70.0	1.0	0.0	7.92963	6.96113	-11.34449	11.86295	10.87696	0.77293	1.29377	206.8947	183.60443	78.83555	0.31219	 	5.1256299999999995E36	 	3.26756E-37	 	-13467.23498	24.71062	 
65.0	1.0	0.0	7.93107	6.95987	-11.36051	11.83708	10.79861	0.7672	1.30344	207.19017	183.74095	78.95587	0.31206	 	2.0563099999999998E37	 	8.02615E-38	 	-13590.50007	24.65302	 
60.0	1.0	0.0	7.9325	6.95862	-11.37647	11.81121	10.71973	0.76142	1.31334	207.48512	183.87688	79.07601	0.31193	 	8.60083E37	 	1.89054E-38	 	-13713.47336	24.59466	 
55.0	1.0	0.0	7.93392	6.95737	-11.39236	11.78534	10.6403	0.75559	1.32347	207.77955	184.01222	79.19597	0.31181	 	3.75777E38	 	4.26215E-39	 	-13836.15079	24.53549	 
50.0	1.0	0.0	7.93534	6.95613	-11.40818	11.75947	10.5603	0.74971	1.33385	208.07347	184.14698	79.31575	0.31168	 	1.71845E39	 	9.17812E-40	 	-13958.52805	24.47545	 
45.0	1.0	0.0	7.93675	6.95489	-11.42393	11.73359	10.47969	0.74379	1.34447	208.36687	184.28116	79.43536	0.31155	 	8.243190000000001E39	 	1.88375E-40	 	-14080.60051	24.41449	 
40.0	1.0	0.0	7.93815	6.95366	-11.43961	11.70772	10.39845	0.73782	1.35535	208.65975	184.41475	79.55479	0.31142	 	4.15718E40	 	3.67655E-41	 	-14202.3632	24.35254	 
35.0	1.0	0.0	7.93955	6.95243	-11.45522	11.68184	10.31653	0.7318	1.36649	208.95212	184.54776	79.67404	0.31129	 	2.2095700000000003E41	 	6.80679E-42	 	-14323.81082	24.28952	 
30.0	1.0	0.0	7.94095	6.95121	-11.47077	11.65597	10.23392	0.72574	1.3779	209.24397	184.68019	79.79312	0.31117	 	1.24093E42	 	1.19233E-42	 	-14444.93765	24.22537	 
25.0	1.0	0.0	7.94233	6.95	-11.48624	 	10.15056	0.71963	1.3896	209.5353	184.81205	79.91202	0.31104	 	7.384529999999999E42	 	1.9706E-43	 	-14565.73761	 	 
