T (C)	Fraction solid (wt)-TOTAL	Fraction liquid (wt)-LIQUID	Density (g/(cm)^3)-TOTAL	Molar volume (cm^3)-TOTAL	Volume change (%)-  	Average expansion coeff. (10e-6 1/K)-  	Thermal conductivity (W/(m*K))-TOTAL	Electrical resistivity (10e-6 Ohm*m)-TOTAL	Electrical conductivity (10e6 1/(Ohm*m))-TOTAL	Young's modulus (GPa)-TOTAL	Bulk modulus (GPa)-TOTAL	Shear modulus(GPa)-TOTAL	Poisson's ratio-TOTAL	Liquid viscosity (mPa s)-  	Total viscosity (mPa s)-  	Liquid diffusivity (10e-9 (m^2)/s)-  	Total diffusivity (10e-9 (m^2)/s)-  	Surface Tension (mN/m)-  	Enthalpy (J/mole)-TOTAL	Specific heat (J/(mole K))-TOTAL	Latent heat (J/mole)-TOTAL
1400.0	0.0	1.0	7.36643	7.56072	0.0	24.82681	28.68604	1.42899	0.69979	0.0	126.80319	0.0	0.5	7.78451	7.78451	1.04904	1.04904	1819.2678	63297.153	 	0.0
1395.92	0.0	1.0	7.36966	7.55742	-0.0437263	24.78348	28.63846	1.42788	0.70034	0.0	126.94734	0.0	0.5	7.85255	7.85255	1.03741	1.03741	1820.77223	63124.923	42.21417	0.0
1395.0	0.05489	0.94511	7.37827	7.54857	-0.16079	24.48614	28.83555	1.41734	0.70555	8.13885E-4	126.03359	2.72759E-4	0.49195	7.86422	8.74884	1.0353	0.93062	1821.03153	62272.823	926.10505	813.305
1390.0	0.29882	0.70118	7.41657	7.50969	-0.67493	23.19172	29.7281	1.37066	0.72957	0.73325	121.85634	0.25185	0.45575	7.91945	289.84705	1.025	0.0280059	1822.37256	58454.938	763.577	4420.677
1385.0	0.45636	0.54364	7.44205	7.48395	-1.01549	22.3568	30.31693	1.34	0.74627	4.05983	119.18518	1.41753	0.43201	7.96811	1623.52409	1.01568	0.00498485	1823.71609	55921.505	506.6866	6744.109
1380.0	0.56378	0.43622	7.46014	7.46579	-1.25562	21.78807	30.71838	1.3185	0.75844	9.58462	117.42833	3.38531	0.41562	8.01122	4001.85085	1.00716	0.00201622	1825.06648	54132.59	357.783	8323.53
1375.0	0.64029	0.35971	7.4737	7.45223	-1.43494	21.38066	30.99582	1.30275	0.76761	16.12253	116.2545	5.74238	0.40382	8.04967	7069.54011	0.99932	0.00113787	1826.42643	52802.271	266.0638	9444.861
1370.0	0.69677	0.30323	7.48436	7.44163	-1.57514	21.07709	31.18829	1.29078	0.77473	22.82062	115.47026	8.17931	0.39502	8.0842	10537.18694	0.99203	7.61096E-4	1827.79721	51768.93	206.6682	10269.715
1365.0	0.73973	0.26027	7.49306	7.43299	-1.68943	20.84231	31.32096	1.2814	0.7804	29.2294	114.95475	10.52734	0.38826	8.1155	14235.87683	0.9852	5.61638E-4	1829.17937	50936.108	166.5644	10894.551
1360.0	0.77322	0.22678	7.50042	7.4257	-1.78592	20.65478	31.41047	1.27385	0.78502	35.15254	114.6312	12.70938	0.38294	8.14406	18080.75624	0.97875	4.40855E-4	1830.57319	50243.54	138.5136	11379.631
1355.0	0.79989	0.20011	7.5068	7.41938	-1.86945	20.50164	31.46819	1.26762	0.78888	40.53439	114.44871	14.70071	0.37865	8.17042	22039.39758	0.97261	3.60563E-4	1831.97803	49652.069	118.2942	11764.11
1350.0	0.82151	0.17849	7.51248	7.41376	-1.94381	20.37278	31.50198	1.26237	0.79216	45.3885	114.3715	16.5032	0.37514	8.1949	26108.5388	0.96672	3.03433E-4	1833.39385	49135.385	103.3368	12074.295
1345.0	0.83932	0.16068	7.51763	7.40868	-2.01096	20.26302	31.51739	1.25787	0.795	49.75284	114.37546	18.1286	0.37222	8.21792	30298.84763	0.96104	2.60663E-4	1834.8196	48675.288	92.0194	12328.382
1340.0	0.85418	0.14582	7.52237	7.40402	-2.07262	20.16777	31.51857	1.25393	0.79749	53.6839	114.4423	19.59625	0.36975	8.23971	34633.96675	0.95554	2.27331E-4	1836.25463	48258.862	83.2852	12539.288
1335.0	0.86674	0.13326	7.52679	7.39967	-2.13015	20.08335	31.5084	1.25045	0.79971	57.23171	114.55878	20.92359	0.36764	8.26056	39138.21695	0.95018	2.00545E-4	1837.69874	47876.732	76.426	12716.382
1330.0	0.87747	0.12253	7.53096	7.39558	-2.18425	20.00795	31.48914	1.24732	0.80172	60.44479	114.71516	22.12785	0.36581	8.28074	43840.34387	0.94491	1.78479E-4	1839.15084	47521.96	70.9544	12866.602
1325.0	0.88671	0.11329	7.53493	7.39167	-2.23596	19.93875	31.46244	1.24449	0.80354	63.36651	114.90337	23.22464	0.36421	8.30031	48770.02479	0.93974	1.59938E-4	1840.61132	47189.315	66.529	12995.175
1320.0	0.89474	0.10526	7.53873	7.38795	-2.28517	19.8761	31.42968	1.24189	0.80522	66.03303	115.11842	24.22696	0.3628	8.31965	53959.0187	0.93463	1.44105E-4	1842.078	46874.796	62.9038	13106.102
1315.0	0.90177	0.098227	7.5424	7.38436	-2.3327	19.81775	31.39185	1.23948	0.80679	68.478	115.35507	25.1471	0.36155	8.33875	59440.45171	0.92956	1.30406E-4	1843.5516	46575.291	59.901	13202.49
1310.0	0.90797	0.092028	7.54596	7.38087	-2.37881	19.76298	31.34978	1.23724	0.80825	70.73296	115.60951	25.99665	0.36042	8.3578	65252.24547	0.92452	1.18417E-4	1845.03156	46288.356	57.387	13286.782
1307.11	0.91123	0.088775	7.54797	7.3789	-2.4048	19.73313	31.32374	1.236	0.80906	71.95597	115.76447	26.45774	0.35983	8.36901	68778.38109	0.92159	1.1214E-4	1845.89212	46127.311	 	13330.718
1305.0	0.97423	0.025769	7.56395	7.36331	-2.61106	19.17343	31.52108	1.22663	0.81524	96.74249	115.43811	35.88665	0.34789	8.54885	93582.63261	0.90101	8.23076E-5	1849.25623	44832.424	291.1864	14540.544
1300.14	1.0	-2.9539E-9	7.57225	7.35524	-2.71783	18.93874	31.54057	1.2221	0.81826	108.93292	115.54528	40.5597	0.34287	 	111378.0402	 	6.89441E-5	 	44155.323	 	15021.761
1300.0	1.0	0.0	7.57237	7.35512	-2.71936	18.93649	31.53859	1.22206	0.81829	108.94773	115.55884	40.5653	0.34287	 	111591.478	 	6.88059E-5	 	44149.75364	136.53407	 
1295.0	1.0	0.0	7.57513	7.35244	-2.7548	18.90849	31.46396	1.22107	0.81895	109.42042	115.96241	40.74533	0.34274	 	119348.0627	 	6.41297E-5	 	43957.3152	38.48769	 
1290.0	1.0	0.0	7.57789	7.34977	-2.79016	18.88051	31.38933	1.22007	0.81963	109.89251	116.36467	40.92516	0.3426	 	127698.6834	 	5.97449E-5	 	43765.2422	38.4146	 
1285.0	1.0	0.0	7.58064	7.3471	-2.82544	18.85253	31.3147	1.21907	0.8203	110.364	116.76562	41.1048	0.34247	 	136692.9025	 	5.56352E-5	 	43573.53384	38.34167	 
1280.0	1.0	0.0	7.58338	7.34444	-2.86064	18.82458	31.24007	1.21806	0.82098	110.83488	117.16525	41.28426	0.34234	 	146384.7485	 	5.1785E-5	 	43382.18934	38.2689	 
1275.0	1.0	0.0	7.58613	7.34178	-2.89576	18.79663	31.16544	1.21704	0.82166	111.30516	117.56358	41.46352	0.34221	 	156833.1482	 	4.81795E-5	 	43191.20789	38.19629	 
1270.0	1.0	0.0	7.58887	7.33913	-2.9308	18.7687	31.09081	1.21602	0.82235	111.77484	117.96061	41.6426	0.34207	 	168102.4031	 	4.48044E-5	 	43000.58872	38.12383	 
1265.0	1.0	0.0	7.5916	7.33649	-2.96576	18.74078	31.01618	1.215	0.82304	112.24392	118.35633	41.82149	0.34194	 	180262.7148	 	4.16466E-5	 	42810.33104	38.05154	 
1260.0	1.0	0.0	7.59433	7.33385	-3.00064	18.71288	30.94155	1.21397	0.82374	112.71239	118.75076	42.00019	0.34181	 	193390.7661	 	3.86933E-5	 	42620.43405	37.9794	 
1255.0	1.0	0.0	7.59705	7.33122	-3.03544	18.68499	30.86691	1.21294	0.82444	113.18027	119.1439	42.1787	0.34168	 	207570.3622	 	3.59325E-5	 	42430.89695	37.90742	 
1250.0	1.0	0.0	7.59978	7.3286	-3.07015	18.65711	30.79228	1.2119	0.82515	113.64754	119.53575	42.35702	0.34154	 	222893.1403	 	3.33528E-5	 	42241.71898	37.83559	 
1245.0	1.0	0.0	7.60249	7.32598	-3.10479	18.62925	30.71765	1.21086	0.82586	114.11421	119.92631	42.53515	0.34141	 	239459.3539	 	3.09435E-5	 	42052.89933	37.76393	 
1240.0	1.0	0.0	7.6052	7.32337	-3.13935	18.6014	30.64301	1.20981	0.82658	114.58028	120.31559	42.71309	0.34128	 	257378.7418	 	2.86943E-5	 	41864.4372	37.69243	 
1235.0	1.0	0.0	7.60791	7.32076	-3.17382	18.57356	30.56838	1.20875	0.8273	115.04575	120.7036	42.89085	0.34115	 	276771.4892	 	2.65956E-5	 	41676.33183	37.62107	 
1230.0	1.0	0.0	7.61062	7.31816	-3.20822	18.54574	30.49375	1.2077	0.82802	115.51062	121.09033	43.06842	0.34101	 	297769.294	 	2.46382E-5	 	41488.58242	37.54988	 
1225.0	1.0	0.0	7.61332	7.31557	-3.24253	18.51794	30.41911	1.20663	0.82875	115.97489	121.47579	43.24579	0.34088	 	320516.5484	 	2.28135E-5	 	41301.18817	37.47885	 
1220.0	1.0	0.0	7.61601	7.31298	-3.27676	18.49015	30.34448	1.20556	0.82949	116.43857	121.85998	43.42298	0.34075	 	345171.6495	 	2.11132E-5	 	41114.1483	37.40797	 
1215.0	1.0	0.0	7.6187	7.31039	-3.31092	18.46237	30.26984	1.20449	0.83023	116.90164	122.2429	43.59998	0.34062	 	371908.4549	 	1.95298E-5	 	40927.46201	37.33726	 
1210.0	1.0	0.0	7.62139	7.30782	-3.34499	18.4346	30.1952	1.20341	0.83097	117.36411	122.62457	43.77679	0.34048	 	400917.8988	 	1.80558E-5	 	40741.12854	37.2667	 
1205.0	1.0	0.0	7.62407	7.30525	-3.37899	18.40685	30.12057	1.20232	0.83172	117.82598	123.00497	43.95342	0.34035	 	432409.7887	 	1.66844E-5	 	40555.14708	37.19629	 
1200.0	1.0	0.0	7.62674	7.30268	-3.4129	18.37912	30.04593	1.20123	0.83248	118.28726	123.38413	44.12985	0.34022	 	466614.8026	 	1.5409E-5	 	40369.51685	37.12605	 
1195.0	1.0	0.0	7.62942	7.30013	-3.44674	18.3514	29.97129	1.20014	0.83324	118.74794	123.76203	44.3061	0.34009	 	503786.7128	 	1.42236E-5	 	40184.23706	37.05596	 
1190.0	1.0	0.0	7.63209	7.29757	-3.48049	18.32369	29.89665	1.19904	0.834	119.20802	124.13869	44.48216	0.33995	 	544204.8607	 	1.31224E-5	 	39999.30693	36.98603	 
1185.0	1.0	0.0	7.63475	7.29503	-3.51416	18.296	29.82202	1.19793	0.83477	119.6675	124.5141	44.65803	0.33982	 	588176.9146	 	1.20999E-5	 	39814.72567	36.91625	 
1180.0	1.0	0.0	7.63741	7.29249	-3.54776	18.26832	29.74738	1.19682	0.83555	120.12638	124.88827	44.83371	0.33969	 	636041.9447	 	1.11509E-5	 	39630.49248	36.84664	 
1175.0	1.0	0.0	7.64006	7.28995	-3.58127	18.24065	29.67274	1.1957	0.83633	120.58467	125.2612	45.0092	0.33956	 	688173.8528	 	1.02707E-5	 	39446.6066	36.77718	 
1170.0	1.0	0.0	7.64271	7.28743	-3.61471	18.213	29.5981	1.19458	0.83712	121.04236	125.6329	45.18451	0.33942	 	744985.2014	 	9.45476E-6	 	39263.06722	36.70788	 
1165.0	1.0	0.0	7.64536	7.2849	-3.64806	18.18537	29.52346	1.19345	0.83791	121.49945	126.00337	45.35962	0.33929	 	806931.4912	 	8.6987E-6	 	39079.87356	36.63873	 
1160.0	1.0	0.0	7.648	7.28239	-3.68134	18.15774	29.44882	1.19231	0.83871	121.95595	126.37261	45.53455	0.33916	 	874515.9413	 	7.99854E-6	 	38897.02485	36.56974	 
1155.0	1.0	0.0	7.65064	7.27988	-3.71453	18.13014	29.37418	1.19117	0.83951	122.41184	126.74062	45.70929	0.33903	 	948294.8371	 	7.3505E-6	 	38714.52029	36.50091	 
1150.0	1.0	0.0	7.65327	7.27737	-3.74765	18.10255	29.29954	1.19002	0.84032	122.86715	127.10742	45.88385	0.33889	 	1028883.516	 	6.75105E-6	 	38532.35909	36.43224	 
1145.0	1.0	0.0	7.6559	7.27488	-3.78069	18.07497	29.22489	1.18887	0.84113	123.32185	127.473	46.05821	0.33876	 	1116963.07	 	6.19684E-6	 	38350.5405	36.36372	 
1140.0	1.0	0.0	7.65852	7.27238	-3.81364	18.0474	29.15025	1.18771	0.84195	123.77597	127.83736	46.23239	0.33863	 	1213287.862	 	5.68475E-6	 	38169.06369	36.29536	 
1135.0	1.0	0.0	7.66114	7.2699	-3.84652	18.01986	29.07561	1.18655	0.84278	124.22948	128.20051	46.40637	0.3385	 	1318693.949	 	5.21185E-6	 	37987.9279	36.22716	 
1130.0	1.0	0.0	7.66375	7.26742	-3.87932	17.99232	29.00096	1.18538	0.84361	124.6824	128.56246	46.58017	0.33836	 	1434108.545	 	4.77539E-6	 	37807.13235	36.15911	 
1125.0	1.0	0.0	7.66636	7.26495	-3.91204	17.9648	28.92632	1.1842	0.84445	125.13473	128.9232	46.75379	0.33823	 	1560560.642	 	4.3728E-6	 	37626.67624	36.09122	 
1120.61	1.0	0.0	7.66865	7.26278	-3.94069	17.94067	28.86082	1.18317	0.84519	125.53118	129.23878	46.90599	0.33811	 	1681523.838	 	4.0455E-6	 	37468.59316	 	 
1120.0	1.0	0.0	7.66898	7.26246	-3.94485	17.93674	28.85192	1.18301	0.8453	125.5899	129.2852	46.92855	0.3381	 	1699493.919	 	4.00097E-6	 	37445.67322	36.20061	 
1115.0	1.0	0.0	7.67169	7.2599	-3.97875	17.90471	28.77925	1.18174	0.84621	126.06879	129.66335	47.11254	0.33795	 	1854247.807	 	3.65389E-6	 	37258.77487	37.37967	 
1110.0	1.0	0.0	7.67439	7.25735	-4.01253	17.87282	28.70652	1.18047	0.84712	126.54634	130.03976	47.29606	0.33781	 	2024278.311	 	3.33492E-6	 	37072.42027	37.27092	 
1105.0	1.0	0.0	7.67708	7.2548	-4.04618	17.84107	28.63372	1.17919	0.84804	127.02257	130.41442	47.47911	0.33767	 	2211210.828	 	3.04196E-6	 	36886.60444	37.16317	 
1100.0	1.0	0.0	7.67976	7.25227	-4.0797	17.80945	28.56085	1.17791	0.84896	127.4975	130.78736	47.6617	0.33753	 	2416855.982	 	2.77303E-6	 	36701.32248	37.05639	 
1095.0	1.0	0.0	7.68244	7.24974	-4.1131	17.77797	28.48793	1.17663	0.84989	127.97112	131.15859	47.84383	0.33738	 	2643232.514	 	2.5263E-6	 	36516.56949	36.9506	 
1090.0	1.0	0.0	7.6851	7.24723	-4.14638	17.74661	28.41494	1.17534	0.85082	128.44347	131.52811	48.02551	0.33724	 	2892592.402	 	2.30008E-6	 	36332.34062	36.84577	 
1085.0	1.0	0.0	7.68776	7.24472	-4.17954	17.71538	28.34189	1.17405	0.85176	128.91454	131.89594	48.20674	0.3371	 	3167450.051	 	2.09279E-6	 	36148.63103	36.74192	 
1080.0	1.0	0.0	7.69042	7.24222	-4.21257	17.68427	28.26879	1.17275	0.8527	129.38435	132.2621	48.38753	0.33696	 	3470614.346	 	1.90295E-6	 	35965.43596	36.63901	 
1075.0	1.0	0.0	7.69306	7.23973	-4.24549	17.65329	28.19562	1.17145	0.85365	129.85291	132.62659	48.56788	0.33682	 	3805226.05	 	1.7292E-6	 	35782.75063	36.53707	 
1070.0	1.0	0.0	7.6957	7.23725	-4.27829	17.62242	28.1224	1.17014	0.8546	130.32024	132.98943	48.74779	0.33668	 	4174798.932	 	1.57027E-6	 	35600.57036	36.43605	 
1065.0	1.0	0.0	7.69832	7.23478	-4.31097	17.59168	28.04913	1.16883	0.85556	130.78634	133.35064	48.92727	0.33654	 	4583267.87	 	1.425E-6	 	35418.89045	36.33598	 
1060.0	1.0	0.0	7.70094	7.23232	-4.34353	17.56104	27.9758	1.16752	0.85652	131.25124	133.71021	49.10633	0.3364	 	5035041.604	 	1.2923E-6	 	35237.70626	36.23684	 
1055.0	1.0	0.0	7.70356	7.22987	-4.37598	17.53052	27.90242	1.1662	0.85749	131.71493	134.06818	49.28496	0.33626	 	5535064.578	 	1.17115E-6	 	35057.0132	36.13861	 
1050.0	1.0	0.0	7.70616	7.22742	-4.40832	17.5001	27.82899	1.16487	0.85846	132.17744	134.42454	49.46318	0.33612	 	6088885.818	 	1.06062E-6	 	34876.80671	36.0413	 
1045.0	1.0	0.0	7.70876	7.22499	-4.44054	17.46979	27.75551	1.16354	0.85945	132.63878	134.77931	49.64099	0.33598	 	6702737.703	 	9.59841E-7	 	34697.08227	35.94489	 
1040.0	1.0	0.0	7.71135	7.22256	-4.47266	17.43959	27.68198	1.16221	0.86043	133.09895	135.1325	49.81839	0.33584	 	7383625.635	 	8.68023E-7	 	34517.83538	35.84938	 
1035.0	1.0	0.0	7.71394	7.22014	-4.50466	17.40949	27.60841	1.16087	0.86143	133.55798	135.48413	49.99539	0.3357	 	8139430.622	 	7.84423E-7	 	34339.06162	35.75475	 
1030.0	1.0	0.0	7.71651	7.21773	-4.53655	17.37949	27.53479	1.15952	0.86242	134.01586	135.83421	50.17199	0.33556	 	8979025.492	 	7.08357E-7	 	34160.75657	35.66101	 
1025.0	1.0	0.0	7.71908	7.21532	-4.56834	17.34958	27.46112	1.15817	0.86343	134.47262	136.18274	50.3482	0.33543	 	9912408.125	 	6.39194E-7	 	33982.9159	35.56813	 
1020.0	1.0	0.0	7.72165	7.21293	-4.60001	17.31978	27.38741	1.15682	0.86444	134.92827	136.52975	50.52402	0.33529	 	1.09508529E7	 	5.76352E-7	 	33805.53527	35.47612	 
1015.0	1.0	0.0	7.7242	7.21054	-4.63159	17.29006	27.31366	1.15545	0.86546	135.38282	136.87524	50.69946	0.33515	 	1.210708546E7	 	5.19294E-7	 	33628.61044	35.38497	 
1010.0	1.0	0.0	7.72675	7.20816	-4.66305	17.26044	27.23987	1.15409	0.86649	135.83628	137.21923	50.87451	0.33501	 	1.339548013E7	 	4.67526E-7	 	33452.13717	35.29466	 
1005.0	1.0	0.0	7.7293	7.20579	-4.69441	17.2309	27.16603	1.15271	0.86752	136.28866	137.56172	51.04919	0.33488	 	1.483228879E7	 	4.20591E-7	 	33276.11128	35.20518	 
1000.0	1.0	0.0	7.73183	7.20343	-4.72567	17.20146	27.09216	1.15134	0.86856	136.73997	137.90273	51.2235	0.33474	 	1.643590215E7	 	3.7807E-7	 	33100.52861	35.11653	 
995.0	1.0	0.0	7.73436	7.20107	-4.75683	17.17209	27.01825	1.14995	0.8696	137.19023	138.24227	51.39744	0.3346	 	1.822714727E7	 	3.39577E-7	 	32925.38513	35.0287	 
990.0	1.0	0.0	7.73688	7.19873	-4.78788	17.14281	26.9443	1.14856	0.87065	137.63945	138.58035	51.57103	0.33446	 	2.022963399E7	 	3.04757E-7	 	32750.67674	34.94168	 
985.0	1.0	0.0	7.7394	7.19638	-4.81884	17.11362	26.87032	1.14716	0.87171	138.08763	138.91699	51.74425	0.33433	 	2.247014997E7	 	2.73283E-7	 	32576.39948	34.85545	 
980.0	1.0	0.0	7.74191	7.19405	-4.84969	17.0845	26.7963	1.14576	0.87278	138.5348	139.25219	51.91712	0.33419	 	2.497911472E7	 	2.44857E-7	 	32402.54939	34.77002	 
975.0	1.0	0.0	7.74441	7.19173	-4.88044	17.05545	26.72225	1.14435	0.87386	138.98096	139.58596	52.08964	0.33406	 	2.779110419E7	 	2.19204E-7	 	32229.12258	34.68536	 
970.0	1.0	0.0	7.74691	7.18941	-4.9111	17.02649	26.64816	1.14294	0.87494	139.42611	139.91832	52.26181	0.33392	 	3.094545852E7	 	1.96071E-7	 	32056.11519	34.60148	 
965.0	1.0	0.0	7.7494	7.1871	-4.94166	16.99759	26.57404	1.14152	0.87603	139.87029	140.24928	52.43365	0.33378	 	3.448697391E7	 	1.75229E-7	 	31883.52343	34.51835	 
960.0	1.0	0.0	7.75188	7.1848	-4.97212	16.96877	26.4999	1.14009	0.87713	140.31348	140.57884	52.60514	0.33365	 	3.846671508E7	 	1.56465E-7	 	31711.34354	34.43598	 
955.0	1.0	0.0	7.75436	7.1825	-5.00248	16.94002	26.42572	1.13865	0.87823	140.75571	140.90703	52.77631	0.33351	 	4.29429424E7	 	1.39587E-7	 	31539.57183	34.35434	 
950.0	1.0	0.0	7.75683	7.18021	-5.03275	16.91134	26.35151	1.13721	0.87935	141.19699	141.23384	52.94714	0.33338	 	4.798219658E7	 	1.24419E-7	 	31368.20466	34.27343	 
945.0	1.0	0.0	7.7593	7.17793	-5.06293	16.88272	26.27728	1.13576	0.88047	141.63732	141.5593	53.11765	0.33324	 	5.366054534E7	 	1.10798E-7	 	31197.23841	34.19325	 
940.0	1.0	0.0	7.76176	7.17566	-5.09301	16.85416	26.20301	1.1343	0.8816	142.07671	141.8834	53.28784	0.33311	 	6.00650354E7	 	9.85779E-8	 	31026.66953	34.11377	 
935.0	1.0	0.0	7.76421	7.17339	-5.123	16.82567	26.12873	1.13284	0.88274	142.51518	142.20617	53.45771	0.33297	 	6.729538121E7	 	8.76238E-8	 	30856.49456	34.035	 
930.0	1.0	0.0	7.76666	7.17113	-5.15289	16.79724	26.05441	1.13137	0.88388	142.95274	142.52761	53.62727	0.33284	 	7.54659219E7	 	7.78136E-8	 	30686.71003	33.95691	 
925.0	1.0	0.0	7.7691	7.16887	-5.1827	16.76887	25.98008	1.12989	0.88504	143.3894	142.84773	53.79652	0.3327	 	8.470789925E7	 	6.90357E-8	 	30517.31254	33.8795	 
920.0	1.0	0.0	7.77154	7.16663	-5.21241	16.74056	25.90571	1.12841	0.88621	143.82516	143.16653	53.96547	0.33257	 	9.51721239E7	 	6.11888E-8	 	30348.29879	33.80275	 
915.0	1.0	0.0	7.77396	7.16439	-5.24203	16.71231	25.83133	1.12691	0.88738	144.26003	143.48404	54.13411	0.33243	 	1.070320701E8	 	5.41806E-8	 	30179.66546	33.72667	 
910.0	1.0	0.0	7.77639	7.16216	-5.27156	16.68411	25.75692	1.12541	0.88856	144.69403	143.80026	54.30245	0.3323	 	1.204874883E8	 	4.79275E-8	 	30011.40933	33.65123	 
905.0	1.0	0.0	7.77881	7.15993	-5.301	16.65596	25.68249	1.1239	0.88976	145.12717	144.1152	54.4705	0.33216	 	1.357686522E8	 	4.23534E-8	 	29843.52723	33.57642	 
900.0	1.0	0.0	7.78122	7.15771	-5.33036	16.62787	25.60805	1.12239	0.89096	145.55944	144.42887	54.63825	0.33203	 	1.531413092E8	 	3.73893E-8	 	29676.016	33.50224	 
895.0	1.0	0.0	7.78362	7.1555	-5.35962	16.59982	25.53358	1.12086	0.89217	145.99087	144.74127	54.80572	0.33189	 	1.729124732E8	 	3.2973E-8	 	29508.87261	33.42868	 
890.0	1.0	0.0	7.78602	7.15329	-5.3888	16.57183	25.45909	1.11933	0.89339	146.42146	145.05242	54.9729	0.33176	 	1.954372561E8	 	2.90479E-8	 	29342.094	33.35572	 
885.0	1.0	0.0	7.78842	7.15109	-5.41789	16.54388	25.38458	1.11779	0.89462	146.85122	145.36233	55.1398	0.33163	 	2.211268527E8	 	2.55629E-8	 	29175.67724	33.28335	 
880.0	1.0	0.0	7.79081	7.1489	-5.44689	16.51598	25.31006	1.11624	0.89586	147.28015	145.671	55.30642	0.33149	 	2.504579592E8	 	2.24718E-8	 	29009.61937	33.21157	 
875.0	1.0	0.0	7.79319	7.14671	-5.47581	16.48812	25.23552	1.11469	0.89711	147.70827	145.97844	55.47277	0.33136	 	2.839838564E8	 	1.97329E-8	 	28843.91757	33.14036	 
870.0	1.0	0.0	7.79557	7.14453	-5.50463	16.46031	25.16096	1.11312	0.89838	148.13558	146.28467	55.63884	0.33122	 	3.22347458E8	 	1.73087E-8	 	28678.56902	33.06971	 
865.0	1.0	0.0	7.79794	7.14236	-5.53338	16.43255	25.08639	1.11155	0.89965	148.5621	146.58969	55.80465	0.33109	 	3.662967681E8	 	1.51654E-8	 	28513.57094	32.99962	 
860.0	1.0	0.0	7.80031	7.14019	-5.56204	16.40482	25.0118	1.10996	0.90093	148.98782	146.8935	55.97018	0.33096	 	4.167030654E8	 	1.32723E-8	 	28348.92063	32.93006	 
855.0	1.0	0.0	7.80267	7.13803	-5.59061	16.37713	24.93719	1.10837	0.90222	149.41276	147.19612	56.13545	0.33082	 	4.745825033E8	 	1.16022E-8	 	28184.61546	32.86103	 
850.0	1.0	0.0	7.80502	7.13588	-5.6191	16.34949	24.86258	1.10677	0.90353	149.83692	147.49755	56.30046	0.33069	 	5.411217296E8	 	1.01305E-8	 	28020.65282	32.79253	 
845.0	1.0	0.0	7.80736	7.13374	-5.64738	16.32246	24.78772	1.10517	0.90484	150.25657	147.79497	56.46377	0.33056	 	6.175938081E8	 	8.83657E-9	 	27861.22191	31.88618	 
840.0	1.0	0.0	7.8097	7.13161	-5.67558	16.29545	24.71286	1.10356	0.90616	150.67563	148.09134	56.62688	0.33042	 	7.057105625E8	 	7.69864E-9	 	27698.8291	32.47856	 
835.0	1.0	0.0	7.81203	7.12948	-5.7037	16.26845	24.638	1.10194	0.90749	151.09409	148.38667	56.78981	0.33029	 	8.073707441E8	 	6.69903E-9	 	27536.73025	32.41977	 
830.0	1.0	0.0	7.81435	7.12736	-5.73175	16.24146	24.56314	1.10031	0.90883	151.51196	148.68095	56.95254	0.33016	 	9.24802963E8	 	5.822E-9	 	27374.92466	32.36112	 
825.0	1.0	0.0	7.81667	7.12525	-5.75972	16.21449	24.48827	1.09868	0.91019	151.92924	148.9742	57.11508	0.33003	 	1.060626484E9	 	5.05343E-9	 	27213.41158	32.30262	 
820.0	1.0	0.0	7.81898	7.12314	-5.78762	16.18752	24.41341	1.09703	0.91155	152.34593	149.26641	57.27743	0.32989	 	1.217923869E9	 	4.38073E-9	 	27052.19025	32.24426	 
815.0	1.0	0.0	7.82129	7.12103	-5.81544	16.16056	24.33854	1.09537	0.91293	152.76202	149.55759	57.43959	0.32976	 	1.400327898E9	 	3.79268E-9	 	26891.25997	32.18606	 
810.0	1.0	0.0	7.8236	7.11894	-5.84319	16.13362	24.26368	1.0937	0.91433	153.17752	149.84774	57.60157	0.32963	 	1.612125725E9	 	3.27926E-9	 	26730.61999	32.128	 
805.0	1.0	0.0	7.8259	7.11684	-5.87086	16.10669	24.18881	1.09202	0.91573	153.59243	150.13686	57.76335	0.3295	 	1.858383875E9	 	2.83159E-9	 	26570.26956	32.07009	 
800.0	1.0	0.0	7.82819	7.11476	-5.89845	16.07976	24.11394	1.09033	0.91715	154.00675	150.42496	57.92494	0.32936	 	2.145098464E9	 	2.44174E-9	 	26410.20797	32.01232	 
795.0	1.0	0.0	7.83048	7.11268	-5.92597	16.05285	24.03908	1.08863	0.91859	154.42048	150.71203	58.08634	0.32923	 	2.479376024E9	 	2.1027E-9	 	26250.43448	31.9547	 
790.0	1.0	0.0	7.83277	7.1106	-5.95341	16.02595	23.96421	1.08692	0.92003	154.83361	150.99808	58.24755	0.3291	 	2.869651482E9	 	1.80822E-9	 	26090.94836	31.89723	 
785.0	1.0	0.0	7.83505	7.10853	-5.98078	15.99906	23.88933	1.0852	0.92149	155.24615	151.28311	58.40857	0.32897	 	3.325951346E9	 	1.55281E-9	 	25931.74886	31.8399	 
780.0	1.0	0.0	7.83732	7.10647	-6.00807	15.97219	23.81446	1.08347	0.92296	155.65811	151.56713	58.5694	0.32883	 	3.860211967E9	 	1.33158E-9	 	25772.83528	31.78272	 
775.0	1.0	0.0	7.83959	7.10441	-6.03528	15.94532	23.73959	1.08172	0.92445	156.06947	151.85014	58.73004	0.3287	 	4.486665029E9	 	1.14021E-9	 	25614.20688	31.72568	 
770.0	1.0	0.0	7.84186	7.10236	-6.06242	15.91846	23.66472	1.07997	0.92595	156.48024	152.13213	58.89049	0.32857	 	5.222305197E9	 	9.74925E-10	 	25455.86294	31.66879	 
765.0	1.0	0.0	7.84412	7.10031	-6.08949	15.89162	23.58984	1.0782	0.92747	156.89042	152.41312	59.05074	0.32844	 	6.087458394E9	 	8.32359E-10	 	25297.80273	31.61204	 
760.0	1.0	0.0	7.84637	7.09827	-6.11648	15.86479	23.51496	1.07643	0.929	157.30001	152.6931	59.21081	0.3283	 	7.106473478E9	 	7.09571E-10	 	25140.02553	31.55544	 
755.0	1.0	0.0	7.84862	7.09624	-6.14339	15.83796	23.44009	1.07464	0.93054	157.70901	152.97208	59.37069	0.32817	 	8.308565551E9	 	6.03972E-10	 	24982.53061	31.49899	 
750.0	1.0	0.0	7.85087	7.09421	-6.17023	15.81115	23.36521	1.07284	0.9321	158.11742	153.25006	59.53038	0.32804	 	9.728845889E9	 	5.13292E-10	 	24825.31726	31.44267	 
745.0	1.0	0.0	7.85311	7.09219	-6.197	15.78435	23.29033	1.07103	0.93368	158.52524	153.52704	59.68987	0.32791	 	1.14096E10	 	4.35541E-10	 	24668.38476	31.3865	 
740.0	1.0	0.0	7.85534	7.09017	-6.22369	15.75756	23.21545	1.06921	0.93527	158.93247	153.80302	59.84918	0.32777	 	1.3401699999999998E10	 	3.68977E-10	 	24511.73238	31.33048	 
735.0	1.0	0.0	7.85757	7.08816	-6.2503	15.73079	23.14056	1.06738	0.93688	159.33911	154.07801	60.0083	0.32764	 	1.5766899999999998E10	 	3.1208E-10	 	24355.35942	31.27459	 
730.0	1.0	0.0	7.8598	7.08615	-6.27684	15.70402	23.06568	1.06553	0.9385	159.74516	154.35201	60.16722	0.32751	 	1.85795E10	 	2.63523E-10	 	24199.26516	31.21885	 
725.0	1.0	0.0	7.86202	7.08415	-6.30331	15.67726	22.9908	1.06367	0.94014	160.15062	154.62503	60.32596	0.32738	 	2.19299E10	 	2.2215E-10	 	24043.44888	31.16326	 
720.0	1.0	0.0	7.86423	7.08215	-6.3297	15.65052	22.91591	1.0618	0.94179	160.5555	154.89705	60.4845	0.32724	 	2.5927699999999996E10	 	1.86955E-10	 	23887.90988	31.1078	 
715.0	1.0	0.0	7.86644	7.08016	-6.35601	15.62379	22.84103	1.05992	0.94347	160.95978	155.16809	60.64286	0.32711	 	3.0706399999999996E10	 	1.57066E-10	 	23732.64745	31.05249	 
710.0	1.0	0.0	7.86865	7.07818	-6.38225	15.59706	22.76614	1.05803	0.94516	161.36347	155.43815	60.80102	0.32698	 	3.64283E10	 	1.31725E-10	 	23577.66087	30.99731	 
705.0	1.0	0.0	7.87085	7.0762	-6.40842	15.57035	22.69125	1.05612	0.94686	161.76658	155.70724	60.95899	0.32685	 	4.32921E10	 	1.10277E-10	 	23422.94944	30.94229	 
700.0	1.0	0.0	7.87304	7.07423	-6.43451	15.54365	22.61636	1.0542	0.94859	162.16909	155.97534	61.11678	0.32672	 	5.154049999999999E10	 	9.21548E-11	 	23268.51247	30.88739	 
695.0	1.0	0.0	7.87523	7.07226	-6.46052	15.51697	22.54147	1.05227	0.95033	162.57102	156.24247	61.27437	0.32658	 	6.147109999999999E10	 	7.68703E-11	 	23114.34924	30.83265	 
690.0	1.0	0.0	7.87742	7.0703	-6.48646	15.49029	22.46657	1.05032	0.95209	162.97236	156.50863	61.43177	0.32645	 	7.34493E10	 	6.4002E-11	 	22960.45905	30.77804	 
685.0	1.0	0.0	7.8796	7.06834	-6.51233	15.46362	22.39168	1.04837	0.95387	163.3731	156.77382	61.58898	0.32632	 	8.79247E10	 	5.31874E-11	 	22806.84121	30.72357	 
680.0	1.0	0.0	7.88177	7.06639	-6.53812	15.43697	22.31678	1.0464	0.95566	163.77327	157.03805	61.746	0.32619	 	1.05452E11	 	4.41157E-11	 	22653.49502	30.66924	 
675.0	1.0	0.0	7.88394	7.06445	-6.56384	15.41032	22.24189	1.04441	0.95748	164.17284	157.30131	61.90283	0.32605	 	1.26716E11	 	3.65202E-11	 	22500.41979	30.61505	 
670.0	1.0	0.0	7.8861	7.06251	-6.58948	15.38369	22.16699	1.04241	0.95931	164.57182	157.5636	62.05947	0.32592	 	1.52564E11	 	3.01728E-11	 	22347.61483	30.56099	 
665.0	1.0	0.0	7.88826	7.06058	-6.61505	15.35707	22.09209	1.0404	0.96117	164.97022	157.82494	62.21592	0.32579	 	1.84049E11	 	2.48786E-11	 	22195.07944	30.50708	 
660.0	1.0	0.0	7.89042	7.05865	-6.64054	15.33046	22.01719	1.03838	0.96304	165.36803	158.08532	62.37218	0.32566	 	2.22478E11	 	2.04716E-11	 	22042.81292	30.4533	 
655.0	1.0	0.0	7.89257	7.05673	-6.66596	15.30386	21.94229	1.03634	0.96493	165.76525	158.34474	62.52825	0.32552	 	2.69481E11	 	1.68103E-11	 	21890.81462	30.39966	 
650.0	1.0	0.0	7.89471	7.05481	-6.69131	15.27727	21.86739	1.03429	0.96685	166.16189	158.60321	62.68413	0.32539	 	3.27094E11	 	1.37748E-11	 	21739.08383	30.34616	 
645.0	1.0	0.0	7.89685	7.0529	-6.71658	15.25069	21.79248	1.03222	0.96878	166.55793	158.86073	62.83982	0.32526	 	3.97862E11	 	1.12634E-11	 	21587.61988	30.29279	 
640.0	1.0	0.0	7.89898	7.051	-6.74178	15.22413	21.71758	1.03014	0.97074	166.95339	159.1173	62.99531	0.32513	 	4.84979E11	 	9.18979E-12	 	21436.42209	30.23956	 
635.0	1.0	0.0	7.90111	7.0491	-6.7669	15.19757	21.64267	1.02805	0.97272	167.34826	159.37293	63.15062	0.32499	 	5.92463E11	 	7.4814E-12	 	21285.48978	30.18646	 
630.0	1.0	0.0	7.90323	7.0472	-6.79195	15.17103	21.56776	1.02594	0.97472	167.74255	159.62761	63.30574	0.32486	 	7.25374E11	 	6.07693E-12	 	21134.82228	30.1335	 
625.0	1.0	0.0	7.90535	7.04532	-6.81692	15.14449	21.49285	1.02381	0.97674	168.13624	159.88135	63.46066	0.32473	 	8.90105E11	 	4.92486E-12	 	20984.41893	30.08067	 
620.0	1.0	0.0	7.90747	7.04343	-6.84182	15.11797	21.41794	1.02167	0.97878	168.52935	160.13414	63.6154	0.3246	 	1.09475E12	 	3.98194E-12	 	20834.27904	30.02798	 
615.0	1.0	0.0	7.90957	7.04156	-6.86665	15.09146	21.34303	1.01952	0.98085	168.92188	160.38601	63.76994	0.32446	 	1.34959E12	 	3.21196E-12	 	20684.40197	29.97541	 
610.0	1.0	0.0	7.91168	7.03968	-6.8914	15.06496	21.26812	1.01735	0.98294	169.31381	160.63693	63.92429	0.32433	 	1.6677E12	 	2.58466E-12	 	20534.78704	29.92299	 
605.0	1.0	0.0	7.91377	7.03782	-6.91608	15.03847	21.1932	1.01517	0.98506	169.70516	160.88693	64.07846	0.3242	 	2.06576E12	 	2.07479E-12	 	20385.43359	29.87069	 
600.0	1.0	0.0	7.91587	7.03596	-6.94069	15.012	21.11829	1.01297	0.9872	170.09593	161.13599	64.23243	0.32407	 	2.56512E12	 	1.66138E-12	 	20236.34098	29.81852	 
595.0	1.0	0.0	7.91795	7.0341	-6.96522	14.98553	21.04337	1.01075	0.98936	170.48611	161.38412	64.38621	0.32393	 	3.19313E12	 	1.32698E-12	 	20087.50855	29.76649	 
590.0	1.0	0.0	7.92004	7.03225	-6.98968	14.95907	20.96845	1.00852	0.99155	170.8757	161.63133	64.5398	0.3238	 	3.98501E12	 	1.05717E-12	 	19938.93565	29.71458	 
585.0	1.0	0.0	7.92211	7.03041	-7.01406	14.93263	20.89353	1.00628	0.99376	171.2647	161.87761	64.6932	0.32367	 	4.98611E12	 	8.40016E-13	 	19790.62164	29.6628	 
580.0	1.0	0.0	7.92418	7.02857	-7.03837	14.9062	20.81861	1.00401	0.996	171.65312	162.12298	64.84641	0.32354	 	6.25513E12	 	6.65696E-13	 	19642.56586	29.61116	 
575.0	1.0	0.0	7.92625	7.02674	-7.06261	14.87978	20.74368	1.00174	0.99827	172.04095	162.36742	64.99943	0.3234	 	7.86812E12	 	5.26124E-13	 	19494.76769	29.55963	 
570.0	1.0	0.0	7.92831	7.02491	-7.08677	14.85337	20.66876	0.99944	1.00056	172.4282	162.61094	65.15225	0.32327	 	9.92403E12	 	4.14671E-13	 	19347.2265	29.50824	 
565.0	1.0	0.0	7.93037	7.02309	-7.11086	14.82697	20.59383	0.99713	1.00288	172.81486	162.85355	65.30489	0.32314	 	1.25518E13	 	3.25913E-13	 	19199.94164	29.45697	 
560.0	1.0	0.0	7.93242	7.02128	-7.13488	14.80058	20.51891	0.9948	1.00523	173.20094	163.09525	65.45733	0.32301	 	1.59203E13	 	2.55422E-13	 	19052.91249	29.40583	 
555.0	1.0	0.0	7.93447	7.01947	-7.15882	14.7742	20.44398	0.99245	1.0076	173.58643	163.33603	65.60959	0.32287	 	2.02508E13	 	1.99597E-13	 	18906.13843	29.35481	 
550.0	1.0	0.0	7.93651	7.01766	-7.18269	14.74784	20.36905	0.99009	1.01001	173.97133	163.57591	65.76165	0.32274	 	2.58346E13	 	1.55512E-13	 	18759.61883	29.30392	 
545.0	1.0	0.0	7.93854	7.01586	-7.20649	14.72148	20.29411	0.98771	1.01244	174.35565	163.81488	65.91353	0.32261	 	3.30564E13	 	1.20799E-13	 	18613.3531	29.25315	 
540.0	1.0	0.0	7.94057	7.01407	-7.23021	14.69514	20.21918	0.98531	1.01491	174.73939	164.05294	66.06521	0.32248	 	4.24253E13	 	9.35477E-14	 	18467.3406	29.2025	 
535.0	1.0	0.0	7.9426	7.01228	-7.25386	14.6688	20.14424	0.98289	1.0174	175.12254	164.2901	66.2167	0.32234	 	5.46179E13	 	7.22178E-14	 	18321.58075	29.15197	 
530.0	1.0	0.0	7.94462	7.0105	-7.27743	14.64248	20.06931	0.98046	1.01993	175.5051	164.52636	66.368	0.32221	 	7.0536E13	 	5.55741E-14	 	18176.07294	29.10156	 
525.0	1.0	0.0	7.94663	7.00872	-7.30094	14.61617	19.99437	0.97801	1.02249	175.88708	164.76173	66.51911	0.32208	 	9.13858E13	 	4.26277E-14	 	18030.81656	29.05128	 
520.0	1.0	0.0	7.94864	7.00695	-7.32437	14.58987	19.91943	0.97554	1.02507	176.26847	164.99619	66.67003	0.32195	 	1.18786E14	 	3.25895E-14	 	17885.81103	29.00111	 
515.0	1.0	0.0	7.95064	7.00518	-7.34773	14.56359	19.84449	0.97305	1.0277	176.64928	165.22977	66.82075	0.32181	 	1.54916E14	 	2.48313E-14	 	17741.05577	28.95105	 
510.0	1.0	0.0	7.95264	7.00342	-7.37101	14.53731	19.76954	0.97054	1.03035	177.02951	165.46245	66.97129	0.32168	 	2.02721E14	 	1.88553E-14	 	17596.55019	28.90112	 
505.0	1.0	0.0	7.95463	7.00167	-7.39422	14.51104	19.6946	0.96802	1.03304	177.40915	165.69424	67.12163	0.32155	 	2.6619699999999997E14	 	1.42674E-14	 	17452.29372	28.85129	 
500.0	1.0	0.0	7.95662	6.99992	-7.41736	14.48479	19.61965	0.96547	1.03577	177.7882	165.92514	67.27179	0.32142	 	3.50783E14	 	1.07575E-14	 	17308.28578	28.80159	 
495.0	1.0	0.0	7.95861	6.99817	-7.44042	14.45854	19.5447	0.9629	1.03853	178.16667	166.15515	67.42175	0.32128	 	4.6391E14	 	8.08163E-15	 	17164.52582	28.75199	 
490.0	1.0	0.0	7.96058	6.99644	-7.46342	14.43231	19.46975	0.96032	1.04132	178.54456	166.38429	67.57152	0.32115	 	6.15771E14	 	6.04892E-15	 	17021.01329	28.70251	 
485.0	1.0	0.0	7.96255	6.9947	-7.48634	14.40609	19.3948	0.95771	1.04415	178.92186	166.61254	67.7211	0.32102	 	8.20402E14	 	4.5104E-15	 	16877.74761	28.65314	 
480.0	1.0	0.0	7.96452	6.99298	-7.50918	14.37988	19.31985	0.95509	1.04702	179.29858	166.83991	67.87049	0.32089	 	1.09721E15	 	3.35027E-15	 	16734.72825	28.60387	 
475.0	1.0	0.0	7.96648	6.99125	-7.53196	14.35368	19.24489	0.95244	1.04993	179.67472	167.0664	68.01969	0.32076	 	1.47312E15	 	2.47877E-15	 	16591.95469	28.55471	 
470.0	1.0	0.0	7.96844	6.98954	-7.55466	14.32749	19.16994	0.94978	1.05288	180.05027	167.29202	68.1687	0.32062	 	1.98569E15	 	1.82664E-15	 	16449.42636	28.50567	 
465.0	1.0	0.0	7.97039	6.98783	-7.57729	14.30132	19.09498	0.94709	1.05587	180.42524	167.51676	68.31751	0.32049	 	2.68744E15	 	1.34058E-15	 	16307.14277	28.45672	 
460.0	1.0	0.0	7.97234	6.98612	-7.59985	14.27515	19.02002	0.94438	1.05889	180.79962	167.74063	68.46614	0.32036	 	3.65224E15	 	9.79761E-16	 	16165.10339	28.40788	 
455.0	1.0	0.0	7.97428	6.98442	-7.62233	14.249	18.94506	0.94165	1.06196	181.17342	167.96363	68.61457	0.32023	 	4.98437E15	 	7.13013E-16	 	16023.3077	28.35914	 
450.0	1.0	0.0	7.97621	6.98273	-7.64474	14.22285	18.87009	0.9389	1.06507	181.54663	168.18577	68.76281	0.32009	 	6.83169E15	 	5.16639E-16	 	15881.75522	28.3105	 
445.0	1.0	0.0	7.97814	6.98104	-7.66708	14.19672	18.79513	0.93613	1.06823	181.91927	168.40704	68.91086	0.31996	 	9.40487E15	 	3.72691E-16	 	15740.44544	28.26196	 
440.0	1.0	0.0	7.98007	6.97935	-7.68935	14.1706	18.72016	0.93333	1.07143	182.29132	168.62744	69.05872	0.31983	 	1.30054E16	 	2.67635E-16	 	15599.37788	28.21351	 
435.0	1.0	0.0	7.98199	6.97768	-7.71154	14.14449	18.64519	0.93052	1.07467	182.66278	168.84699	69.20639	0.3197	 	1.80669E16	 	1.91306E-16	 	15458.55207	28.16516	 
430.0	1.0	0.0	7.9839	6.976	-7.73366	14.11839	18.57022	0.92768	1.07796	183.03366	169.06567	69.35387	0.31956	 	2.52158E16	 	1.36101E-16	 	15317.96753	28.11691	 
425.0	1.0	0.0	7.98581	6.97434	-7.75571	14.0923	18.49525	0.92481	1.0813	183.40396	169.2835	69.50115	0.31943	 	3.5361900000000004E16	 	9.63607E-17	 	15177.62383	28.06874	 
420.0	1.0	0.0	7.98771	6.97267	-7.77769	14.06623	18.42027	0.92193	1.08468	183.77368	169.50047	69.64824	0.3193	 	4.98331E16	 	6.78885E-17	 	15037.52049	28.02067	 
415.0	1.0	0.0	7.98961	6.97102	-7.7996	14.04016	18.3453	0.91902	1.08812	184.14281	169.71658	69.79514	0.31917	 	7.0577300000000008E16	 	4.75888E-17	 	14897.65708	27.97268	 
410.0	1.0	0.0	7.9915	6.96937	-7.82143	14.01411	18.27032	0.91609	1.0916	184.51136	169.93185	69.94186	0.31903	 	1.00467E17	 	3.31878E-17	 	14758.03318	27.92478	 
405.0	1.0	0.0	7.99339	6.96772	-7.84319	13.98806	18.19534	0.91313	1.09514	184.87933	170.14626	70.08837	0.3189	 	1.43762E17	 	2.30233E-17	 	14618.64838	27.87696	 
400.0	1.0	0.0	7.99527	6.96608	-7.86488	13.96203	18.12036	0.91015	1.09872	185.24672	170.35983	70.2347	0.31877	 	2.06813E17	 	1.58862E-17	 	14479.50226	27.82922	 
395.0	1.0	0.0	7.99715	6.96445	-7.8865	13.93601	18.04537	0.90714	1.10237	185.61352	170.57255	70.38084	0.31864	 	2.9914E17	 	1.09015E-17	 	14340.59442	27.78157	 
390.0	1.0	0.0	7.99902	6.96282	-7.90804	13.91	17.97039	0.90411	1.10606	185.97974	170.78442	70.52678	0.3185	 	4.35099E17	 	7.43892E-18	 	14201.9245	27.73398	 
385.0	1.0	0.0	8.00088	6.96119	-7.92952	13.884	17.8954	0.90105	1.10981	186.34537	170.99546	70.67253	0.31837	 	6.36465E17	 	5.04705E-18	 	14063.49212	27.68648	 
380.0	1.0	0.0	8.00274	6.95958	-7.95092	13.85801	17.82041	0.89797	1.11362	186.71043	171.20565	70.81809	0.31824	 	9.3646E17	 	3.40416E-18	 	13925.29693	27.63904	 
375.0	1.0	0.0	8.0046	6.95796	-7.97225	13.83204	17.74542	0.89486	1.11749	187.0749	171.41501	70.96346	0.31811	 	1.38609E18	 	2.28229E-18	 	13787.33857	27.59167	 
370.0	1.0	0.0	8.00645	6.95636	-7.99351	13.80607	17.67042	0.89173	1.12142	187.43879	171.62352	71.10864	0.31797	 	2.06416E18	 	1.52074E-18	 	13649.61673	27.54437	 
365.0	1.0	0.0	8.00829	6.95475	-8.0147	13.78012	17.59543	0.88856	1.12541	187.8021	171.83121	71.25362	0.31784	 	3.09317E18	 	1.00695E-18	 	13512.13109	27.49713	 
360.0	1.0	0.0	8.01013	6.95316	-8.03581	13.75417	17.52043	0.88538	1.12946	188.16482	172.03806	71.39842	0.31771	 	4.66486E18	 	6.62452E-19	 	13374.88135	27.44995	 
355.0	1.0	0.0	8.01196	6.95157	-8.05685	13.72824	17.44543	0.88216	1.13358	188.52697	172.24408	71.54302	0.31758	 	7.08133E18	 	4.32948E-19	 	13237.86723	27.40282	 
350.0	1.0	0.0	8.01379	6.94998	-8.07783	13.70232	17.37043	0.87892	1.13776	188.88853	172.44927	71.68743	0.31745	 	1.08218E19	 	2.81048E-19	 	13101.08845	27.35576	 
345.0	1.0	0.0	8.01561	6.9484	-8.09873	13.67641	17.29542	0.87565	1.14201	189.24951	172.65364	71.83164	0.31731	 	1.66519E19	 	1.81183E-19	 	12964.54478	27.30873	 
340.0	1.0	0.0	8.01743	6.94683	-8.11956	13.65051	17.22042	0.87235	1.14633	189.60991	172.85717	71.97567	0.31718	 	2.58036E19	 	1.15977E-19	 	12828.23598	27.26176	 
335.0	1.0	0.0	8.01924	6.94526	-8.14031	13.62462	17.14541	0.86902	1.15072	189.96972	173.05989	72.1195	0.31705	 	4.02741E19	 	7.37007E-20	 	12692.16183	27.21483	 
330.0	1.0	0.0	8.02105	6.94369	-8.161	13.59875	17.0704	0.86566	1.15519	190.32896	173.26178	72.26315	0.31692	 	6.33251E19	 	4.64875E-20	 	12556.32214	27.16794	 
325.0	1.0	0.0	8.02285	6.94213	-8.18161	13.57288	16.99539	0.86227	1.15972	190.68761	173.46286	72.4066	0.31678	 	1.00326E20	 	2.90994E-20	 	12420.71675	27.12108	 
320.0	1.0	0.0	8.02465	6.94058	-8.20216	13.54703	16.92037	0.85886	1.16434	191.04568	173.66312	72.54985	0.31665	 	1.60184E20	 	1.80731E-20	 	12285.34549	27.07425	 
315.0	1.0	0.0	8.02644	6.93903	-8.22263	13.52119	16.84535	0.85541	1.16903	191.40317	173.86256	72.69292	0.31652	 	2.5779699999999997E20	 	1.11352E-20	 	12150.20822	27.02745	 
310.0	1.0	0.0	8.02822	6.93749	-8.24303	13.49535	16.77033	0.85193	1.1738	191.76008	174.06118	72.83579	0.31639	 	4.1829499999999997E20	 	6.80431E-21	 	12015.30485	26.98067	 
305.0	1.0	0.0	8.03	6.93595	-8.26336	13.46953	16.69531	0.84842	1.17866	192.11641	174.259	72.97847	0.31625	 	6.8442E20	 	4.12292E-21	 	11880.6353	26.93391	 
300.0	1.0	0.0	8.03177	6.93442	-8.28362	13.44372	16.62029	0.84488	1.1836	192.47215	174.456	73.12096	0.31612	 	1.12952E21	 	2.47663E-21	 	11746.19949	26.88716	 
295.0	1.0	0.0	8.03354	6.9329	-8.30381	13.41792	16.54526	0.84131	1.18862	192.82732	174.65219	73.26326	0.31599	 	1.88059E21	 	1.47454E-21	 	11611.9974	26.84042	 
290.0	1.0	0.0	8.0353	6.93137	-8.32392	13.39214	16.47023	0.8377	1.19374	193.1819	174.84758	73.40536	0.31586	 	3.1595600000000003E21	 	8.6993E-22	 	11478.02901	26.79368	 
285.0	1.0	0.0	8.03706	6.92986	-8.34397	13.36636	16.3952	0.83407	1.19895	193.5359	175.04216	73.54728	0.31572	 	5.35791E21	 	5.08443E-22	 	11344.29435	26.74693	 
280.0	1.0	0.0	8.03881	6.92835	-8.36395	13.3406	16.32017	0.83039	1.20425	193.88932	175.23594	73.689	0.31559	 	9.17299E21	 	2.94319E-22	 	11210.79346	26.70018	 
275.0	1.0	0.0	8.04056	6.92684	-8.38385	13.31484	16.24513	0.82669	1.20964	194.24217	175.42892	73.83052	0.31546	 	1.5859399999999999E22	 	1.68694E-22	 	11077.52645	26.6534	 
270.0	1.0	0.0	8.0423	6.92534	-8.40368	13.2891	16.1701	0.82295	1.21514	194.59442	175.6211	73.97186	0.31533	 	2.76975E22	 	9.57119E-23	 	10944.4934	26.60661	 
265.0	1.0	0.0	8.04404	6.92385	-8.42344	13.26337	16.09506	0.81918	1.22074	194.9461	175.81248	74.113	0.3152	 	4.88758E22	 	5.37399E-23	 	10811.69446	26.55979	 
260.0	1.0	0.0	8.04577	6.92236	-8.44314	13.23765	16.02001	0.81537	1.22644	195.2972	176.00306	74.25395	0.31506	 	8.71712E22	 	2.98513E-23	 	10679.12983	26.51293	 
255.0	1.0	0.0	8.04749	6.92088	-8.46276	13.21194	15.94497	0.81152	1.23225	195.64772	176.19285	74.39471	0.31493	 	1.5718499999999998E23	 	1.63996E-23	 	10546.79972	26.46602	 
250.0	1.0	0.0	8.04921	6.9194	-8.48231	13.18624	15.86992	0.80764	1.23818	195.99766	176.38185	74.53527	0.3148	 	2.86643E23	 	8.90781E-24	 	10414.70438	26.41907	 
245.0	1.0	0.0	8.05092	6.91793	-8.50179	13.16055	15.79487	0.80372	1.24421	196.34701	176.57005	74.67565	0.31467	 	5.28822E23	 	4.78226E-24	 	10282.84413	26.37205	 
240.0	1.0	0.0	8.05263	6.91646	-8.5212	13.13488	15.71982	0.79977	1.25037	196.69579	176.75747	74.81583	0.31453	 	9.873239999999999E23	 	2.53671E-24	 	10151.21927	26.32497	 
235.0	1.0	0.0	8.05433	6.915	-8.54054	13.10921	15.64476	0.79577	1.25664	197.04398	176.9441	74.95582	0.3144	 	1.86615E24	 	1.32902E-24	 	10019.83023	26.27781	 
230.0	1.0	0.0	8.05603	6.91354	-8.5598	13.08356	15.5697	0.79174	1.26304	197.3916	177.12994	75.09561	0.31427	 	3.57213E24	 	6.87475E-25	 	9888.67743	26.23056	 
225.0	1.0	0.0	8.05772	6.91209	-8.579	13.05791	15.49464	0.78767	1.26957	197.73863	177.315	75.23521	0.31414	 	6.92738E24	 	3.50976E-25	 	9757.76133	26.18322	 
220.0	1.0	0.0	8.05941	6.91064	-8.59813	13.03228	15.41958	0.78356	1.27623	198.08509	177.49928	75.37462	0.314	 	1.3615800000000002E25	 	1.76775E-25	 	9627.08249	26.13577	 
215.0	1.0	0.0	8.06109	6.9092	-8.61719	13.00666	15.34451	0.77941	1.28302	198.43096	177.68277	75.51384	0.31387	 	2.71351E25	 	8.7803E-26	 	9496.64148	26.0882	 
210.0	1.0	0.0	8.06277	6.90777	-8.63617	12.98105	15.26945	0.77522	1.28996	198.77626	177.86549	75.65286	0.31374	 	5.485500000000001E25	 	4.29885E-26	 	9366.43895	26.04051	 
205.0	1.0	0.0	8.06444	6.90634	-8.65509	12.95545	15.19438	0.77099	1.29704	199.12097	178.04743	75.79169	0.31361	 	1.12537E26	 	2.07375E-26	 	9236.47561	25.99267	 
200.0	1.0	0.0	8.0661	6.90491	-8.67394	12.92987	15.1193	0.76671	1.30427	199.46511	178.2286	75.93033	0.31347	 	2.34406E26	 	9.85183E-27	 	9106.75222	25.94468	 
195.0	1.0	0.0	8.06776	6.90349	-8.69271	12.90429	15.04422	0.7624	1.31165	199.80866	178.40899	76.06878	0.31334	 	4.9596400000000005E26	 	4.60704E-27	 	8977.26962	25.89652	 
190.0	1.0	0.0	8.06941	6.90208	-8.71142	12.87873	14.96915	0.75804	1.3192	200.15163	178.58861	76.20703	0.31321	 	1.0664999999999999E27	 	2.11958E-27	 	8848.0287	25.84818	 
185.0	1.0	0.0	8.07106	6.90067	-8.73006	12.85317	14.89406	0.75363	1.3269	200.49403	178.76746	76.34509	0.31308	 	2.3319799999999998E27	 	9.5889E-28	 	8719.03047	25.79965	 
180.0	1.0	0.0	8.0727	6.89926	-8.74862	12.82763	14.81898	0.74919	1.33478	200.83584	178.94554	76.48296	0.31295	 	5.18788E27	 	4.26323E-28	 	8590.27595	25.7509	 
175.0	1.0	0.0	8.07434	6.89787	-8.76712	12.8021	14.74389	0.74469	1.34283	201.17708	179.12285	76.62063	0.31281	 	1.17491E28	 	1.86169E-28	 	8461.76631	25.70193	 
170.0	1.0	0.0	8.07597	6.89647	-8.78554	12.77658	14.6688	0.74015	1.35107	201.51774	179.2994	76.75811	0.31268	 	2.7103600000000002E28	 	7.98013E-29	 	8333.50276	25.65271	 
165.0	1.0	0.0	8.07759	6.89509	-8.8039	12.75107	14.59371	0.73557	1.35949	201.85781	179.47519	76.8954	0.31255	 	6.3729E28	 	3.35562E-29	 	8205.48662	25.60323	 
160.0	1.0	0.0	8.07921	6.8937	-8.82219	12.72557	14.51861	0.73094	1.36811	202.19731	179.65021	77.03249	0.31242	 	1.5283400000000002E29	 	1.38327E-29	 	8077.71931	25.55346	 
155.0	1.0	0.0	8.08083	6.89233	-8.8404	12.70008	14.44351	0.72626	1.37693	202.53623	179.82447	77.16939	0.31228	 	3.7408800000000006E29	 	5.5861E-30	 	7950.20235	25.50339	 
150.0	1.0	0.0	8.08244	6.89095	-8.85855	12.67461	14.36841	0.72153	1.38595	202.87456	179.99798	77.3061	0.31215	 	9.35225E29	 	2.20834E-30	 	7822.93738	25.453	 
145.0	1.0	0.0	8.08404	6.88959	-8.87663	12.64914	14.2933	0.71675	1.39519	203.21232	180.17072	77.44261	0.31202	 	2.38987E30	 	8.53973E-31	 	7695.92611	25.40225	 
140.0	1.0	0.0	8.08564	6.88823	-8.89464	12.62369	14.2182	0.71192	1.40466	203.5495	180.34271	77.57894	0.31189	 	6.24734E30	 	3.22774E-31	 	7569.17044	25.35113	 
135.0	1.0	0.0	8.08723	6.88687	-8.91257	12.59825	14.14308	0.70704	1.41435	203.8861	180.51395	77.71506	0.31175	 	1.67202E31	 	1.19142E-31	 	7442.67236	25.29962	 
130.0	1.0	0.0	8.08882	6.88552	-8.93044	12.57282	14.06797	0.7021	1.42429	204.22212	180.68444	77.851	0.31162	 	4.5855499999999995E31	 	4.29103E-32	 	7316.43399	25.24767	 
125.0	1.0	0.0	8.0904	6.88417	-8.94824	12.5474	13.99285	0.69712	1.43448	204.55756	180.85417	77.98674	0.31149	 	1.28987E32	 	1.50656E-32	 	7190.45763	25.19527	 
120.0	1.0	0.0	8.09198	6.88283	-8.96597	12.52199	13.91773	0.69208	1.44492	204.89243	181.02316	78.12229	0.31136	 	3.725E32	 	5.15132E-33	 	7064.7457	25.14239	 
115.0	1.0	0.0	8.09355	6.8815	-8.98363	12.49659	13.84261	0.68699	1.45563	205.22671	181.1914	78.25764	0.31122	 	1.10554E33	 	1.71362E-33	 	6939.30083	25.08897	 
110.0	1.0	0.0	8.09511	6.88017	-9.00122	12.4712	13.76748	0.68184	1.46663	205.56041	181.35889	78.3928	0.31109	 	3.37559E33	 	5.53996E-34	 	6814.12578	25.03501	 
105.0	1.0	0.0	8.09667	6.87884	-9.01874	12.44583	13.69235	0.67663	1.47791	205.89354	181.52564	78.52777	0.31096	 	1.0615600000000002E34	 	1.73862E-34	 	6689.22353	24.98045	 
100.0	1.0	0.0	8.09822	6.87752	-9.03619	12.42046	13.61722	0.67137	1.48949	206.22609	181.69165	78.66254	0.31083	 	3.4425200000000003E34	 	5.29046E-35	 	6564.59725	24.92526	 
95.0	1.0	0.0	8.09977	6.87621	-9.05358	12.39511	13.54208	0.66605	1.50139	206.55805	181.85692	78.79712	0.3107	 	1.1526199999999999E35	 	1.55893E-35	 	6440.25032	24.86938	 
90.0	1.0	0.0	8.10131	6.8749	-9.07089	12.36977	13.46694	0.66067	1.51362	206.88944	182.02145	78.93151	0.31056	 	3.9897599999999995E35	 	4.44248E-36	 	6316.18639	24.81279	 
85.0	1.0	0.0	8.10285	6.87359	-9.08814	12.34443	13.3918	0.65523	1.52619	207.22025	182.18524	79.0657	0.31043	 	1.42977E36	 	1.22261E-36	 	6192.40927	24.75542	 
80.0	1.0	0.0	8.10438	6.8723	-9.10531	12.31911	13.31665	0.64973	1.53911	207.55048	182.34829	79.1997	0.3103	 	5.3122599999999994E36	 	3.24464E-37	 	6068.92313	24.69723	 
75.0	1.0	0.0	8.10591	6.871	-9.12242	12.2938	13.2415	0.64416	1.5524	207.88014	182.51061	79.3335	0.31017	 	2.04959E37	 	8.29062E-38	 	5945.73235	24.63816	 
70.0	1.0	0.0	8.10743	6.86971	-9.13946	12.26851	13.16634	0.63854	1.56608	208.20921	182.6722	79.46711	0.31003	 	8.225109999999999E37	 	2.03624E-38	 	5822.84166	24.57814	 
65.0	1.0	0.0	8.10894	6.86843	-9.15642	12.24322	13.09119	0.63284	1.58017	208.53771	182.83306	79.60053	0.3099	 	3.4392499999999995E38	 	4.7988E-39	 	5700.25609	24.51712	 
60.0	1.0	0.0	8.11045	6.86715	-9.17332	12.21794	13.01603	0.62709	1.59468	208.86563	182.99318	79.73375	0.30977	 	1.5011900000000002E39	 	1.08316E-39	 	5577.98102	24.45501	 
55.0	1.0	0.0	8.11195	6.86588	-9.19015	12.19268	12.94086	0.62126	1.60962	209.19297	183.15258	79.86678	0.30964	 	6.85345E39	 	2.33695E-40	 	5456.02221	24.39176	 
50.0	1.0	0.0	8.11345	6.86461	-9.20692	12.16743	12.86569	0.61537	1.62504	209.51973	183.31125	79.99962	0.3095	 	3.27937E40	 	4.8095E-41	 	5334.38583	24.32728	 
45.0	1.0	0.0	8.11494	6.86335	-9.22361	12.14219	12.79052	0.60941	1.64093	209.84591	183.4692	80.13226	0.30937	 	1.6483200000000002E41	 	9.42055E-42	 	5213.07848	24.26147	 
40.0	1.0	0.0	8.11643	6.8621	-9.24023	12.11695	12.71535	0.60338	1.65733	210.17151	183.62642	80.2647	0.30924	 	8.72343E41	 	1.75207E-42	 	5092.10724	24.19425	 
35.0	1.0	0.0	8.11791	6.86084	-9.25679	12.09174	12.64017	0.59728	1.67427	210.49654	183.78293	80.39696	0.30911	 	4.8732199999999994E42	 	3.08626E-43	 	4971.47968	24.12551	 
30.0	1.0	0.0	8.11938	6.8596	-9.27328	12.06653	12.56498	0.5911	1.69176	210.82099	183.93871	80.52901	0.30898	 	2.88131E43	 	5.13516E-44	 	4851.20393	24.05515	 
25.0	1.0	0.0	8.12085	6.85836	-9.28969	 	12.4898	0.58485	1.70984	211.14486	184.09377	80.66088	0.30884	 	1.8082100000000002E44	 	8.0477E-45	 	4731.28875	 	 
