T (C)	Fraction solid (wt)-TOTAL	Fraction liquid (wt)-LIQUID	Density (g/(cm)^3)-TOTAL	Molar volume (cm^3)-TOTAL	Volume change (%)-  	Average expansion coeff. (10e-6 1/K)-  	Thermal conductivity (W/(m*K))-TOTAL	Electrical resistivity (10e-6 Ohm*m)-TOTAL	Electrical conductivity (10e6 1/(Ohm*m))-TOTAL	Young's modulus (GPa)-TOTAL	Bulk modulus (GPa)-TOTAL	Shear modulus(GPa)-TOTAL	Poisson's ratio-TOTAL	Liquid viscosity (mPa s)-  	Total viscosity (mPa s)-  	Liquid diffusivity (10e-9 (m^2)/s)-  	Total diffusivity (10e-9 (m^2)/s)-  	Surface Tension (mN/m)-  	Enthalpy (J/mole)-TOTAL	Specific heat (J/(mole K))-TOTAL	Latent heat (J/mole)-TOTAL
1400.0	0.0	1.0	7.03324	7.85001	0.0	30.12299	28.47349	1.43966	0.69461	0.0	119.63406	0.0	0.5	7.05064	7.05064	1.15823	1.15823	1738.34546	48200.298	 	0.0
1395.0	0.0	1.0	7.03715	7.84565	-0.0555362	30.08102	28.39954	1.4391	0.69488	0.0	119.78727	0.0	0.5	7.12498	7.12498	1.14272	1.14272	1740.5789	47995.875	40.8846	0.0
1390.0	0.0	1.0	7.04105	7.8413	-0.11091	30.03917	28.32558	1.43853	0.69515	0.0	119.94048	0.0	0.5	7.20056	7.20056	1.12733	1.12733	1742.82333	47791.927	40.7896	0.0
1385.0	0.0	1.0	7.04495	7.83697	-0.16613	29.99746	28.25163	1.43796	0.69543	0.0	120.09369	0.0	0.5	7.2774	7.2774	1.11207	1.11207	1745.07861	47588.451	40.6952	0.0
1380.0	0.0	1.0	7.04883	7.83265	-0.22118	29.95588	28.17767	1.43739	0.69571	0.0	120.2469	0.0	0.5	7.35554	7.35554	1.09694	1.09694	1747.34458	47385.443	40.6016	0.0
1375.0	0.0	1.0	7.05271	7.82834	-0.27608	29.91444	28.10371	1.43681	0.69599	0.0	120.40012	0.0	0.5	7.435	7.435	1.08194	1.08194	1749.62107	47182.901	40.5084	0.0
1370.0	0.0	1.0	7.05659	7.82404	-0.33082	29.87314	28.02976	1.43623	0.69627	0.0	120.55333	0.0	0.5	7.51581	7.51581	1.06706	1.06706	1751.9079	46980.823	40.4156	0.0
1365.0	0.0	1.0	7.06045	7.81976	-0.38539	29.83198	27.9558	1.43565	0.69655	0.0	120.70654	0.0	0.5	7.59799	7.59799	1.0523	1.0523	1754.20488	46779.206	40.3234	0.0
1360.0	0.0	1.0	7.06431	7.81548	-0.43981	29.79096	27.88184	1.43506	0.69683	0.0	120.85975	0.0	0.5	7.68159	7.68159	1.03768	1.03768	1756.51182	46578.046	40.232	0.0
1355.0	0.0	1.0	7.06816	7.81123	-0.49406	29.75008	27.80789	1.43447	0.69712	0.0	121.01296	0.0	0.5	7.76663	7.76663	1.02317	1.02317	1758.8285	46377.342	40.1408	0.0
1352.23	0.0	1.0	7.0703	7.80887	-0.52407	29.72748	27.76688	1.43415	0.69728	0.0	121.09791	0.0	0.5	7.81441	7.81441	1.01518	1.01518	1760.11702	46266.268	40.06941	0.0
1350.0	0.0472701	0.95273	7.08278	7.79511	-0.69935	29.28172	27.91205	1.42473	0.70189	4.28603E-4	121.1374	1.43454E-4	0.49387	7.84745	8.44806	1.00952	0.93775	1759.51816	45555.262	319.12871	621.827
1345.0	0.14348	0.85652	7.10857	7.76682	-1.05973	28.3695	28.20706	1.40549	0.7115	0.0370768	121.24967	0.0125152	0.48127	7.92231	18.14098	0.9969	0.43536	1758.25537	44094.637	292.125	1882.651
1340.0	0.22619	0.77381	7.1312	7.74217	-1.37371	27.5826	28.45806	1.38879	0.72005	0.23284	121.39783	0.0791804	0.47034	7.99832	66.76243	0.98438	0.11793	1757.12497	42816.7	255.5874	2961.233
1335.99	0.28419	0.71581	7.14739	7.72466	-1.5968	27.02924	28.63211	1.37691	0.72626	0.58724	121.54009	0.20075	0.4626	8.06011	157.69901	0.97441	0.0498026	1756.31615	41904.464	 	3713.945
1335.0	0.31333	0.68667	7.15524	7.71618	-1.70487	26.74051	28.72473	1.37163	0.72906	0.8717	121.6996	0.29882	0.45859	8.09393	231.25208	0.96974	0.0339412	1756.41308	41458.309	271.6782	4120.714
1330.0	0.44061	0.55939	7.18976	7.67908	-2.17743	25.48594	29.1349	1.34811	0.74178	3.5026	122.40855	1.21541	0.44092	8.26608	932.14906	0.94659	0.00839413	1756.7371	39495.441	392.5736	5885.114
1325.0	0.53487	0.46513	7.21599	7.65114	-2.53333	24.558	29.43657	1.33014	0.7518	7.80116	123.00622	2.73218	0.42765	8.44158	2141.80922	0.92402	0.00364186	1757.00114	38004.11	298.2662	7178.419
1320.0	0.60671	0.39329	7.23652	7.62942	-2.81004	23.85207	29.66196	1.3159	0.75994	13.18615	123.53372	4.65149	0.41741	8.62069	3765.36649	0.90199	0.00206508	1757.24426	36832.019	234.4182	8152.919
1315.0	0.66275	0.33725	7.25298	7.61198	-3.03229	23.29887	29.82925	1.30441	0.76663	19.10151	124.01545	6.77683	0.40933	8.80372	5700.95577	0.88046	0.00135966	1759.9419	35881.42127	190.11955	8904.707
1310.0	0.70735	0.29265	7.267	7.5983	-3.20649	22.88149	29.9406	1.29547	0.77192	25.15088	124.43453	8.96474	0.40277	8.99099	7893.25596	0.85941	9.78932E-4	1762.64826	35089.33638	158.41698	9496.532
1305.0	0.74346	0.25654	7.27884	7.58687	-3.35205	22.5447	30.01852	1.28803	0.77638	31.0771	124.8346	11.11971	0.39739	9.18281	10282.51986	0.8388	7.49092E-4	1765.36332	34415.48422	134.77043	9970.625
1300.0	0.79892	0.20108	7.29488	7.57077	-3.55722	22.03009	30.13088	1.27916	0.78176	42.07143	125.42917	15.14353	0.38909	9.39935	14658.90021	0.81688	5.23788E-4	1767.96056	33425.21789	198.05327	10761.63
1295.0	0.85035	0.14965	7.30939	7.55591	-3.74653	21.5582	30.22097	1.27129	0.7866	54.75061	126.02353	19.81848	0.3813	9.62454	20144.34956	0.79523	3.79945E-4	1770.47879	32488.06263	187.43105	11500.018
1290.0	0.88607	0.11393	7.31993	7.54496	-3.88603	21.23014	30.26254	1.2655	0.7902	65.23521	126.53294	23.70803	0.3758	9.84707	25421.80138	0.77478	3.0011E-4	1772.98314	31785.51365	140.5098	12004.29
1285.0	0.91181	0.0881864	7.328	7.53641	-3.99492	20.99052	30.27305	1.26101	0.79301	73.78527	126.9932	26.8942	0.37177	10.06703	30508.54874	0.75543	2.49273E-4	1775.47715	31230.21019	111.06069	12361.804
1280.0	0.93093	0.0690672	7.33444	7.52943	-4.08377	20.80885	30.26287	1.25739	0.7953	80.76057	127.42439	29.5024	0.36871	10.28454	35470.6477	0.73708	2.13713E-4	1777.95841	30771.69645	91.70275	12623.013
1275.0	0.9455	0.0544992	7.3398	7.5235	-4.15938	20.66539	30.23847	1.25435	0.79722	86.4931	127.83665	31.65162	0.36633	10.49965	40383.68896	0.71966	1.87109E-4	1780.43198	30379.26366	78.48656	12818.623
1270.0	0.95684	0.0431602	7.3444	7.5183	-4.22562	20.54899	30.20404	1.25173	0.7989	91.25247	128.23699	33.43981	0.36443	10.71256	45319.63681	0.70307	1.66191E-4	1782.89471	30033.41502	69.16973	12968.127
1265.0	0.96583	0.0341698	7.34846	7.51361	-4.2853	20.4515	30.16236	1.24939	0.80039	95.24987	128.62899	34.94437	0.36288	10.92339	50343.37531	0.68727	1.49122E-4	1785.34979	29721.31274	62.42046	13084.36
1260.0	0.97307	0.0269294	7.35214	7.50931	-4.34015	20.36786	30.11535	1.24728	0.80175	98.64771	129.01512	36.22518	0.36159	11.13239	55513.74158	0.67218	1.34794E-4	1787.79705	29434.24102	57.41434	13176.034
1255.0	0.97899	0.0210149	7.35554	7.50529	-4.39137	20.29458	30.06434	1.24532	0.80301	101.57026	129.39678	37.32825	0.3605	11.33963	60884.33577	0.65774	1.22503E-4	1790.23659	29166.12307	53.62359	13249.224
1250.0	0.98388	0.0161239	7.35879	7.50148	-4.43982	20.2292	30.00973	1.2435	0.80418	104.11414	129.77551	38.28952	0.35956	11.54537	66517.41692	0.6439	1.11762E-4	1792.66951	28911.59334	50.90595	13308.263
1245.0	0.98797	0.0120346	7.36188	7.49784	-4.48621	20.16962	29.95255	1.24179	0.80529	106.35098	130.15194	39.13563	0.35875	11.74984	72447.59115	0.63062	1.02277E-4	1795.0935	28668.57677	48.60331	13356.306
1240.0	0.99142	0.00858323	7.36483	7.49432	-4.53103	20.11437	29.89243	1.24019	0.80633	108.3389	130.52638	39.88826	0.35803	11.9532	78722.20559	0.61785	9.38148E-5	1797.51341	28434.7263	46.77009	13395.688
1235.0	0.99436	0.00564311	7.3677	7.49091	-4.57455	20.06271	29.83138	1.23862	0.80735	110.12165	130.89895	40.5638	0.35739	12.15568	85387.8934	0.60555	8.62055E-5	1799.92524	28208.2782	45.28962	13428.171
1230.0	0.99688	0.00311817	7.37048	7.48757	-4.61703	20.01386	29.77006	1.23705	0.80837	111.73566	131.26981	41.17588	0.35681	12.35749	92493.42424	0.59369	7.93192E-5	1802.32991	27987.88279	44.07908	13455.098
1225.0	1.0	0.0	7.37367	7.48409	-4.66139	19.95871	29.71259	1.23532	0.8095	113.65512	131.67685	41.90378	0.35614	 	100434.6413	 	7.28045E-5	 	27757.24249	46.12806	13492.763
1220.0	1.0	0.0	7.3761	7.48162	-4.69284	19.94358	29.63594	1.23439	0.81012	114.11925	132.02879	42.08118	0.35594	 	107800.8211	 	6.76033E-5	 	27592.26665	32.99517	 
1215.0	1.0	0.0	7.37854	7.47916	-4.72425	19.92846	29.55928	1.23344	0.81074	114.58247	132.37883	42.2583	0.35574	 	115760.6308	 	6.2744E-5	 	27410.1761	36.41811	 
1210.0	1.0	0.0	7.38097	7.47669	-4.75562	19.91334	29.48263	1.23249	0.81136	115.04479	132.72699	42.43513	0.35554	 	124366.1368	 	5.82063E-5	 	27228.44594	36.34603	 
1205.0	1.0	0.0	7.38339	7.47423	-4.78695	19.89823	29.40597	1.23154	0.81199	115.5062	133.07328	42.61168	0.35534	 	133674.3368	 	5.39706E-5	 	27047.07341	36.27451	 
1200.0	1.0	0.0	7.38582	7.47178	-4.81823	19.88312	29.32931	1.23058	0.81262	115.96671	133.41771	42.78794	0.35513	 	143747.662	 	5.00188E-5	 	26866.05581	36.20352	 
1195.0	1.0	0.0	7.38825	7.46933	-4.84947	19.86804	29.25265	1.22962	0.81326	116.42633	133.76029	42.96391	0.35493	 	154654.5323	 	4.63334E-5	 	26685.39051	36.13306	 
1190.0	1.0	0.0	7.39067	7.46688	-4.88066	19.85297	29.17599	1.22865	0.8139	116.88505	134.10104	43.13961	0.35473	 	166469.9641	 	4.28983E-5	 	26505.07491	36.06312	 
1185.0	1.0	0.0	7.39309	7.46443	-4.91181	19.83791	29.09932	1.22768	0.81454	117.34289	134.43998	43.31502	0.35453	 	179276.2702	 	3.96978E-5	 	26325.10647	35.99369	 
1180.0	1.0	0.0	7.39551	7.46199	-4.94291	19.82288	29.02265	1.2267	0.81519	117.79983	134.7771	43.49015	0.35433	 	193163.801	 	3.67174E-5	 	26145.48268	35.92476	 
1175.0	1.0	0.0	7.39793	7.45955	-4.97397	19.80787	28.94598	1.22572	0.81585	118.25589	135.11244	43.665	0.35413	 	208231.8073	 	3.39432E-5	 	25966.20109	35.85632	 
1170.0	1.0	0.0	7.40034	7.45712	-5.00498	19.79288	28.86931	1.22473	0.81651	118.71106	135.44599	43.83958	0.35393	 	224589.3543	 	3.13624E-5	 	25787.25929	35.78836	 
1165.0	1.0	0.0	7.40275	7.45469	-5.03594	19.77792	28.79264	1.22374	0.81717	119.16535	135.77777	44.01387	0.35373	 	242356.3819	 	2.89625E-5	 	25608.65494	35.72087	 
1160.0	1.0	0.0	7.40516	7.45226	-5.06685	19.76298	28.71596	1.22274	0.81783	119.61877	136.10779	44.18789	0.35352	 	261664.8688	 	2.67321E-5	 	25430.38572	35.65384	 
1155.0	1.0	0.0	7.40757	7.44984	-5.09771	19.74808	28.63928	1.22174	0.81851	120.07131	136.43607	44.36163	0.35332	 	282660.1092	 	2.46602E-5	 	25252.44934	35.58727	 
1150.0	1.0	0.0	7.40998	7.44742	-5.12852	19.73321	28.56259	1.22073	0.81918	120.52298	136.76261	44.53509	0.35312	 	305502.1705	 	2.27365E-5	 	25074.84359	35.52115	 
1145.0	1.0	0.0	7.41238	7.44501	-5.15928	19.71837	28.4859	1.21971	0.81986	120.97378	137.08743	44.70828	0.35292	 	330367.49	 	2.09513E-5	 	24897.56628	35.45546	 
1140.0	1.0	0.0	7.41478	7.44259	-5.19	19.70357	28.40921	1.2187	0.82055	121.42372	137.41054	44.88119	0.35272	 	357450.6666	 	1.92956E-5	 	24720.61526	35.3902	 
1135.0	1.0	0.0	7.41718	7.44019	-5.22066	19.6888	28.33252	1.21767	0.82124	121.87279	137.73195	45.05383	0.35252	 	386966.4918	 	1.77608E-5	 	24543.98843	35.32537	 
1130.0	1.0	0.0	7.41958	7.43778	-5.25127	19.67408	28.25582	1.21664	0.82194	122.321	138.05167	45.2262	0.35232	 	419152.1621	 	1.63388E-5	 	24367.68371	35.26094	 
1125.0	1.0	0.0	7.42197	7.43539	-5.28183	19.65939	28.17911	1.21561	0.82264	122.76835	138.36971	45.39829	0.35213	 	454269.7896	 	1.5022E-5	 	24191.69909	35.19692	 
1120.0	1.0	0.0	7.42436	7.43299	-5.31234	19.64475	28.10241	1.21456	0.82334	123.21484	138.68609	45.57011	0.35193	 	492609.1937	 	1.38033E-5	 	24016.03256	35.13331	 
1115.0	1.0	0.0	7.42675	7.4306	-5.34279	19.63016	28.02569	1.21352	0.82405	123.66048	139.00081	45.74167	0.35173	 	534491.092	 	1.2676E-5	 	23840.68218	35.07008	 
1110.0	1.0	0.0	7.42914	7.42821	-5.3732	19.61561	27.94897	1.21247	0.82477	124.10527	139.31389	45.91295	0.35153	 	580270.5639	 	1.16339E-5	 	23665.64601	35.00723	 
1105.0	1.0	0.0	7.43152	7.42583	-5.40355	19.60111	27.87225	1.21141	0.82549	124.54922	139.62533	46.08396	0.35133	 	630340.9865	 	1.06711E-5	 	23490.92219	34.94476	 
1100.0	1.0	0.0	7.4339	7.42345	-5.43384	19.58666	27.79552	1.21035	0.82621	124.99231	139.93515	46.25471	0.35113	 	685138.5166	 	9.78197E-6	 	23316.50885	34.88267	 
1095.0	1.0	0.0	7.43628	7.42108	-5.46409	19.57226	27.71879	1.20928	0.82694	125.43457	140.24336	46.42519	0.35093	 	745147.0409	 	8.96145E-6	 	23142.4042	34.82093	 
1090.0	1.0	0.0	7.43866	7.41871	-5.49428	19.55792	27.64205	1.2082	0.82768	125.87598	140.54997	46.5954	0.35073	 	810903.7243	 	8.20467E-6	 	22968.60642	34.75956	 
1085.0	1.0	0.0	7.44103	7.41634	-5.52441	19.54363	27.5653	1.20712	0.82842	126.31655	140.85498	46.76534	0.35054	 	883005.3917	 	7.50708E-6	 	22795.11378	34.69853	 
1080.0	1.0	0.0	7.4434	7.41398	-5.55449	19.5294	27.48855	1.20604	0.82916	126.75629	141.15842	46.93502	0.35034	 	962115.4608	 	6.86445E-6	 	22621.92455	34.63784	 
1075.0	1.0	0.0	7.44577	7.41162	-5.58452	19.51522	27.4118	1.20494	0.82991	127.1952	141.46028	47.10444	0.35014	 	1048972.057	 	6.27279E-6	 	22449.03704	34.5775	 
1070.0	1.0	0.0	7.44813	7.40927	-5.61449	19.50111	27.33503	1.20385	0.83067	127.63328	141.76058	47.27359	0.34994	 	1144396.856	 	5.72842E-6	 	22276.44959	34.51749	 
1066.06	1.0	0.0	7.44999	7.40742	-5.63809	19.49003	27.2745	1.20298	0.83127	127.97811	141.99625	47.40678	0.34979	 	1226274.107	 	5.33024E-6	 	22140.57925	 	 
1065.0	1.0	0.0	7.45053	7.40689	-5.64484	19.48552	27.26011	1.20266	0.83149	128.07117	142.05263	47.443	0.34974	 	1249223.441	 	5.22819E-6	 	22103.02493	34.68493	 
1060.55	1.0	0.0	7.45277	7.40466	-5.67322	19.46657	27.19937	1.20134	0.83241	128.46249	142.2891	47.59531	0.34953	 	1351050.952	 	4.81806E-6	 	21945.08579	 	 
1060.0	1.0	0.0	7.45308	7.40435	-5.67717	19.46259	27.1926	1.20114	0.83254	128.51133	142.31928	47.6143	0.3495	 	1364226.346	 	4.76957E-6	 	21924.43633	35.71772	 
1055.0	1.0	0.0	7.45593	7.40152	-5.71318	19.42605	27.13106	1.19935	0.83378	128.95625	142.59318	47.78732	0.34927	 	1491006.785	 	4.34765E-6	 	21736.02056	37.68315	 
1050.0	1.0	0.0	7.45878	7.39869	-5.74925	19.38895	27.07043	1.19751	0.83506	129.40023	142.86478	47.96008	0.34904	 	1630639.141	 	3.96039E-6	 	21547.41041	37.72203	 
1046.3	1.0	0.0	7.4609	7.39659	-5.77601	19.36109	27.02621	1.19611	0.83604	129.72861	143.06452	48.08791	0.34887	 	1743215.644	 	3.69426E-6	 	21407.51962	 	 
1045.0	1.0	0.0	7.46151	7.39599	-5.78374	19.35725	27.00644	1.19581	0.83625	129.84145	143.14074	48.13155	0.34882	 	1784656.402	 	3.60493E-6	 	21362.89456	36.90317	 
1040.0	1.0	0.0	7.46387	7.39364	-5.81357	19.34249	26.93009	1.19466	0.83706	130.27651	143.43409	48.29986	0.34862	 	1954925.575	 	3.27847E-6	 	21190.83886	34.41114	 
1035.0	1.0	0.0	7.46623	7.39131	-5.84333	19.32783	26.85369	1.19349	0.83788	130.71065	143.72599	48.46786	0.34843	 	2142905.399	 	2.97949E-6	 	21019.12726	34.34232	 
1030.0	1.0	0.0	7.46859	7.38898	-5.87302	19.31328	26.77724	1.19233	0.8387	131.14387	144.01645	48.63556	0.34823	 	2350588.316	 	2.70586E-6	 	20847.75575	34.2743	 
1025.0	1.0	0.0	7.47094	7.38665	-5.90264	19.29883	26.70074	1.19115	0.83952	131.5762	144.30547	48.80296	0.34804	 	2580207.59	 	2.4556E-6	 	20676.72043	34.20706	 
1020.0	1.0	0.0	7.47329	7.38433	-5.9322	19.28449	26.62419	1.18998	0.84035	132.00763	144.59308	48.97006	0.34784	 	2834268.46	 	2.22687E-6	 	20506.01753	34.14058	 
1017.3	1.0	0.0	7.47455	7.38308	-5.94814	19.27678	26.58282	1.18934	0.8408	132.24035	144.74788	49.06023	0.34773	 	2982679.874	 	2.11164E-6	 	20413.92616	 	 
1015.0	1.0	0.0	7.47653	7.38112	-5.97306	19.22721	26.50973	1.19049	0.83999	132.64822	144.98544	49.21955	0.34752	 	3126764.463	 	2.01075E-6	 	20290.6745	43.06861	 
1010.0	1.0	0.0	7.48079	7.37692	-6.02659	19.12114	26.35087	1.19302	0.83821	133.51877	145.49037	49.55979	0.34705	 	3466639.572	 	1.80657E-6	 	20025.59419	53.01606	 
1005.0	1.0	0.0	7.48499	7.37279	-6.07923	19.0174	26.19735	1.19534	0.83658	134.36751	145.97991	49.89172	0.34659	 	3846472.493	 	1.62183E-6	 	19764.49631	52.21958	 
1000.0	1.0	0.0	7.48911	7.36872	-6.13102	18.91586	26.04788	1.19749	0.83508	135.19558	146.45497	50.21577	0.34615	 	4271309.019	 	1.45481E-6	 	19507.19683	51.4599	 
995.0	1.0	0.0	7.49318	7.36472	-6.182	18.81642	25.9022	1.1995	0.83368	136.00408	146.91641	50.53236	0.34571	 	4746876.533	 	1.30392E-6	 	19253.52113	50.73514	 
990.0	1.0	0.0	7.4972	7.36078	-6.2322	18.71898	25.76008	1.20136	0.83239	136.79402	147.36498	50.84187	0.34529	 	5279681.926	 	1.16771E-6	 	19003.30364	50.0435	 
985.0	1.0	0.0	7.50115	7.3569	-6.28165	18.62343	25.62131	1.20309	0.83119	137.56633	147.8014	51.14466	0.34487	 	5877125.167	 	1.04485E-6	 	18756.3872	49.38329	 
980.0	1.0	0.0	7.50505	7.35307	-6.33039	18.52967	25.48569	1.20468	0.83009	138.3219	148.22632	51.44105	0.34447	 	6547629.014	 	9.34127E-7	 	18512.62271	48.7529	 
975.0	1.0	0.0	7.50891	7.3493	-6.37844	18.43763	25.35305	1.20615	0.82908	139.06156	148.64034	51.73137	0.34407	 	7300790.712	 	8.34418E-7	 	18271.86865	48.15081	 
970.0	1.0	0.0	7.51271	7.34558	-6.42585	18.3472	25.22322	1.20751	0.82815	139.78609	149.04403	52.01591	0.34369	 	8147555.387	 	7.44703E-7	 	18033.99067	47.5756	 
965.0	1.0	0.0	7.51647	7.34191	-6.47262	18.2583	25.09604	1.20874	0.82731	140.49622	149.4379	52.29494	0.34331	 	9100418.87	 	6.64047E-7	 	17798.8612	47.02589	 
960.0	1.0	0.0	7.52018	7.33828	-6.5188	18.17085	24.97136	1.20987	0.82653	141.19263	149.82243	52.56874	0.34293	 	1.017366113E7	 	5.91596E-7	 	17566.3591	46.50042	 
955.0	1.0	0.0	7.52385	7.3347	-6.56441	18.08478	24.84905	1.2109	0.82583	141.87596	150.19806	52.83754	0.34257	 	1.13836169E7	 	5.26572E-7	 	17336.3693	45.99796	 
950.0	1.0	0.0	7.52748	7.33117	-6.60946	18.0	24.72898	1.21182	0.8252	142.54683	150.56522	53.10157	0.34221	 	1.274899246E7	 	4.68264E-7	 	17108.78246	45.51737	 
945.0	1.0	0.0	7.53107	7.32767	-6.65399	17.91644	24.61102	1.21266	0.82464	143.20581	150.92428	53.36106	0.34186	 	1.429123119E7	 	4.16023E-7	 	16883.49467	45.05756	 
940.0	1.0	0.0	7.53463	7.32422	-6.69801	17.83404	24.49506	1.21339	0.82413	143.85342	151.27561	53.6162	0.34151	 	1.603493896E7	 	3.69261E-7	 	16660.40715	44.6175	 
935.0	1.0	0.0	7.53814	7.3208	-6.74155	17.75273	24.381	1.21405	0.82369	144.49018	151.61953	53.8672	0.34117	 	1.800838369E7	 	3.27441E-7	 	16439.42598	44.19623	 
930.0	1.0	0.0	7.54163	7.31742	-6.78463	17.67243	24.26872	1.21462	0.82331	145.11656	151.95637	54.11424	0.34084	 	2.024407302E7	 	2.90074E-7	 	16220.46182	43.79283	 
925.0	1.0	0.0	7.54508	7.31407	-6.82726	17.5931	24.15815	1.2151	0.82297	145.73301	152.28641	54.35748	0.34051	 	2.277943254E7	 	2.56717E-7	 	16003.42967	43.40643	 
920.0	1.0	0.0	7.5485	7.31076	-6.86947	17.51466	24.04918	1.21552	0.8227	146.33996	152.60992	54.5971	0.34018	 	2.565759859E7	 	2.26969E-7	 	15788.24863	43.03621	 
915.0	1.0	0.0	7.55189	7.30747	-6.91127	17.43706	23.94174	1.21585	0.82247	146.93781	152.92717	54.83324	0.33986	 	2.892834256E7	 	2.00463E-7	 	15574.8417	42.68139	 
910.0	1.0	0.0	7.55525	7.30422	-6.95267	17.36024	23.83574	1.21612	0.82229	147.52693	153.2384	55.06605	0.33955	 	3.264916224E7	 	1.7687E-7	 	15363.13553	42.34123	 
905.0	1.0	0.0	7.55858	7.301	-6.9937	17.28415	23.73112	1.21632	0.82215	148.10768	153.54381	55.29567	0.33923	 	3.688655399E7	 	1.5589E-7	 	15153.06027	42.01505	 
900.0	1.0	0.0	7.56189	7.29781	-7.03437	17.20873	23.62779	1.21646	0.82206	148.6804	153.84364	55.52222	0.33893	 	4.171751121E7	 	1.37253E-7	 	14944.54934	41.70219	 
895.0	1.0	0.0	7.56517	7.29465	-7.0747	17.13393	23.52571	1.21653	0.82201	149.24541	154.13807	55.74584	0.33862	 	4.723129294E7	 	1.20713E-7	 	14737.53934	41.402	 
890.0	1.0	0.0	7.56843	7.29151	-7.11469	17.0597	23.42479	1.21654	0.822	149.80301	154.4273	55.96664	0.33832	 	5.353149295E7	 	1.06051E-7	 	14531.96977	41.11391	 
885.0	1.0	0.0	7.57166	7.28839	-7.15436	16.986	23.325	1.21649	0.82204	150.35349	154.71149	56.18473	0.33803	 	6.073849657E7	 	9.30652E-8	 	14327.78299	40.83736	 
880.0	1.0	0.0	7.57487	7.2853	-7.19373	16.91278	23.22626	1.21639	0.82211	150.89711	154.99082	56.40021	0.33774	 	6.899237291E7	 	8.15777E-8	 	14124.924	40.5718	 
875.0	1.0	0.0	7.57806	7.28223	-7.23281	16.83998	23.12855	1.21623	0.82221	151.43413	155.26545	56.61318	0.33745	 	7.845629475E7	 	7.14262E-8	 	13923.34006	40.31679	 
870.0	1.0	0.0	7.58123	7.27919	-7.2716	16.76757	23.03179	1.21602	0.82235	151.9648	155.53551	56.82374	0.33716	 	8.932058803E7	 	6.24652E-8	 	13722.98155	40.0717	 
865.0	1.0	0.0	7.58438	7.27616	-7.31013	16.69551	22.93596	1.21576	0.82253	152.48935	155.80115	57.03197	0.33688	 	1.018075398E8	 	5.4564E-8	 	13523.80079	39.83615	 
860.0	1.0	0.0	7.58752	7.27316	-7.34839	16.62375	22.84101	1.21545	0.82274	153.008	156.06251	57.23796	0.3366	 	1.161771059E8	 	4.76051E-8	 	13325.75226	39.60971	 
855.0	1.0	0.0	7.59063	7.27018	-7.38641	16.55224	22.7469	1.2151	0.82298	153.52095	156.31971	57.4418	0.33632	 	1.327336695E8	 	4.14832E-8	 	13128.79257	39.39194	 
850.0	1.0	0.0	7.59373	7.26721	-7.42419	16.48096	22.65359	1.21469	0.82325	154.0284	156.57287	57.64355	0.33604	 	1.518341457E8	 	3.6104E-8	 	12932.88035	39.18244	 
845.0	1.0	0.0	7.59594	7.2651	-7.45113	16.45835	22.58385	1.21302	0.82439	154.40981	156.7999	57.79356	0.33587	 	1.723257674E8	 	3.16692E-8	 	12775.80492	31.41509	 
840.0	1.0	0.0	7.59815	7.26299	-7.478	16.43573	22.5141	1.21134	0.82553	154.79061	157.02594	57.94337	0.33571	 	1.958055116E8	 	2.7747E-8	 	12615.7567	32.00964	 
835.0	1.0	0.0	7.60035	7.26088	-7.50482	16.41311	22.44433	1.20965	0.82669	155.1708	157.25098	58.09299	0.33554	 	2.227410231E8	 	2.4282E-8	 	12455.94297	31.96274	 
830.0	1.0	0.0	7.60255	7.25878	-7.53158	16.39048	22.37454	1.20794	0.82785	155.55038	157.47502	58.24241	0.33537	 	2.536780678E8	 	2.12245E-8	 	12296.36306	31.91598	 
825.0	1.0	0.0	7.60474	7.25668	-7.55828	16.36786	22.30474	1.20623	0.82903	155.92935	157.69808	58.39164	0.3352	 	2.892544016E8	 	1.85297E-8	 	12137.01624	31.86936	 
820.0	1.0	0.0	7.60693	7.25459	-7.58491	16.34524	22.23493	1.20451	0.83021	156.30771	157.92016	58.54067	0.33504	 	3.302162442E8	 	1.61573E-8	 	11977.90178	31.82289	 
815.0	1.0	0.0	7.60912	7.25251	-7.61149	16.32262	22.1651	1.20278	0.83141	156.68546	158.14126	58.68951	0.33487	 	3.774378765E8	 	1.40712E-8	 	11819.01894	31.77657	 
810.0	1.0	0.0	7.61131	7.25043	-7.63801	16.29999	22.09525	1.20104	0.83262	157.0626	158.36138	58.83816	0.3347	 	4.319449852E8	 	1.2239E-8	 	11660.36695	31.7304	 
805.0	1.0	0.0	7.61349	7.24835	-7.66446	16.27737	22.02539	1.19928	0.83383	157.43913	158.58053	58.98661	0.33453	 	4.949425119E8	 	1.06319E-8	 	11501.94502	31.68439	 
800.0	1.0	0.0	7.61567	7.24628	-7.69086	16.25474	21.95552	1.19752	0.83506	157.81506	158.79871	59.13486	0.33437	 	5.678479212E8	 	9.22391E-9	 	11343.75233	31.63854	 
795.0	1.0	0.0	7.61784	7.24421	-7.7172	16.23212	21.88562	1.19575	0.8363	158.19038	159.01593	59.28292	0.3342	 	6.523310038E8	 	7.99192E-9	 	11185.78806	31.59285	 
790.0	1.0	0.0	7.62001	7.24215	-7.74347	16.20949	21.81572	1.19396	0.83755	158.56509	159.23218	59.43079	0.33403	 	7.503615642E8	 	6.91529E-9	 	11028.05136	31.54734	 
785.0	1.0	0.0	7.62217	7.24009	-7.76969	16.18686	21.74579	1.19217	0.83881	158.9392	159.44748	59.57846	0.33386	 	8.642666441E8	 	5.97566E-9	 	10870.5413	31.50201	 
780.0	1.0	0.0	7.62434	7.23804	-7.79585	16.16423	21.67585	1.19037	0.84008	159.3127	159.66182	59.72594	0.3337	 	9.967992901E8	 	5.15667E-9	 	10713.25701	31.45686	 
775.0	1.0	0.0	7.6265	7.23599	-7.82194	16.14161	21.60588	1.18855	0.84136	159.68559	159.87522	59.87322	0.33353	 	1.151221322E9	 	4.44377E-9	 	10556.19752	31.4119	 
770.0	1.0	0.0	7.62865	7.23394	-7.84798	16.11898	21.53591	1.18672	0.84266	160.05788	160.08766	60.02031	0.33336	 	1.331403106E9	 	3.82405E-9	 	10399.36185	31.36713	 
765.0	1.0	0.0	7.6308	7.2319	-7.87395	16.09634	21.46591	1.18489	0.84396	160.42956	160.29917	60.1672	0.3332	 	1.541944023E9	 	3.28608E-9	 	10242.74899	31.32257	 
760.0	1.0	0.0	7.63295	7.22987	-7.89987	16.07371	21.39589	1.18304	0.84528	160.80064	160.50973	60.31391	0.33303	 	1.788318141E9	 	2.81972E-9	 	10086.35789	31.27822	 
755.0	1.0	0.0	7.63509	7.22784	-7.92572	16.05108	21.32586	1.18118	0.84661	161.17112	160.71936	60.46041	0.33286	 	2.077050676E9	 	2.416E-9	 	9930.18746	31.23409	 
750.0	1.0	0.0	7.63723	7.22582	-7.95151	16.02845	21.25581	1.17931	0.84795	161.54099	160.92805	60.60673	0.3327	 	2.415932069E9	 	2.067E-9	 	9774.23656	31.19018	 
745.0	1.0	0.0	7.63937	7.2238	-7.97725	16.00582	21.18573	1.17743	0.84931	161.91026	161.13582	60.75284	0.33253	 	2.814278158E9	 	1.76576E-9	 	9618.50403	31.14651	 
740.0	1.0	0.0	7.6415	7.22178	-8.00292	15.98318	21.11564	1.17554	0.85068	162.27892	161.34266	60.89877	0.33237	 	3.28324689E9	 	1.50611E-9	 	9462.98862	31.10308	 
735.0	1.0	0.0	7.64363	7.21977	-8.02853	15.96055	21.04553	1.17363	0.85206	162.64698	161.54858	61.0445	0.3322	 	3.836224521E9	 	1.28265E-9	 	9307.68907	31.05991	 
730.0	1.0	0.0	7.64575	7.21776	-8.05409	15.93791	20.9754	1.17171	0.85345	163.01444	161.75358	61.19004	0.33203	 	4.489297375E9	 	1.09062E-9	 	9152.60405	31.017	 
725.0	1.0	0.0	7.64787	7.21576	-8.07958	15.91528	20.90524	1.16979	0.85486	163.3813	161.95766	61.33538	0.33187	 	5.261829129E9	 	9.25861E-10	 	8997.73216	30.97438	 
720.0	1.0	0.0	7.64999	7.21377	-8.10501	15.89264	20.83507	1.16785	0.85628	163.74755	162.16084	61.48053	0.3317	 	6.177168486E9	 	7.84715E-10	 	8843.07196	30.93204	 
715.0	1.0	0.0	7.6521	7.21177	-8.13039	15.87	20.76487	1.1659	0.85771	164.1132	162.3631	61.62548	0.33154	 	7.263518272E9	 	6.63992E-10	 	8688.62192	30.89001	 
710.0	1.0	0.0	7.65421	7.20979	-8.1557	15.84736	20.69465	1.16393	0.85916	164.47826	162.56446	61.77025	0.33137	 	8.555004729E9	 	5.60901E-10	 	8534.38046	30.84829	 
705.0	1.0	0.0	7.65631	7.2078	-8.18095	15.82472	20.62441	1.16196	0.86062	164.84271	162.76491	61.91481	0.33121	 	1.0093E10	 	4.73012E-10	 	8380.34592	30.80691	 
700.0	1.0	0.0	7.65842	7.20583	-8.20614	15.80208	20.55415	1.15997	0.86209	165.20656	162.96447	62.05919	0.33104	 	1.1927699999999998E10	 	3.98207E-10	 	8226.51654	30.76588	 
695.0	1.0	0.0	7.66051	7.20385	-8.23127	15.77944	20.48386	1.15797	0.86358	165.56981	163.16313	62.20337	0.33087	 	1.4120299999999998E10	 	3.34645E-10	 	8072.89051	30.72521	 
690.0	1.0	0.0	7.66261	7.20189	-8.25634	15.7568	20.41355	1.15596	0.86508	165.93246	163.3609	62.34735	0.33071	 	1.6745299999999998E10	 	2.8073E-10	 	7919.46588	30.68493	 
685.0	1.0	0.0	7.6647	7.19992	-8.28135	15.73416	20.34322	1.15393	0.8666	166.29451	163.55778	62.49115	0.33054	 	1.98936E10	 	2.35075E-10	 	7766.24064	30.64505	 
680.0	1.0	0.0	7.66678	7.19796	-8.3063	15.71152	20.27286	1.15189	0.86814	166.65597	163.75378	62.63475	0.33038	 	2.3676599999999996E10	 	1.96485E-10	 	7613.21267	30.60559	 
675.0	1.0	0.0	7.66886	7.19601	-8.33119	15.68887	20.20247	1.14984	0.86968	167.01682	163.94889	62.77815	0.33021	 	2.8230699999999996E10	 	1.63924E-10	 	7460.37971	30.56659	 
670.0	1.0	0.0	7.67094	7.19406	-8.35602	15.66623	20.13206	1.14778	0.87125	167.37707	164.14312	62.92136	0.33005	 	3.3723699999999996E10	 	1.365E-10	 	7307.7394	30.52806	 
665.0	1.0	0.0	7.67301	7.19212	-8.38079	15.64358	20.06163	1.1457	0.87283	167.73673	164.33648	63.06438	0.32988	 	4.03618E10	 	1.13446E-10	 	7155.28926	30.49003	 
660.0	1.0	0.0	7.67508	7.19018	-8.4055	15.62094	19.99117	1.14361	0.87442	168.09579	164.52896	63.20721	0.32972	 	4.839979999999999E10	 	9.41012E-11	 	7003.03306	30.45124	 
655.0	1.0	0.0	7.67715	7.18824	-8.43015	15.59829	19.92068	1.14151	0.87603	168.45425	164.72058	63.34984	0.32956	 	5.815209999999999E10	 	7.79004E-11	 	6851.00649	30.40531	 
650.0	1.0	0.0	7.67921	7.18631	-8.45474	15.57564	19.85016	1.13939	0.87766	168.81212	164.91132	63.49227	0.32939	 	7.00085E10	 	6.43588E-11	 	6699.25687	30.34992	 
645.0	1.0	0.0	7.68127	7.18439	-8.47927	15.553	19.77962	1.13727	0.8793	169.16939	165.1012	63.63452	0.32923	 	8.44529E10	 	5.30623E-11	 	6547.78328	30.29472	 
640.0	1.0	0.0	7.68333	7.18247	-8.50373	15.53035	19.70905	1.13512	0.88096	169.52606	165.29023	63.77657	0.32906	 	1.02087E11	 	4.36575E-11	 	6396.58474	30.23971	 
635.0	1.0	0.0	7.68538	7.18055	-8.52814	15.5077	19.63845	1.13297	0.88264	169.88213	165.47839	63.91843	0.3289	 	1.23661E11	 	3.58436E-11	 	6245.66033	30.18488	 
630.0	1.0	0.0	7.68742	7.17864	-8.55249	15.48505	19.56782	1.13079	0.88433	170.23761	165.6657	64.06009	0.32873	 	1.50112E11	 	2.9365E-11	 	6095.0091	30.13025	 
625.0	1.0	0.0	7.68946	7.17673	-8.57678	15.4624	19.49716	1.12861	0.88605	170.59249	165.85216	64.20156	0.32857	 	1.82616E11	 	2.40048E-11	 	5944.62992	30.07584	 
620.0	1.0	0.0	7.6915	7.17483	-8.601	15.43975	19.42647	1.12641	0.88778	170.94678	166.03777	64.34283	0.32841	 	2.22645E11	 	1.95793E-11	 	5794.52142	30.0217	 
615.0	1.0	0.0	7.69354	7.17293	-8.62517	15.41709	19.35574	1.1242	0.88952	171.30047	166.22253	64.48392	0.32824	 	2.72055E11	 	1.59337E-11	 	5644.68289	29.96771	 
610.0	1.0	0.0	7.69557	7.17104	-8.64927	15.39444	19.28499	1.12197	0.89129	171.65357	166.40645	64.62481	0.32808	 	3.33186E11	 	1.2937E-11	 	5495.11341	29.9139	 
605.0	1.0	0.0	7.69759	7.16915	-8.67332	15.37179	19.2142	1.11973	0.89307	172.00607	166.58953	64.7655	0.32791	 	4.08995E11	 	1.04794E-11	 	5345.81205	29.86027	 
600.0	1.0	0.0	7.69961	7.16727	-8.69731	15.34913	19.14339	1.11747	0.89488	172.35798	166.77178	64.906	0.32775	 	5.03234E11	 	8.46849E-12	 	5196.77789	29.80683	 
595.0	1.0	0.0	7.70163	7.16539	-8.72123	15.32648	19.07253	1.1152	0.8967	172.70929	166.95319	65.04631	0.32759	 	6.20667E11	 	6.82689E-12	 	5048.01	29.75358	 
590.0	1.0	0.0	7.70365	7.16352	-8.74509	15.30382	19.00165	1.11291	0.89854	173.06001	167.13377	65.18643	0.32742	 	7.67366E11	 	5.48998E-12	 	4899.50749	29.7005	 
585.0	1.0	0.0	7.70566	7.16165	-8.7689	15.28117	18.93073	1.11061	0.90041	173.41014	167.31352	65.32635	0.32726	 	9.51087E11	 	4.40382E-12	 	4751.26942	29.64761	 
580.0	1.0	0.0	7.70766	7.15979	-8.79264	15.25851	18.85977	1.10829	0.90229	173.75967	167.49245	65.46608	0.3271	 	1.18176E12	 	3.52356E-12	 	4603.2949	29.59491	 
575.0	1.0	0.0	7.70966	7.15793	-8.81633	15.23585	18.78877	1.10596	0.90419	174.10861	167.67055	65.60561	0.32693	 	1.47215E12	 	2.81194E-12	 	4455.58301	29.54238	 
570.0	1.0	0.0	7.71166	7.15607	-8.83995	15.21319	18.71774	1.10361	0.90611	174.45696	167.84783	65.74496	0.32677	 	1.83869E12	 	2.23812E-12	 	4308.13284	29.49003	 
565.0	1.0	0.0	7.71366	7.15422	-8.86351	15.19053	18.64668	1.10125	0.90806	174.80472	168.0243	65.8841	0.32661	 	2.30258E12	 	1.77662E-12	 	4160.94351	29.43787	 
560.0	1.0	0.0	7.71565	7.15238	-8.88701	15.16787	18.57557	1.09887	0.91002	175.15188	168.19996	66.02306	0.32644	 	2.8913E12	 	1.40643E-12	 	4014.0141	29.38588	 
555.0	1.0	0.0	7.71763	7.15054	-8.91046	15.14521	18.50442	1.09648	0.91201	175.49845	168.3748	66.16182	0.32628	 	3.64054E12	 	1.11027E-12	 	3867.34373	29.33407	 
550.0	1.0	0.0	7.71961	7.1487	-8.93384	15.12255	18.43324	1.09407	0.91402	175.84443	168.54884	66.30039	0.32612	 	4.59679E12	 	8.74E-13	 	3720.93151	29.28244	 
545.0	1.0	0.0	7.72159	7.14687	-8.95716	15.09989	18.36201	1.09164	0.91605	176.18982	168.72207	66.43876	0.32596	 	5.82078E12	 	6.86023E-13	 	3574.77655	29.23099	 
540.0	1.0	0.0	7.72356	7.14505	-8.98042	15.07722	18.29074	1.08919	0.91811	176.53462	168.89449	66.57694	0.32579	 	7.39211E12	 	5.36895E-13	 	3428.87795	29.17972	 
535.0	1.0	0.0	7.72553	7.14322	-9.00362	15.05456	18.21943	1.08673	0.92019	176.87882	169.06612	66.71493	0.32563	 	9.41543E12	 	4.18927E-13	 	3283.23485	29.12862	 
530.0	1.0	0.0	7.7275	7.14141	-9.02676	15.0319	18.14807	1.08426	0.92229	177.22244	169.23695	66.85272	0.32547	 	1.20287E13	 	3.25884E-13	 	3137.84637	29.0777	 
525.0	1.0	0.0	7.72946	7.1396	-9.04984	15.00923	18.07667	1.08176	0.92442	177.56546	169.40699	66.99032	0.32531	 	1.54146E13	 	2.52719E-13	 	2992.71163	29.02695	 
520.0	1.0	0.0	7.73142	7.13779	-9.07286	14.98656	18.00523	1.07925	0.92657	177.90789	169.57623	67.12773	0.32514	 	1.98154E13	 	1.95361E-13	 	2847.82977	28.97637	 
515.0	1.0	0.0	7.73337	7.13599	-9.09582	14.9639	17.93374	1.07672	0.92874	178.24974	169.74468	67.26494	0.32498	 	2.5554E13	 	1.50535E-13	 	2703.19992	28.92597	 
510.0	1.0	0.0	7.73532	7.13419	-9.11872	14.94123	17.8622	1.07418	0.93094	178.59099	169.91235	67.40196	0.32482	 	3.30616E13	 	1.15613E-13	 	2558.82122	28.87574	 
505.0	1.0	0.0	7.73726	7.1324	-9.14156	14.91856	17.79061	1.07161	0.93317	178.93166	170.07924	67.53879	0.32466	 	4.29167E13	 	8.8496E-14	 	2414.69282	28.82568	 
500.0	1.0	0.0	7.7392	7.13061	-9.16433	14.89589	17.71898	1.06903	0.93542	179.27173	170.24534	67.67542	0.3245	 	5.58978E13	 	6.75081E-14	 	2270.81387	28.77579	 
495.0	1.0	0.0	7.74114	7.12883	-9.18705	14.87322	17.64729	1.06643	0.9377	179.61122	170.41066	67.81186	0.32433	 	7.30562E13	 	5.13187E-14	 	2127.18352	28.72607	 
490.0	1.0	0.0	7.74307	7.12705	-9.20971	14.85055	17.57556	1.06382	0.94001	179.95012	170.57521	67.9481	0.32417	 	9.5817E13	 	3.88735E-14	 	1983.80094	28.67652	 
485.0	1.0	0.0	7.745	7.12527	-9.23231	14.82788	17.50377	1.06118	0.94235	180.28842	170.73899	68.08415	0.32401	 	1.2611899999999998E14	 	2.934E-14	 	1840.66528	28.62713	 
480.0	1.0	0.0	7.74692	7.1235	-9.25484	14.80521	17.43192	1.05853	0.94471	180.62614	170.90199	68.22001	0.32385	 	1.66612E14	 	2.20629E-14	 	1697.77571	28.57791	 
475.0	1.0	0.0	7.74884	7.12174	-9.27732	14.78254	17.36003	1.05586	0.9471	180.96328	171.06423	68.35567	0.32369	 	2.20926E14	 	1.65283E-14	 	1555.13141	28.52886	 
470.0	1.0	0.0	7.75076	7.11998	-9.29973	14.75987	17.28807	1.05316	0.94952	181.29982	171.2257	68.49115	0.32353	 	2.94059E14	 	1.23347E-14	 	1412.73156	28.47997	 
465.0	1.0	0.0	7.75267	7.11823	-9.32209	14.73719	17.21606	1.05045	0.95197	181.63578	171.3864	68.62642	0.32337	 	3.92922E14	 	9.16906E-15	 	1270.57535	28.43124	 
460.0	1.0	0.0	7.75457	7.11647	-9.34438	14.71452	17.14399	1.04772	0.95445	181.97115	171.54635	68.76151	0.32321	 	5.2710299999999994E14	 	6.78867E-15	 	1128.66197	28.38268	 
455.0	1.0	0.0	7.75647	7.11473	-9.36662	14.69184	17.07186	1.04498	0.95696	182.30593	171.70554	68.8964	0.32304	 	7.09963E14	 	5.00578E-15	 	986.99062	28.33427	 
450.0	1.0	0.0	7.75837	7.11299	-9.38879	14.66917	16.99967	1.04221	0.9595	182.64012	171.86397	69.03109	0.32288	 	9.60207E14	 	3.67579E-15	 	845.56049	28.28603	 
445.0	1.0	0.0	7.76027	7.11125	-9.4109	14.64649	16.92742	1.03942	0.96208	182.97373	172.02165	69.16559	0.32272	 	1.30413E15	 	2.68771E-15	 	704.37082	28.23793	 
440.0	1.0	0.0	7.76216	7.10952	-9.43296	14.62381	16.8551	1.03661	0.96468	183.30675	172.17858	69.2999	0.32256	 	1.77885E15	 	1.95672E-15	 	563.42081	28.19	 
435.0	1.0	0.0	7.76404	7.1078	-9.45495	14.60113	16.78272	1.03378	0.96732	183.63919	172.33476	69.43402	0.3224	 	2.43704E15	 	1.41824E-15	 	422.70968	28.14223	 
430.0	1.0	0.0	7.76592	7.10607	-9.47688	14.57845	16.71027	1.03093	0.96999	183.97103	172.4902	69.56794	0.32224	 	3.35375E15	 	1.0233E-15	 	282.23667	28.0946	 
425.0	1.0	0.0	7.7678	7.10436	-9.49875	14.55577	16.63775	1.02806	0.9727	184.3023	172.64489	69.70166	0.32208	 	4.63644E15	 	7.34938E-16	 	142.00111	28.04711	 
420.0	1.0	0.0	7.76967	7.10264	-9.52056	14.53309	16.56516	1.02517	0.97544	184.63297	172.79884	69.8352	0.32192	 	6.43973E15	 	5.25347E-16	 	2.00211	27.9998	 
415.0	1.0	0.0	7.77154	7.10094	-9.54231	14.51041	16.4925	1.02226	0.97822	184.96306	172.95206	69.96854	0.32176	 	8.9872E15	 	3.73719E-16	 	-137.76071	27.95256	 
410.0	1.0	0.0	7.7734	7.09923	-9.564	14.48773	16.41977	1.01933	0.98104	185.29257	173.10453	70.10168	0.3216	 	1.26038E16	 	2.64547E-16	 	-277.28753	27.90536	 
405.0	1.0	0.0	7.77526	7.09754	-9.58563	14.46505	16.34696	1.01638	0.98389	185.62149	173.25628	70.23463	0.32144	 	1.7764000000000002E16	 	1.86325E-16	 	-416.57858	27.85821	 
400.0	1.0	0.0	7.77712	7.09584	-9.6072	14.44236	16.27408	1.0134	0.98678	185.94982	173.40729	70.36739	0.32128	 	2.5165E16	 	1.30558E-16	 	-555.63401	27.81109	 
395.0	1.0	0.0	7.77897	7.09416	-9.62871	14.41968	16.20111	1.0104	0.9897	186.27757	173.55757	70.49996	0.32112	 	3.5835700000000004E16	 	9.10007E-17	 	-694.45404	27.76401	 
390.0	1.0	0.0	7.78082	7.09247	-9.65016	14.397	16.12807	1.00739	0.99267	186.60474	173.70713	70.63233	0.32096	 	5.13039E16	 	6.30882E-17	 	-833.03881	27.71695	 
385.0	1.0	0.0	7.78266	7.09079	-9.67155	14.37431	16.05494	1.00434	0.99568	186.93132	173.85596	70.7645	0.3208	 	7.38503E16	 	4.3497E-17	 	-971.38849	27.66994	 
380.0	1.0	0.0	7.7845	7.08912	-9.69288	14.35162	15.98173	1.00128	0.99872	187.25731	174.00407	70.89648	0.32064	 	1.069E17	 	2.98211E-17	 	-1109.50322	27.62295	 
375.0	1.0	0.0	7.78633	7.08745	-9.71414	14.32894	15.90843	0.99819	1.00181	187.58273	174.15146	71.02827	0.32048	 	1.55625E17	 	2.03275E-17	 	-1247.38315	27.57599	 
370.0	1.0	0.0	7.78816	7.08578	-9.73535	14.30625	15.83504	0.99508	1.00494	187.90755	174.29813	71.15986	0.32032	 	2.27886E17	 	1.37747E-17	 	-1385.02841	27.52905	 
365.0	1.0	0.0	7.78999	7.08412	-9.7565	14.28356	15.76156	0.99195	1.00812	188.2318	174.44409	71.29126	0.32016	 	3.357E17	 	9.27809E-18	 	-1522.43911	27.48214	 
360.0	1.0	0.0	7.79181	7.08247	-9.77758	14.26087	15.68799	0.98879	1.01133	188.55546	174.58934	71.42247	0.32	 	4.97556E17	 	6.21086E-18	 	-1659.61536	27.43525	 
355.0	1.0	0.0	7.79362	7.08082	-9.79861	14.23818	15.61432	0.98561	1.0146	188.87854	174.73388	71.55348	0.31984	 	7.42085E17	 	4.13139E-18	 	-1796.55723	27.38837	 
350.0	1.0	0.0	7.79543	7.07917	-9.81957	14.21549	15.54055	0.98241	1.01791	189.20103	174.8777	71.6843	0.31968	 	1.11391E18	 	2.73041E-18	 	-1933.26482	27.34152	 
345.0	1.0	0.0	7.79724	7.07753	-9.84048	14.1928	15.46668	0.97918	1.02126	189.52294	175.02082	71.81492	0.31952	 	1.68307E18	 	1.79258E-18	 	-2069.73818	27.29467	 
340.0	1.0	0.0	7.79904	7.0759	-9.86132	14.17011	15.39271	0.97593	1.02467	189.84427	175.16324	71.94535	0.31936	 	2.56022E18	 	1.1689E-18	 	-2205.97739	27.24784	 
335.0	1.0	0.0	7.80084	7.07426	-9.8821	14.14741	15.31863	0.97265	1.02812	190.16502	175.30496	72.07558	0.31921	 	3.92146E18	 	7.5692E-19	 	-2341.98245	27.20101	 
330.0	1.0	0.0	7.80264	7.07264	-9.90282	14.12472	15.24444	0.96935	1.03162	190.48518	175.44598	72.20562	0.31905	 	6.04906E18	 	4.86659E-19	 	-2477.7534	27.15419	 
325.0	1.0	0.0	7.80443	7.07102	-9.92349	14.10203	15.17014	0.96602	1.03517	190.80476	175.5863	72.33547	0.31889	 	9.39885E18	 	3.10615E-19	 	-2613.29024	27.10737	 
320.0	1.0	0.0	7.80621	7.0694	-9.94409	14.07933	15.09572	0.96267	1.03878	191.12376	175.72592	72.46512	0.31873	 	1.47126E19	 	1.96772E-19	 	-2748.59297	27.06055	 
315.0	1.0	0.0	7.80799	7.06779	-9.96463	14.05664	15.02119	0.95929	1.04244	191.44217	175.86485	72.59458	0.31857	 	2.32066E19	 	1.23698E-19	 	-2883.66154	27.01371	 
310.0	1.0	0.0	7.80977	7.06618	-9.98511	14.03394	14.94653	0.95589	1.04615	191.76001	176.0031	72.72384	0.31841	 	3.68917E19	 	7.71504E-20	 	-3018.49593	26.96688	 
305.0	1.0	0.0	7.81154	7.06457	-10.00553	14.01124	14.87175	0.95246	1.04992	192.07726	176.14065	72.85291	0.31825	 	5.91191E19	 	4.77309E-20	 	-3153.09605	26.92003	 
300.0	1.0	0.0	7.81331	7.06298	-10.02589	13.98855	14.79684	0.949	1.05374	192.39393	176.27752	72.98178	0.3181	 	9.55212E19	 	2.92857E-20	 	-3287.46184	26.87316	 
295.0	1.0	0.0	7.81507	7.06138	-10.04619	13.96585	14.7218	0.94551	1.05762	192.71002	176.4137	73.11046	0.31794	 	1.55647E20	 	1.7816E-20	 	-3421.59318	26.82627	 
290.0	1.0	0.0	7.81683	7.05979	-10.06643	13.94315	14.64662	0.942	1.06157	193.02553	176.5492	73.23895	0.31778	 	2.5582599999999997E20	 	1.0744E-20	 	-3555.48995	26.77935	 
285.0	1.0	0.0	7.81859	7.05821	-10.08661	13.92045	14.5713	0.93847	1.06557	193.34046	176.68402	73.36724	0.31762	 	4.2424399999999993E20	 	6.42128E-21	 	-3689.152	26.73241	 
280.0	1.0	0.0	7.82034	7.05663	-10.10672	13.89775	14.49584	0.9349	1.06963	193.65481	176.81817	73.49533	0.31746	 	7.10001E20	 	3.80251E-21	 	-3822.57916	26.68543	 
275.0	1.0	0.0	7.82208	7.05506	-10.12678	13.87505	14.42023	0.93131	1.07376	193.96858	176.95163	73.62323	0.31731	 	1.19945E21	 	2.23051E-21	 	-3955.77123	26.63841	 
270.0	1.0	0.0	7.82382	7.05349	-10.14678	13.85234	14.34446	0.92769	1.07795	194.28176	177.08443	73.75094	0.31715	 	2.04596E21	 	1.29572E-21	 	-4088.72801	26.59135	 
265.0	1.0	0.0	7.82556	7.05192	-10.16671	13.82964	14.26854	0.92404	1.08221	194.59437	177.21655	73.87845	0.31699	 	3.5247E21	 	7.45192E-22	 	-4221.44923	26.54424	 
260.0	1.0	0.0	7.82729	7.05036	-10.18659	13.80694	14.19246	0.92036	1.08653	194.90639	177.34801	74.00577	0.31683	 	6.134470000000001E21	 	4.24188E-22	 	-4353.93463	26.49708	 
255.0	1.0	0.0	7.82902	7.04881	-10.2064	13.78423	14.11621	0.91665	1.09092	195.21784	177.47879	74.13289	0.31667	 	1.07892E22	 	2.38921E-22	 	-4486.18391	26.44985	 
250.0	1.0	0.0	7.83074	7.04726	-10.22616	13.76153	14.03979	0.91292	1.09539	195.5287	177.60891	74.25982	0.31652	 	1.9181799999999998E22	 	1.33114E-22	 	-4618.19672	26.40256	 
245.0	1.0	0.0	7.83246	7.04571	-10.24585	13.73882	13.96319	0.90915	1.09993	195.83899	177.73837	74.38655	0.31636	 	3.44835E22	 	7.33383E-23	 	-4749.97272	26.3552	 
240.0	1.0	0.0	7.83417	7.04417	-10.26548	13.71611	13.88641	0.90536	1.10454	196.14869	177.86717	74.51309	0.3162	 	6.270429999999999E22	 	3.99424E-23	 	-4881.51149	26.30775	 
235.0	1.0	0.0	7.83588	7.04263	-10.28506	13.69341	13.80944	0.90153	1.10922	196.45782	177.9953	74.63943	0.31605	 	1.1537E23	 	2.14973E-23	 	-5012.81261	26.26023	 
230.0	1.0	0.0	7.83758	7.0411	-10.30457	13.6707	13.73228	0.89768	1.11398	196.76637	178.12278	74.76557	0.31589	 	2.14859E23	 	1.14296E-23	 	-5143.87561	26.2126	 
225.0	1.0	0.0	7.83928	7.03957	-10.32402	13.64799	13.65492	0.89379	1.11883	197.07434	178.24961	74.89153	0.31573	 	4.05167E23	 	6.00085E-24	 	-5274.69998	26.16488	 
220.0	1.0	0.0	7.84098	7.03805	-10.34341	13.62528	13.57734	0.88988	1.12375	197.38173	178.37578	75.01728	0.31557	 	7.73928E23	 	3.11003E-24	 	-5405.28518	26.11704	 
215.0	1.0	0.0	7.84267	7.03653	-10.36274	13.60257	13.49956	0.88593	1.12876	197.68854	178.5013	75.14285	0.31542	 	1.49805E24	 	1.59043E-24	 	-5535.63062	26.06909	 
210.0	1.0	0.0	7.84436	7.03502	-10.38201	13.57986	13.42155	0.88195	1.13385	197.99477	178.62617	75.26821	0.31526	 	2.93959E24	 	8.022E-25	 	-5665.73565	26.02101	 
205.0	1.0	0.0	7.84604	7.03351	-10.40122	13.55715	13.34332	0.87794	1.13903	198.30042	178.75039	75.39338	0.3151	 	5.85019E24	 	3.98915E-25	 	-5795.59961	25.97279	 
200.0	1.0	0.0	7.84772	7.03201	-10.42037	13.53444	13.26485	0.8739	1.14429	198.60549	178.87397	75.51836	0.31495	 	1.18133E25	 	1.95486E-25	 	-5925.22177	25.92443	 
195.0	1.0	0.0	7.84939	7.03051	-10.43946	13.51172	13.18613	0.86983	1.14965	198.90999	178.9969	75.64314	0.31479	 	2.42154E25	 	9.43584E-26	 	-6054.60133	25.87591	 
190.0	1.0	0.0	7.85106	7.02902	-10.45849	13.48901	13.10716	0.86572	1.1551	199.21391	179.1192	75.76773	0.31464	 	5.04129E25	 	4.48401E-26	 	-6183.73747	25.82723	 
185.0	1.0	0.0	7.85272	7.02753	-10.47745	13.46629	13.02794	0.86159	1.16065	199.51725	179.24085	75.89212	0.31448	 	1.0664600000000002E26	 	2.09677E-26	 	-6312.6293	25.77836	 
180.0	1.0	0.0	7.85438	7.02604	-10.49636	13.44358	12.94843	0.85741	1.1663	199.82001	179.36186	76.01631	0.31432	 	2.2936400000000003E26	 	9.64281E-27	 	-6441.27585	25.72931	 
175.0	1.0	0.0	7.85603	7.02457	-10.5152	13.42086	12.86865	0.85321	1.17204	200.1222	179.48224	76.14031	0.31417	 	5.0179700000000006E26	 	4.35895E-27	 	-6569.67612	25.68005	 
170.0	1.0	0.0	7.85768	7.02309	-10.53399	13.39815	12.78858	0.84897	1.17789	200.4238	179.60199	76.26412	0.31401	 	1.11739E27	 	1.93568E-27	 	-6697.82901	25.63058	 
165.0	1.0	0.0	7.85933	7.02162	-10.55271	13.37543	12.70821	0.8447	1.18385	200.72483	179.7211	76.38773	0.31386	 	2.5340499999999997E27	 	8.43907E-28	 	-6825.73338	25.58087	 
160.0	1.0	0.0	7.86097	7.02016	-10.57138	13.35271	12.62753	0.8404	1.18991	201.02528	179.83958	76.51114	0.3137	 	5.85647E27	 	3.60985E-28	 	-6953.38799	25.53092	 
155.0	1.0	0.0	7.8626	7.0187	-10.58998	13.32999	12.54652	0.83606	1.19608	201.32516	179.95744	76.63436	0.31354	 	1.3802400000000001E28	 	1.51401E-28	 	-7080.79153	25.48071	 
150.0	1.0	0.0	7.86423	7.01724	-10.60853	13.30727	12.46517	0.83169	1.20237	201.62446	180.07467	76.75738	0.31339	 	3.31949E28	 	6.22171E-29	 	-7207.9426	25.43021	 
145.0	1.0	0.0	7.86586	7.01579	-10.62701	13.28455	12.38348	0.82729	1.20877	201.92318	180.19127	76.8802	0.31323	 	8.15272E28	 	2.50332E-29	 	-7334.83973	25.37943	 
140.0	1.0	0.0	7.86748	7.01434	-10.64543	13.26183	12.30142	0.82285	1.21529	202.22132	180.30725	77.00284	0.31308	 	2.0463500000000003E29	 	9.85406E-30	 	-7461.48133	25.32832	 
135.0	1.0	0.0	7.8691	7.0129	-10.66379	13.23911	12.21899	0.81837	1.22194	202.51889	180.42261	77.12527	0.31292	 	5.2535E29	 	3.79191E-30	 	-7587.86571	25.27688	 
130.0	1.0	0.0	7.87071	7.01146	-10.68209	13.21639	12.13616	0.81386	1.22871	202.81588	180.53735	77.24751	0.31277	 	1.3806199999999998E30	 	1.42521E-30	 	-7713.9911	25.22508	 
125.0	1.0	0.0	7.87232	7.01003	-10.70033	13.19366	12.05293	0.80932	1.23561	203.11229	180.65147	77.36955	0.31261	 	3.7174E30	 	5.2275E-31	 	-7839.85559	25.1729	 
120.0	1.0	0.0	7.87392	7.00861	-10.71851	13.17094	11.96928	0.80474	1.24263	203.40813	180.76498	77.4914	0.31246	 	1.02647E31	 	1.86939E-31	 	-7965.45716	25.12031	 
115.0	1.0	0.0	7.87552	7.00718	-10.73663	13.14822	11.88518	0.80013	1.2498	203.70339	180.87787	77.61305	0.3123	 	2.90949E31	 	6.51132E-32	 	-8090.79368	25.0673	 
110.0	1.0	0.0	7.87711	7.00577	-10.75469	13.12549	11.80062	0.79548	1.2571	203.99808	180.99015	77.7345	0.31215	 	8.474179999999999E31	 	2.20678E-32	 	-8215.86284	25.01383	 
105.0	1.0	0.0	7.8787	7.00435	-10.77268	13.10276	11.71558	0.7908	1.26454	204.29219	181.10183	77.85576	0.31199	 	2.5389599999999998E32	 	7.26935E-33	 	-8340.66222	24.95988	 
100.0	1.0	0.0	7.88029	7.00295	-10.79062	13.08004	11.63005	0.78608	1.27213	204.58572	181.21289	77.97683	0.31184	 	7.834019999999999E32	 	2.3248E-33	 	-8465.18924	24.9054	 
95.0	1.0	0.0	7.88187	7.00154	-10.8085	13.05731	11.54399	0.78133	1.27987	204.87868	181.32334	78.09769	0.31168	 	2.49233E33	 	7.20952E-34	 	-8589.44115	24.85038	 
90.0	1.0	0.0	7.88344	7.00014	-10.82631	13.03458	11.45738	0.77655	1.28776	205.17106	181.4332	78.21836	0.31153	 	8.1859E33	 	2.16524E-34	 	-8713.41502	24.79477	 
85.0	1.0	0.0	7.88501	6.99875	-10.84407	13.01185	11.37021	0.77172	1.2958	205.46287	181.54244	78.33884	0.31137	 	2.77938E34	 	6.28932E-35	 	-8837.10772	24.73854	 
80.0	1.0	0.0	7.88658	6.99736	-10.86176	12.98912	11.28244	0.76687	1.304	205.7541	181.65109	78.45912	0.31122	 	9.769280000000001E34	 	1.76434E-35	 	-8960.51594	24.68164	 
75.0	1.0	0.0	7.88814	6.99598	-10.87939	12.96639	11.19405	0.76198	1.31237	206.04476	181.75914	78.5792	0.31106	 	3.56006E35	 	4.77305E-36	 	-9083.63614	24.62404	 
70.0	1.0	0.0	7.88969	6.9946	-10.89697	12.94366	11.10501	0.75706	1.3209	206.33484	181.86659	78.69908	0.31091	 	1.34716E36	 	1.24323E-36	 	-9206.46456	24.56568	 
65.0	1.0	0.0	7.89124	6.99322	-10.91448	12.92093	11.01529	0.75211	1.3296	206.62435	181.97344	78.81877	0.31076	 	5.3023699999999994E36	 	3.11262E-37	 	-9328.99719	24.50653	 
60.0	1.0	0.0	7.89279	6.99185	-10.93193	12.8982	10.92486	0.74712	1.33847	206.91328	182.0797	78.93826	0.3106	 	2.1746199999999998E37	 	7.47726E-38	 	-9451.22972	24.44651	 
55.0	1.0	0.0	7.89433	6.99049	-10.94932	12.87546	10.83367	0.7421	1.34753	207.20164	182.18536	79.05756	0.31045	 	9.31056E37	 	1.72022E-38	 	-9573.15759	24.38557	 
50.0	1.0	0.0	7.89587	6.98913	-10.96665	12.85273	10.7417	0.73705	1.35676	207.48942	182.29044	79.17666	0.31029	 	4.16977E38	 	3.7825E-39	 	-9694.77591	24.32366	 
45.0	1.0	0.0	7.8974	6.98777	-10.98392	12.83	10.6489	0.73197	1.36618	207.77663	182.39492	79.29556	0.31014	 	1.9575600000000002E39	 	7.93237E-40	 	-9816.07945	24.26071	 
40.0	1.0	0.0	7.89893	6.98642	-11.00113	12.80726	10.55523	0.72686	1.37578	208.06326	182.49882	79.41427	0.30999	 	9.655280000000001E39	 	1.58298E-40	 	-9937.06263	24.19664	 
35.0	1.0	0.0	7.90045	6.98507	-11.01828	12.78452	10.46065	0.72172	1.38558	208.34932	182.60213	79.53278	0.30983	 	5.0154E40	 	2.99877E-41	 	-10057.71949	24.13137	 
30.0	1.0	0.0	7.90197	6.98373	-11.03537	12.76179	10.36511	0.71656	1.39557	208.63481	182.70485	79.65109	0.30968	 	2.7507400000000002E41	 	5.37892E-42	 	-10178.04361	24.06482	 
25.0	1.0	0.0	7.90348	6.9824	-11.05239	 	10.26855	0.71136	1.40575	208.91972	182.807	79.76921	0.30953	 	1.59729E42	 	9.11041E-43	 	-10298.02815	 	 
