T (C)	Fraction solid (wt)-TOTAL	Fraction liquid (wt)-LIQUID	Density (g/(cm)^3)-TOTAL	Molar volume (cm^3)-TOTAL	Volume change (%)-  	Average expansion coeff. (10e-6 1/K)-  	Thermal conductivity (W/(m*K))-TOTAL	Electrical resistivity (10e-6 Ohm*m)-TOTAL	Electrical conductivity (10e6 1/(Ohm*m))-TOTAL	Young's modulus (GPa)-TOTAL	Bulk modulus (GPa)-TOTAL	Shear modulus(GPa)-TOTAL	Poisson's ratio-TOTAL	Liquid viscosity (mPa s)-  	Total viscosity (mPa s)-  	Liquid diffusivity (10e-9 (m^2)/s)-  	Total diffusivity (10e-9 (m^2)/s)-  	Surface Tension (mN/m)-  	Enthalpy (J/mole)-TOTAL	Specific heat (J/(mole K))-TOTAL	Latent heat (J/mole)-TOTAL
1400.0	0.0	1.0	7.46413	7.8343	0.0	28.54007	28.48521	1.43907	0.69489	0.0	124.65956	0.0	0.5	7.84191	7.84191	1.04136	1.04136	1810.56988	52465.391	 	0.0
1395.0	0.0	1.0	7.46816	7.83008	-0.0539263	28.49757	28.41214	1.43846	0.69519	0.0	124.81562	0.0	0.5	7.92717	7.92717	1.02708	1.02708	1813.95653	52260.402	40.9978	0.0
1390.0	0.0	1.0	7.47218	7.82586	-0.1077	28.4552	28.33908	1.43784	0.69549	0.0	124.97169	0.0	0.5	8.01388	8.01388	1.01292	1.01292	1817.37242	52055.895	40.9014	0.0
1385.0	0.0	1.0	7.47619	7.82166	-0.16131	28.41294	28.26601	1.43723	0.69578	0.0	125.12775	0.0	0.5	8.10207	8.10207	0.99888	0.99888	1820.81754	51851.866	40.8058	0.0
1380.0	0.0	1.0	7.48019	7.81747	-0.21477	28.37079	28.19295	1.43661	0.69608	0.0	125.28382	0.0	0.5	8.19177	8.19177	0.98497	0.98497	1824.29179	51648.313	40.7106	0.0
1375.0	0.0	1.0	7.48419	7.8133	-0.26807	28.32877	28.11988	1.43598	0.69639	0.0	125.43988	0.0	0.5	8.28302	8.28302	0.97117	0.97117	1827.79509	51445.233	40.616	0.0
1370.0	0.0	1.0	7.48818	7.80914	-0.32121	28.28687	28.04682	1.43536	0.69669	0.0	125.59595	0.0	0.5	8.37585	8.37585	0.95749	0.95749	1831.32734	51242.623	40.522	0.0
1365.0	0.0	1.0	7.49216	7.80498	-0.3742	28.24509	27.97375	1.43473	0.697	0.0	125.75201	0.0	0.5	8.4703	8.4703	0.94393	0.94393	1834.88842	51040.481	40.4284	0.0
1361.25	0.0	1.0	7.49514	7.80188	-0.41382	28.21385	27.91898	1.43425	0.69723	0.0	125.869	0.0	0.5	8.54218	8.54218	0.93385	0.93385	1837.57669	50889.264	40.34551	0.0
1360.0	0.03474	0.96526	7.5041	7.79251	-0.5334	27.90658	28.02439	1.42776	0.7004	1.41783E-4	126.16072	4.74082E-5	0.49534	8.56289	9.00229	0.93088	0.88544	1837.34922	50337.49	440.73166	501.311
1355.0	0.161	0.839	7.53697	7.75858	-0.96654	26.79812	28.4089	1.40413	0.71219	0.0667799	127.24237	0.0225869	0.47829	8.64429	28.61976	0.91929	0.27766	1836.44882	48322.221	403.0538	2315.365
1350.0	0.2647	0.7353	7.56453	7.73029	-1.32768	25.88376	28.72253	1.38453	0.72227	0.49665	128.17912	0.16961	0.46411	8.72496	151.09368	0.90799	0.0524323	1835.6352	46640.489	336.3464	3796.342
1345.0	0.35089	0.64911	7.58795	7.70643	-1.63222	25.12223	28.98096	1.36796	0.73102	1.55688	129.0048	0.53604	0.4522	8.80506	467.60949	0.89696	0.0168897	1834.91405	45217.955	284.5068	5018.576
1340.0	0.42327	0.57673	7.60809	7.68609	-1.89177	24.48237	29.19513	1.35372	0.7387	3.34023	129.74394	1.15811	0.4421	8.8847	1033.26654	0.88617	0.0076199	1834.289	43999.434	243.7042	6037.253
1335.79	0.47535	0.52465	7.62292	7.6711	-2.0831	24.01721	29.34579	1.34326	0.74446	5.36635	130.30924	1.87012	0.43476	8.95156	1717.54845	0.87726	0.00457212	1833.84403	43103.7	 	6765.008
1335.0	0.49778	0.50222	7.62905	7.66499	-2.16115	23.80967	29.41838	1.33929	0.74667	6.4799	130.616	2.26328	0.43153	8.98263	2084.40301	0.8738	0.00376558	1833.78562	42736.538	252.5792	7100.756
1330.0	0.62376	0.37624	7.66339	7.63063	-2.59975	22.6487	29.83451	1.3165	0.75959	16.40932	132.25952	5.80597	0.41314	9.1824	5474.88497	0.85213	0.00142918	1833.28773	40670.357	413.2362	8967.995
1325.0	0.71121	0.28879	7.68784	7.60633	-2.90986	21.84704	30.11812	1.30004	0.76921	28.33132	133.42371	10.1171	0.40017	9.38663	9875.94862	0.83099	7.89815E-4	1832.65555	39195.337	295.004	10244.518
1320.0	0.77376	0.22624	7.70589	7.58848	-3.13775	21.27574	30.30848	1.28783	0.7765	40.34122	134.29509	14.50338	0.39075	9.59514	14770.24909	0.81039	5.26448E-4	1831.93929	38097.943	219.4788	11143.86
1315.0	0.81966	0.18034	7.71967	7.57483	-3.31199	20.85498	30.43266	1.27855	0.78214	51.44662	134.98112	18.58975	0.38374	9.80762	19857.51538	0.79034	3.90349E-4	1831.18374	37249.866	169.6154	11794.327
1310.0	0.85412	0.14588	7.73055	7.56409	-3.44902	20.53881	30.50933	1.27132	0.78658	61.27652	135.54769	22.22754	0.37839	10.02422	24998.78274	0.77083	3.09094E-4	1830.41977	36571.287	135.7158	12275.735
1305.0	0.8805	0.1195	7.73938	7.55537	-3.56037	20.29493	30.55134	1.26556	0.79016	69.7902	136.03452	25.39241	0.37423	10.24484	30149.84654	0.75185	2.55476E-4	1829.67611	36010.986	112.0602	12639.302
1300.0	0.90107	0.0989339	7.74676	7.54808	-3.65337	20.10275	30.56768	1.26088	0.7931	77.0928	136.4669	28.11683	0.37094	10.46953	35316.40648	0.73338	2.1741E-4	1828.97415	35535.18	95.1612	12918.809
1295.0	0.91736	0.0826425	7.75306	7.54185	-3.73296	19.94842	30.56477	1.25699	0.79555	83.34363	136.86166	30.45569	0.36828	10.69824	40530.68454	0.71542	1.88838E-4	1828.32961	35121.021	82.8318	13137.101
1290.0	0.93045	0.0695547	7.75849	7.53635	-3.80313	19.82059	30.54693	1.25372	0.79763	88.70844	137.23366	32.468	0.36609	10.93111	45834.56937	0.69795	1.66454E-4	1831.42025	34749.67594	74.26901	13309.975
1285.0	0.9411	0.0588999	7.76322	7.53192	-3.85965	19.73212	30.51094	1.25118	0.79925	93.31963	137.54726	34.20194	0.36424	11.16824	51347.25258	0.68094	1.48108E-4	1834.52981	34412.53072	67.42904	13448.581
1280.0	0.94987	0.0501257	7.76753	7.52783	-3.9119	19.65561	30.468	1.24892	0.80069	97.31373	137.85689	35.70648	0.36269	11.40976	57048.45543	0.66439	1.32879E-4	1837.65833	34102.13067	62.08001	13560.935
1275.0	0.95718	0.0428208	7.7715	7.524	-3.96082	19.58843	30.41961	1.24688	0.802	100.79505	138.16447	37.01983	0.36137	11.65568	62984.36125	0.64828	1.19968E-4	1840.80362	33812.61211	57.90371	13652.899
1270.0	0.96332	0.036682	7.77521	7.52036	-4.00727	19.5281	30.3669	1.24501	0.8032	103.85246	138.47092	38.1748	0.36022	11.90628	69202.62063	0.63258	1.08836E-4	1843.96775	33539.62033	54.59836	13728.823
1265.0	0.96852	0.0314762	7.77871	7.51687	-4.05175	19.47319	30.31068	1.24328	0.80432	106.55491	138.7768	39.19689	0.35923	12.1615	75749.16513	0.6173	9.91077E-5	1847.15027	33279.87359	51.94935	13791.986
1260.0	0.97307	0.0269328	7.78212	7.5135	-4.09478	19.42222	30.25197	1.24164	0.80538	108.9981	139.08532	40.12186	0.35834	12.4065	82696.10585	0.60315	9.0487E-5	1850.35766	33029.18319	50.13808	13846.574
1255.0	0.97748	0.0225155	7.78578	7.51016	-4.13743	19.37198	30.19281	1.24002	0.80644	111.39997	139.40535	41.03192	0.35748	12.59056	90221.5824	0.59239	8.26689E-5	1853.6232	32778.97641	50.04136	13901.157
1250.0	0.98123	0.0187693	7.78931	7.50695	-4.1784	19.32645	30.13092	1.2385	0.80743	113.52942	139.72345	41.83955	0.35672	12.77934	98198.57721	0.58173	7.57049E-5	1856.90603	32538.45751	48.10378	13946.529
1245.0	0.98444	0.0155647	7.79275	7.50385	-4.21795	19.28485	30.06679	1.23707	0.80836	115.4329	140.04021	42.56212	0.35605	12.97266	106685.8096	0.57118	6.94536E-5	1860.20509	32305.82677	46.52615	13984.484
1240.0	0.9872	0.0128023	7.7961	7.50085	-4.25634	19.24651	30.00079	1.23571	0.80925	117.14808	140.35592	43.21376	0.35545	13.17061	115744.3351	0.56074	6.38071E-5	1863.52027	32079.69143	45.22707	14016.413
1235.0	0.99041	0.00958779	7.7997	7.49761	-4.29767	19.19876	29.9352	1.23432	0.81016	119.1194	140.68689	43.96294	0.35477	13.35531	125855.0585	0.55116	5.84872E-5	1866.79119	31845.13978	46.91033	14057.225
1230.0	0.99541	0.0045944	7.80405	7.49376	-4.34676	19.12666	29.87405	1.23275	0.8112	122.07561	141.09743	45.08603	0.35381	13.44573	137882.6162	0.54564	5.32083E-5	1870.03674	31580.80205	52.86755	14128.286
1225.0	1.0	0.0	7.80842	7.48999	-4.39491	19.05685	29.81238	1.23119	0.81222	124.90382	141.52341	46.16132	0.35291	 	150867.5549	 	4.8467E-5	 	31322.07151	51.74611	14194.202
1220.0	1.0	0.0	7.81096	7.48755	-4.426	19.03964	29.7332	1.23035	0.81278	125.31105	141.80972	46.31804	0.35272	 	162150.6382	 	4.4944E-5	 	31151.58962	34.09638	 
1215.0	1.0	0.0	7.8135	7.48512	-4.45704	19.02246	29.65401	1.2295	0.81334	125.71747	142.09456	46.4745	0.35254	 	174359.9652	 	4.16569E-5	 	30967.67416	36.78309	 
1210.0	1.0	0.0	7.81603	7.48269	-4.48802	19.00532	29.57482	1.22865	0.8139	126.1231	142.37793	46.6307	0.35236	 	187578.1785	 	3.85913E-5	 	30784.10147	36.71454	 
1205.0	1.0	0.0	7.81856	7.48027	-4.51894	18.98822	29.49562	1.2278	0.81447	126.52792	142.65984	46.78664	0.35218	 	201895.8807	 	3.57337E-5	 	30600.87035	36.64622	 
1200.0	1.0	0.0	7.82109	7.47785	-4.5498	18.97117	29.41642	1.22694	0.81504	126.93195	142.9403	46.94233	0.352	 	217412.4468	 	3.30711E-5	 	30417.97953	36.57816	 
1195.0	1.0	0.0	7.82362	7.47544	-4.58061	18.95415	29.33721	1.22608	0.81561	127.33517	143.2193	47.09775	0.35182	 	234236.9451	 	3.05916E-5	 	30235.4278	36.51035	 
1190.0	1.0	0.0	7.82614	7.47303	-4.61135	18.93717	29.258	1.22521	0.81619	127.73759	143.49686	47.25292	0.35164	 	252489.126	 	2.82835E-5	 	30053.21394	36.44277	 
1185.0	1.0	0.0	7.82866	7.47063	-4.64204	18.92023	29.17879	1.22434	0.81677	128.13922	143.77299	47.40782	0.35146	 	272300.5772	 	2.61361E-5	 	29871.33668	36.37545	 
1180.0	1.0	0.0	7.83117	7.46823	-4.67267	18.90334	29.09957	1.22346	0.81735	128.54004	144.04768	47.56246	0.35128	 	293815.9402	 	2.41391E-5	 	29689.79488	36.30836	 
1175.0	1.0	0.0	7.83368	7.46583	-4.70324	18.88649	29.02035	1.22258	0.81794	128.94006	144.32095	47.71685	0.3511	 	317194.3437	 	2.22831E-5	 	29508.58714	36.24155	 
1174.65	1.0	0.0	7.83386	7.46567	-4.70539	18.88525	29.01481	1.22252	0.81798	128.96797	144.33994	47.72763	0.35108	 	318901.1608	 	2.21584E-5	 	29495.94216	 	 
1170.0	1.0	0.0	7.83641	7.46324	-4.73635	18.86121	28.94901	1.22136	0.81876	129.3303	144.54114	47.86917	0.35087	 	342549.803	 	2.05624E-5	 	29322.20809	37.27581	 
1165.0	1.0	0.0	7.83914	7.46064	-4.76959	18.8353	28.8781	1.22012	0.81959	129.71959	144.75667	48.0213	0.35065	 	370119.3568	 	1.89648E-5	 	29135.75025	37.29157	 
1160.0	1.0	0.0	7.84187	7.45804	-4.80276	18.80939	28.80736	1.21886	0.82044	130.10863	144.97145	48.17338	0.35042	 	400117.833	 	1.7482E-5	 	28949.62337	37.22538	 
1155.0	1.0	0.0	7.8446	7.45544	-4.83587	18.78346	28.73671	1.21759	0.82129	130.49743	145.18548	48.32542	0.35019	 	432777.3507	 	1.61063E-5	 	28763.82498	37.15968	 
1150.0	1.0	0.0	7.84733	7.45285	-4.86891	18.75752	28.66617	1.21632	0.82215	130.88599	145.39875	48.47741	0.34997	 	468354.0273	 	1.48308E-5	 	28578.35224	37.09455	 
1145.0	1.0	0.0	7.85005	7.45027	-4.90188	18.73157	28.59572	1.21503	0.82302	131.2743	145.61128	48.62935	0.34974	 	507130.4379	 	1.36486E-5	 	28393.2027	37.02991	 
1142.03	1.0	0.0	7.85166	7.44874	-4.92147	18.71609	28.55388	1.21426	0.82355	131.50505	145.73724	48.71967	0.34961	 	531826.8923	 	1.29876E-5	 	28283.2801	 	 
1140.0	1.0	0.0	7.85269	7.44776	-4.93389	18.70861	28.52249	1.21386	0.82382	131.66589	145.84131	48.78202	0.34953	 	549488.3228	 	1.25521E-5	 	28210.02917	36.63471	 
1135.0	1.0	0.0	7.85522	7.44537	-4.96448	18.69022	28.44503	1.21285	0.8245	132.06207	146.0973	48.93563	0.34934	 	595826.5963	 	1.1535E-5	 	28029.65544	36.07475	 
1130.0	1.0	0.0	7.85774	7.44298	-4.99499	18.67193	28.36751	1.21185	0.82518	132.45752	146.35233	49.089	0.34916	 	646434.0237	 	1.05942E-5	 	27849.68385	35.99432	 
1125.0	1.0	0.0	7.86026	7.44059	-5.02541	18.65374	28.28994	1.21084	0.82587	132.85225	146.6064	49.24213	0.34897	 	701736.7702	 	9.72448E-6	 	27670.11064	35.91464	 
1120.0	1.0	0.0	7.86277	7.43822	-5.05576	18.63567	28.2123	1.20983	0.82656	133.24625	146.85951	49.39501	0.34878	 	762206.829	 	8.92096E-6	 	27490.93307	35.83551	 
1115.0	1.0	0.0	7.86528	7.43585	-5.08603	18.61769	28.13461	1.20882	0.82725	133.63952	147.11164	49.54764	0.3486	 	828367.2027	 	8.179E-6	 	27312.14693	35.75723	 
1110.0	1.0	0.0	7.86778	7.43348	-5.11622	18.59982	28.05685	1.2078	0.82795	134.03205	147.36279	49.70002	0.34841	 	900797.8701	 	7.49426E-6	 	27133.74855	35.67968	 
1105.0	1.0	0.0	7.87028	7.43112	-5.14633	18.58205	27.97905	1.20678	0.82865	134.42384	147.61295	49.85216	0.34822	 	980142.3638	 	6.86268E-6	 	26955.73428	35.60285	 
1100.0	1.0	0.0	7.87277	7.42877	-5.17636	18.56438	27.90119	1.20576	0.82935	134.81489	147.86211	50.00405	0.34804	 	1067115.276	 	6.28049E-6	 	26778.10056	35.52674	 
1095.0	1.0	0.0	7.87526	7.42642	-5.20632	18.54682	27.82328	1.20474	0.83006	135.2052	148.11026	50.15568	0.34786	 	1162510.618	 	5.74412E-6	 	26600.8438	35.45135	 
1090.0	1.0	0.0	7.87774	7.42408	-5.2362	18.52935	27.74531	1.20371	0.83077	135.59477	148.35741	50.30707	0.34767	 	1267211.295	 	5.25027E-6	 	26423.96049	35.37666	 
1085.0	1.0	0.0	7.88022	7.42174	-5.26601	18.51199	27.6673	1.20267	0.83148	135.98358	148.60353	50.45821	0.34749	 	1382199.671	 	4.79583E-6	 	26247.44714	35.30267	 
1080.0	1.0	0.0	7.88269	7.41942	-5.29574	18.49472	27.58923	1.20163	0.8322	136.37165	148.84864	50.60909	0.3473	 	1508569.673	 	4.37791E-6	 	26071.3003	35.22937	 
1078.32	1.0	0.0	7.88353	7.41863	-5.30574	18.48892	27.56295	1.20128	0.83244	136.50209	148.93089	50.65982	0.34724	 	1553868.94	 	4.245E-6	 	26012.09913	 	 
1075.0	1.0	0.0	7.88516	7.4171	-5.32533	18.47779	27.51112	1.20059	0.83292	136.75924	149.09317	50.75982	0.34712	 	1647569.503	 	3.99375E-6	 	25895.36601	35.18686	 
1070.0	1.0	0.0	7.88761	7.41479	-5.35482	18.46108	27.43298	1.19955	0.83365	137.1462	149.33687	50.91034	0.34694	 	1800549.882	 	3.64088E-6	 	25719.72561	35.12808	 
1065.0	1.0	0.0	7.89007	7.41248	-5.38424	18.44445	27.35478	1.1985	0.83438	137.53239	149.5795	51.06059	0.34676	 	1969013.147	 	3.31698E-6	 	25544.45416	35.05429	 
1060.0	1.0	0.0	7.89251	7.41018	-5.41359	18.4279	27.27654	1.19745	0.83511	137.91781	149.82106	51.21059	0.34657	 	2154653.811	 	3.01987E-6	 	25369.54777	34.98128	 
1055.0	1.0	0.0	7.89496	7.40789	-5.44287	18.41143	27.19825	1.19639	0.83585	138.30245	150.06154	51.36033	0.34639	 	2359365.643	 	2.74751E-6	 	25195.00261	34.90903	 
1050.0	1.0	0.0	7.8974	7.4056	-5.47209	18.39504	27.11993	1.19533	0.83659	138.68633	150.30094	51.50982	0.34621	 	2585266.626	 	2.49799E-6	 	25020.81493	34.83753	 
1045.0	1.0	0.0	7.89984	7.40332	-5.50124	18.37873	27.04156	1.19426	0.83734	139.06944	150.53925	51.65904	0.34603	 	2834727.444	 	2.26955E-6	 	24846.98104	34.76678	 
1040.0	1.0	0.0	7.90227	7.40104	-5.53032	18.3625	26.96315	1.19319	0.83809	139.45179	150.77649	51.80801	0.34585	 	3110403.395	 	2.06056E-6	 	24673.49734	34.69674	 
1035.0	1.0	0.0	7.9047	7.39876	-5.55934	18.34636	26.8847	1.19212	0.83884	139.83336	151.01264	51.95672	0.34567	 	3415271.367	 	1.86947E-6	 	24500.36029	34.62741	 
1030.0	1.0	0.0	7.90712	7.3965	-5.5883	18.3303	26.80621	1.19104	0.8396	140.21417	151.24771	52.10518	0.34549	 	3752670.797	 	1.69489E-6	 	24327.5664	34.55878	 
1025.0	1.0	0.0	7.90954	7.39423	-5.61718	18.31432	26.72768	1.18995	0.84037	140.59422	151.4817	52.25338	0.34531	 	4126351.405	 	1.53548E-6	 	24155.11229	34.49082	 
1020.0	1.0	0.0	7.91196	7.39197	-5.64601	18.29842	26.64912	1.18886	0.84114	140.9735	151.7146	52.40133	0.34513	 	4540526.69	 	1.39005E-6	 	23982.99462	34.42353	 
1015.0	1.0	0.0	7.91437	7.38972	-5.67477	18.28261	26.57052	1.18777	0.84191	141.35203	151.94642	52.54902	0.34495	 	4999935.13	 	1.25744E-6	 	23811.21014	34.3569	 
1010.0	1.0	0.0	7.91678	7.38747	-5.70346	18.26688	26.49189	1.18667	0.84269	141.72979	152.17715	52.69645	0.34478	 	5509910.16	 	1.13663E-6	 	23639.75564	34.2909	 
1005.0	1.0	0.0	7.91918	7.38523	-5.73209	18.25123	26.41322	1.18557	0.84348	142.1068	152.40679	52.84364	0.3446	 	6076459.674	 	1.02664E-6	 	23468.62802	34.22552	 
1000.0	1.0	0.0	7.92158	7.38299	-5.76065	18.23567	26.33451	1.18446	0.84427	142.48305	152.63536	52.99057	0.34442	 	6706357.459	 	9.26573E-7	 	23297.82421	34.16076	 
995.78	1.0	0.0	7.9236	7.38111	-5.78472	18.2226	26.26804	1.18352	0.84494	142.80013	152.82749	53.11443	0.34427	 	7293108.292	 	8.49202E-7	 	23153.86599	 	 
995.0	1.0	0.0	7.92427	7.38049	-5.79265	18.20679	26.24524	1.18382	0.84472	142.90883	152.8841	53.15727	0.34421	 	7418246.683	 	8.34365E-7	 	23112.87495	36.98985	 
990.0	1.0	0.0	7.92851	7.37654	-5.84306	18.10649	26.10189	1.18563	0.84343	143.59745	153.24199	53.42872	0.34382	 	8278236.308	 	7.44739E-7	 	22851.81973	52.21104	 
985.0	1.0	0.0	7.93269	7.37265	-5.89266	18.00829	25.96222	1.18729	0.84225	144.27027	153.59046	53.69407	0.34345	 	9244826.414	 	6.64233E-7	 	22594.45428	51.47309	 
980.0	1.0	0.0	7.93681	7.36883	-5.94149	17.91208	25.82608	1.18881	0.84118	144.92812	153.93007	53.95364	0.34308	 	1.033211004E7	 	5.91971E-7	 	22340.62462	50.76593	 
975.0	1.0	0.0	7.94087	7.36506	-5.98957	17.81779	25.69327	1.19018	0.84021	145.57178	154.26131	54.20773	0.34272	 	1.155616448E7	 	5.27157E-7	 	22090.18386	50.08815	 
970.0	1.0	0.0	7.94487	7.36135	-6.03694	17.72532	25.56351	1.19143	0.83933	146.20198	154.58464	54.45662	0.34237	 	1.293534509E7	 	4.69064E-7	 	21842.99187	49.4384	 
965.0	1.0	0.0	7.94882	7.35769	-6.08361	17.63459	25.4366	1.19256	0.83853	146.81942	154.9005	54.70057	0.34203	 	1.449063099E7	 	4.17035E-7	 	21598.91499	48.81538	 
960.0	1.0	0.0	7.95272	7.35409	-6.12963	17.54553	25.31235	1.19357	0.83782	147.42473	155.20927	54.93983	0.34169	 	1.624602137E7	 	3.70472E-7	 	21357.82568	48.21786	 
955.0	1.0	0.0	7.95656	7.35053	-6.17501	17.45806	25.1906	1.19448	0.83718	148.01851	155.51132	55.17464	0.34136	 	1.822899785E7	 	3.28833E-7	 	21119.60228	47.64468	 
950.0	1.0	0.0	7.96036	7.34702	-6.21978	17.3721	25.07121	1.19528	0.83662	148.60132	155.80698	55.4052	0.34104	 	2.047106044E7	 	2.91626E-7	 	20884.12873	47.09471	 
945.0	1.0	0.0	7.96412	7.34356	-6.26396	17.28759	24.95405	1.19599	0.83613	149.17371	156.09656	55.63173	0.34072	 	2.300835181E7	 	2.58406E-7	 	20651.29433	46.56688	 
940.0	1.0	0.0	7.96782	7.34015	-6.30758	17.20446	24.839	1.19659	0.83571	149.73616	156.38036	55.85442	0.34041	 	2.588238363E7	 	2.28769E-7	 	20420.99341	46.06018	 
935.0	1.0	0.0	7.97149	7.33677	-6.35065	17.12264	24.72594	1.19711	0.83534	150.28914	156.65863	56.07345	0.34011	 	2.9140882E7	 	2.02351E-7	 	20193.12518	45.57364	 
930.0	1.0	0.0	7.97511	7.33344	-6.3932	17.04206	24.61477	1.19754	0.83504	150.8331	156.93164	56.28898	0.33981	 	3.283877684E7	 	1.78821E-7	 	19967.59348	45.10634	 
925.0	1.0	0.0	7.9787	7.33014	-6.43525	16.96267	24.50538	1.19789	0.8348	151.36844	157.19962	56.50118	0.33952	 	3.70393554E7	 	1.57883E-7	 	19744.3065	44.65739	 
920.0	1.0	0.0	7.98224	7.32689	-6.47681	16.88441	24.39769	1.19815	0.83462	151.89556	157.46277	56.71021	0.33923	 	4.181561128E7	 	1.39265E-7	 	19523.17666	44.22597	 
915.0	1.0	0.0	7.98575	7.32367	-6.51791	16.80723	24.2916	1.19834	0.83449	152.41482	157.72131	56.91619	0.33894	 	4.725182323E7	 	1.22727E-7	 	19304.12034	43.81126	 
910.0	1.0	0.0	7.98922	7.32048	-6.55856	16.73106	24.18703	1.19846	0.8344	152.92657	157.97542	57.11927	0.33866	 	5.344541181E7	 	1.08048E-7	 	19087.0577	43.41253	 
905.0	1.0	0.0	7.99266	7.31733	-6.59877	16.65585	24.08391	1.1985	0.83437	153.43113	158.22529	57.31958	0.33838	 	6.05091061E7	 	9.50313E-8	 	18871.91253	43.02903	 
900.0	1.0	0.0	7.99607	7.31421	-6.63858	16.58155	23.98216	1.19848	0.83439	153.92882	158.47107	57.51723	0.33811	 	6.857350446E7	 	8.34995E-8	 	18658.61201	42.6601	 
895.0	1.0	0.0	7.99945	7.31113	-6.67797	16.50812	23.8817	1.19839	0.83445	154.41992	158.71293	57.71234	0.33784	 	7.779007322E7	 	7.32928E-8	 	18447.0866	42.30508	 
890.0	1.0	0.0	8.00279	7.30807	-6.71699	16.43551	23.78249	1.19824	0.83456	154.9047	158.95101	57.90501	0.33758	 	8.833468983E7	 	6.42675E-8	 	18237.26987	41.96335	 
885.0	1.0	0.0	8.00611	7.30504	-6.75563	16.36366	23.68445	1.19803	0.8347	155.38344	159.18545	58.09534	0.33731	 	1.004118185E8	 	5.62946E-8	 	18029.09828	41.63432	 
880.0	1.0	0.0	8.0094	7.30204	-6.79391	16.29254	23.58753	1.19776	0.83489	155.85636	159.41638	58.28344	0.33706	 	1.142594208E8	 	4.92584E-8	 	17822.51113	41.31743	 
875.0	1.0	0.0	8.01266	7.29907	-6.83185	16.22209	23.49167	1.19743	0.83512	156.32371	159.64391	58.46939	0.3368	 	1.301548158E8	 	4.30551E-8	 	17617.45002	41.01222	 
870.0	1.0	0.0	8.01589	7.29613	-6.86945	16.15229	23.39682	1.19705	0.83539	156.7857	159.86818	58.65327	0.33655	 	1.484215423E8	 	3.75918E-8	 	17413.85985	40.71803	 
865.0	1.0	0.0	8.0191	7.29321	-6.90673	16.08309	23.30294	1.19662	0.83569	157.24254	160.08928	58.83517	0.3363	 	1.694375475E8	 	3.27851E-8	 	17211.68752	40.43447	 
860.0	1.0	0.0	8.02229	7.29031	-6.9437	16.01444	23.20997	1.19613	0.83603	157.69443	160.30731	59.01517	0.33605	 	1.936449001E8	 	2.85606E-8	 	17010.88222	40.16106	 
855.0	1.0	0.0	8.02545	7.28744	-6.98036	15.94631	23.11788	1.1956	0.8364	158.14155	160.52239	59.19334	0.33581	 	2.215612977E8	 	2.48519E-8	 	16811.39528	39.89739	 
850.0	1.0	0.0	8.02859	7.28459	-7.01674	15.87867	23.02663	1.19502	0.83681	158.58409	160.7346	59.36974	0.33556	 	2.537938239E8	 	2.15995E-8	 	16613.18012	39.64303	 
845.0	1.0	0.0	8.03086	7.28253	-7.04304	15.85601	22.95358	1.19348	0.83788	158.93097	160.93317	59.50657	0.33541	 	2.886866534E8	 	1.89043E-8	 	16454.90082	31.65586	 
840.0	1.0	0.0	8.03313	7.28047	-7.06927	15.83335	22.88052	1.19194	0.83897	159.27725	161.1308	59.6432	0.33525	 	3.287569564E8	 	1.65259E-8	 	16293.63656	32.25285	 
835.0	1.0	0.0	8.03539	7.27842	-7.09545	15.81069	22.80746	1.19039	0.84006	159.62291	161.3275	59.77964	0.33509	 	3.748284855E8	 	1.44295E-8	 	16132.61938	32.20344	 
830.0	1.0	0.0	8.03765	7.27638	-7.12157	15.78802	22.73438	1.18882	0.84117	159.96798	161.52328	59.91587	0.33494	 	4.278647846E8	 	1.25839E-8	 	15971.84864	32.15415	 
825.0	1.0	0.0	8.03991	7.27433	-7.14762	15.76535	22.66129	1.18725	0.84228	160.31243	161.71813	60.05191	0.33478	 	4.889943815E8	 	1.09609E-8	 	15811.32368	32.10499	 
820.0	1.0	0.0	8.04216	7.2723	-7.17361	15.74268	22.58819	1.18567	0.8434	160.65628	161.91206	60.18775	0.33463	 	5.595407844E8	 	9.53531E-9	 	15651.04384	32.05597	 
815.0	1.0	0.0	8.04441	7.27027	-7.19955	15.72001	22.51507	1.18408	0.84454	160.99952	162.10506	60.3234	0.33447	 	6.410582467E8	 	8.28472E-9	 	15491.00845	32.00708	 
810.0	1.0	0.0	8.04665	7.26824	-7.22542	15.69733	22.44195	1.18248	0.84568	161.34216	162.29716	60.45884	0.33431	 	7.353744728E8	 	7.18897E-9	 	15331.2168	31.95833	 
805.0	1.0	0.0	8.04889	7.26622	-7.25124	15.67465	22.36882	1.18087	0.84683	161.68419	162.48833	60.59409	0.33416	 	8.44641683E8	 	6.23008E-9	 	15171.6682	31.90972	 
800.0	1.0	0.0	8.05113	7.2642	-7.27699	15.65197	22.29567	1.17925	0.848	162.02561	162.6786	60.72913	0.334	 	9.713977641E8	 	5.392E-9	 	15012.36194	31.86125	 
795.0	1.0	0.0	8.05336	7.26219	-7.30268	15.62929	22.22252	1.17762	0.84917	162.36643	162.86796	60.86399	0.33385	 	1.118639605E9	 	4.66046E-9	 	14853.29728	31.81293	 
790.0	1.0	0.0	8.05559	7.26018	-7.32832	15.6066	22.14935	1.17598	0.85036	162.70665	163.05642	60.99864	0.33369	 	1.28991118E9	 	4.02274E-9	 	14694.47346	31.76476	 
785.0	1.0	0.0	8.05781	7.25817	-7.35389	15.58392	22.07617	1.17433	0.85155	163.04626	163.24397	61.13309	0.33354	 	1.489409496E9	 	3.46753E-9	 	14535.88973	31.71675	 
780.0	1.0	0.0	8.06003	7.25618	-7.3794	15.56123	22.00297	1.17267	0.85276	163.38526	163.43062	61.26735	0.33338	 	1.722112241E9	 	2.9848E-9	 	14377.54529	31.66889	 
775.0	1.0	0.0	8.06224	7.25418	-7.40485	15.53853	21.92977	1.171	0.85397	163.72366	163.61638	61.40141	0.33322	 	1.9939318E9	 	2.56566E-9	 	14219.43934	31.62119	 
770.0	1.0	0.0	8.06445	7.25219	-7.43024	15.51584	21.85655	1.16931	0.8552	164.06145	163.80124	61.53526	0.33307	 	2.311901389E9	 	2.20224E-9	 	14061.57105	31.57366	 
765.0	1.0	0.0	8.06666	7.25021	-7.45557	15.49314	21.78332	1.16762	0.85644	164.39864	163.98522	61.66893	0.33291	 	2.684400358E9	 	1.88755E-9	 	13903.93958	31.52629	 
760.0	1.0	0.0	8.06887	7.24823	-7.48084	15.47044	21.71008	1.16592	0.85769	164.73523	164.1683	61.80239	0.33276	 	3.121427363E9	 	1.61546E-9	 	13746.54404	31.47911	 
755.0	1.0	0.0	8.07106	7.24625	-7.50605	15.44774	21.63682	1.1642	0.85896	165.07121	164.3505	61.93565	0.3326	 	3.634932099E9	 	1.38053E-9	 	13589.38354	31.4321	 
750.0	1.0	0.0	8.07326	7.24428	-7.5312	15.42503	21.56355	1.16248	0.86023	165.40658	164.53182	62.06872	0.33245	 	4.239218844E9	 	1.17799E-9	 	13432.45714	31.38528	 
745.0	1.0	0.0	8.07545	7.24232	-7.55629	15.40232	21.49026	1.16074	0.86152	165.74136	164.71226	62.20159	0.33229	 	4.951438174E9	 	1.00361E-9	 	13275.7639	31.33865	 
740.0	1.0	0.0	8.07764	7.24036	-7.58132	15.37961	21.41696	1.159	0.86282	166.07552	164.89182	62.33426	0.33214	 	5.792187146E9	 	8.53725E-10	 	13119.30283	31.29222	 
735.0	1.0	0.0	8.07982	7.2384	-7.60629	15.3569	21.34365	1.15724	0.86413	166.40909	165.07051	62.46673	0.33198	 	6.786243152E9	 	7.25074E-10	 	12963.07289	31.24599	 
730.0	1.0	0.0	8.082	7.23645	-7.63119	15.33418	21.27032	1.15547	0.86545	166.74205	165.24833	62.599	0.33183	 	7.963462801E9	 	6.14824E-10	 	12807.07303	31.19997	 
725.0	1.0	0.0	8.08417	7.2345	-7.65604	15.31147	21.19698	1.15369	0.86679	167.0744	165.42528	62.73107	0.33167	 	9.359884896E9	 	5.2049E-10	 	12651.30216	31.15417	 
720.0	1.0	0.0	8.08634	7.23256	-7.68083	15.28875	21.12362	1.15189	0.86814	167.40616	165.60136	62.86295	0.33152	 	1.10191E10	 	4.39902E-10	 	12495.75914	31.1086	 
715.0	1.0	0.0	8.08851	7.23062	-7.70555	15.26602	21.05024	1.15009	0.8695	167.73731	165.77658	62.99462	0.33136	 	1.2993899999999998E10	 	3.71169E-10	 	12340.44278	31.06327	 
710.0	1.0	0.0	8.09067	7.22869	-7.73022	15.2433	20.97685	1.14827	0.87087	168.06785	165.95093	63.1261	0.33121	 	1.5348199999999998E10	 	3.12643E-10	 	12185.35188	31.01818	 
705.0	1.0	0.0	8.09283	7.22676	-7.75482	15.22057	20.90345	1.14645	0.87226	168.39779	166.12444	63.25738	0.33105	 	1.81601E10	 	2.6289E-10	 	12030.48513	30.97335	 
700.0	1.0	0.0	8.09499	7.22484	-7.77937	15.19784	20.83002	1.14461	0.87366	168.72713	166.29708	63.38846	0.3309	 	2.15243E10	 	2.20667E-10	 	11875.8412	30.92878	 
695.0	1.0	0.0	8.09713	7.22292	-7.80385	15.17511	20.75658	1.14275	0.87508	169.05587	166.46887	63.51934	0.33074	 	2.5556499999999996E10	 	1.84896E-10	 	11721.41873	30.88449	 
690.0	1.0	0.0	8.09928	7.22101	-7.82827	15.15237	20.68313	1.14089	0.87651	169.384	166.63982	63.65002	0.33059	 	3.0398299999999996E10	 	1.54643E-10	 	11567.21626	30.84049	 
685.0	1.0	0.0	8.10142	7.2191	-7.85264	15.12963	20.60965	1.13901	0.87795	169.71153	166.80991	63.78051	0.33043	 	3.62229E10	 	1.29103E-10	 	11413.23226	30.7968	 
680.0	1.0	0.0	8.10356	7.2172	-7.87694	15.10689	20.53616	1.13712	0.87941	170.03846	166.97916	63.91079	0.33028	 	4.3243E10	 	1.0758E-10	 	11259.46516	30.75342	 
675.0	1.0	0.0	8.10569	7.2153	-7.90118	15.08415	20.46265	1.13522	0.88088	170.36479	167.14757	64.04088	0.33013	 	5.172009999999999E10	 	8.94756E-11	 	11105.9133	30.71037	 
670.0	1.0	0.0	8.10782	7.2134	-7.92536	15.06141	20.38912	1.13331	0.88237	170.69051	167.31514	64.17076	0.32997	 	6.197649999999999E10	 	7.42746E-11	 	10952.57493	30.66767	 
665.0	1.0	0.0	8.10994	7.21151	-7.94948	15.03866	20.31558	1.13138	0.88387	171.01563	167.48187	64.30045	0.32982	 	7.44103E10	 	6.15355E-11	 	10799.44823	30.62534	 
660.0	1.0	0.0	8.11207	7.20963	-7.97354	15.01591	20.24201	1.12944	0.88539	171.34015	167.64777	64.42994	0.32966	 	8.95137E10	 	5.08802E-11	 	10646.53558	30.58253	 
655.0	1.0	0.0	8.11418	7.20775	-7.99754	14.99316	20.16843	1.12749	0.88693	171.66407	167.81283	64.55923	0.32951	 	1.07897E11	 	4.1985E-11	 	10493.86054	30.53501	 
650.0	1.0	0.0	8.11629	7.20587	-8.02148	14.9704	20.09482	1.12552	0.88848	171.98738	167.97707	64.68832	0.32935	 	1.3032E11	 	3.45739E-11	 	10341.45446	30.48122	 
645.0	1.0	0.0	8.1184	7.204	-8.04535	14.94764	20.0212	1.12354	0.89004	172.31009	168.14047	64.81721	0.3292	 	1.57726E11	 	2.84117E-11	 	10189.31657	30.42758	 
640.0	1.0	0.0	8.1205	7.20214	-8.06917	14.92488	19.94755	1.12155	0.89162	172.63221	168.30306	64.9459	0.32905	 	1.91295E11	 	2.32983E-11	 	10037.44605	30.3741	 
635.0	1.0	0.0	8.1226	7.20028	-8.09293	14.90212	19.87388	1.11954	0.89322	172.95371	168.46482	65.07439	0.32889	 	2.32503E11	 	1.90641E-11	 	9885.84214	30.32078	 
630.0	1.0	0.0	8.1247	7.19842	-8.11662	14.87936	19.8002	1.11752	0.89484	173.27462	168.62576	65.20268	0.32874	 	2.83198E11	 	1.55653E-11	 	9734.50403	30.26762	 
625.0	1.0	0.0	8.12679	7.19657	-8.14026	14.85659	19.72649	1.11549	0.89647	173.59493	168.78589	65.33077	0.32858	 	3.45705E11	 	1.26803E-11	 	9583.43075	30.21466	 
620.0	1.0	0.0	8.12887	7.19472	-8.16383	14.83382	19.65275	1.11344	0.89812	173.91463	168.9452	65.45867	0.32843	 	4.22952E11	 	1.03067E-11	 	9432.62101	30.16195	 
615.0	1.0	0.0	8.13096	7.19288	-8.18735	14.81105	19.579	1.11138	0.89978	174.23374	169.1037	65.58636	0.32828	 	5.18635E11	 	8.35817E-12	 	9282.07431	30.10934	 
610.0	1.0	0.0	8.13303	7.19104	-8.2108	14.78827	19.50522	1.1093	0.90147	174.55224	169.26139	65.71385	0.32812	 	6.37436E11	 	6.76215E-12	 	9131.78986	30.05689	 
605.0	1.0	0.0	8.13511	7.18921	-8.23419	14.76549	19.43142	1.10721	0.90317	174.87014	169.41827	65.84115	0.32797	 	7.85291E11	 	5.45789E-12	 	8981.76691	30.00459	 
600.0	1.0	0.0	8.13718	7.18738	-8.25752	14.74271	19.3576	1.1051	0.90489	175.18744	169.57434	65.96824	0.32782	 	9.69756E11	 	4.39454E-12	 	8832.00468	29.95245	 
595.0	1.0	0.0	8.13924	7.18556	-8.28079	14.71993	19.28375	1.10298	0.90663	175.50414	169.72962	66.09514	0.32766	 	1.20047E12	 	3.52965E-12	 	8682.5024	29.90045	 
590.0	1.0	0.0	8.1413	7.18374	-8.304	14.69715	19.20987	1.10085	0.90839	175.82024	169.88409	66.22183	0.32751	 	1.48974E12	 	2.82789E-12	 	8533.25933	29.84861	 
585.0	1.0	0.0	8.14336	7.18193	-8.32715	14.67436	19.13598	1.0987	0.91017	176.13574	170.03777	66.34833	0.32736	 	1.85338E12	 	2.25988E-12	 	8384.27471	29.79693	 
580.0	1.0	0.0	8.14541	7.18012	-8.35024	14.65157	19.06205	1.09653	0.91196	176.45064	170.19065	66.47462	0.3272	 	2.3117E12	 	1.80128E-12	 	8235.54776	29.74539	 
575.0	1.0	0.0	8.14745	7.17831	-8.37326	14.62878	18.9881	1.09435	0.91378	176.76493	170.34274	66.60072	0.32705	 	2.89086E12	 	1.43196E-12	 	8087.07775	29.694	 
570.0	1.0	0.0	8.1495	7.17651	-8.39623	14.60598	18.91412	1.09216	0.91562	177.07863	170.49403	66.72661	0.3269	 	3.62474E12	 	1.13531E-12	 	7938.86393	29.64276	 
565.0	1.0	0.0	8.15154	7.17472	-8.41914	14.58319	18.84012	1.08994	0.91748	177.39173	170.64454	66.85231	0.32674	 	4.55719E12	 	8.97659E-13	 	7790.90555	29.59168	 
560.0	1.0	0.0	8.15357	7.17293	-8.44198	14.56039	18.76608	1.08772	0.91936	177.70422	170.79427	66.97781	0.32659	 	5.74528E12	 	7.0778E-13	 	7643.20187	29.54074	 
555.0	1.0	0.0	8.1556	7.17114	-8.46476	14.53758	18.69202	1.08547	0.92126	178.01612	170.9432	67.1031	0.32644	 	7.26341E12	 	5.56487E-13	 	7495.75215	29.48994	 
550.0	1.0	0.0	8.15762	7.16936	-8.48749	14.51478	18.61793	1.08321	0.92318	178.32741	171.09136	67.22819	0.32628	 	9.20888E12	 	4.36274E-13	 	7348.55564	29.4393	 
545.0	1.0	0.0	8.15964	7.16759	-8.51015	14.49197	18.54381	1.08094	0.92512	178.63811	171.23874	67.35309	0.32613	 	1.17093E13	 	3.41026E-13	 	7201.61163	29.3888	 
540.0	1.0	0.0	8.16166	7.16582	-8.53275	14.46916	18.46966	1.07864	0.92709	178.94821	171.38534	67.47778	0.32598	 	1.49328E13	 	2.65776E-13	 	7054.9194	29.33845	 
535.0	1.0	0.0	8.16367	7.16405	-8.55529	14.44635	18.39548	1.07633	0.92908	179.2577	171.53117	67.60228	0.32583	 	1.91011E13	 	2.06501E-13	 	6908.47819	29.28824	 
530.0	1.0	0.0	8.16568	7.16229	-8.57777	14.42354	18.32126	1.07401	0.93109	179.5666	171.67622	67.72657	0.32567	 	2.45078E13	 	1.59948E-13	 	6762.2873	29.23818	 
525.0	1.0	0.0	8.16768	7.16054	-8.60019	14.40072	18.24702	1.07166	0.93313	179.8749	171.82051	67.85066	0.32552	 	3.15433E13	 	1.23499E-13	 	6616.34602	29.18826	 
520.0	1.0	0.0	8.16968	7.15878	-8.62255	14.3779	18.17274	1.0693	0.93519	180.1826	171.96403	67.97456	0.32537	 	4.07279E13	 	9.50495E-14	 	6470.65361	29.13848	 
515.0	1.0	0.0	8.17167	7.15704	-8.64484	14.35508	18.09843	1.06693	0.93727	180.48969	172.10678	68.09825	0.32522	 	5.27577E13	 	7.29139E-14	 	6325.20937	29.08885	 
510.0	1.0	0.0	8.17366	7.15529	-8.66708	14.33225	18.02408	1.06453	0.93938	180.79619	172.24876	68.22174	0.32506	 	6.85668E13	 	5.57465E-14	 	6180.01253	29.03937	 
505.0	1.0	0.0	8.17565	7.15356	-8.68925	14.30943	17.9497	1.06212	0.94152	181.10209	172.38999	68.34503	0.32491	 	8.94139E13	 	4.24761E-14	 	6035.06241	28.99002	 
500.0	1.0	0.0	8.17763	7.15183	-8.71137	14.2866	17.87529	1.05969	0.94368	181.40739	172.53046	68.46812	0.32476	 	1.17E14	 	3.22525E-14	 	5890.35833	28.94082	 
495.0	1.0	0.0	8.17961	7.1501	-8.73342	14.26377	17.80083	1.05724	0.94586	181.7121	172.67017	68.59101	0.32461	 	1.53635E14	 	2.4403E-14	 	5745.89959	28.89175	 
490.0	1.0	0.0	8.18158	7.14837	-8.75541	14.24093	17.72634	1.05477	0.94808	182.0162	172.80913	68.7137	0.32445	 	2.02462E14	 	1.83973E-14	 	5601.68552	28.84281	 
485.0	1.0	0.0	8.18354	7.14666	-8.77734	14.2181	17.65182	1.05228	0.95032	182.3197	172.94733	68.83618	0.3243	 	2.6777899999999997E14	 	1.38186E-14	 	5457.71544	28.79402	 
480.0	1.0	0.0	8.18551	7.14494	-8.79921	14.19526	17.57725	1.04978	0.95258	182.62261	173.08478	68.95847	0.32415	 	3.55486E14	 	1.03406E-14	 	5313.98867	28.74535	 
475.0	1.0	0.0	8.18746	7.14323	-8.82102	14.17241	17.50264	1.04725	0.95488	182.92491	173.22149	69.08056	0.324	 	4.73711E14	 	7.70836E-15	 	5170.50456	28.69682	 
470.0	1.0	0.0	8.18942	7.14153	-8.84277	14.14957	17.428	1.04471	0.9572	183.22662	173.35745	69.20244	0.32385	 	6.33697E14	 	5.72376E-15	 	5027.26243	28.64843	 
465.0	1.0	0.0	8.19137	7.13983	-8.86446	14.12672	17.35331	1.04215	0.95956	183.52773	173.49266	69.32412	0.32369	 	8.51064E14	 	4.2332E-15	 	4884.26165	28.60016	 
460.0	1.0	0.0	8.19331	7.13814	-8.88608	14.10387	17.27858	1.03956	0.96194	183.82824	173.62714	69.44561	0.32354	 	1.1476E15	 	3.1181E-15	 	4741.50155	28.55202	 
455.0	1.0	0.0	8.19525	7.13645	-8.90765	14.08102	17.20381	1.03696	0.96436	184.12815	173.76087	69.56689	0.32339	 	1.55382E15	 	2.28722E-15	 	4598.9815	28.50401	 
450.0	1.0	0.0	8.19719	7.13476	-8.92915	14.05817	17.12899	1.03434	0.9668	184.42747	173.89387	69.68797	0.32324	 	2.11267E15	 	1.67065E-15	 	4456.70085	28.45613	 
445.0	1.0	0.0	8.19912	7.13308	-8.9506	14.03531	17.05413	1.0317	0.96928	184.72618	174.02613	69.80884	0.32309	 	2.88482E15	 	1.21502E-15	 	4314.65899	28.40837	 
440.0	1.0	0.0	8.20104	7.13141	-8.97198	14.01245	16.97922	1.02903	0.97179	185.0243	174.15766	69.92952	0.32293	 	3.95644E15	 	8.79757E-16	 	4172.85529	28.36074	 
435.0	1.0	0.0	8.20296	7.12974	-8.9933	13.98959	16.90427	1.02635	0.97433	185.32182	174.28846	70.05	0.32278	 	5.45039E15	 	6.34139E-16	 	4031.28912	28.31323	 
430.0	1.0	0.0	8.20488	7.12807	-9.01456	13.96673	16.82926	1.02364	0.9769	185.61874	174.41852	70.17027	0.32263	 	7.54273E15	 	4.54994E-16	 	3889.95988	28.26585	 
425.0	1.0	0.0	8.20679	7.12641	-9.03576	13.94386	16.75421	1.02092	0.97951	185.91506	174.54787	70.29034	0.32248	 	1.0487E16	 	3.24926E-16	 	3748.86705	28.21857	 
420.0	1.0	0.0	8.2087	7.12476	-9.05689	13.92099	16.67911	1.01817	0.98215	186.21079	174.67648	70.41021	0.32233	 	1.465E16	 	2.30928E-16	 	3608.0099	28.17143	 
415.0	1.0	0.0	8.2106	7.1231	-9.07797	13.89812	16.60396	1.0154	0.98483	186.50591	174.80437	70.52988	0.32218	 	2.05653E16	 	1.63318E-16	 	3467.38813	28.12435	 
410.0	1.0	0.0	8.2125	7.12146	-9.09898	13.87525	16.52875	1.01261	0.98755	186.80044	174.93154	70.64935	0.32203	 	2.90127E16	 	1.14925E-16	 	3327.00151	28.07733	 
405.0	1.0	0.0	8.21439	7.11982	-9.11994	13.85237	16.45349	1.0098	0.9903	187.09437	175.058	70.76862	0.32187	 	4.11382E16	 	8.04576E-17	 	3186.8498	28.03034	 
400.0	1.0	0.0	8.21628	7.11818	-9.14083	13.82949	16.37817	1.00696	0.99309	187.38771	175.18373	70.88768	0.32172	 	5.86348E16	 	5.60329E-17	 	3046.93282	27.9834	 
395.0	1.0	0.0	8.21817	7.11655	-9.16166	13.80661	16.3028	1.0041	0.99591	187.68044	175.30875	71.00654	0.32157	 	8.40173E16	 	3.88143E-17	 	2907.25037	27.93649	 
390.0	1.0	0.0	8.22005	7.11492	-9.18243	13.78373	16.22737	1.00122	0.99878	187.97258	175.43306	71.1252	0.32142	 	1.21042E17	 	2.674E-17	 	2767.80225	27.88962	 
385.0	1.0	0.0	8.22192	7.1133	-9.20314	13.76084	16.15188	0.99832	1.00169	188.26412	175.55666	71.24366	0.32127	 	1.75354E17	 	1.83187E-17	 	2628.58828	27.84279	 
380.0	1.0	0.0	8.22379	7.11168	-9.22379	13.73795	16.07633	0.99539	1.00463	188.55507	175.67955	71.36191	0.32112	 	2.55481E17	 	1.24779E-17	 	2489.6083	27.796	 
375.0	1.0	0.0	8.22566	7.11007	-9.24438	13.71506	16.00072	0.99243	1.00762	188.84542	175.80173	71.47997	0.32097	 	3.7439E17	 	8.44964E-18	 	2350.86214	27.74923	 
370.0	1.0	0.0	8.22752	7.10846	-9.2649	13.69217	15.92505	0.98946	1.01065	189.13517	175.9232	71.59782	0.32082	 	5.51911E17	 	5.68761E-18	 	2212.34967	27.70249	 
365.0	1.0	0.0	8.22937	7.10686	-9.28537	13.66927	15.84931	0.98646	1.01373	189.42432	176.04398	71.71547	0.32067	 	8.18569E17	 	3.805E-18	 	2074.07073	27.65579	 
360.0	1.0	0.0	8.23123	7.10526	-9.30577	13.64637	15.7735	0.98343	1.01685	189.71287	176.16405	71.83291	0.32051	 	1.22165E18	 	2.52958E-18	 	1936.02522	27.6091	 
355.0	1.0	0.0	8.23307	7.10366	-9.32611	13.62347	15.69763	0.98038	1.02001	190.00083	176.28342	71.95016	0.32036	 	1.83486E18	 	1.67088E-18	 	1798.21302	27.56244	 
350.0	1.0	0.0	8.23491	7.10208	-9.34639	13.60057	15.62168	0.97731	1.02322	190.28819	176.40209	72.0672	0.32021	 	2.77394E18	 	1.09643E-18	 	1660.63403	27.5158	 
345.0	1.0	0.0	8.23675	7.10049	-9.36661	13.57766	15.54566	0.97421	1.02648	190.57496	176.52007	72.18404	0.32006	 	4.22177E18	 	7.14639E-19	 	1523.28816	27.46917	 
340.0	1.0	0.0	8.23858	7.09891	-9.38677	13.55475	15.46957	0.97108	1.02978	190.86113	176.63736	72.30068	0.31991	 	6.46943E18	 	4.62581E-19	 	1386.17534	27.42256	 
335.0	1.0	0.0	8.24041	7.09734	-9.40687	13.53184	15.39341	0.96793	1.03314	191.1467	176.75395	72.41711	0.31976	 	9.98357E18	 	2.97311E-19	 	1249.29552	27.37596	 
330.0	1.0	0.0	8.24223	7.09577	-9.4269	13.50893	15.31716	0.96475	1.03654	191.43167	176.86986	72.53334	0.31961	 	1.55178E19	 	1.89707E-19	 	1112.64865	27.32937	 
325.0	1.0	0.0	8.24405	7.0942	-9.44688	13.48601	15.24084	0.96154	1.04	191.71605	176.98508	72.64937	0.31946	 	2.42983E19	 	1.20149E-19	 	976.23471	27.28279	 
320.0	1.0	0.0	8.24587	7.09264	-9.46679	13.46309	15.16444	0.95831	1.04351	191.99983	177.09961	72.7652	0.31931	 	3.83358E19	 	7.55173E-20	 	840.05367	27.23621	 
315.0	1.0	0.0	8.24767	7.09109	-9.48664	13.44017	15.08795	0.95505	1.04707	192.28302	177.21345	72.88082	0.31916	 	6.09539E19	 	4.70948E-20	 	704.10557	27.18962	 
310.0	1.0	0.0	8.24948	7.08954	-9.50643	13.41725	15.01138	0.95176	1.05069	192.5656	177.32662	72.99624	0.31901	 	9.76903E19	 	2.9135E-20	 	568.39041	27.14303	 
305.0	1.0	0.0	8.25128	7.08799	-9.52616	13.39432	14.93472	0.94844	1.05436	192.8476	177.4391	73.11146	0.31886	 	1.5785E20	 	1.78765E-20	 	432.90823	27.09643	 
300.0	1.0	0.0	8.25307	7.08645	-9.54583	13.37139	14.85796	0.94509	1.0581	193.12899	177.55091	73.22647	0.31871	 	2.5720199999999997E20	 	1.08763E-20	 	297.65911	27.04982	 
295.0	1.0	0.0	8.25486	7.08492	-9.56544	13.34846	14.78112	0.94172	1.06189	193.40979	177.66204	73.34128	0.31856	 	4.2270199999999993E20	 	6.56017E-21	 	162.64311	27.0032	 
290.0	1.0	0.0	8.25664	7.08338	-9.58498	13.32553	14.70418	0.93832	1.06574	193.68999	177.77249	73.45589	0.31841	 	7.00853E20	 	3.92179E-21	 	27.86034	26.95655	 
285.0	1.0	0.0	8.25842	7.08186	-9.60446	13.30259	14.62714	0.93488	1.06965	193.9696	177.88228	73.57029	0.31826	 	1.1726100000000001E21	 	2.32319E-21	 	-106.68906	26.90988	 
280.0	1.0	0.0	8.2602	7.08034	-9.62389	13.27966	14.55	0.93142	1.07363	194.24861	177.99139	73.6845	0.31811	 	1.98025E21	 	1.36335E-21	 	-241.00498	26.86318	 
275.0	1.0	0.0	8.26197	7.07882	-9.64325	13.25671	14.47276	0.92793	1.07767	194.52703	178.09983	73.79849	0.31796	 	3.37629E21	 	7.92403E-22	 	-375.08721	26.81645	 
270.0	1.0	0.0	8.26373	7.07731	-9.66255	13.23377	14.39541	0.9244	1.08178	194.80485	178.2076	73.91229	0.31781	 	5.81334E21	 	4.56017E-22	 	-508.93558	26.76967	 
265.0	1.0	0.0	8.26549	7.0758	-9.68178	13.21083	14.31795	0.92085	1.08595	195.08207	178.31471	74.02588	0.31766	 	1.0111E22	 	2.59773E-22	 	-642.54986	26.72286	 
260.0	1.0	0.0	8.26725	7.0743	-9.70096	13.18788	14.24038	0.91726	1.0902	195.3587	178.42116	74.13927	0.31751	 	1.7769499999999999E22	 	1.46441E-22	 	-775.9298	26.67599	 
255.0	1.0	0.0	8.269	7.0728	-9.72008	13.16493	14.16269	0.91365	1.09452	195.63473	178.52694	74.25245	0.31736	 	3.1563899999999998E22	 	8.16683E-23	 	-909.07513	26.62907	 
250.0	1.0	0.0	8.27074	7.07131	-9.73913	13.14197	14.08488	0.91	1.09891	195.91016	178.63206	74.36543	0.31721	 	5.668589999999999E22	 	4.50441E-23	 	-1041.98554	26.58208	 
245.0	1.0	0.0	8.27249	7.06982	-9.75812	13.11902	14.00695	0.90631	1.10337	196.185	178.73652	74.47821	0.31706	 	1.0295999999999999E23	 	2.45626E-23	 	-1174.66069	26.53503	 
240.0	1.0	0.0	8.27422	7.06834	-9.77705	13.09606	13.9289	0.9026	1.10791	196.45925	178.84033	74.59078	0.31691	 	1.89196E23	 	1.32379E-23	 	-1307.10022	26.48791	 
235.0	1.0	0.0	8.27595	7.06686	-9.79592	13.0731	13.85071	0.89885	1.11254	196.7329	178.94348	74.70315	0.31676	 	3.51848E23	 	7.04894E-24	 	-1439.30371	26.4407	 
230.0	1.0	0.0	8.27768	7.06538	-9.81473	13.05014	13.77239	0.89506	1.11724	197.00595	179.04598	74.81531	0.31662	 	6.62451E23	 	3.70707E-24	 	-1571.27073	26.3934	 
225.0	1.0	0.0	8.2794	7.06392	-9.83347	13.02717	13.69393	0.89125	1.12202	197.27841	179.14783	74.92728	0.31647	 	1.26319E24	 	1.92477E-24	 	-1703.00081	26.34601	 
220.0	1.0	0.0	8.28111	7.06245	-9.85216	13.0042	13.61533	0.8874	1.12689	197.55027	179.24902	75.03903	0.31632	 	2.44044E24	 	9.86274E-25	 	-1834.49342	26.29852	 
215.0	1.0	0.0	8.28283	7.06099	-9.87078	12.98123	13.53658	0.88351	1.13185	197.82154	179.34957	75.15059	0.31617	 	4.77888E24	 	4.98556E-25	 	-1965.74799	26.25092	 
210.0	1.0	0.0	8.28453	7.05954	-9.88934	12.95826	13.45767	0.87959	1.1369	198.09221	179.44947	75.26193	0.31602	 	9.489110000000001E24	 	2.4851E-25	 	-2096.76394	26.20319	 
205.0	1.0	0.0	8.28623	7.05809	-9.90784	12.93528	13.37862	0.87563	1.14204	198.36228	179.54873	75.37308	0.31587	 	1.91141E25	 	1.22095E-25	 	-2227.54062	26.15534	 
200.0	1.0	0.0	8.28793	7.05665	-9.92628	12.91231	13.29939	0.87163	1.14727	198.63177	179.64734	75.48402	0.31572	 	3.90761E25	 	5.90982E-26	 	-2358.07731	26.10734	 
195.0	1.0	0.0	8.28962	7.05521	-9.94466	12.88933	13.22001	0.8676	1.15261	198.90065	179.74532	75.59475	0.31557	 	8.111520000000001E25	 	2.81689E-26	 	-2488.37329	26.05919	 
190.0	1.0	0.0	8.29131	7.05377	-9.96298	12.86634	13.14045	0.86353	1.15804	199.16894	179.84265	75.70529	0.31542	 	1.7105700000000003E26	 	1.3215E-26	 	-2618.42773	26.01089	 
185.0	1.0	0.0	8.29299	7.05234	-9.98123	12.84336	13.06071	0.85942	1.16357	199.43664	179.93934	75.81561	0.31527	 	3.66651E26	 	6.09876E-27	 	-2748.2398	25.96241	 
180.0	1.0	0.0	8.29466	7.05092	-9.99942	12.82037	12.98078	0.85528	1.16921	199.70374	180.0354	75.92574	0.31513	 	7.992300000000001E26	 	2.7673E-27	 	-2877.80856	25.91375	 
175.0	1.0	0.0	8.29634	7.04949	-10.01755	12.79738	12.90067	0.85109	1.17496	199.97025	180.13083	76.03565	0.31498	 	1.77273E27	 	1.23387E-27	 	-3007.13304	25.86489	 
170.0	1.0	0.0	8.298	7.04808	-10.03562	12.77439	12.82036	0.84687	1.18082	200.23616	180.22562	76.14537	0.31483	 	4.0033099999999996E27	 	5.40279E-28	 	-3136.21219	25.81583	 
165.0	1.0	0.0	8.29966	7.04667	-10.05363	12.75139	12.73984	0.84261	1.18679	200.50148	180.31978	76.25488	0.31468	 	9.21025E27	 	2.32187E-28	 	-3265.04489	25.76654	 
160.0	1.0	0.0	8.30132	7.04526	-10.07157	12.72839	12.65912	0.8383	1.19289	200.7662	180.41331	76.36418	0.31453	 	2.1601200000000003E28	 	9.78696E-29	 	-3393.62995	25.71701	 
155.0	1.0	0.0	8.30297	7.04386	-10.08946	12.70539	12.57817	0.83396	1.1991	201.03033	180.50621	76.47328	0.31438	 	5.16808E28	 	4.04346E-29	 	-3521.9661	25.66723	 
150.0	1.0	0.0	8.30462	7.04247	-10.10728	12.68239	12.497	0.82957	1.20544	201.29386	180.59849	76.58217	0.31423	 	1.2622200000000001E29	 	1.63624E-29	 	-3650.05199	25.61718	 
145.0	1.0	0.0	8.30626	7.04107	-10.12504	12.65938	12.41559	0.82515	1.21191	201.5568	180.69014	76.69086	0.31409	 	3.1493000000000003E29	 	6.48044E-30	 	-3777.88617	25.56684	 
140.0	1.0	0.0	8.30789	7.03969	-10.14274	12.63638	12.33394	0.82068	1.21851	201.81914	180.78116	76.79935	0.31394	 	8.033510000000001E29	 	2.51009E-30	 	-3905.46711	25.51619	 
135.0	1.0	0.0	8.30953	7.03831	-10.16038	12.61337	12.25204	0.81616	1.22524	202.08089	180.87157	76.90762	0.31379	 	2.09682E30	 	9.50049E-31	 	-4032.79318	25.46521	 
130.0	1.0	0.0	8.31115	7.03693	-10.17795	12.59035	12.16987	0.81161	1.23212	202.34205	180.96136	77.0157	0.31364	 	5.60468E30	 	3.51077E-31	 	-4159.86263	25.41389	 
125.0	1.0	0.0	8.31277	7.03556	-10.19547	12.56734	12.08743	0.80701	1.23914	202.60261	181.05053	77.12357	0.31349	 	1.5355499999999999E31	 	1.26552E-31	 	-4286.6736	25.36219	 
120.0	1.0	0.0	8.31439	7.03419	-10.21292	12.54432	12.00471	0.80237	1.24631	202.86257	181.13908	77.23123	0.31335	 	4.31631E31	 	4.44562E-32	 	-4413.22416	25.31011	 
115.0	1.0	0.0	8.316	7.03283	-10.23031	12.5213	11.9217	0.79768	1.25364	203.12195	181.22701	77.33869	0.3132	 	1.2460199999999999E32	 	1.52041E-32	 	-4539.51217	25.2576	 
110.0	1.0	0.0	8.3176	7.03147	-10.24764	12.49828	11.83838	0.79294	1.26112	203.38073	181.31434	77.44594	0.31305	 	3.69788E32	 	5.05712E-33	 	-4665.53542	25.20465	 
105.0	1.0	0.0	8.31921	7.03012	-10.26491	12.47525	11.75474	0.78817	1.26877	203.63891	181.40105	77.55299	0.3129	 	1.12947E33	 	1.63409E-33	 	-4791.29153	25.15122	 
100.0	1.0	0.0	8.3208	7.02877	-10.28211	12.45223	11.67077	0.78334	1.27659	203.8965	181.48715	77.65983	0.31275	 	3.5546000000000003E33	 	5.12365E-34	 	-4916.77797	25.09729	 
95.0	1.0	0.0	8.32239	7.02743	-10.29926	12.4292	11.58645	0.77847	1.28458	204.1535	181.57264	77.76647	0.31261	 	1.1540700000000001E34	 	1.55697E-34	 	-5041.99206	25.04282	 
90.0	1.0	0.0	8.32398	7.02609	-10.31634	12.40616	11.50178	0.77355	1.29274	204.4099	181.65753	77.8729	0.31246	 	3.8704100000000003E34	 	4.57948E-35	 	-5166.93092	24.98777	 
85.0	1.0	0.0	8.32556	7.02475	-10.33336	12.38313	11.41673	0.76858	1.3011	204.66571	181.74181	77.97912	0.31231	 	1.3426299999999998E35	 	1.30196E-35	 	-5291.59151	24.93212	 
80.0	1.0	0.0	8.32713	7.02343	-10.35032	12.36009	11.33129	0.76356	1.30965	204.92092	181.82548	78.08514	0.31216	 	4.824479999999999E35	 	3.57269E-36	 	-5415.97057	24.87581	 
75.0	1.0	0.0	8.3287	7.0221	-10.36721	12.33705	11.24544	0.7585	1.31839	205.17554	181.90855	78.19095	0.31202	 	1.7984599999999997E36	 	9.44827E-37	 	-5540.06463	24.81881	 
70.0	1.0	0.0	8.33027	7.02078	-10.38405	12.31401	11.15917	0.75339	1.32734	205.42957	181.99102	78.29656	0.31187	 	6.96633E36	 	2.40418E-37	 	-5663.86999	24.76107	 
65.0	1.0	0.0	8.33182	7.01947	-10.40082	12.29096	11.07245	0.74822	1.3365	205.683	182.0729	78.40196	0.31172	 	2.80866E37	 	5.8762E-38	 	-5787.38272	24.70255	 
60.0	1.0	0.0	8.33338	7.01816	-10.41753	12.26792	10.98526	0.74301	1.34587	205.93584	182.15417	78.50716	0.31157	 	1.1807799999999999E38	 	1.37707E-38	 	-5910.5986	24.64318	 
55.0	1.0	0.0	8.33493	7.01685	-10.43418	12.24487	10.89759	0.73775	1.35548	206.18809	182.23485	78.61215	0.31143	 	5.18616E38	 	3.08826E-39	 	-6033.51313	24.58291	 
50.0	1.0	0.0	8.33647	7.01556	-10.45077	12.22181	10.80941	0.73243	1.36531	206.43974	182.31493	78.71693	0.31128	 	2.38457E39	 	6.61427E-40	 	-6156.1215	24.52167	 
45.0	1.0	0.0	8.33801	7.01426	-10.46729	12.19876	10.72069	0.72707	1.37539	206.69081	182.39442	78.82151	0.31113	 	1.15027E40	 	1.34996E-40	 	-6278.41861	24.45942	 
40.0	1.0	0.0	8.33954	7.01297	-10.48376	12.1757	10.63141	0.72165	1.38571	206.94127	182.47332	78.92588	0.31098	 	5.8346E40	 	2.61956E-41	 	-6400.39892	24.39606	 
35.0	1.0	0.0	8.34107	7.01169	-10.50016	12.15264	10.54154	0.71618	1.39629	207.19115	182.55163	79.03004	0.31084	 	3.11967E41	 	4.82104E-42	 	-6522.05656	24.33153	 
30.0	1.0	0.0	8.3426	7.01041	-10.5165	12.12958	10.45105	0.71066	1.40714	207.44043	182.62935	79.134	0.31069	 	1.7628799999999997E42	 	8.39306E-43	 	-6643.38524	24.26574	 
25.0	1.0	0.0	8.34411	7.00913	-10.53278	 	10.35991	0.70509	1.41826	207.68912	182.70648	79.23775	0.31054	 	1.05576E43	 	1.37834E-43	 	-6764.3782	 	 
