T (C)	Fraction solid (wt)-TOTAL	Fraction liquid (wt)-LIQUID	Density (g/(cm)^3)-TOTAL	Molar volume (cm^3)-TOTAL	Volume change (%)-  	Average expansion coeff. (10e-6 1/K)-  	Thermal conductivity (W/(m*K))-TOTAL	Electrical resistivity (10e-6 Ohm*m)-TOTAL	Electrical conductivity (10e6 1/(Ohm*m))-TOTAL	Young's modulus (GPa)-TOTAL	Bulk modulus (GPa)-TOTAL	Shear modulus(GPa)-TOTAL	Poisson's ratio-TOTAL	Liquid viscosity (mPa s)-  	Total viscosity (mPa s)-  	Liquid diffusivity (10e-9 (m^2)/s)-  	Total diffusivity (10e-9 (m^2)/s)-  	Surface Tension (mN/m)-  	Enthalpy (J/mole)-TOTAL	Specific heat (J/(mole K))-TOTAL	Latent heat (J/mole)-TOTAL
1400.0	0.00677	0.99323	6.7958	7.9437	0.0	34.80629	30.50263	1.34389	0.74411	3.42241E-6	119.43833	1.14266E-6	0.49756	5.81378	5.81378	1.40463	1.40463	1725.33074	38907.062	 	0.0
1395.0	0.00688	0.99312	6.79989	7.93888	-0.0607136	34.76438	30.41403	1.34378	0.74417	3.66197E-6	119.61067	1.22268E-6	0.49751	5.87643	5.87643	1.38551	1.38551	1727.56694	38697.508	41.9108	9.172
1390.0	0.00699	0.99301	6.80399	7.93416	-0.12008	34.72593	30.32566	1.34365	0.74424	3.91135E-6	119.78433	1.30598E-6	0.49748	5.94012	5.94012	1.36654	1.36654	1729.82535	38488.536	41.7944	18.206
1385.0	0.0071	0.9929	6.80806	7.9294	-0.17999	34.68568	30.23721	1.34353	0.74431	4.17089E-6	119.95637	1.39268E-6	0.49743	6.00483	6.00483	1.34775	1.34775	1732.10726	38280.142	41.6788	27.099
1380.0	0.0072	0.9928	6.81206	7.92471	-0.2391	34.64738	30.14868	1.34341	0.74437	4.43745E-6	120.12712	1.48172E-6	0.49739	6.07056	6.07056	1.32914	1.32914	1734.41187	38072.324	41.5636	35.855
1375.0	0.00731	0.99269	6.81612	7.92	-0.29842	34.60822	30.06041	1.34328	0.74444	4.71392E-6	120.29836	1.57408E-6	0.49735	6.1374	6.1374	1.31069	1.31069	1736.73988	37865.077	41.4494	44.473
1370.0	0.00741	0.99259	6.82017	7.91535	-0.35697	34.57094	29.97217	1.34315	0.74452	4.99859E-6	120.46967	1.66918E-6	0.49732	6.20538	6.20538	1.2924	1.2924	1739.09065	37658.397	41.336	52.955
1365.0	0.00751	0.99249	6.82418	7.91057	-0.41709	34.52891	29.8837	1.34303	0.74459	5.29335E-6	120.63786	1.76767E-6	0.49727	6.27445	6.27445	1.27428	1.27428	1741.46573	37452.28	41.2234	61.302
1360.0	0.00762	0.99238	6.82821	7.90597	-0.47504	34.49275	29.79564	1.34289	0.74466	5.59551E-6	120.8086	1.86861E-6	0.49724	6.34472	6.34472	1.25632	1.25632	1743.86263	37246.724	41.1112	69.516
1355.0	0.00772	0.99228	6.83222	7.90134	-0.53332	34.4554	29.70747	1.34275	0.74474	5.90552E-6	120.97775	1.97219E-6	0.4972	6.41614	6.41614	1.23853	1.23853	1746.28294	37041.724	41.0	77.597
1350.0	0.00781	0.99219	6.83623	7.89672	-0.59146	34.41814	29.61942	1.3426	0.74482	6.22485E-6	121.14652	2.07888E-6	0.49717	6.4888	6.4888	1.2209	1.2209	1748.7263	36837.277	40.8894	85.548
1345.0	0.00791	0.99209	6.84022	7.89214	-0.64904	34.38224	29.53139	1.34246	0.7449	6.55144E-6	121.31504	2.188E-6	0.49713	6.56266	6.56266	1.20344	1.20344	1751.19232	36633.378	40.7798	93.366
1340.0	0.0080	0.992	6.84419	7.88753	-0.70708	34.34472	29.4433	1.34231	0.74498	6.88497E-6	121.48208	2.29945E-6	0.49709	6.63781	6.63781	1.18614	1.18614	1753.68159	36430.025	40.6706	101.057
1335.0	0.0081	0.9919	6.84817	7.88302	-0.76386	34.3106	29.35541	1.34216	0.74507	7.22695E-6	121.65018	2.41371E-6	0.49706	6.71423	6.71423	1.16901	1.16901	1756.19278	36227.214	40.5622	108.621
1334.15	0.00811	0.99189	6.84884	7.88215	-0.7748	34.30091	29.34039	1.34214	0.74508	7.28607E-6	121.6771	2.43347E-6	0.49705	6.72732	6.72732	1.16612	1.16612	1756.62091	36192.945	40.49943	109.888
1330.0	0.16346	0.83654	6.89847	7.82545	-1.48867	32.32488	29.82156	1.31707	0.75926	0.0518407	123.12881	0.0175354	0.47817	6.80839	20.58161	1.14925	0.38017	1756.50818	33946.675	540.7695	2194.318
1325.0	0.31062	0.68938	6.94634	7.77148	-2.16801	30.4572	30.28839	1.29273	0.77356	0.77615	125.17201	0.26581	0.45995	6.90627	165.5435	1.12943	0.0471186	1756.25749	31798.344	429.6662	4148.222
1320.0	0.42429	0.57571	6.98413	7.72941	-2.69766	29.01573	30.65536	1.27326	0.78539	2.87038	126.83043	0.99278	0.44563	7.00489	570.20541	1.11005	0.0136368	1758.33553	30113.94078	336.88064	5638.535
1315.0	0.5138	0.4862	7.01451	7.69583	-3.12033	27.87922	30.94672	1.25731	0.79535	6.4167	128.21615	2.23707	0.43417	7.10448	1267.99662	1.09105	0.00611308	1760.42259	28762.3035	270.32746	6795.705
1310.0	0.58543	0.41457	7.03935	7.66858	-3.46342	26.96995	31.17107	1.24433	0.80364	11.12543	129.40208	3.90399	0.42488	7.20523	2235.91061	1.07241	0.00345585	1762.51735	27655.75806	221.30909	7708.206
1305.0	0.64353	0.35647	7.06	7.64605	-3.74703	26.23067	31.35427	1.23316	0.81093	16.60615	130.43762	5.85864	0.41724	7.30749	3432.65736	1.05406	0.00224391	1764.62066	26732.75711	184.60019	8437.582
1300.0	0.69123	0.30877	7.07738	7.62715	-3.98488	25.62243	31.49821	1.22363	0.81724	22.50392	131.35728	7.97516	0.41088	7.41121	4817.93543	1.03602	0.00159366	1766.73187	25949.53133	156.64516	9027.601
1295.0	0.7308	0.2692	7.09223	7.61109	-4.18706	25.11647	31.60962	1.21544	0.82275	28.5392	132.18701	10.15245	0.40553	7.51688	6358.88063	1.01821	0.00120363	1768.85121	25274.3414	135.03799	9509.998
1290.0	0.76393	0.23607	7.10504	7.59724	-4.36147	24.69018	31.69405	1.20834	0.82758	34.51944	132.94471	12.31961	0.401	7.62444	8033.14941	1.00064	9.49733E-4	1770.97942	24683.76898	118.11448	9908.188
1285.0	0.7919	0.2081	7.11621	7.58523	-4.5127	24.33064	31.75584	1.20213	0.83186	40.31108	133.6453	14.42653	0.39712	7.73419	9825.09365	0.98329	7.74033E-4	1773.11349	24160.26774	104.70025	10239.716
1280.0	0.8157	0.1843	7.12607	7.57461	-4.64637	24.02155	31.79871	1.19666	0.83566	45.83816	134.29837	16.44401	0.39376	7.84619	11726.72491	0.96614	6.46433E-4	1775.25759	23690.51034	93.95148	10517.907
1275.0	0.83608	0.16392	7.13485	7.56519	-4.7649	23.75618	31.82565	1.1918	0.83907	51.05852	134.91315	18.35513	0.39085	7.96058	13735.85382	0.94919	5.50103E-4	1777.40832	23264.24138	85.25379	10753.013
1270.0	0.85829	0.14171	7.14378	7.55554	-4.88643	23.47949	31.8621	1.18659	0.84275	57.25444	135.58691	20.62998	0.38765	8.08401	16197.65484	0.93168	4.64989E-4	1779.50312	22811.67978	90.51232	11014.812
1265.0	0.8779	0.1221	7.15188	7.54676	-4.9969	23.23456	31.88648	1.18184	0.84614	63.23095	136.22941	22.83065	0.38478	8.21057	18839.72967	0.91435	3.98484E-4	1781.59044	22392.38191	83.85957	11243.748
1260.0	0.89432	0.10568	7.15905	7.53899	-5.09471	23.02674	31.8952	1.17767	0.84913	68.65511	136.82794	24.83307	0.38233	8.33895	21580.33034	0.89735	3.46747E-4	1783.68123	22013.52275	75.77183	11432.641
1255.0	0.90819	0.0918139	7.16545	7.53203	-5.18235	22.84873	31.89093	1.17399	0.8518	73.56203	137.39069	26.64864	0.38022	8.46915	24428.55624	0.88067	3.0532E-4	1785.77552	21666.86369	69.33181	11589.727
1250.0	0.91997	0.0800282	7.17125	7.52572	-5.26179	22.69481	31.87595	1.1707	0.85419	77.99984	137.92418	28.29389	0.37839	8.60128	27398.73005	0.8643	2.71331E-4	1787.87332	21346.11271	64.1502	11721.297
1245.0	0.93007	0.0699331	7.17656	7.51993	-5.33468	22.56006	31.85206	1.16773	0.85636	82.01942	138.43364	29.78676	0.37678	8.73545	30508.18545	0.84823	2.42876E-4	1789.97547	21046.40721	59.9411	11832.211
1240.0	0.93876	0.0612361	7.18145	7.51458	-5.40201	22.44165	31.82066	1.16503	0.85834	85.66502	138.92304	31.14291	0.37535	8.87153	33774.95771	0.83247	2.18662E-4	1792.08012	20763.9481	56.49182	11926.264
1235.0	0.9463	0.0536985	7.18601	7.50959	-5.46486	22.33639	31.78295	1.16256	0.86017	88.98091	139.39533	32.37823	0.37409	9.0097	37218.98969	0.817	1.97773E-4	1794.18899	20495.74102	53.64142	12006.45
1230.0	0.95287	0.0471317	7.19028	7.50491	-5.52381	22.24258	31.73985	1.16028	0.86186	92.0042	139.85334	33.50606	0.37295	9.14991	40861.63365	0.80181	1.79545E-4	1796.29915	20239.40266	51.26767	12075.149
1225.0	0.95862	0.0413798	7.19431	7.50047	-5.57961	22.15803	31.69215	1.15816	0.86344	94.77068	140.29868	34.5394	0.37192	9.29209	44725.7694	0.78692	1.63487E-4	1798.41302	19993.02271	49.27599	12134.269
1220.0	0.96368	0.0363191	7.19901	7.49573	-5.63936	22.06014	31.59261	1.15793	0.86361	97.46057	140.80811	35.5472	0.37086	9.43646	48915.71358	0.77229	1.48985E-4	1800.52889	19721.2354	54.35746	12185.355
1215.0	0.96815	0.0318456	7.20799	7.48827	-5.73323	21.85213	31.24727	1.16681	0.85704	100.73891	141.68786	36.78679	0.36923	9.58293	53860.41201	0.75794	1.34854E-4	1802.64651	19279.89826	88.26743	12229.666
1210.0	0.97191	0.0280853	7.21636	7.48092	-5.82575	21.6467	30.90716	1.17569	0.85057	103.73939	142.53826	37.92406	0.36773	9.75221	59163.56138	0.74228	1.22354E-4	1804.76432	18850.59613	85.86043	12272.101
1205.0	0.97528	0.0247208	7.22415	7.47376	-5.9159	21.44722	30.58262	1.18416	0.84448	106.55431	143.343	38.99301	0.36633	9.92575	64899.01406	0.72685	1.11165E-4	1806.88312	18435.52049	83.01513	12309.859
1200.0	0.97831	0.0216947	7.23139	7.46679	-6.00362	21.25389	30.27315	1.19222	0.83877	109.20064	144.10544	39.99969	0.36502	10.10224	71108.50195	0.71173	1.01114E-4	1809.00256	18033.79791	80.34452	12343.258
1195.0	0.98104	0.0189627	7.23814	7.46001	-6.08903	21.06647	29.97768	1.19988	0.83342	111.69368	144.82981	40.9496	0.36379	10.28147	77837.77024	0.69695	9.20591E-5	1811.12218	17644.31381	77.89682	12372.898
1190.0	0.98351	0.0164874	7.24444	7.4534	-6.17219	20.88476	29.69501	1.20718	0.82838	114.0488	145.51979	41.84832	0.36264	10.46357	85137.29447	0.68249	8.38795E-5	1813.24168	17266.08872	75.64502	12399.28
1185.0	0.98581	0.0141918	7.25037	7.44693	-6.25368	20.70701	29.42444	1.21412	0.82364	116.29826	146.17995	42.70785	0.36156	10.64529	93076.1289	0.66855	7.64629E-5	1815.35456	16897.16486	73.78477	12423.919
1180.0	0.988	0.0120049	7.25601	7.44055	-6.33403	20.53146	29.16488	1.22072	0.81919	118.47899	146.81465	43.54198	0.36051	10.82449	101736.5928	0.65522	6.9714E-5	1817.4586	16535.84925	72.26312	12448.098
1175.0	0.98998	0.010023	7.26129	7.43434	-6.41218	20.36169	28.91588	1.227	0.815	120.53925	147.42222	44.33109	0.35953	11.00588	111142.4888	0.64221	6.35946E-5	1819.56011	16184.04784	70.36028	12469.529
1170.0	0.99178	0.00822027	7.26626	7.42829	-6.48829	20.19721	28.67674	1.23296	0.81106	122.49121	148.00481	45.07968	0.35861	11.18987	121366.8228	0.62947	5.80361E-5	1821.66303	15841.03009	68.60355	12488.586
1165.0	0.99343	0.00657437	7.27094	7.4224	-6.56248	20.0377	28.44687	1.23861	0.80735	124.34448	148.56457	45.79127	0.35773	11.37591	132488.6812	0.61703	5.298E-5	1823.76301	15506.04083	66.99785	12505.583
1160.0	0.99493	0.005066	7.27535	7.41665	-6.63483	19.88298	28.22566	1.24398	0.80387	126.10714	149.10305	46.46883	0.3569	11.56431	144594.9002	0.60487	4.83755E-5	1825.86217	15178.6074	65.48669	12520.786
1155.0	0.99748	0.00252074	7.28049	7.41046	-6.7128	19.70797	28.00921	1.24922	0.8005	128.44128	149.69347	47.36301	0.35592	11.63235	158455.7078	0.59923	4.39899E-5	1827.87948	14830.85698	69.55008	12561.798
1150.0	1.0	0.0	7.28563	7.40435	-6.78964	19.53517	27.80146	1.25415	0.79735	130.76935	150.27806	48.25546	0.35497	 	173671.3134	 	3.99953E-5	 	14485.97681	68.97603	12605.16
1146.39	1.0	0.0	7.28883	7.40111	-6.83048	19.4592	27.65351	1.25766	0.79513	131.43016	150.60278	48.51429	0.35455	 	184782.4239	 	3.74951E-5	 	14341.43358	 	 
1146.37	1.0	0.0	7.28886	7.40107	-6.83095	19.45798	27.65214	1.25771	0.7951	131.43483	150.60485	48.51613	0.35455	 	184852.8391	 	3.74802E-5	 	14339.68272	 	 
1145.0	1.0	0.0	7.29007	7.39985	-6.84631	19.42952	27.59689	1.25901	0.79428	131.68261	150.72644	48.61321	0.35439	 	189283.3281	 	3.65676E-5	 	14262.41394	44.71257	 
1140.0	1.0	0.0	7.2944	7.39546	-6.90164	19.32749	27.39994	1.26359	0.7914	132.57042	151.16095	48.96122	0.35383	 	206459.8926	 	3.34071E-5	 	13983.48396	55.786	 
1135.0	1.0	0.0	7.29866	7.39114	-6.95595	19.22804	27.20977	1.26791	0.7887	133.43446	151.5822	49.30013	0.35329	 	225369.672	 	3.04958E-5	 	13708.8583	54.92513	 
1130.0	1.0	0.0	7.30284	7.38691	-7.00928	19.13106	27.02599	1.272	0.78616	134.27595	151.991	49.63041	0.35276	 	246202.9321	 	2.78162E-5	 	13438.33247	54.10517	 
1125.0	1.0	0.0	7.30696	7.38274	-7.06168	19.03643	26.84824	1.27586	0.78378	135.09601	152.38812	49.95247	0.35225	 	269172.4077	 	2.53519E-5	 	13171.71452	53.32359	 
1120.0	1.0	0.0	7.31101	7.37865	-7.1132	18.94403	26.67616	1.2795	0.78155	135.89571	152.77424	50.26671	0.35175	 	294516.1069	 	2.30874E-5	 	12908.82399	52.57811	 
1115.0	1.0	0.0	7.315	7.37463	-7.16386	18.85375	26.50944	1.28293	0.77947	136.67604	153.15003	50.57351	0.35126	 	322500.5532	 	2.10084E-5	 	12649.49113	51.86657	 
1110.0	1.0	0.0	7.31893	7.37067	-7.21371	18.76551	26.34778	1.28615	0.77751	137.43795	153.51607	50.87322	0.35079	 	353424.3796	 	1.91011E-5	 	12393.55603	51.18702	 
1105.0	1.0	0.0	7.3228	7.36677	-7.26278	18.67919	26.19089	1.28918	0.77569	138.18233	153.87295	51.16619	0.35033	 	387622.4759	 	1.7353E-5	 	12140.86772	50.53766	 
1100.0	1.0	0.0	7.32662	7.36293	-7.3111	18.59471	26.03852	1.29202	0.77398	138.91004	154.22117	51.45273	0.34988	 	425470.7127	 	1.5752E-5	 	11891.28379	49.91679	 
1095.0	1.0	0.0	7.33039	7.35915	-7.35871	18.51198	25.89041	1.29468	0.77239	139.62186	154.56122	51.73315	0.34944	 	467391.2313	 	1.4287E-5	 	11644.66962	49.32283	 
1090.0	1.0	0.0	7.3341	7.35542	-7.40564	18.43093	25.74635	1.29716	0.77091	140.31857	154.89358	52.00774	0.34902	 	513858.5348	 	1.29475E-5	 	11400.89784	48.75436	 
1085.0	1.0	0.0	7.33777	7.35174	-7.45191	18.35148	25.6061	1.29948	0.76954	141.00088	155.21867	52.27677	0.3486	 	565406.449	 	1.17239E-5	 	11159.84779	48.21001	 
1080.0	1.0	0.0	7.34139	7.34812	-7.49755	18.27354	25.46947	1.30164	0.76826	141.66948	155.5369	52.5405	0.34819	 	622635.939	 	1.06071E-5	 	10921.40515	47.68853	 
1075.0	1.0	0.0	7.34496	7.34454	-7.54259	18.19706	25.33627	1.30365	0.76708	142.32502	155.84864	52.79918	0.3478	 	686224.2249	 	9.58868E-6	 	10685.46145	47.18874	 
1070.0	1.0	0.0	7.3485	7.34101	-7.58704	18.12196	25.20631	1.30551	0.76598	142.96812	156.15426	53.05305	0.34741	 	756934.9602	 	8.66069E-6	 	10451.91374	46.70954	 
1065.0	1.0	0.0	7.35199	7.33752	-7.63094	18.04819	25.07944	1.30723	0.76497	143.59936	156.45409	53.30233	0.34703	 	835630.11	 	7.81587E-6	 	10220.66423	46.2499	 
1060.0	1.0	0.0	7.35544	7.33408	-7.6743	17.97568	24.95549	1.30882	0.76405	144.21932	156.74845	53.54723	0.34666	 	923283.2895	 	7.04743E-6	 	9991.62007	45.80883	 
1055.0	1.0	0.0	7.35886	7.33067	-7.71715	17.90437	24.83432	1.31027	0.7632	144.82851	157.03763	53.78796	0.34629	 	1020995.311	 	6.34907E-6	 	9764.6928	45.38545	 
1050.0	1.0	0.0	7.36224	7.32731	-7.7595	17.83421	24.71579	1.3116	0.76243	145.42745	157.32192	54.02472	0.34593	 	1130011.812	 	5.71495E-6	 	9539.79853	44.97885	 
1045.0	1.0	0.0	7.36558	7.32398	-7.80137	17.76515	24.60577	1.31248	0.76191	146.01661	157.60159	54.25768	0.34558	 	1251743.482	 	5.13968E-6	 	9316.8574	44.58823	 
1040.0	1.0	0.0	7.36889	7.32069	-7.84278	17.69713	24.492	1.31358	0.76128	146.59646	157.87688	54.48703	0.34524	 	1387789.411	 	4.61825E-6	 	9095.79351	44.21278	 
1035.0	1.0	0.0	7.37217	7.31744	-7.88375	17.63011	24.38051	1.31456	0.76071	147.16743	158.14803	54.71293	0.34491	 	1539963.961	 	4.14604E-6	 	8876.5348	43.85174	 
1030.0	1.0	0.0	7.37541	7.31422	-7.92429	17.56405	24.27117	1.31544	0.7602	147.72994	158.41526	54.93554	0.34458	 	1710327.291	 	3.71879E-6	 	8659.01262	43.50444	 
1025.0	1.0	0.0	7.37863	7.31103	-7.96442	17.49889	24.1639	1.31621	0.75976	148.28438	158.67879	55.15502	0.34425	 	1901221.243	 	3.33257E-6	 	8443.16161	43.1702	 
1020.0	1.0	0.0	7.38181	7.30788	-8.00416	17.43461	24.05859	1.31688	0.75937	148.83112	158.9388	55.3715	0.34393	 	2115309.877	 	2.98374E-6	 	8228.9206	42.8482	 
1015.0	1.0	0.0	7.38497	7.30475	-8.04351	17.37115	23.95515	1.31745	0.75904	149.37052	159.19549	55.58513	0.34362	 	2355626.938	 	2.66899E-6	 	8016.23065	42.53799	 
1010.0	1.0	0.0	7.3881	7.30165	-8.08248	17.30849	23.8535	1.31793	0.75877	149.90292	159.44903	55.79603	0.34331	 	2625630.222	 	2.38523E-6	 	7805.03591	42.23895	 
1005.0	1.0	0.0	7.39121	7.29859	-8.1211	17.24658	23.75356	1.31832	0.75854	150.42864	159.69958	56.00434	0.34301	 	2929264.886	 	2.12966E-6	 	7595.28354	41.95047	 
1000.0	1.0	0.0	7.39429	7.29555	-8.15938	17.18539	23.65525	1.31862	0.75837	150.94799	159.94731	56.21017	0.34271	 	3271036.095	 	1.89968E-6	 	7386.92291	41.67213	 
998.52	1.0	0.0	7.3952	7.29465	-8.17067	17.16737	23.62638	1.31869	0.75833	151.10091	160.02029	56.27078	0.34262	 	3380520.311	 	1.83602E-6	 	7325.36109	 	 
996.89	1.0	0.0	7.39622	7.29364	-8.18333	17.14649	23.58974	1.31904	0.75813	151.30768	160.11383	56.35296	0.3425	 	3506994.721	 	1.76753E-6	 	7248.66833	 	 
995.0	1.0	0.0	7.39737	7.29251	-8.19757	17.12388	23.5535	1.31911	0.75809	151.50064	160.20605	56.42945	0.34239	 	3657794.748	 	1.69215E-6	 	7170.80027	43.22453	 
990.0	1.0	0.0	7.40039	7.28953	-8.23509	17.0644	23.45846	1.31923	0.75802	152.00819	160.44876	56.63068	0.3421	 	4092298.14	 	1.50652E-6	 	6965.27862	41.10433	 
985.0	1.0	0.0	7.4034	7.28658	-8.2723	17.00553	23.36484	1.31928	0.75799	152.5102	160.68904	56.82976	0.34182	 	4582758.752	 	1.33996E-6	 	6761.01542	40.85264	 
980.0	1.0	0.0	7.40638	7.28364	-8.3092	16.94725	23.27259	1.31924	0.75801	153.00693	160.92701	57.02677	0.34154	 	5136919.062	 	1.19066E-6	 	6557.96625	40.60983	 
975.0	1.0	0.0	7.40933	7.28073	-8.34582	16.88952	23.18163	1.31913	0.75807	153.49861	161.1628	57.22183	0.34126	 	5763665.702	 	1.05695E-6	 	6356.08824	40.3756	 
970.0	1.0	0.0	7.41227	7.27785	-8.38215	16.83232	23.09192	1.31895	0.75818	153.98549	161.39651	57.41501	0.34099	 	6473208.742	 	9.37326E-7	 	6155.34095	40.14946	 
965.0	1.0	0.0	7.41519	7.27498	-8.41822	16.77562	23.0034	1.3187	0.75832	154.46778	161.62826	57.6064	0.34072	 	7277291.701	 	8.30405E-7	 	5955.68516	39.93116	 
960.0	1.0	0.0	7.41809	7.27214	-8.45401	16.71939	22.91603	1.31839	0.7585	154.94568	161.85814	57.79609	0.34045	 	8189435.246	 	7.34935E-7	 	5757.08397	39.72024	 
955.0	1.0	0.0	7.42097	7.26932	-8.48955	16.66361	22.82976	1.318	0.75872	155.41939	162.08625	57.98415	0.34019	 	9225224.394	 	6.49772E-7	 	5559.50163	39.51647	 
950.0	1.0	0.0	7.42384	7.26651	-8.52484	16.60825	22.74456	1.31755	0.75898	155.88912	162.31268	58.17065	0.33993	 	1.040264218E7	 	5.73882E-7	 	5362.90392	39.31954	 
945.0	1.0	0.0	7.42668	7.26373	-8.55989	16.55328	22.66036	1.31704	0.75928	156.35502	162.53751	58.35567	0.33967	 	1.174246119E7	 	5.06324E-7	 	5167.25858	39.12907	 
940.0	1.0	0.0	7.42951	7.26096	-8.59471	16.4987	22.57715	1.31647	0.75961	156.81728	162.76083	58.53927	0.33942	 	1.326870503E7	 	4.46244E-7	 	4972.53412	38.94489	 
935.0	1.0	0.0	7.43232	7.25822	-8.62929	16.44447	22.49488	1.31584	0.75997	157.27606	162.98272	58.72151	0.33917	 	1.500918558E7	 	3.92871E-7	 	4778.70102	38.76662	 
930.0	1.0	0.0	7.43512	7.25549	-8.66366	16.39057	22.41351	1.31515	0.76037	157.73151	163.20324	58.90246	0.33892	 	1.699613956E7	 	3.45506E-7	 	4585.73041	38.59412	 
925.0	1.0	0.0	7.4379	7.25277	-8.69781	16.33698	22.33302	1.31441	0.7608	158.18378	163.42247	59.08218	0.33868	 	1.926697413E7	 	3.03518E-7	 	4393.59521	38.42704	 
920.0	1.0	0.0	7.44067	7.25008	-8.73175	16.28369	22.25337	1.31361	0.76126	158.63302	163.64047	59.26071	0.33843	 	2.186514914E7	 	2.66336E-7	 	4202.26909	38.26522	 
915.0	1.0	0.0	7.44342	7.2474	-8.76549	16.23067	22.17454	1.31275	0.76176	159.07935	163.8573	59.43811	0.33819	 	2.484121187E7	 	2.33445E-7	 	4011.72696	38.10843	 
910.0	1.0	0.0	7.44615	7.24473	-8.79903	16.1779	22.09649	1.31184	0.76229	159.52291	164.07303	59.61443	0.33796	 	2.825402821E7	 	2.04384E-7	 	3821.94455	37.95648	 
905.0	1.0	0.0	7.44888	7.24208	-8.83238	16.12537	22.01921	1.31089	0.76284	159.96381	164.28771	59.78973	0.33772	 	3.217223052E7	 	1.78734E-7	 	3632.89915	37.80908	 
900.0	1.0	0.0	7.45159	7.23945	-8.86554	16.07307	21.94266	1.30988	0.76343	160.40218	164.50139	59.96404	0.33749	 	3.667593923E7	 	1.5612E-7	 	3444.56836	37.66616	 
895.0	1.0	0.0	7.45429	7.23683	-8.89851	16.02096	21.86681	1.30882	0.76405	160.83812	164.71413	60.1374	0.33726	 	4.185879773E7	 	1.36207E-7	 	3256.93114	37.52744	 
890.0	1.0	0.0	7.45697	7.23423	-8.93131	15.96904	21.79166	1.30771	0.7647	161.27175	164.92597	60.30987	0.33703	 	4.783039582E7	 	1.18691E-7	 	3069.96718	37.39279	 
885.0	1.0	0.0	7.45964	7.23163	-8.96393	15.9173	21.71718	1.30655	0.76537	161.70315	165.13697	60.48148	0.3368	 	5.471914464E7	 	1.03303E-7	 	2883.657	37.26204	 
880.0	1.0	0.0	7.4623	7.22906	-8.99638	15.86571	21.64334	1.30535	0.76608	162.13244	165.34716	60.65226	0.33657	 	6.267570084E7	 	8.97994E-8	 	2697.98156	37.13509	 
875.0	1.0	0.0	7.46495	7.22649	-9.02866	15.81426	21.57013	1.3041	0.76681	162.5597	165.55659	60.82226	0.33635	 	7.187705823E7	 	7.79642E-8	 	2512.92283	37.01175	 
870.0	1.0	0.0	7.46759	7.22394	-9.06078	15.76295	21.49753	1.30281	0.76757	162.98502	165.7653	60.99151	0.33613	 	8.253141011E7	 	6.76037E-8	 	2328.46421	36.89172	 
865.0	1.0	0.0	7.47021	7.2214	-9.09274	15.71175	21.42552	1.30147	0.76836	163.40848	165.97332	61.16004	0.33591	 	9.488398298E7	 	5.85455E-8	 	2144.58918	36.775	 
860.0	1.0	0.0	7.47283	7.21888	-9.12454	15.66065	21.35409	1.30009	0.76918	163.83017	166.1807	61.32788	0.33569	 	1.092240085E8	 	5.06356E-8	 	1961.28193	36.66145	 
855.0	1.0	0.0	7.47543	7.21636	-9.15619	15.60963	21.28322	1.29866	0.77002	164.25015	166.38747	61.49507	0.33547	 	1.258930826E8	 	4.37373E-8	 	1778.52723	36.55094	 
850.0	1.0	0.0	7.47802	7.21386	-9.18768	15.5587	21.21289	1.29719	0.7709	164.66852	166.59367	61.66162	0.33526	 	1.452952057E8	 	3.77288E-8	 	1596.3105	36.44335	 
845.0	1.0	0.0	7.48012	7.21184	-9.21316	15.53512	21.1517	1.29515	0.77211	165.03171	166.81014	61.80453	0.33511	 	1.648425449E8	 	3.31068E-8	 	1441.15964	31.03017	 
840.0	1.0	0.0	7.48222	7.20982	-9.23858	15.51154	21.0905	1.2931	0.77333	165.39427	167.02565	61.94722	0.33496	 	1.87231879E8	 	2.90175E-8	 	1283.04473	31.62298	 
835.0	1.0	0.0	7.48431	7.2078	-9.26394	15.48796	21.02929	1.29104	0.77457	165.7562	167.2402	62.08971	0.33481	 	2.129067377E8	 	2.54036E-8	 	1125.13345	31.58226	 
830.0	1.0	0.0	7.48639	7.20579	-9.28924	15.46437	20.96807	1.28897	0.77581	166.1175	167.4538	62.23198	0.33466	 	2.42384546E8	 	2.22135E-8	 	967.42507	31.54168	 
825.0	1.0	0.0	7.48848	7.20379	-9.31447	15.44077	20.90685	1.28688	0.77707	166.47816	167.66644	62.37405	0.33451	 	2.762697084E8	 	1.94006E-8	 	809.91881	31.50125	 
820.0	1.0	0.0	7.49056	7.20179	-9.33965	15.41717	20.84562	1.28479	0.77834	166.83819	167.87814	62.51591	0.33437	 	3.152691462E8	 	1.69233E-8	 	652.61388	31.46099	 
815.0	1.0	0.0	7.49263	7.19979	-9.36476	15.39357	20.78438	1.28268	0.77962	167.19759	168.08889	62.65757	0.33422	 	3.602107725E8	 	1.47441E-8	 	495.50947	31.42088	 
810.0	1.0	0.0	7.4947	7.1978	-9.38982	15.36996	20.72313	1.28056	0.78091	167.55636	168.2987	62.79901	0.33407	 	4.120654916E8	 	1.28295E-8	 	338.60471	31.38095	 
805.0	1.0	0.0	7.49677	7.19582	-9.41481	15.34634	20.66187	1.27843	0.78221	167.9145	168.50757	62.94025	0.33392	 	4.719734324E8	 	1.11493E-8	 	181.89871	31.3412	 
800.0	1.0	0.0	7.49884	7.19384	-9.43974	15.32273	20.6006	1.27628	0.78353	168.27201	168.7155	63.08128	0.33377	 	5.412752744E8	 	9.67674E-9	 	25.39057	31.30163	 
795.0	1.0	0.0	7.5009	7.19186	-9.46461	15.2991	20.53933	1.27413	0.78485	168.62889	168.9225	63.2221	0.33362	 	6.21549711E8	 	8.3877E-9	 	-130.9207	31.26225	 
790.0	1.0	0.0	7.50295	7.18989	-9.48942	15.27548	20.47804	1.27196	0.78619	168.98514	169.12857	63.36271	0.33347	 	7.146583166E8	 	7.26077E-9	 	-287.03609	31.22308	 
785.0	1.0	0.0	7.505	7.18792	-9.51417	15.25184	20.41675	1.26977	0.78754	169.34077	169.33372	63.50312	0.33333	 	8.22799362E8	 	6.27682E-9	 	-442.95665	31.18411	 
780.0	1.0	0.0	7.50705	7.18596	-9.53885	15.22821	20.35545	1.26758	0.7889	169.69576	169.53794	63.64332	0.33318	 	9.485724598E8	 	5.41884E-9	 	-598.68347	31.14536	 
775.0	1.0	0.0	7.5091	7.18401	-9.56348	15.20457	20.29414	1.26537	0.79028	170.05012	169.74124	63.78331	0.33303	 	1.095056339E9	 	4.67169E-9	 	-754.2177	31.10685	 
770.0	1.0	0.0	7.51114	7.18206	-9.58804	15.18092	20.23282	1.26315	0.79167	170.40386	169.94362	63.92309	0.33288	 	1.265902557E9	 	4.02192E-9	 	-909.56052	31.06856	 
765.0	1.0	0.0	7.51317	7.18011	-9.61255	15.15727	20.17149	1.26092	0.79307	170.75697	170.14509	64.06266	0.33273	 	1.465448602E9	 	3.45761E-9	 	-1064.71319	31.03053	 
760.0	1.0	0.0	7.5152	7.17817	-9.63699	15.13362	20.11014	1.25868	0.79449	171.10945	170.34564	64.20203	0.33259	 	1.698854601E9	 	2.9682E-9	 	-1219.67702	30.99277	 
755.0	1.0	0.0	7.51723	7.17623	-9.66137	15.10996	20.04879	1.25642	0.79591	171.46131	170.54529	64.34119	0.33244	 	1.972268838E9	 	2.54435E-9	 	-1374.45335	30.95527	 
750.0	1.0	0.0	7.51926	7.1743	-9.68569	15.0863	19.98743	1.25415	0.79735	171.81253	170.74403	64.48014	0.33229	 	2.293028487E9	 	2.17779E-9	 	-1529.04365	30.91806	 
745.0	1.0	0.0	7.52128	7.17237	-9.70995	15.06263	19.92606	1.25186	0.79881	172.16314	170.94187	64.61888	0.33214	 	2.669903438E9	 	1.86124E-9	 	-1683.44942	30.88115	 
740.0	1.0	0.0	7.52329	7.17045	-9.73415	15.03895	19.86468	1.24956	0.80028	172.51311	171.13881	64.75742	0.33199	 	3.113392984E9	 	1.58828E-9	 	-1837.67224	30.84456	 
735.0	1.0	0.0	7.52531	7.16853	-9.75828	15.01528	19.80328	1.24725	0.80176	172.86246	171.33486	64.89575	0.33185	 	3.636087444E9	 	1.35325E-9	 	-1991.71378	30.80831	 
730.0	1.0	0.0	7.52731	7.16662	-9.78236	14.9916	19.74188	1.24493	0.80326	173.21119	171.53001	65.03387	0.3317	 	4.253109684E9	 	1.15119E-9	 	-2145.57577	30.7724	 
725.0	1.0	0.0	7.52932	7.16471	-9.80637	14.96791	19.68046	1.24259	0.80477	173.55928	171.72426	65.17178	0.33155	 	4.982655156E9	 	9.77736E-10	 	-2299.26009	30.73686	 
720.0	1.0	0.0	7.53132	7.16281	-9.83033	14.94422	19.61904	1.24023	0.8063	173.90676	171.91763	65.30949	0.3314	 	5.846653604E9	 	8.29076E-10	 	-2452.76865	30.70171	 
715.0	1.0	0.0	7.53331	7.16091	-9.85422	14.92052	19.5576	1.23787	0.80784	174.25361	172.11012	65.44699	0.33126	 	6.871581319E9	 	7.01864E-10	 	-2606.10352	30.66697	 
710.0	1.0	0.0	7.53531	7.15902	-9.87805	14.89682	19.49615	1.23548	0.8094	174.59983	172.30172	65.58428	0.33111	 	8.089460013E9	 	5.93181E-10	 	-2759.26684	30.63266	 
705.0	1.0	0.0	7.53729	7.15713	-9.90181	14.87312	19.43468	1.23309	0.81097	174.94544	172.49244	65.72137	0.33096	 	9.539087505E9	 	5.00478E-10	 	-2912.2609	30.59881	 
700.0	1.0	0.0	7.53928	7.15525	-9.92552	14.84941	19.37321	1.23068	0.81256	175.29041	172.68229	65.85824	0.33082	 	1.12676E10	 	4.21538E-10	 	-3065.0881	30.56544	 
695.0	1.0	0.0	7.54126	7.15337	-9.94917	14.8257	19.31172	1.22825	0.81416	175.63477	172.87126	65.99491	0.33067	 	1.3332099999999998E10	 	3.54429E-10	 	-3217.75098	30.53258	 
690.0	1.0	0.0	7.54323	7.1515	-9.97275	14.80198	19.25022	1.22581	0.81578	175.9785	173.05936	66.13137	0.33052	 	1.5802599999999998E10	 	2.97476E-10	 	-3370.25224	30.50025	 
685.0	1.0	0.0	7.5452	7.14963	-9.99627	14.77825	19.18871	1.22336	0.81742	176.32161	173.24659	66.26763	0.33038	 	1.87641E10	 	2.49226E-10	 	-3522.59472	30.4685	 
680.0	1.0	0.0	7.54717	7.14776	-10.01974	14.75453	19.12718	1.22089	0.81907	176.66409	173.43296	66.40368	0.33023	 	2.23208E10	 	2.0842E-10	 	-3674.78143	30.43734	 
675.0	1.0	0.0	7.54914	7.14591	-10.04314	14.7308	19.06564	1.21841	0.82074	177.00596	173.61846	66.53952	0.33008	 	2.6600299999999996E10	 	1.73971E-10	 	-3826.81556	30.40683	 
670.0	1.0	0.0	7.55109	7.14405	-10.06647	14.70706	19.00409	1.21591	0.82243	177.3472	173.8031	66.67515	0.32993	 	3.1759299999999996E10	 	1.44943E-10	 	-3978.70051	30.37699	 
665.0	1.0	0.0	7.55305	7.1422	-10.08975	14.68332	18.94252	1.21339	0.82414	177.68782	173.98689	66.81058	0.32979	 	3.79906E10	 	1.20527E-10	 	-4130.43985	30.34787	 
660.0	1.0	0.0	7.555	7.14036	-10.11297	14.65957	18.88093	1.21086	0.82586	178.02782	174.16982	66.94579	0.32964	 	4.55318E10	 	1.00028E-10	 	-4282.02733	30.3175	 
655.0	1.0	0.0	7.55695	7.13852	-10.13612	14.63582	18.81934	1.20831	0.8276	178.36719	174.35189	67.08081	0.3295	 	5.467649999999999E10	 	8.28522E-11	 	-4433.40682	30.2759	 
650.0	1.0	0.0	7.55889	7.13668	-10.15921	14.61207	18.75773	1.20575	0.82936	178.70595	174.53312	67.21561	0.32935	 	6.578819999999999E10	 	6.84874E-11	 	-4584.50391	30.21942	 
645.0	1.0	0.0	7.56083	7.13485	-10.18224	14.58831	18.6961	1.20317	0.83113	179.04409	174.7135	67.35021	0.3292	 	7.93177E10	 	5.64976E-11	 	-4735.31979	30.16318	 
640.0	1.0	0.0	7.56276	7.13303	-10.20521	14.56454	18.63446	1.20058	0.83293	179.3816	174.89304	67.4846	0.32906	 	9.582569999999998E10	 	4.651E-11	 	-4885.85564	30.10717	 
635.0	1.0	0.0	7.56469	7.13121	-10.22812	14.54078	18.5728	1.19797	0.83474	179.7185	175.07173	67.61878	0.32891	 	1.16011E11	 	3.82073E-11	 	-5036.1126	30.05139	 
630.0	1.0	0.0	7.56662	7.1294	-10.25096	14.517	18.51113	1.19534	0.83658	180.05477	175.24959	67.75275	0.32876	 	1.40745E11	 	3.13194E-11	 	-5186.09187	29.99586	 
625.0	1.0	0.0	7.56854	7.12759	-10.27375	14.49323	18.44944	1.1927	0.83843	180.39043	175.42661	67.88652	0.32862	 	1.71121E11	 	2.56173E-11	 	-5335.79502	29.94063	 
620.0	1.0	0.0	7.57045	7.12578	-10.29647	14.46944	18.38773	1.19004	0.84031	180.72546	175.60279	68.02008	0.32847	 	2.08508E11	 	2.09068E-11	 	-5485.22425	29.88584	 
615.0	1.0	0.0	7.57237	7.12398	-10.31913	14.44566	18.32601	1.18737	0.8422	181.05988	175.77815	68.15344	0.32833	 	2.5463E11	 	1.70241E-11	 	-5634.38018	29.83119	 
610.0	1.0	0.0	7.57428	7.12219	-10.34173	14.42187	18.26427	1.18467	0.84412	181.39367	175.95267	68.28658	0.32818	 	3.11658E11	 	1.38307E-11	 	-5783.26398	29.77676	 
605.0	1.0	0.0	7.57618	7.1204	-10.36427	14.39807	18.20251	1.18196	0.84605	181.72685	176.12637	68.41952	0.32803	 	3.82337E11	 	1.12101E-11	 	-5931.87677	29.72256	 
600.0	1.0	0.0	7.57808	7.11861	-10.38674	14.37427	18.14074	1.17923	0.84801	182.05941	176.29924	68.55225	0.32789	 	4.70144E11	 	9.06451E-12	 	-6080.2197	29.66859	 
595.0	1.0	0.0	7.57998	7.11683	-10.40916	14.35046	18.07894	1.17649	0.84999	182.39135	176.47129	68.68478	0.32774	 	5.79496E11	 	7.31192E-12	 	-6228.29391	29.61484	 
590.0	1.0	0.0	7.58187	7.11505	-10.43151	14.32665	18.01713	1.17373	0.85199	182.72268	176.64253	68.8171	0.3276	 	7.16014E11	 	5.88371E-12	 	-6376.10055	29.56133	 
585.0	1.0	0.0	7.58376	7.11328	-10.4538	14.30284	17.9553	1.17095	0.85401	183.05338	176.81295	68.94921	0.32745	 	8.86877E11	 	4.72266E-12	 	-6523.64074	29.50804	 
580.0	1.0	0.0	7.58564	7.11152	-10.47603	14.27902	17.89345	1.16815	0.85606	183.38347	176.98255	69.08111	0.32731	 	1.10127E12	 	3.78109E-12	 	-6670.91562	29.45498	 
575.0	1.0	0.0	7.58752	7.10976	-10.4982	14.2552	17.83158	1.16533	0.85813	183.71294	177.15134	69.2128	0.32716	 	1.37099E12	 	3.01943E-12	 	-6817.92633	29.40214	 
570.0	1.0	0.0	7.58939	7.108	-10.5203	14.23137	17.76969	1.16249	0.86022	184.04179	177.31933	69.34429	0.32701	 	1.71121E12	 	2.40485E-12	 	-6964.67398	29.34953	 
565.0	1.0	0.0	7.59126	7.10625	-10.54234	14.20754	17.70778	1.15964	0.86234	184.37003	177.4865	69.47557	0.32687	 	2.14151E12	 	1.91024E-12	 	-7111.15971	29.29715	 
560.0	1.0	0.0	7.59313	7.1045	-10.56433	14.1837	17.64585	1.15677	0.86448	184.69765	177.65288	69.60665	0.32672	 	2.68724E12	 	1.51322E-12	 	-7257.38464	29.24499	 
555.0	1.0	0.0	7.59499	7.10276	-10.58624	14.15986	17.5839	1.15388	0.86664	185.02465	177.81845	69.73751	0.32658	 	3.3813E12	 	1.1954E-12	 	-7403.34989	29.19305	 
550.0	1.0	0.0	7.59685	7.10103	-10.6081	14.13602	17.52193	1.15097	0.86883	185.35104	177.98322	69.86817	0.32643	 	4.2665E12	 	9.41659E-13	 	-7549.05657	29.14134	 
545.0	1.0	0.0	7.5987	7.09929	-10.6299	14.11216	17.45993	1.14804	0.87105	185.67681	178.1472	69.99863	0.32629	 	5.39877E12	 	7.39647E-13	 	-7694.5058	29.08985	 
540.0	1.0	0.0	7.60055	7.09757	-10.65163	14.08831	17.39792	1.14509	0.87329	186.00196	178.31038	70.12887	0.32614	 	6.85134E12	 	5.79271E-13	 	-7839.69869	29.03858	 
535.0	1.0	0.0	7.60239	7.09585	-10.6733	14.06445	17.33588	1.14212	0.87556	186.3265	178.47277	70.25891	0.326	 	8.72039E12	 	4.52317E-13	 	-7984.63635	28.98753	 
530.0	1.0	0.0	7.60423	7.09413	-10.69491	14.04059	17.27381	1.13913	0.87786	186.65043	178.63436	70.38874	0.32585	 	1.11327E13	 	3.52113E-13	 	-8129.31989	28.93671	 
525.0	1.0	0.0	7.60607	7.09242	-10.71646	14.01672	17.21173	1.13613	0.88018	186.97373	178.79518	70.51836	0.32571	 	1.42559E13	 	2.7326E-13	 	-8273.75039	28.8861	 
520.0	1.0	0.0	7.6079	7.09071	-10.73795	13.99284	17.14961	1.1331	0.88254	187.29643	178.9552	70.64778	0.32556	 	1.83123E13	 	2.11397E-13	 	-8417.92897	28.83572	 
515.0	1.0	0.0	7.60972	7.08901	-10.75937	13.96897	17.08748	1.13005	0.88492	187.6185	179.11444	70.77699	0.32542	 	2.35978E13	 	1.63014E-13	 	-8561.85676	28.78556	 
510.0	1.0	0.0	7.61155	7.08731	-10.78073	13.94508	17.02532	1.12698	0.88733	187.93997	179.27291	70.90599	0.32528	 	3.05074E13	 	1.25293E-13	 	-8705.53495	28.73564	 
505.0	1.0	0.0	7.61336	7.08562	-10.80203	13.9212	16.96313	1.12389	0.88977	188.26081	179.43059	71.03478	0.32513	 	3.95706E13	 	9.59793E-14	 	-8848.96458	28.68593	 
500.0	1.0	0.0	7.61518	7.08393	-10.82327	13.89731	16.90092	1.12078	0.89224	188.58105	179.5875	71.16337	0.32499	 	5.14993E13	 	7.32739E-14	 	-8992.14674	28.63643	 
495.0	1.0	0.0	7.61698	7.08225	-10.84444	13.87341	16.83868	1.11765	0.89474	188.90067	179.74364	71.29174	0.32484	 	6.72542E13	 	5.5746E-14	 	-9135.08249	28.58715	 
490.0	1.0	0.0	7.61879	7.08057	-10.86555	13.84951	16.77641	1.11449	0.89727	189.21967	179.899	71.41992	0.3247	 	8.81366E13	 	4.22611E-14	 	-9277.7729	28.53808	 
485.0	1.0	0.0	7.62059	7.0789	-10.88661	13.8256	16.71411	1.11132	0.89983	189.53806	180.0536	71.54788	0.32455	 	1.15916E14	 	3.19227E-14	 	-9420.21902	28.48922	 
480.0	1.0	0.0	7.62238	7.07724	-10.90759	13.80169	16.65179	1.10812	0.90243	189.85584	180.20742	71.67564	0.32441	 	1.53006E14	 	2.40248E-14	 	-9562.42192	28.44058	 
475.0	1.0	0.0	7.62417	7.07557	-10.92852	13.77778	16.58943	1.1049	0.90506	190.17301	180.36049	71.80318	0.32427	 	2.02715E14	 	1.80132E-14	 	-9704.38264	28.39214	 
470.0	1.0	0.0	7.62596	7.07392	-10.94938	13.75386	16.52705	1.10166	0.90772	190.48956	180.51279	71.93053	0.32412	 	2.6959199999999997E14	 	1.34541E-14	 	-9846.10221	28.34392	 
465.0	1.0	0.0	7.62774	7.07226	-10.97019	13.72994	16.46464	1.0984	0.91042	190.8055	180.66433	72.05766	0.32398	 	3.5992E14	 	1.00098E-14	 	-9987.58171	28.2959	 
460.0	1.0	0.0	7.62952	7.07062	-10.99093	13.70601	16.40219	1.09511	0.91315	191.12082	180.81511	72.18459	0.32383	 	4.82411E14	 	7.41759E-15	 	-10128.82216	28.24809	 
455.0	1.0	0.0	7.63129	7.06897	-11.0116	13.68208	16.33972	1.0918	0.91592	191.43553	180.96514	72.3113	0.32369	 	6.49194E14	 	5.47435E-15	 	-10269.82458	28.20049	 
450.0	1.0	0.0	7.63306	7.06734	-11.03222	13.65814	16.27721	1.08847	0.91872	191.74963	181.11441	72.43781	0.32355	 	8.77235E14	 	4.02346E-15	 	-10410.59002	28.15309	 
445.0	1.0	0.0	7.63482	7.0657	-11.05277	13.6342	16.21466	1.08511	0.92157	192.06312	181.26293	72.56412	0.3234	 	1.19036E15	 	2.94459E-15	 	-10551.11947	28.10589	 
440.0	1.0	0.0	7.63658	7.06407	-11.07326	13.61025	16.15209	1.08173	0.92445	192.37599	181.4107	72.69021	0.32326	 	1.62217E15	 	2.1457E-15	 	-10691.41396	28.0589	 
435.0	1.0	0.0	7.63834	7.06245	-11.09369	13.5863	16.08948	1.07832	0.92736	192.68826	181.55773	72.8161	0.32312	 	2.22032E15	 	1.55667E-15	 	-10831.47451	28.01211	 
430.0	1.0	0.0	7.64009	7.06083	-11.11406	13.56235	16.02683	1.0749	0.93032	192.99991	181.70401	72.94178	0.32297	 	3.05263E15	 	1.12425E-15	 	-10971.3021	27.96552	 
425.0	1.0	0.0	7.64183	7.05922	-11.13436	13.53839	15.96415	1.07144	0.93332	193.31094	181.84954	73.06725	0.32283	 	4.2161E15	 	8.0821E-16	 	-11110.89759	27.9191	 
420.0	1.0	0.0	7.64358	7.05761	-11.1546	13.51442	15.90143	1.06797	0.93636	193.62137	181.99434	73.19252	0.32269	 	5.85022E15	 	5.78285E-16	 	-11250.26221	27.87292	 
415.0	1.0	0.0	7.64531	7.05601	-11.17478	13.49045	15.83867	1.06446	0.93944	193.93119	182.13839	73.31758	0.32254	 	8.15643E15	 	4.11784E-16	 	-11389.39632	27.82682	 
410.0	1.0	0.0	7.64704	7.05441	-11.1949	13.46648	15.77587	1.06093	0.94256	194.24039	182.28171	73.44242	0.3224	 	1.14272E16	 	2.91784E-16	 	-11528.30008	27.78075	 
405.0	1.0	0.0	7.64877	7.05282	-11.21495	13.4425	15.71304	1.05738	0.94573	194.54898	182.4243	73.56707	0.32226	 	1.60894E16	 	2.05718E-16	 	-11666.97363	27.73471	 
400.0	1.0	0.0	7.65049	7.05123	-11.23494	13.41852	15.65016	1.0538	0.94894	194.85696	182.56615	73.6915	0.32211	 	2.27693E16	 	1.44295E-16	 	-11805.41709	27.68869	 
395.0	1.0	0.0	7.65221	7.04965	-11.25487	13.39453	15.58724	1.0502	0.9522	195.16433	182.70727	73.81572	0.32197	 	3.23902E16	 	1.00681E-16	 	-11943.63059	27.6427	 
390.0	1.0	0.0	7.65393	7.04807	-11.27474	13.37054	15.52428	1.04657	0.95551	195.47109	182.84767	73.93974	0.32183	 	4.63219E16	 	6.98734E-17	 	-12081.61426	27.59673	 
385.0	1.0	0.0	7.65563	7.0465	-11.29454	13.34654	15.46128	1.04291	0.95886	195.77724	182.98734	74.06355	0.32168	 	6.6607100000000008E16	 	4.82271E-17	 	-12219.36817	27.55078	 
380.0	1.0	0.0	7.65734	7.04493	-11.31428	13.32254	15.39823	1.03922	0.96226	196.08278	183.12628	74.18715	0.32154	 	9.63095E16	 	3.31002E-17	 	-12356.89244	27.50485	 
375.0	1.0	0.0	7.65904	7.04337	-11.33396	13.29854	15.33513	1.03551	0.96571	196.38771	183.2645	74.31055	0.3214	 	1.40052E17	 	2.25878E-17	 	-12494.18715	27.45894	 
370.0	1.0	0.0	7.66073	7.04181	-11.35358	13.27453	15.27199	1.03177	0.96921	196.69203	183.402	74.43373	0.32126	 	2.0485E17	 	1.53237E-17	 	-12631.25239	27.41305	 
365.0	1.0	0.0	7.66242	7.04025	-11.37313	13.25051	15.2088	1.028	0.97276	196.99574	183.53878	74.55671	0.32111	 	3.0142E17	 	1.03332E-17	 	-12768.08822	27.36717	 
360.0	1.0	0.0	7.66411	7.03871	-11.39262	13.22649	15.14556	1.02421	0.97637	197.29883	183.67485	74.67948	0.32097	 	4.46229E17	 	6.92525E-18	 	-12904.69468	27.32129	 
355.0	1.0	0.0	7.66579	7.03716	-11.41205	13.20247	15.08227	1.02038	0.98003	197.60132	183.8102	74.80204	0.32083	 	6.64746E17	 	4.61206E-18	 	-13041.07186	27.27543	 
350.0	1.0	0.0	7.66747	7.03562	-11.43142	13.17844	15.01893	1.01653	0.98374	197.9032	183.94484	74.92439	0.32069	 	9.96623E17	 	3.05175E-18	 	-13177.21975	27.22958	 
345.0	1.0	0.0	7.66914	7.03409	-11.45072	13.15441	14.95554	1.01265	0.98751	198.20447	184.07877	75.04653	0.32054	 	1.50401E18	 	2.00599E-18	 	-13313.1384	27.18373	 
340.0	1.0	0.0	7.6708	7.03256	-11.46996	13.13037	14.89209	1.00873	0.99134	198.50513	184.21199	75.16847	0.3204	 	2.285E18	 	1.30968E-18	 	-13448.82782	27.13788	 
335.0	1.0	0.0	7.67247	7.03104	-11.48914	13.10633	14.82859	1.00479	0.99523	198.80518	184.34451	75.2902	0.32026	 	3.4955E18	 	8.49158E-19	 	-13584.28801	27.09204	 
330.0	1.0	0.0	7.67412	7.02952	-11.50826	13.08228	14.76503	1.00082	0.99918	199.10462	184.47632	75.41172	0.32012	 	5.38508E18	 	5.46663E-19	 	-13719.51896	27.04619	 
325.0	1.0	0.0	7.67578	7.02801	-11.52731	13.05823	14.70141	0.99682	1.00319	199.40345	184.60742	75.53303	0.31998	 	8.35628E18	 	3.49368E-19	 	-13854.52062	27.00033	 
320.0	1.0	0.0	7.67742	7.0265	-11.5463	13.03417	14.63773	0.99279	1.00726	199.70168	184.73783	75.65413	0.31983	 	1.30632E19	 	2.21616E-19	 	-13989.29298	26.95447	 
315.0	1.0	0.0	7.67907	7.02499	-11.56522	13.01011	14.57399	0.98873	1.0114	199.99929	184.86754	75.77503	0.31969	 	2.05773E19	 	1.39504E-19	 	-14123.83598	26.9086	 
310.0	1.0	0.0	7.6807	7.0235	-11.58409	12.98605	14.51019	0.98463	1.01561	200.2963	184.99655	75.89571	0.31955	 	3.2667E19	 	8.7128E-20	 	-14258.14952	26.86271	 
305.0	1.0	0.0	7.68234	7.022	-11.60289	12.96198	14.44632	0.9805	1.01988	200.5927	185.12486	76.01619	0.31941	 	5.22759E19	 	5.39791E-20	 	-14392.23355	26.81681	 
300.0	1.0	0.0	7.68397	7.02051	-11.62163	12.93791	14.38239	0.97635	1.02423	200.88848	185.25249	76.13646	0.31927	 	8.43446E19	 	3.31664E-20	 	-14526.08795	26.77088	 
295.0	1.0	0.0	7.68559	7.01903	-11.64031	12.91383	14.31838	0.97215	1.02864	201.18367	185.37942	76.25652	0.31912	 	1.3723599999999998E20	 	2.0206E-20	 	-14659.71261	26.72493	 
290.0	1.0	0.0	7.68721	7.01755	-11.65892	12.88974	14.25431	0.96793	1.03313	201.47824	185.50566	76.37637	0.31898	 	2.2523499999999997E20	 	1.22032E-20	 	-14793.10737	26.67895	 
285.0	1.0	0.0	7.68883	7.01608	-11.67747	12.86566	14.19016	0.96367	1.0377	201.7722	185.63122	76.49601	0.31884	 	3.7295499999999997E20	 	7.30434E-21	 	-14926.27209	26.63295	 
280.0	1.0	0.0	7.69044	7.01461	-11.69596	12.84156	14.12594	0.95938	1.04234	202.06556	185.75608	76.61544	0.3187	 	6.232149999999999E20	 	4.33204E-21	 	-15059.20659	26.5869	 
275.0	1.0	0.0	7.69204	7.01315	-11.71438	12.81747	14.06164	0.95506	1.04706	202.35831	185.88027	76.73467	0.31856	 	1.0512E21	 	2.54507E-21	 	-15191.91068	26.54082	 
270.0	1.0	0.0	7.69364	7.01169	-11.73274	12.79337	13.99727	0.9507	1.05186	202.65045	186.00377	76.85369	0.31842	 	1.7902600000000001E21	 	1.48078E-21	 	-15324.38413	26.49469	 
265.0	1.0	0.0	7.69524	7.01023	-11.75104	12.76926	13.93281	0.9463	1.05674	202.94199	186.1266	76.97249	0.31828	 	3.07922E21	 	8.53001E-22	 	-15456.6267	26.44851	 
260.0	1.0	0.0	7.69683	7.00879	-11.76928	12.74515	13.86827	0.94188	1.06171	203.23291	186.24874	77.09109	0.31813	 	5.35037E21	 	4.86354E-22	 	-15588.63813	26.40229	 
255.0	1.0	0.0	7.69841	7.00734	-11.78745	12.72104	13.80364	0.93741	1.06677	203.52323	186.37021	77.20948	0.31799	 	9.39443E21	 	2.74393E-22	 	-15720.41813	26.356	 
250.0	1.0	0.0	7.69999	7.0059	-11.80556	12.69692	13.73893	0.93291	1.07192	203.81294	186.49101	77.32766	0.31785	 	1.6673599999999998E22	 	1.53138E-22	 	-15851.96639	26.30965	 
245.0	1.0	0.0	7.70157	7.00447	-11.8236	12.67279	13.67412	0.92837	1.07715	204.10205	186.61113	77.44563	0.31771	 	2.9922499999999996E22	 	8.4517E-23	 	-15983.28256	26.26323	 
240.0	1.0	0.0	7.70314	7.00304	-11.84159	12.64866	13.60922	0.9238	1.08249	204.39055	186.73058	77.5634	0.31757	 	5.43145E22	 	4.61122E-23	 	-16114.36626	26.21674	 
235.0	1.0	0.0	7.70471	7.00162	-11.85951	12.62453	13.54422	0.91919	1.08792	204.67844	186.84936	77.68095	0.31743	 	9.97536E22	 	2.48628E-23	 	-16245.21712	26.17017	 
230.0	1.0	0.0	7.70627	7.0002	-11.87736	12.60039	13.47913	0.91454	1.09345	204.96572	186.96747	77.79829	0.31729	 	1.8543399999999998E23	 	1.32433E-23	 	-16375.83468	26.12351	 
225.0	1.0	0.0	7.70782	6.99879	-11.89516	12.57625	13.41393	0.90985	1.09908	205.2524	187.08492	77.91543	0.31715	 	3.4902299999999996E23	 	6.96616E-24	 	-16506.2185	26.07676	 
220.0	1.0	0.0	7.70937	6.99738	-11.91289	12.5521	13.34862	0.90513	1.10482	205.53847	187.2017	78.03235	0.31701	 	6.654089999999999E23	 	3.61724E-24	 	-16636.36808	26.02992	 
215.0	1.0	0.0	7.71092	6.99597	-11.93056	12.52795	13.28321	0.90036	1.11067	205.82394	187.31783	78.14907	0.31687	 	1.28548E24	 	1.85343E-24	 	-16766.28288	25.98296	 
210.0	1.0	0.0	7.71246	6.99458	-11.94816	12.5038	13.21768	0.89556	1.11662	206.10879	187.43329	78.26558	0.31673	 	2.5174400000000003E24	 	9.36721E-25	 	-16895.96235	25.93589	 
205.0	1.0	0.0	7.714	6.99318	-11.96571	12.47964	13.15203	0.89071	1.1227	206.39305	187.54809	78.38188	0.31659	 	4.999860000000001E24	 	4.6676E-25	 	-17025.40585	25.8887	 
200.0	1.0	0.0	7.71553	6.99179	-11.98318	12.45547	13.08627	0.88583	1.12889	206.67669	187.66223	78.49796	0.31645	 	1.00752E25	 	2.29208E-25	 	-17154.61275	25.84138	 
195.0	1.0	0.0	7.71706	6.99041	-12.0006	12.4313	13.02038	0.8809	1.1352	206.95973	187.77572	78.61384	0.31631	 	2.0608800000000003E25	 	1.10871E-25	 	-17283.58236	25.79392	 
190.0	1.0	0.0	7.71858	6.98903	-12.01795	12.40713	12.95436	0.87593	1.14164	207.24217	187.88856	78.72951	0.31617	 	4.28115E25	 	5.28017E-26	 	-17412.31394	25.74631	 
185.0	1.0	0.0	7.7201	6.98766	-12.03524	12.38295	12.88821	0.87093	1.1482	207.52399	188.00075	78.84497	0.31603	 	9.03646E25	 	2.47455E-26	 	-17540.8067	25.69855	 
180.0	1.0	0.0	7.72161	6.98629	-12.05247	12.35876	12.82192	0.86587	1.1549	207.80522	188.11228	78.96022	0.31589	 	1.9390800000000003E26	 	1.1406E-26	 	-17669.0598	25.65062	 
175.0	1.0	0.0	7.72312	6.98493	-12.06963	12.33458	12.75549	0.86078	1.16174	208.08583	188.22317	79.07526	0.31575	 	4.23246E26	 	5.16793E-27	 	-17797.07236	25.60251	 
170.0	1.0	0.0	7.72462	6.98357	-12.08673	12.31038	12.68891	0.85564	1.16871	208.36584	188.3334	79.19009	0.31561	 	9.40242E26	 	2.30037E-27	 	-17924.84343	25.55421	 
165.0	1.0	0.0	7.72612	6.98221	-12.10376	12.28619	12.62217	0.85046	1.17583	208.64525	188.443	79.30471	0.31547	 	2.12715E27	 	1.00534E-27	 	-18052.37201	25.50572	 
160.0	1.0	0.0	7.72761	6.98087	-12.12074	12.26199	12.55528	0.84524	1.1831	208.92405	188.55195	79.41912	0.31533	 	4.9038999999999997E27	 	4.31105E-28	 	-18179.65702	25.457	 
155.0	1.0	0.0	7.7291	6.97952	-12.13765	12.23778	12.48822	0.83997	1.19053	209.20225	188.66026	79.53333	0.31519	 	1.15281E28	 	1.81269E-28	 	-18306.69734	25.40806	 
150.0	1.0	0.0	7.73058	6.97819	-12.15449	12.21357	12.421	0.83465	1.19811	209.47984	188.76793	79.64732	0.31505	 	2.76533E28	 	7.46851E-29	 	-18433.49176	25.35888	 
145.0	1.0	0.0	7.73205	6.97685	-12.17127	12.18935	12.35359	0.82929	1.20586	209.75682	188.87495	79.7611	0.31491	 	6.773660000000001E28	 	3.01297E-29	 	-18560.03902	25.30945	 
140.0	1.0	0.0	7.73353	6.97552	-12.18799	12.16513	12.28601	0.82388	1.21377	210.0332	188.98135	79.87467	0.31477	 	1.69558E29	 	1.18926E-29	 	-18686.33775	25.25975	 
135.0	1.0	0.0	7.73499	6.9742	-12.20465	12.14091	12.21823	0.81842	1.22186	210.30898	189.08711	79.98803	0.31463	 	4.34084E29	 	4.58915E-30	 	-18812.38652	25.20975	 
130.0	1.0	0.0	7.73646	6.97288	-12.22124	12.11668	12.15025	0.81292	1.23013	210.58415	189.19223	80.10118	0.31449	 	1.1375199999999999E30	 	1.7298E-30	 	-18938.18382	25.15946	 
125.0	1.0	0.0	7.73791	6.97157	-12.23777	12.09245	12.08207	0.80737	1.23859	210.85871	189.29672	80.21412	0.31435	 	3.05386E30	 	6.36332E-31	 	-19063.72802	25.10884	 
120.0	1.0	0.0	7.73937	6.97026	-12.25424	12.06821	12.01367	0.80177	1.24724	211.13267	189.40058	80.32685	0.31421	 	8.40719E30	 	2.28241E-31	 	-19189.01743	25.05788	 
115.0	1.0	0.0	7.74081	6.96896	-12.27064	12.04397	11.94505	0.79612	1.25609	211.40603	189.50381	80.43937	0.31407	 	2.37565E31	 	7.97451E-32	 	-19314.05022	25.00656	 
110.0	1.0	0.0	7.74225	6.96766	-12.28698	12.01972	11.87619	0.79042	1.26515	211.67878	189.60642	80.55168	0.31393	 	6.89745E31	 	2.71123E-32	 	-19438.82448	24.95485	 
105.0	1.0	0.0	7.74369	6.96637	-12.30325	11.99547	11.8071	0.78467	1.27442	211.95093	189.7084	80.66378	0.31379	 	2.05985E32	 	8.96014E-33	 	-19563.33816	24.90274	 
100.0	1.0	0.0	7.74512	6.96508	-12.31946	11.97121	11.73775	0.77887	1.28391	212.22247	189.80975	80.77567	0.31365	 	6.3345599999999996E32	 	2.8751E-33	 	-19687.58912	24.85019	 
95.0	1.0	0.0	7.74655	6.9638	-12.33561	11.94695	11.66813	0.77302	1.29363	212.49341	189.91049	80.88735	0.31351	 	2.0084E33	 	8.94668E-34	 	-19811.57505	24.79719	 
90.0	1.0	0.0	7.74797	6.96252	-12.35169	11.92268	11.59824	0.76711	1.30359	212.76374	190.0106	80.99882	0.31338	 	6.57328E33	 	2.69644E-34	 	-19935.29353	24.7437	 
85.0	1.0	0.0	7.74939	6.96125	-12.36772	11.89841	11.52807	0.76116	1.31379	213.03347	190.11009	81.11008	0.31324	 	2.22378E34	 	7.86067E-35	 	-20058.74198	24.68969	 
80.0	1.0	0.0	7.7508	6.95998	-12.38367	11.87414	11.45759	0.75515	1.32424	213.3026	190.20897	81.22113	0.3131	 	7.78737E34	 	2.21338E-35	 	-20181.91766	24.63514	 
75.0	1.0	0.0	7.7522	6.95872	-12.39957	11.84986	11.38679	0.74908	1.33496	213.57112	190.30722	81.33196	0.31296	 	2.82698E35	 	6.01077E-36	 	-20304.8177	24.58001	 
70.0	1.0	0.0	7.75361	6.95746	-12.4154	11.82558	11.31567	0.74297	1.34595	213.83904	190.40487	81.44259	0.31282	 	1.0655499999999999E36	 	1.5718E-36	 	-20427.43898	24.52426	 
65.0	1.0	0.0	7.755	6.95621	-12.43116	11.80129	11.2442	0.7368	1.35723	214.10635	190.5019	81.553	0.31268	 	4.1769999999999994E36	 	3.95123E-37	 	-20549.77825	24.46785	 
60.0	1.0	0.0	7.75639	6.95496	-12.44686	11.777	11.17237	0.73057	1.3688	214.37307	190.59832	81.66321	0.31254	 	1.7059399999999999E37	 	9.53154E-38	 	-20671.83204	24.41076	 
55.0	1.0	0.0	7.75778	6.95372	-12.4625	11.7527	11.10015	0.72428	1.38067	214.63917	190.69413	81.7732	0.31241	 	7.272539999999999E37	 	2.20228E-38	 	-20793.59667	24.35293	 
50.0	1.0	0.0	7.75916	6.95248	-12.47808	11.7284	11.02754	0.71795	1.39286	214.90468	190.78933	81.88298	0.31227	 	3.2426099999999997E38	 	4.86403E-39	 	-20915.06821	24.29431	 
45.0	1.0	0.0	7.76053	6.95125	-12.49359	11.70409	10.95451	0.71155	1.40538	215.16958	190.88392	81.99255	0.31213	 	1.51534E39	 	1.02473E-39	 	-21036.24251	24.23486	 
40.0	1.0	0.0	7.7619	6.95002	-12.50904	11.67978	10.88104	0.7051	1.41825	215.43387	190.97791	82.10191	0.31199	 	7.43889E39	 	2.05462E-40	 	-21157.11514	24.17453	 
35.0	1.0	0.0	7.76327	6.9488	-12.52442	11.65546	10.8071	0.69858	1.43147	215.69757	191.07129	82.21106	0.31185	 	3.8453E40	 	3.91128E-41	 	-21277.68141	24.11325	 
30.0	1.0	0.0	7.76463	6.94758	-12.53974	11.63115	10.73267	0.69202	1.44505	215.96066	191.16407	82.32	0.31171	 	2.09839E41	 	7.05112E-42	 	-21397.93629	24.05098	 
25.0	1.0	0.0	7.76598	6.94637	-12.555	 	10.65772	0.68539	1.45903	216.22315	191.25625	82.42873	0.31158	 	1.21216E42	 	1.2005E-42	 	-21517.87449	 	 
