T (C)	Fraction solid (wt)-TOTAL	Fraction liquid (wt)-LIQUID	Density (g/(cm)^3)-TOTAL	Molar volume (cm^3)-TOTAL	Volume change (%)-  	Average expansion coeff. (10e-6 1/K)-  	Thermal conductivity (W/(m*K))-TOTAL	Electrical resistivity (10e-6 Ohm*m)-TOTAL	Electrical conductivity (10e6 1/(Ohm*m))-TOTAL	Young's modulus (GPa)-TOTAL	Bulk modulus (GPa)-TOTAL	Shear modulus(GPa)-TOTAL	Poisson's ratio-TOTAL	Liquid viscosity (mPa s)-  	Total viscosity (mPa s)-  	Liquid diffusivity (10e-9 (m^2)/s)-  	Total diffusivity (10e-9 (m^2)/s)-  	Surface Tension (mN/m)-  	Enthalpy (J/mole)-TOTAL	Specific heat (J/(mole K))-TOTAL	Latent heat (J/mole)-TOTAL
1400.0	0.0	1.0	6.86043	7.96505	0.0	35.37618	30.1749	1.35849	0.73611	0.0	119.53352	0.0	0.5	6.53204	6.53204	1.25018	1.25018	1725.86376	40304.753	 	0.0
1395.0	0.0	1.0	6.86443	7.96041	-0.0582208	35.34296	30.10081	1.35776	0.73651	0.0	119.67375	0.0	0.5	6.60197	6.60197	1.23324	1.23324	1727.91359	40104.117	40.1272	0.0
1390.0	0.0	1.0	6.86842	7.95579	-0.11628	35.30996	30.02673	1.35703	0.7369	0.0	119.81399	0.0	0.5	6.67309	6.67309	1.21644	1.21644	1729.96545	39903.928	40.0378	0.0
1385.0	0.0	1.0	6.8724	7.95118	-0.17417	35.27718	29.95265	1.3563	0.7373	0.0	119.95422	0.0	0.5	6.7454	6.7454	1.19978	1.19978	1732.01917	39704.183	39.949	0.0
1380.0	0.0	1.0	6.87638	7.94658	-0.2319	35.24462	29.87857	1.35556	0.7377	0.0	120.09446	0.0	0.5	6.81894	6.81894	1.18326	1.18326	1734.07455	39504.879	39.8608	0.0
1375.0	0.0	1.0	6.88035	7.94199	-0.28946	35.21229	29.80448	1.35482	0.73811	0.0	120.23469	0.0	0.5	6.89374	6.89374	1.16689	1.16689	1736.13138	39306.013	39.7732	0.0
1370.0	0.0	1.0	6.88431	7.93742	-0.34686	35.18018	29.7304	1.35407	0.73851	0.0	120.37493	0.0	0.5	6.96982	6.96982	1.15065	1.15065	1738.18947	39107.582	39.6862	0.0
1365.0	0.0	1.0	6.88827	7.93286	-0.40409	35.1483	29.65632	1.35333	0.73892	0.0	120.51517	0.0	0.5	7.04722	7.04722	1.13455	1.13455	1740.2486	38909.583	39.5998	0.0
1360.0	0.0	1.0	6.89222	7.92832	-0.46116	35.11665	29.58224	1.35257	0.73933	0.0	120.6554	0.0	0.5	7.12595	7.12595	1.11859	1.11859	1742.3086	38712.013	39.514	0.0
1355.0	0.0	1.0	6.89616	7.92379	-0.51806	35.08524	29.50815	1.35182	0.73974	0.0	120.79564	0.0	0.5	7.20606	7.20606	1.10277	1.10277	1744.36925	38514.87	39.4286	0.0
1350.0	0.0	1.0	6.9001	7.91927	-0.5748	35.05407	29.43407	1.35106	0.74016	0.0	120.93587	0.0	0.5	7.28757	7.28757	1.08708	1.08708	1746.43036	38318.151	39.3438	0.0
1345.0	0.0	1.0	6.90402	7.91476	-0.63138	35.02313	29.35999	1.3503	0.74058	0.0	121.07611	0.0	0.5	7.37051	7.37051	1.07154	1.07154	1748.49175	38121.853	39.2596	0.0
1340.0	0.0	1.0	6.90795	7.91027	-0.68779	34.99244	29.28591	1.34953	0.741	0.0	121.21634	0.0	0.5	7.45492	7.45492	1.05613	1.05613	1750.55323	37925.974	39.1758	0.0
1335.0	0.0	1.0	6.91186	7.90579	-0.74404	34.96199	29.21182	1.34876	0.74142	0.0	121.35658	0.0	0.5	7.54083	7.54083	1.04086	1.04086	1752.6146	37730.51	39.0928	0.0
1330.0	0.0	1.0	6.91577	7.90132	-0.80012	34.93179	29.13774	1.34798	0.74185	0.0	121.49681	0.0	0.5	7.62827	7.62827	1.02573	1.02573	1754.67568	37535.46	39.01	0.0
1329.75	0.0	1.0	6.91596	7.9011	-0.80288	34.93031	29.13409	1.34794	0.74187	0.0	121.50373	0.0	0.5	7.63263	7.63263	1.02499	1.02499	1754.77734	37525.847	38.97267	0.0020
1325.0	0.11584	0.88416	6.95486	7.85695	-1.35711	33.42955	29.36712	1.33328	0.75003	0.0143797	121.66828	0.00483926	0.48573	7.70618	12.12095	1.0122	0.64353	1756.50482	35745.04501	374.64225	1593.357
1320.0	0.23921	0.76079	6.99734	7.80924	-1.9561	31.79183	29.61218	1.31811	0.75866	0.26768	122.01433	0.0910361	0.4702	7.79775	71.01501	0.99718	0.10949	1758.2887	33826.36518	383.73597	3314.798
1315.0	0.44488	0.55512	7.06966	7.72924	-2.96054	28.94086	30.05124	1.29478	0.77233	3.34961	122.97094	1.16031	0.44341	7.96669	775.17411	0.97297	0.00999952	1759.89258	30649.23503	635.42603	6295.158
1310.0	0.57211	0.42789	7.11581	7.67901	-3.59123	27.17868	30.31597	1.27943	0.7816	9.51921	123.67521	3.33662	0.42648	8.1313	2214.34682	0.95027	0.0034895	1761.51714	28638.49231	402.14854	8109.595
1305.0	0.65717	0.34283	7.14766	7.64461	-4.02304	25.99625	30.47951	1.26855	0.7883	17.03713	124.25256	6.02037	0.41496	8.29285	4064.06181	0.92882	0.00189529	1763.16295	27250.49836	277.59879	9301.747
1300.0	0.71741	0.28259	7.17098	7.61955	-4.33774	25.15541	30.57923	1.2604	0.7934	24.70289	124.76083	8.78062	0.40667	8.45238	6103.12059	0.9084	0.00125807	1764.82284	26224.98437	205.1028	10131.878
1295.0	0.76203	0.23797	7.1889	7.60032	-4.57916	24.52832	30.63651	1.25405	0.79742	31.95809	125.22841	11.40999	0.40044	8.61096	8227.38897	0.88884	9.30277E-4	1766.49532	25425.31754	159.93337	10736.617
1290.0	0.79625	0.20375	7.20321	7.58497	-4.7718	24.04358	30.66444	1.24891	0.8007	38.60548	125.67089	13.8312	0.39559	8.76936	10398.89041	0.87	7.33669E-4	1768.17674	24774.26108	130.21129	11193.199
1285.0	0.82323	0.17677	7.21501	7.57232	-4.9306	23.65759	30.67127	1.24464	0.80345	44.61271	126.09669	16.02804	0.39171	8.92824	12610.49594	0.85179	6.03065E-4	1769.86384	24225.44018	109.76418	11547.994
1280.0	0.8515	0.1485	7.22719	7.55923	-5.095	23.25146	30.67378	1.24054	0.8061	51.64274	126.55806	18.60861	0.3876	9.08731	15323.1849	0.83419	4.9471E-4	1771.36101	23646.71106	115.74582	11933.143
1275.0	0.87591	0.12409	7.23801	7.54756	-5.24146	22.89693	30.66406	1.23694	0.80845	58.41998	127.01175	21.10538	0.38401	9.24418	18229.44328	0.81739	4.14502E-4	1772.77135	23120.92189	105.15783	12265.796
1270.0	0.89473	0.10527	7.24691	7.53793	-5.36239	22.61786	30.63946	1.23394	0.81041	64.17257	127.44353	23.23117	0.38117	9.40019	21108.81677	0.80123	3.56805E-4	1774.18158	22676.20188	88.944	12517.818
1265.0	0.90966	0.0903425	7.25447	7.52972	-5.46555	22.39128	30.60424	1.23135	0.81211	69.10886	127.86057	25.05986	0.37888	9.55604	24006.06189	0.78561	3.12726E-4	1775.5896	22287.3792	77.76454	12714.381
1260.0	0.92178	0.0782163	7.26106	7.52253	-5.55575	22.20295	30.56115	1.22908	0.81362	73.39761	128.26733	26.652	0.37696	9.71218	26961.54421	0.77047	2.77541E-4	1776.98785	21938.63807	69.74823	12871.296
1255.0	0.93181	0.0681859	7.26694	7.5161	-5.63652	22.04237	30.51206	1.22705	0.81497	77.16528	128.66633	28.05324	0.37534	9.86918	30009.34733	0.75574	2.4854E-4	1778.38185	21619.57865	63.81188	12998.959
1250.0	0.94025	0.0597529	7.27227	7.51025	-5.70998	21.90327	30.45828	1.22519	0.8162	80.50883	129.05954	29.29871	0.37393	10.02748	33180.18113	0.74137	2.24053E-4	1779.76698	21323.09915	59.2959	13104.47
1245.0	0.94743	0.0525676	7.27716	7.50486	-5.77767	21.78112	30.40075	1.22348	0.81734	83.50449	129.44806	30.41618	0.3727	10.1872	36502.47461	0.72736	2.02992E-4	1781.13936	21044.19375	55.78108	13192.832
1240.0	0.95362	0.046375	7.28172	7.49982	-5.84086	21.67209	30.34017	1.22188	0.81841	86.21146	129.83252	31.42728	0.3716	10.34877	40003.39228	0.71364	1.84617E-4	1782.50298	20779.23965	52.99082	13267.665
1235.0	0.95902	0.040984	7.28601	7.49508	-5.90039	21.57371	30.27708	1.22038	0.81941	88.6767	130.2137	32.34918	0.37062	10.51251	43709.86844	0.7002	1.68404E-4	1783.85438	20525.55409	50.73711	13331.646
1230.0	0.96375	0.0362515	7.29007	7.49059	-5.95682	21.48434	30.21188	1.21896	0.82037	90.93695	130.59181	33.19537	0.36972	10.67834	47648.33539	0.68705	1.53972E-4	1785.19035	20281.10315	48.89019	13386.809
1225.0	0.96793	0.0320652	7.29394	7.48629	-6.01079	21.40208	30.14493	1.21761	0.82128	93.02283	130.96715	33.97709	0.36891	10.84663	51846.48888	0.67414	1.41034E-4	1786.51579	20044.32505	47.35562	13434.713
1220.0	0.97166	0.0283356	7.29765	7.48216	-6.06258	21.3261	30.07644	1.21631	0.82216	94.95885	131.33999	34.70335	0.36815	11.01742	56332.95712	0.66147	1.29368E-4	1787.82293	19813.996	46.06581	13476.576
1215.0	0.975	0.0249958	7.30123	7.47818	-6.1126	21.25513	30.00667	1.21505	0.82301	96.76522	131.71038	35.38163	0.36745	11.19091	61137.78356	0.64904	1.18802E-4	1789.11964	19589.1482	44.96956	13513.365
1210.0	0.97801	0.021987	7.3047	7.47432	-6.16105	21.18865	29.93575	1.21384	0.82383	98.458	132.07848	36.01782	0.3668	11.36711	66292.72904	0.63683	1.09196E-4	1790.39911	19369.00585	44.02847	13545.853
1205.0	0.98074	0.0192633	7.30807	7.47056	-6.20825	21.12564	29.86377	1.21266	0.82463	100.05248	132.44457	36.61759	0.36618	11.54637	71832.85578	0.62483	1.00434E-4	1791.66397	19152.63863	43.27344	13574.67
1200.0	0.98321	0.0167884	7.31136	7.46689	-6.2543	21.06581	29.79088	1.21152	0.82541	101.55904	132.80859	37.18477	0.3656	11.72858	77794.39615	0.61304	9.24241E-5	1792.91067	18939.64901	42.59792	13600.328
1195.0	0.98547	0.0145302	7.31458	7.46331	-6.29931	21.00892	29.71721	1.2104	0.82617	102.98849	133.1706	37.72335	0.36505	11.91379	84217.55484	0.60146	8.50853E-5	1794.13802	18729.81367	41.96707	13623.254
1190.0	0.98754	0.0124629	7.31773	7.4598	-6.34338	20.95458	29.64286	1.2093	0.82692	104.34833	133.53049	38.2361	0.36453	12.10241	91145.04895	0.59007	7.83506E-5	1795.34962	18522.77379	41.40798	13643.801
1185.0	0.98944	0.010563	7.32082	7.45635	-6.38666	20.90238	29.56729	1.20825	0.82764	105.64676	133.88849	38.72608	0.36403	12.29417	98624.64239	0.57888	7.21612E-5	1796.54451	18318.22815	40.90913	13662.266
1180.0	0.99115	0.0088501	7.32541	7.45191	-6.44239	20.80856	29.38422	1.21161	0.82535	107.26888	134.29628	39.34729	0.3631	12.50285	107610.5083	0.56727	6.59087E-5	1797.7219	18036.86429	56.27277	13679.929
1175.0	0.99272	0.00727783	7.33309	7.44435	-6.53724	20.58398	29.0451	1.22154	0.81864	109.53873	134.71341	40.23212	0.36133	12.72452	119174.2389	0.55547	5.93086E-5	1798.88293	17604.82765	86.40733	13696.801
1170.0	0.99417	0.00582674	7.33829	7.43916	-6.60252	20.45609	28.8049	1.22747	0.81468	111.29009	135.12446	40.90979	0.36019	12.95003	130788.2346	0.54391	5.38554E-5	1800.0224	17274.73495	66.01854	13712.036
1165.0	0.99552	0.004485	7.34324	7.43401	-6.66714	20.32931	28.57348	1.23312	0.81095	112.96668	135.5199	41.55952	0.35909	13.17944	143505.6899	0.53259	4.89127E-5	1801.13966	16950.76088	64.79481	13725.825
1160.0	0.99676	0.00324073	7.34796	7.42892	-6.73107	20.2037	28.35024	1.23851	0.80742	114.57482	135.90106	42.18365	0.35805	13.41285	157438.1542	0.5215	4.44292E-5	1802.23545	16632.56534	63.63911	13738.328
1155.0	0.99792	0.00208424	7.35248	7.42388	-6.79432	20.07931	28.13374	1.24369	0.80406	116.11883	136.26908	42.78371	0.35704	13.65043	172707.6742	0.51064	4.03598E-5	1803.31294	16319.83848	62.54537	13749.687
1150.0	0.99899	0.00100579	7.3568	7.4189	-6.85686	19.9562	27.92505	1.2486	0.8009	117.60289	136.62482	43.36123	0.35608	13.89216	189449.6846	0.5	3.66643E-5	1804.3669	16012.29532	61.50863	13760.024
1145.0	1.0	0.0	7.36095	7.41397	-6.91871	19.83433	27.7243	1.25322	0.79794	119.03183	136.96927	43.918	0.35516	 	207815.0085	 	3.33067E-5	 	15709.6745	60.52416	13769.446
1140.0	1.0	0.0	7.36507	7.40982	-6.97081	19.74479	27.52149	1.258	0.79491	119.93282	137.26872	44.27585	0.35438	 	227323.0808	 	3.03411E-5	 	15439.32999	54.0689	 
1135.0	1.0	0.0	7.36914	7.40573	-7.0222	19.6569	27.32443	1.26259	0.79202	120.80824	137.55755	44.6239	0.35363	 	248828.9166	 	2.76207E-5	 	15162.09657	55.44668	 
1130.0	1.0	0.0	7.37316	7.40169	-7.0729	19.57058	27.13284	1.26699	0.78927	121.65925	137.83644	44.96259	0.35289	 	272553.8511	 	2.51269E-5	 	14888.30291	54.75873	 
1125.0	1.0	0.0	7.37713	7.3977	-7.12294	19.48579	26.94646	1.27121	0.78665	122.48692	138.10601	45.2923	0.35218	 	298745.4973	 	2.28423E-5	 	14617.82384	54.09581	 
1120.0	1.0	0.0	7.38106	7.39377	-7.17233	19.40245	26.76505	1.27525	0.78416	123.29227	138.36681	45.61342	0.35149	 	327681.0866	 	2.07507E-5	 	14350.53966	53.45684	 
1115.0	1.0	0.0	7.38494	7.38988	-7.22111	19.32051	26.58837	1.27912	0.78179	124.07623	138.61934	45.9263	0.35082	 	359671.2453	 	1.88372E-5	 	14086.3359	52.84075	 
1110.0	1.0	0.0	7.38878	7.38605	-7.2693	19.23991	26.41621	1.28282	0.77953	124.8397	138.86405	46.23126	0.35017	 	395064.2833	 	1.70879E-5	 	13825.10293	52.24659	 
1105.0	1.0	0.0	7.39257	7.38225	-7.31691	19.16061	26.24835	1.28635	0.77739	125.58353	139.10135	46.52862	0.34953	 	434251.0666	 	1.54897E-5	 	13566.73618	51.67335	 
1100.0	1.0	0.0	7.39633	7.37851	-7.36396	19.08254	26.08459	1.28973	0.77535	126.3085	139.33164	46.81868	0.34891	 	477670.4828	 	1.40306E-5	 	13311.13515	51.12021	 
1095.0	1.0	0.0	7.40004	7.3748	-7.41047	19.00567	25.92474	1.29296	0.77342	127.01537	139.55526	47.10172	0.34831	 	525815.859	 	1.26995E-5	 	13058.20406	50.58622	 
1090.0	1.0	0.0	7.40372	7.37114	-7.45646	18.92994	25.76863	1.29604	0.77158	127.70486	139.77256	47.37801	0.34772	 	579241.9999	 	1.1486E-5	 	12807.8508	50.07065	 
1085.0	1.0	0.0	7.40736	7.36752	-7.50195	18.85531	25.61609	1.29898	0.76984	128.37766	139.98384	47.64781	0.34715	 	638573.4274	 	1.03806E-5	 	12559.9875	49.57266	 
1080.0	1.0	0.0	7.41097	7.36393	-7.54695	18.78174	25.46695	1.30177	0.76818	129.03442	140.18939	47.91136	0.3466	 	704513.7248	 	9.37439E-6	 	12314.52995	49.09151	 
1075.0	1.0	0.0	7.41454	7.36038	-7.59148	18.70919	25.32107	1.30443	0.76662	129.67575	140.3895	48.16891	0.34605	 	777856.0599	 	8.45913E-6	 	12071.39761	48.62647	 
1070.0	1.0	0.0	7.41807	7.35687	-7.63555	18.6376	25.17829	1.30697	0.76513	130.30226	140.58442	48.42067	0.34552	 	859495.4591	 	7.62724E-6	 	11830.51299	48.17692	 
1065.0	1.0	0.0	7.42158	7.3534	-7.67918	18.56696	25.03848	1.30937	0.76373	130.91452	140.7744	48.66686	0.34501	 	950442.5957	 	6.87172E-6	 	11591.80222	47.74215	 
1060.0	1.0	0.0	7.42505	7.34996	-7.72239	18.49722	24.90152	1.31165	0.7624	131.51307	140.95969	48.9077	0.3445	 	1051839.779	 	6.18609E-6	 	11355.19447	47.32155	 
1055.0	1.0	0.0	7.4285	7.34655	-7.76517	18.42834	24.76727	1.31382	0.76114	132.09845	141.1405	49.14338	0.34401	 	1164979.127	 	5.56437E-6	 	11120.622	46.91449	 
1050.0	1.0	0.0	7.43191	7.34317	-7.80755	18.36029	24.63563	1.31587	0.75996	132.67114	141.31706	49.37408	0.34353	 	1291323.407	 	5.00104E-6	 	10888.0195	46.5205	 
1045.0	1.0	0.0	7.4353	7.33983	-7.84954	18.29305	24.50648	1.3178	0.75884	133.23165	141.48958	49.60001	0.34306	 	1432530.05	 	4.49105E-6	 	10657.32482	46.13894	 
1040.0	1.0	0.0	7.43866	7.33652	-7.89115	18.22657	24.37971	1.31963	0.75779	133.78044	141.65825	49.82133	0.3426	 	1590478.715	 	4.0297E-6	 	10428.47824	45.76932	 
1035.0	1.0	0.0	7.44199	7.33323	-7.9324	18.16083	24.25524	1.32135	0.7568	134.31794	141.82327	50.03822	0.34215	 	1767302.743	 	3.61271E-6	 	10201.42257	45.41113	 
1030.0	1.0	0.0	7.4453	7.32997	-7.97328	18.09579	24.13296	1.32297	0.75588	134.84461	141.98482	50.25085	0.34171	 	1965425.755	 	3.23612E-6	 	9976.10297	45.06392	 
1025.0	1.0	0.0	7.44858	7.32675	-8.01381	18.03144	24.0128	1.32449	0.75501	135.36084	142.14309	50.45936	0.34129	 	2187603.561	 	2.8963E-6	 	9752.46689	44.72722	 
1020.0	1.0	0.0	7.45183	7.32354	-8.05401	17.96774	23.89465	1.32591	0.7542	135.86705	142.29824	50.66392	0.34087	 	2436972.204	 	2.58991E-6	 	9530.46391	44.40059	 
1015.0	1.0	0.0	7.45507	7.32037	-8.09387	17.90467	23.77846	1.32724	0.75344	136.36362	142.45044	50.86468	0.34045	 	2717104.146	 	2.31391E-6	 	9310.04572	44.08364	 
1010.0	1.0	0.0	7.45828	7.31722	-8.13342	17.8422	23.66413	1.32847	0.75274	136.85092	142.59986	51.06177	0.34005	 	3032072.37	 	2.0655E-6	 	9091.16596	43.77595	 
1005.0	1.0	0.0	7.46146	7.31409	-8.17265	17.78032	23.5516	1.32962	0.75209	137.3293	142.74664	51.25534	0.33966	 	3386524.958	 	1.8421E-6	 	8873.78032	43.47713	 
1000.0	1.0	0.0	7.46463	7.31099	-8.21158	17.71898	23.4408	1.33068	0.7515	137.79912	142.89094	51.44552	0.33927	 	3785771.027	 	1.64139E-6	 	8657.84582	43.1869	 
995.0	1.0	0.0	7.46777	7.30792	-8.25022	17.65818	23.33167	1.33165	0.75095	138.26071	143.0329	51.63243	0.33889	 	4235880.803	 	1.46121E-6	 	8443.32164	42.90483	 
990.0	1.0	0.0	7.47089	7.30486	-8.28856	17.59789	23.22414	1.33254	0.75044	138.71439	143.17267	51.81621	0.33852	 	4743801.347	 	1.29962E-6	 	8230.16851	42.63063	 
985.0	1.0	0.0	7.474	7.30183	-8.32663	17.5381	23.11816	1.33335	0.74999	139.16047	143.31037	51.99696	0.33816	 	5317490.569	 	1.15481E-6	 	8018.34866	42.36397	 
980.0	1.0	0.0	7.47708	7.29882	-8.36442	17.47877	23.01368	1.33408	0.74958	139.59925	143.44613	52.17482	0.3378	 	5966073.419	 	1.02518E-6	 	7807.82581	42.10457	 
975.0	1.0	0.0	7.48014	7.29583	-8.40194	17.41989	22.91064	1.33474	0.74921	140.03102	143.58009	52.34988	0.33745	 	6700023.582	 	9.09237E-7	 	7598.56515	41.85213	 
970.0	1.0	0.0	7.48318	7.29286	-8.4392	17.36144	22.80899	1.33531	0.74889	140.45607	143.71237	52.52227	0.33711	 	7531374.052	 	8.05631E-7	 	7390.53318	41.60639	 
965.0	1.0	0.0	7.48621	7.28992	-8.47621	17.30341	22.70869	1.33582	0.7486	140.87465	143.84307	52.69207	0.33677	 	8473964.428	 	7.13138E-7	 	7183.69771	41.36709	 
960.0	1.0	0.0	7.48922	7.28699	-8.51297	17.24577	22.60877	1.3363	0.74833	141.28704	143.97233	52.8594	0.33644	 	9543727.241	 	6.30644E-7	 	6978.02779	41.13398	 
955.0	1.0	0.0	7.49221	7.28408	-8.54948	17.18851	22.51099	1.33667	0.74813	141.69348	144.10023	53.02436	0.33612	 	1.07590236E7	 	5.57141E-7	 	6773.49414	40.90673	 
950.0	1.0	0.0	7.49518	7.28119	-8.58576	17.13161	22.41442	1.33696	0.74797	142.09423	144.2269	53.18703	0.3358	 	1.214103684E7	 	4.91712E-7	 	6570.06706	40.68542	 
945.0	1.0	0.0	7.49814	7.27832	-8.62181	17.07505	22.31905	1.33718	0.74784	142.48951	144.35244	53.34751	0.33548	 	1.371423011E7	 	4.33527E-7	 	6367.71949	40.46951	 
940.0	1.0	0.0	7.50108	7.27547	-8.65763	17.01883	22.22481	1.33734	0.74775	142.87955	144.47693	53.50588	0.33518	 	1.550688427E7	 	3.81836E-7	 	6166.42483	40.25893	 
935.0	1.0	0.0	7.504	7.27263	-8.69323	16.96291	22.1317	1.33743	0.7477	143.26458	144.60049	53.66224	0.33487	 	1.755173168E7	 	3.3596E-7	 	5966.15749	40.05347	 
930.0	1.0	0.0	7.50691	7.26981	-8.72861	16.9073	22.03966	1.33746	0.74769	143.6448	144.7232	53.81667	0.33458	 	1.988669372E7	 	2.95287E-7	 	5766.89277	39.85294	 
925.0	1.0	0.0	7.50981	7.26701	-8.76378	16.85196	21.94866	1.33742	0.74771	144.02043	144.84515	53.96925	0.33428	 	2.255575648E7	 	2.59263E-7	 	5568.60687	39.65718	 
920.0	1.0	0.0	7.51268	7.26423	-8.79874	16.7969	21.85869	1.33733	0.74776	144.39166	144.96643	54.12005	0.33399	 	2.560999421E7	 	2.2739E-7	 	5371.27682	39.46601	 
915.0	1.0	0.0	7.51555	7.26146	-8.83349	16.74209	21.76971	1.33716	0.74785	144.7587	145.08713	54.26915	0.33371	 	2.91087789E7	 	1.9922E-7	 	5174.88046	39.27927	 
910.0	1.0	0.0	7.5184	7.2587	-8.86805	16.68752	21.68169	1.33694	0.74798	145.12171	145.20731	54.41663	0.33343	 	3.312120905E7	 	1.74349E-7	 	4979.3964	39.09681	 
905.0	1.0	0.0	7.52124	7.25597	-8.90241	16.63318	21.5946	1.33666	0.74813	145.4809	145.32707	54.56256	0.33316	 	3.772779369E7	 	1.52414E-7	 	4784.80394	38.91849	 
900.0	1.0	0.0	7.52406	7.25325	-8.93659	16.57905	21.50843	1.33632	0.74832	145.83643	145.44648	54.707	0.33289	 	4.302244714E7	 	1.3309E-7	 	4591.08312	38.74416	 
895.0	1.0	0.0	7.52687	7.25054	-8.97057	16.52513	21.42315	1.33592	0.74855	146.18848	145.5656	54.85002	0.33262	 	4.91148483E7	 	1.16084E-7	 	4398.2146	38.5737	 
890.0	1.0	0.0	7.52966	7.24785	-9.00437	16.47139	21.33874	1.33547	0.7488	146.5372	145.68452	54.99168	0.33236	 	5.613324316E7	 	1.01135E-7	 	4206.1797	38.40698	 
885.0	1.0	0.0	7.53245	7.24517	-9.03799	16.41783	21.25517	1.33495	0.74909	146.88277	145.8033	55.13206	0.3321	 	6.422776722E7	 	8.80093E-8	 	4014.96031	38.24388	 
880.0	1.0	0.0	7.53522	7.24251	-9.07143	16.36443	21.17243	1.33438	0.74941	147.22533	145.92201	55.27121	0.33184	 	7.357439217E7	 	7.64973E-8	 	3824.53886	38.08429	 
875.0	1.0	0.0	7.53797	7.23986	-9.1047	16.31119	21.0905	1.33376	0.74976	147.56504	146.04071	55.40918	0.33159	 	8.437963887E7	 	6.64122E-8	 	3634.89833	37.92811	 
870.0	1.0	0.0	7.54072	7.23722	-9.1378	16.25809	21.00935	1.33308	0.75014	147.90204	146.15947	55.54604	0.33135	 	9.688616987E7	 	5.75875E-8	 	3446.0224	37.77519	 
865.0	1.0	0.0	7.54345	7.2346	-9.17073	16.20511	20.92898	1.33235	0.75055	148.23648	146.27834	55.68185	0.3311	 	1.113794785E8	 	4.98748E-8	 	3257.8951	37.62546	 
860.0	1.0	0.0	7.54618	7.23199	-9.2035	16.15226	20.84936	1.33156	0.751	148.56849	146.39739	55.81666	0.33086	 	1.281958882E8	 	4.3142E-8	 	3070.50093	37.47883	 
855.0	1.0	0.0	7.54889	7.22939	-9.2361	16.0995	20.77048	1.33072	0.75147	148.89821	146.51667	55.95051	0.33062	 	1.477321085E8	 	3.72717E-8	 	2883.82484	37.33522	 
850.0	1.0	0.0	7.55159	7.2268	-9.26855	16.04685	20.69232	1.32983	0.75198	149.22577	146.63623	56.08347	0.33039	 	1.70456678E8	 	3.21596E-8	 	2697.85223	37.19452	 
845.0	1.0	0.0	7.5538	7.22469	-9.29511	16.021	20.63241	1.32775	0.75315	149.56707	146.85875	56.21725	0.33026	 	1.935235872E8	 	2.82002E-8	 	2540.20486	31.52947	 
840.0	1.0	0.0	7.556	7.22258	-9.32159	15.99514	20.57249	1.32566	0.75434	149.90794	147.08055	56.35089	0.33013	 	2.19962659E8	 	2.46997E-8	 	2379.55337	32.1303	 
835.0	1.0	0.0	7.55821	7.22048	-9.34801	15.96928	20.51255	1.32356	0.75554	150.24838	147.30164	56.48439	0.33	 	2.503029047E8	 	2.16082E-8	 	2219.11638	32.0874	 
830.0	1.0	0.0	7.5604	7.21838	-9.37437	15.94342	20.45261	1.32145	0.75674	150.58838	147.52201	56.61775	0.32987	 	2.851619102E8	 	1.88812E-8	 	2058.89304	32.04467	 
825.0	1.0	0.0	7.5626	7.21628	-9.40066	15.91755	20.39266	1.31933	0.75796	150.92795	147.74168	56.75097	0.32974	 	3.252615944E8	 	1.64784E-8	 	1898.88242	32.00212	 
820.0	1.0	0.0	7.56479	7.21419	-9.42687	15.89168	20.33269	1.3172	0.75919	151.26709	147.96065	56.88405	0.32961	 	3.71446935E8	 	1.43638E-8	 	1739.08362	31.95976	 
815.0	1.0	0.0	7.56697	7.21211	-9.45303	15.86581	20.27271	1.31505	0.76043	151.60579	148.17891	57.017	0.32948	 	4.247082513E8	 	1.2505E-8	 	1579.49565	31.91759	 
810.0	1.0	0.0	7.56915	7.21003	-9.47911	15.83993	20.21272	1.31289	0.76168	151.94406	148.39647	57.1498	0.32935	 	4.862077572E8	 	1.08731E-8	 	1420.11753	31.87562	 
805.0	1.0	0.0	7.57133	7.20796	-9.50513	15.81406	20.15272	1.31073	0.76294	152.2819	148.61333	57.28247	0.32922	 	5.573112488E8	 	9.44209E-9	 	1260.9482	31.83387	 
800.0	1.0	0.0	7.5735	7.20589	-9.53108	15.78817	20.0927	1.30854	0.76421	152.61931	148.82949	57.415	0.32909	 	6.396259703E8	 	8.18881E-9	 	1101.98661	31.79232	 
795.0	1.0	0.0	7.57567	7.20383	-9.55697	15.76229	20.03267	1.30635	0.76549	152.95629	149.04496	57.54738	0.32896	 	7.350459346E8	 	7.09258E-9	 	943.23161	31.751	 
790.0	1.0	0.0	7.57783	7.20178	-9.58279	15.7364	19.97263	1.30414	0.76679	153.29284	149.25974	57.67963	0.32883	 	8.458062401E8	 	6.13494E-9	 	784.68204	31.70991	 
785.0	1.0	0.0	7.57999	7.19972	-9.60854	15.71051	19.91257	1.30192	0.76809	153.62896	149.47382	57.81175	0.3287	 	9.745482718E8	 	5.29945E-9	 	626.33667	31.66907	 
780.0	1.0	0.0	7.58214	7.19768	-9.63422	15.68461	19.8525	1.29969	0.76941	153.96465	149.68722	57.94372	0.32857	 	1.124398085E9	 	4.57148E-9	 	468.19425	31.62849	 
775.0	1.0	0.0	7.58429	7.19564	-9.65984	15.65871	19.79242	1.29745	0.77074	154.29991	149.89994	58.07555	0.32844	 	1.299060779E9	 	3.93804E-9	 	310.25343	31.58816	 
770.0	1.0	0.0	7.58644	7.1936	-9.68538	15.63281	19.73232	1.29519	0.77209	154.63475	150.11197	58.20725	0.32831	 	1.502934308E9	 	3.38761E-9	 	152.51283	31.54812	 
765.0	1.0	0.0	7.58858	7.19157	-9.71087	15.6069	19.67221	1.29292	0.77344	154.96915	150.32332	58.33881	0.32818	 	1.741246939E9	 	2.90996E-9	 	-5.02901	31.50837	 
760.0	1.0	0.0	7.59072	7.18955	-9.73628	15.581	19.61208	1.29064	0.77481	155.30313	150.53399	58.47023	0.32805	 	2.020223541E9	 	2.49603E-9	 	-162.37359	31.46892	 
755.0	1.0	0.0	7.59285	7.18753	-9.76163	15.55508	19.55194	1.28835	0.77619	155.63669	150.74398	58.60151	0.32792	 	2.347287085E9	 	2.13785E-9	 	-319.52251	31.42978	 
750.0	1.0	0.0	7.59498	7.18552	-9.78691	15.52917	19.49179	1.28604	0.77758	155.96981	150.9533	58.73266	0.32779	 	2.731303203E9	 	1.82834E-9	 	-476.47745	31.39099	 
745.0	1.0	0.0	7.5971	7.18351	-9.81212	15.50325	19.43162	1.28372	0.77899	156.30251	151.16195	58.86366	0.32767	 	3.182877509E9	 	1.56127E-9	 	-633.24013	31.35254	 
740.0	1.0	0.0	7.59922	7.18151	-9.83727	15.47733	19.37143	1.28138	0.78041	156.63478	151.36993	58.99453	0.32754	 	3.714717674E9	 	1.33117E-9	 	-789.8124	31.31445	 
735.0	1.0	0.0	7.60133	7.17951	-9.86235	15.4514	19.31122	1.27903	0.78184	156.96663	151.57723	59.12527	0.32741	 	4.342075121E9	 	1.13322E-9	 	-946.1962	31.27676	 
730.0	1.0	0.0	7.60344	7.17752	-9.88736	15.42547	19.251	1.27667	0.78329	157.29806	151.78388	59.25586	0.32728	 	5.083284778E9	 	9.63182E-10	 	-1102.39353	31.23947	 
725.0	1.0	0.0	7.60555	7.17553	-9.9123	15.39954	19.19077	1.27429	0.78475	157.62905	151.98985	59.38632	0.32715	 	5.96042583E9	 	8.17345E-10	 	-1258.40654	31.2026	 
720.0	1.0	0.0	7.60765	7.17355	-9.93718	15.37361	19.13051	1.2719	0.78622	157.95963	152.19517	59.51664	0.32702	 	7.000132046E9	 	6.92461E-10	 	-1414.23747	31.16619	 
715.0	1.0	0.0	7.60975	7.17157	-9.96199	15.34767	19.07024	1.2695	0.78771	158.28978	152.39982	59.64682	0.32689	 	8.234587335E9	 	5.8569E-10	 	-1569.88868	31.13024	 
710.0	1.0	0.0	7.61184	7.1696	-9.98673	15.32173	19.00996	1.26708	0.78921	158.6195	152.60382	59.77687	0.32676	 	9.702751142E9	 	4.94552E-10	 	-1725.36266	31.0948	 
705.0	1.0	0.0	7.61392	7.16764	-10.0114	15.29578	18.94965	1.26465	0.79073	158.9488	152.80716	59.90677	0.32663	 	1.14519E10	 	4.16885E-10	 	-1880.66206	31.05988	 
700.0	1.0	0.0	7.61601	7.16568	-10.03601	15.26983	18.88933	1.2622	0.79227	159.27768	153.00985	60.03655	0.32651	 	1.3539299999999998E10	 	3.50808E-10	 	-2035.78962	31.02551	 
695.0	1.0	0.0	7.61808	7.16372	-10.06055	15.24388	18.82898	1.25974	0.79381	159.60614	153.21188	60.16618	0.32638	 	1.6034999999999998E10	 	2.94686E-10	 	-2190.74831	30.99174	 
690.0	1.0	0.0	7.62016	7.16177	-10.08502	15.21793	18.76862	1.25727	0.79538	159.93417	153.41326	60.29568	0.32625	 	1.90241E10	 	2.47102E-10	 	-2345.5412	30.95858	 
685.0	1.0	0.0	7.62223	7.15983	-10.10943	15.19197	18.70824	1.25478	0.79695	160.26179	153.614	60.42504	0.32612	 	2.26107E10	 	2.06826E-10	 	-2500.17158	30.92608	 
680.0	1.0	0.0	7.62429	7.15789	-10.13377	15.16601	18.64784	1.25227	0.79855	160.58898	153.81408	60.55426	0.32599	 	2.6922299999999996E10	 	1.72797E-10	 	-2654.6429	30.89426	 
675.0	1.0	0.0	7.62635	7.15596	-10.15804	15.14004	18.58742	1.24975	0.80016	160.91574	154.01353	60.68335	0.32586	 	3.2114999999999996E10	 	1.44097E-10	 	-2808.95886	30.86319	 
670.0	1.0	0.0	7.62841	7.15403	-10.18224	15.11407	18.52698	1.24722	0.80178	161.24209	154.21233	60.8123	0.32574	 	3.8381E10	 	1.19936E-10	 	-2963.12333	30.83289	 
665.0	1.0	0.0	7.63046	7.15211	-10.20638	15.0881	18.46652	1.24467	0.80343	161.56802	154.41049	60.94111	0.32561	 	4.59568E10	 	9.96343E-11	 	-3117.14046	30.80343	 
660.0	1.0	0.0	7.6325	7.15019	-10.23044	15.06213	18.40604	1.2421	0.80509	161.89353	154.60801	61.06979	0.32548	 	5.513429999999999E10	 	8.26069E-11	 	-3271.0031	30.77253	 
655.0	1.0	0.0	7.63454	7.14828	-10.25444	15.03615	18.34553	1.23952	0.80676	162.21861	154.8049	61.19833	0.32535	 	6.627439999999999E10	 	6.83532E-11	 	-3424.64726	30.72883	 
650.0	1.0	0.0	7.63658	7.14637	-10.27838	15.01017	18.28501	1.23692	0.80846	162.54328	155.00115	61.32674	0.32522	 	7.98244E10	 	5.64447E-11	 	-3577.98801	30.66815	 
645.0	1.0	0.0	7.63861	7.14447	-10.30224	14.98418	18.22446	1.23431	0.81017	162.86752	155.19676	61.45501	0.3251	 	9.633969999999998E10	 	4.65152E-11	 	-3731.02674	30.60775	 
640.0	1.0	0.0	7.64064	7.14258	-10.32604	14.95819	18.16389	1.23168	0.8119	163.19135	155.39175	61.58314	0.32497	 	1.16512E11	 	3.82525E-11	 	-3883.76482	30.54762	 
635.0	1.0	0.0	7.64266	7.14068	-10.34977	14.9322	18.10329	1.22904	0.81364	163.51476	155.5861	61.71113	0.32484	 	1.41202E11	 	3.13908E-11	 	-4036.20363	30.48776	 
630.0	1.0	0.0	7.64468	7.1388	-10.37344	14.90621	18.04268	1.22638	0.81541	163.83775	155.77983	61.83899	0.32471	 	1.7149E11	 	2.57044E-11	 	-4188.34451	30.42818	 
625.0	1.0	0.0	7.64669	7.13692	-10.39703	14.88021	17.98204	1.2237	0.81719	164.16032	155.97294	61.96672	0.32458	 	2.08726E11	 	2.10019E-11	 	-4340.18895	30.36889	 
620.0	1.0	0.0	7.6487	7.13505	-10.42056	14.85421	17.92137	1.22101	0.81899	164.48247	156.16542	62.0943	0.32446	 	2.54606E11	 	1.71215E-11	 	-4491.73848	30.30991	 
615.0	1.0	0.0	7.6507	7.13318	-10.44402	14.8282	17.86068	1.2183	0.82082	164.80421	156.35727	62.22176	0.32433	 	3.11267E11	 	1.39264E-11	 	-4642.99438	30.25118	 
610.0	1.0	0.0	7.6527	7.13131	-10.46741	14.8022	17.79996	1.21557	0.82266	165.12553	156.54851	62.34907	0.3242	 	3.81404E11	 	1.13015E-11	 	-4793.95801	30.19273	 
605.0	1.0	0.0	7.6547	7.12946	-10.49074	14.77619	17.73922	1.21283	0.82452	165.44643	156.73913	62.47625	0.32407	 	4.68427E11	 	9.14983E-12	 	-4944.63071	30.13454	 
600.0	1.0	0.0	7.65669	7.1276	-10.514	14.75017	17.67845	1.21007	0.8264	165.76691	156.92913	62.60329	0.32395	 	5.76662E11	 	7.39016E-12	 	-5095.01385	30.07663	 
595.0	1.0	0.0	7.65867	7.12576	-10.53719	14.72415	17.61766	1.20729	0.8283	166.08698	157.11852	62.7302	0.32382	 	7.11608E11	 	5.95443E-12	 	-5245.10879	30.01899	 
590.0	1.0	0.0	7.66065	7.12392	-10.56031	14.69813	17.55683	1.2045	0.83022	166.40663	157.30729	62.85697	0.32369	 	8.80275E11	 	4.7858E-12	 	-5394.91686	29.96161	 
585.0	1.0	0.0	7.66263	7.12208	-10.58336	14.67211	17.49598	1.20169	0.83216	166.72586	157.49546	62.98361	0.32357	 	1.09162E12	 	3.83688E-12	 	-5544.43942	29.90451	 
580.0	1.0	0.0	7.6646	7.12025	-10.60635	14.64608	17.4351	1.19886	0.83413	167.04468	157.68301	63.11011	0.32344	 	1.35713E12	 	3.06825E-12	 	-5693.67782	29.84768	 
575.0	1.0	0.0	7.66656	7.11842	-10.62927	14.62005	17.37419	1.19601	0.83611	167.36308	157.86996	63.23648	0.32331	 	1.69155E12	 	2.44723E-12	 	-5842.63339	29.79111	 
570.0	1.0	0.0	7.66852	7.1166	-10.65212	14.59401	17.31325	1.19314	0.83812	167.68107	158.05629	63.36271	0.32318	 	2.1139E12	 	1.94674E-12	 	-5991.30748	29.73482	 
565.0	1.0	0.0	7.67048	7.11479	-10.67491	14.56798	17.25228	1.19026	0.84015	167.99864	158.24203	63.4888	0.32306	 	2.64873E12	 	1.54444E-12	 	-6139.70143	29.67879	 
560.0	1.0	0.0	7.67243	7.11298	-10.69762	14.54194	17.19128	1.18736	0.84221	168.31579	158.42716	63.61476	0.32293	 	3.32787E12	 	1.22192E-12	 	-6287.81657	29.62303	 
555.0	1.0	0.0	7.67438	7.11117	-10.72027	14.51589	17.13025	1.18444	0.84428	168.63254	158.6117	63.74058	0.3228	 	4.19268E12	 	9.64059E-13	 	-6435.65425	29.56754	 
550.0	1.0	0.0	7.67632	7.10938	-10.74285	14.48984	17.06919	1.1815	0.84638	168.94886	158.79563	63.86627	0.32268	 	5.29709E12	 	7.58453E-13	 	-6583.21579	29.51231	 
545.0	1.0	0.0	7.67826	7.10758	-10.76537	14.46379	17.00809	1.17854	0.84851	169.26478	158.97896	63.99182	0.32255	 	6.71155E12	 	5.94972E-13	 	-6730.50251	29.45734	 
540.0	1.0	0.0	7.68019	7.10579	-10.78781	14.43774	16.94696	1.17556	0.85066	169.58027	159.1617	64.11723	0.32242	 	8.52851E12	 	4.65355E-13	 	-6877.51574	29.40265	 
535.0	1.0	0.0	7.68211	7.10401	-10.81019	14.41168	16.88579	1.17256	0.85283	169.89536	159.34385	64.24252	0.3223	 	1.08695E13	 	3.62884E-13	 	-7024.25681	29.34821	 
530.0	1.0	0.0	7.68404	7.10224	-10.8325	14.38562	16.82459	1.16955	0.85503	170.21003	159.5254	64.36766	0.32217	 	1.3895E13	 	2.82113E-13	 	-7170.72705	29.29405	 
525.0	1.0	0.0	7.68595	7.10046	-10.85474	14.35956	16.76336	1.16651	0.85726	170.52429	159.70636	64.49267	0.32204	 	1.78174E13	 	2.18638E-13	 	-7316.92775	29.24014	 
520.0	1.0	0.0	7.68787	7.0987	-10.87692	14.33349	16.70209	1.16346	0.85951	170.83814	159.88674	64.61755	0.32192	 	2.29188E13	 	1.68908E-13	 	-7462.86024	29.1865	 
515.0	1.0	0.0	7.68977	7.09694	-10.89902	14.30742	16.64078	1.16038	0.86178	171.15157	160.06652	64.74229	0.32179	 	2.95751E13	 	1.30068E-13	 	-7608.52582	29.13312	 
510.0	1.0	0.0	7.69168	7.09518	-10.92106	14.28135	16.57943	1.15729	0.86409	171.46459	160.24572	64.86689	0.32166	 	3.82891E13	 	9.98291E-14	 	-7753.92581	29.08	 
505.0	1.0	0.0	7.69357	7.09343	-10.94303	14.25527	16.51804	1.15417	0.86642	171.7772	160.42434	64.99136	0.32154	 	4.97352E13	 	7.63635E-14	 	-7899.0615	29.02714	 
500.0	1.0	0.0	7.69547	7.09169	-10.96494	14.22919	16.45662	1.15104	0.86878	172.08939	160.60237	65.11569	0.32141	 	6.4822E13	 	5.82141E-14	 	-8043.9342	28.97454	 
495.0	1.0	0.0	7.69735	7.08995	-10.98677	14.2031	16.39515	1.14788	0.87117	172.40118	160.77982	65.23989	0.32129	 	8.47772E13	 	4.42236E-14	 	-8188.5452	28.9222	 
490.0	1.0	0.0	7.69924	7.08821	-11.00854	14.17702	16.33364	1.1447	0.87359	172.71255	160.9567	65.36396	0.32116	 	1.11266E14	 	3.3476E-14	 	-8332.89579	28.87012	 
485.0	1.0	0.0	7.70111	7.08649	-11.03024	14.15093	16.27209	1.14151	0.87604	173.02351	161.13299	65.48789	0.32103	 	1.46556E14	 	2.52486E-14	 	-8476.98727	28.8183	 
480.0	1.0	0.0	7.70299	7.08476	-11.05187	14.12483	16.2105	1.13829	0.87851	173.33406	161.30871	65.61168	0.32091	 	1.93747E14	 	1.89729E-14	 	-8620.82092	28.76673	 
475.0	1.0	0.0	7.70486	7.08304	-11.07343	14.09874	16.14886	1.13504	0.88102	173.6442	161.48386	65.73534	0.32078	 	2.5708899999999997E14	 	1.42034E-14	 	-8764.398	28.71542	 
470.0	1.0	0.0	7.70672	7.08133	-11.09493	14.07264	16.08718	1.13178	0.88356	173.95393	161.65843	65.85886	0.32066	 	3.42442E14	 	1.05919E-14	 	-8907.71981	28.66436	 
465.0	1.0	0.0	7.70858	7.07963	-11.11636	14.04653	16.02545	1.1285	0.88613	174.26324	161.83243	65.98225	0.32053	 	4.57907E14	 	7.86781E-15	 	-9050.7876	28.61356	 
460.0	1.0	0.0	7.71043	7.07792	-11.13772	14.02042	15.96367	1.12519	0.88874	174.57215	162.00586	66.10551	0.32041	 	6.14736E14	 	5.82091E-15	 	-9193.60267	28.56301	 
455.0	1.0	0.0	7.71228	7.07623	-11.15901	13.99431	15.90185	1.12186	0.89138	174.88065	162.17872	66.22862	0.32028	 	8.28622E14	 	4.28895E-15	 	-9336.16624	28.51272	 
450.0	1.0	0.0	7.71412	7.07454	-11.18023	13.9682	15.83998	1.11851	0.89405	175.18873	162.35102	66.35161	0.32015	 	1.12155E15	 	3.147E-15	 	-9478.4796	28.46267	 
445.0	1.0	0.0	7.71596	7.07285	-11.20139	13.94208	15.77805	1.11514	0.89675	175.49641	162.52275	66.47446	0.32003	 	1.52444E15	 	2.29928E-15	 	-9620.54399	28.41288	 
440.0	1.0	0.0	7.71779	7.07117	-11.22248	13.91596	15.71608	1.11174	0.89949	175.80368	162.69391	66.59717	0.3199	 	2.08099E15	 	1.67262E-15	 	-9762.36065	28.36333	 
435.0	1.0	0.0	7.71962	7.0695	-11.2435	13.88984	15.65405	1.10832	0.90227	176.11053	162.86452	66.71975	0.31978	 	2.85324E15	 	1.21136E-15	 	-9903.93082	28.31403	 
430.0	1.0	0.0	7.72144	7.06783	-11.26445	13.86371	15.59196	1.10488	0.90508	176.41698	163.03456	66.8422	0.31965	 	3.92968E15	 	8.73327E-16	 	-10045.25575	28.26499	 
425.0	1.0	0.0	7.72326	7.06617	-11.28533	13.83758	15.52983	1.10141	0.90793	176.72302	163.20404	66.96451	0.31953	 	5.4371E15	 	6.26712E-16	 	-10186.33649	28.21615	 
420.0	1.0	0.0	7.72507	7.06451	-11.30615	13.81145	15.46763	1.09792	0.91082	177.02865	163.37297	67.08668	0.3194	 	7.55808E15	 	4.47613E-16	 	-10327.17453	28.16761	 
415.0	1.0	0.0	7.72688	7.06286	-11.3269	13.78531	15.40538	1.0944	0.91374	177.33387	163.54134	67.20872	0.31928	 	1.05569E16	 	3.18152E-16	 	-10467.77041	28.11918	 
410.0	1.0	0.0	7.72868	7.06121	-11.34758	13.75917	15.34307	1.09086	0.91671	177.63868	163.70916	67.33063	0.31915	 	1.48177E16	 	2.2502E-16	 	-10608.12438	28.07079	 
405.0	1.0	0.0	7.73048	7.05957	-11.36819	13.73303	15.2807	1.0873	0.91971	177.94309	163.87642	67.4524	0.31903	 	2.09026E16	 	1.58348E-16	 	-10748.23672	28.02247	 
400.0	1.0	0.0	7.73227	7.05793	-11.38873	13.70688	15.21826	1.08371	0.92276	178.24709	164.04313	67.57403	0.3189	 	2.96373E16	 	1.10856E-16	 	-10888.10766	27.97419	 
395.0	1.0	0.0	7.73406	7.0563	-11.4092	13.68073	15.15576	1.0801	0.92584	178.55067	164.20929	67.69553	0.31878	 	4.22421E16	 	7.71995E-17	 	-11027.73745	27.92596	 
390.0	1.0	0.0	7.73584	7.05468	-11.42961	13.65458	15.0932	1.07646	0.92897	178.85385	164.3749	67.8169	0.31865	 	6.05305E16	 	5.34717E-17	 	-11167.12632	27.87777	 
385.0	1.0	0.0	7.73762	7.05306	-11.44995	13.62842	15.03057	1.07279	0.93215	179.15663	164.53997	67.93813	0.31853	 	8.72121E16	 	3.68328E-17	 	-11306.2745	27.82964	 
380.0	1.0	0.0	7.73939	7.05144	-11.47022	13.60226	14.96787	1.0691	0.93536	179.45899	164.70449	68.05923	0.3184	 	1.26359E17	 	2.52285E-17	 	-11445.18222	27.78154	 
375.0	1.0	0.0	7.74116	7.04983	-11.49042	13.5761	14.9051	1.06539	0.93863	179.76095	164.86846	68.18019	0.31828	 	1.84129E17	 	1.71807E-17	 	-11583.84969	27.73349	 
370.0	1.0	0.0	7.74292	7.04823	-11.51056	13.54993	14.84226	1.06164	0.94194	180.0625	165.03189	68.30102	0.31815	 	2.69886E17	 	1.16311E-17	 	-11722.2771	27.68548	 
365.0	1.0	0.0	7.74467	7.04663	-11.53062	13.52376	14.77935	1.05787	0.94529	180.36365	165.19478	68.42171	0.31803	 	3.9796E17	 	7.82654E-18	 	-11860.46465	27.63751	 
360.0	1.0	0.0	7.74642	7.04504	-11.55062	13.49759	14.71636	1.05408	0.9487	180.66438	165.35713	68.54227	0.3179	 	5.90422E17	 	5.23396E-18	 	-11998.41253	27.58958	 
355.0	1.0	0.0	7.74817	7.04345	-11.57055	13.47142	14.65329	1.05025	0.95215	180.96472	165.51894	68.66269	0.31778	 	8.81483E17	 	3.47805E-18	 	-12136.12091	27.54168	 
350.0	1.0	0.0	7.74991	7.04187	-11.59041	13.44524	14.59015	1.0464	0.95565	181.26464	165.68022	68.78298	0.31766	 	1.32452E18	 	2.29626E-18	 	-12273.58997	27.49381	 
345.0	1.0	0.0	7.75165	7.04029	-11.61021	13.41905	14.52692	1.04253	0.95921	181.56416	165.84095	68.90314	0.31753	 	2.00338E18	 	1.50598E-18	 	-12410.81985	27.44598	 
340.0	1.0	0.0	7.75338	7.03872	-11.62993	13.39287	14.46361	1.03862	0.96282	181.86327	166.00116	69.02316	0.31741	 	3.05069E18	 	9.80969E-19	 	-12547.81068	27.39817	 
335.0	1.0	0.0	7.7551	7.03715	-11.64959	13.36668	14.40021	1.03468	0.96648	182.16198	166.16083	69.14304	0.31728	 	4.67775E18	 	6.34542E-19	 	-12684.56263	27.35039	 
330.0	1.0	0.0	7.75682	7.03559	-11.66918	13.34048	14.33672	1.03072	0.97019	182.46028	166.31997	69.26279	0.31716	 	7.2236E18	 	4.07529E-19	 	-12821.07579	27.30263	 
325.0	1.0	0.0	7.75854	7.03404	-11.6887	13.31429	14.27314	1.02673	0.97397	182.75817	166.47857	69.38241	0.31704	 	1.12363E19	 	2.59819E-19	 	-12957.35028	27.2549	 
320.0	1.0	0.0	7.76024	7.03249	-11.70815	13.28809	14.20947	1.02271	0.97779	183.05566	166.63665	69.50189	0.31691	 	1.76089E19	 	1.64407E-19	 	-13093.38619	27.20718	 
315.0	1.0	0.0	7.76195	7.03095	-11.72753	13.26189	14.14571	1.01866	0.98168	183.35274	166.7942	69.62124	0.31679	 	2.78071E19	 	1.03233E-19	 	-13229.18361	27.15949	 
310.0	1.0	0.0	7.76365	7.02941	-11.74685	13.23568	14.08184	1.01458	0.98563	183.64942	166.95123	69.74045	0.31666	 	4.42569E19	 	6.4311E-20	 	-13364.7426	27.1118	 
305.0	1.0	0.0	7.76534	7.02787	-11.76609	13.20947	14.01788	1.01047	0.98964	183.94569	167.10773	69.85953	0.31654	 	7.10066E19	 	3.97401E-20	 	-13500.06323	27.06413	 
300.0	1.0	0.0	7.76703	7.02635	-11.78527	13.18326	13.95381	1.00633	0.99371	184.24156	167.2637	69.97847	0.31642	 	1.1486799999999998E20	 	2.43532E-20	 	-13635.14552	27.01646	 
295.0	1.0	0.0	7.76871	7.02482	-11.80438	13.15704	13.88963	1.00216	0.99784	184.53703	167.41916	70.09728	0.31629	 	1.87402E20	 	1.47971E-20	 	-13769.98951	26.9688	 
290.0	1.0	0.0	7.77039	7.02331	-11.82342	13.13082	13.82535	0.99796	1.00204	184.83208	167.57409	70.21595	0.31617	 	3.08408E20	 	8.91221E-21	 	-13904.5952	26.92114	 
285.0	1.0	0.0	7.77206	7.0218	-11.84239	13.1046	13.76095	0.99373	1.00631	185.12674	167.7285	70.33449	0.31605	 	5.1209799999999993E20	 	5.31967E-21	 	-14038.96257	26.87347	 
280.0	1.0	0.0	7.77373	7.02029	-11.8613	13.07837	13.69643	0.98947	1.01064	185.42099	167.8824	70.45289	0.31592	 	8.581459999999999E20	 	3.14607E-21	 	-14173.09161	26.82581	 
275.0	1.0	0.0	7.77539	7.01879	-11.88013	13.05214	13.6318	0.98517	1.01505	185.71483	168.03578	70.57116	0.3158	 	1.45164E21	 	1.843E-21	 	-14306.98226	26.77813	 
270.0	1.0	0.0	7.77705	7.0173	-11.8989	13.02591	13.56704	0.98085	1.01953	186.00828	168.18864	70.6893	0.31567	 	2.47949E21	 	1.06916E-21	 	-14440.63447	26.73044	 
265.0	1.0	0.0	7.7787	7.01581	-11.9176	12.99968	13.50216	0.97649	1.02408	186.30131	168.34098	70.8073	0.31555	 	4.27745E21	 	6.14052E-22	 	-14574.04814	26.68273	 
260.0	1.0	0.0	7.78034	7.01432	-11.93623	12.97344	13.43714	0.97209	1.02871	186.59395	168.49282	70.92516	0.31543	 	7.45503E21	 	3.49049E-22	 	-14707.22315	26.635	 
255.0	1.0	0.0	7.78198	7.01284	-11.95479	12.94719	13.37199	0.96767	1.03341	186.88618	168.64414	71.04289	0.31531	 	1.3130499999999998E22	 	1.96319E-22	 	-14840.1594	26.58725	 
250.0	1.0	0.0	7.78362	7.01137	-11.97329	12.92095	13.3067	0.96321	1.03819	187.178	168.79495	71.16049	0.31518	 	2.3378299999999998E22	 	1.09219E-22	 	-14972.85672	26.53946	 
245.0	1.0	0.0	7.78525	7.0099	-11.99171	12.8947	13.24127	0.95872	1.04306	187.46943	168.94526	71.27795	0.31506	 	4.20901E22	 	6.00844E-23	 	-15105.31493	26.49164	 
240.0	1.0	0.0	7.78687	7.00844	-12.01007	12.86845	13.17569	0.95419	1.048	187.76044	169.09505	71.39528	0.31494	 	7.6652E22	 	3.26744E-23	 	-15237.53383	26.44378	 
235.0	1.0	0.0	7.78849	7.00698	-12.02836	12.84219	13.10996	0.94963	1.05304	188.05106	169.24434	71.51247	0.31481	 	1.41251E23	 	1.75585E-23	 	-15369.5132	26.39587	 
230.0	1.0	0.0	7.7901	7.00553	-12.04658	12.81593	13.04407	0.94504	1.05816	188.34127	169.39312	71.62953	0.31469	 	2.6347099999999998E23	 	9.32076E-24	 	-15501.25277	26.34791	 
225.0	1.0	0.0	7.79171	7.00409	-12.06473	12.78967	12.97802	0.94041	1.06336	188.63108	169.5414	71.74645	0.31457	 	4.97635E23	 	4.88581E-24	 	-15632.75225	26.2999	 
220.0	1.0	0.0	7.79331	7.00265	-12.08281	12.7634	12.9118	0.93575	1.06867	188.92049	169.68918	71.86324	0.31444	 	9.521129999999999E23	 	2.528E-24	 	-15764.01132	26.25181	 
215.0	1.0	0.0	7.79491	7.00121	-12.10082	12.73714	12.84541	0.93105	1.07406	189.2095	169.83645	71.97989	0.31432	 	1.84603E24	 	1.29063E-24	 	-15895.02963	26.20366	 
210.0	1.0	0.0	7.7965	6.99978	-12.11877	12.71086	12.77884	0.92631	1.07955	189.4981	169.98323	72.09641	0.3142	 	3.62861E24	 	6.49872E-25	 	-16025.80679	26.15543	 
205.0	1.0	0.0	7.79809	6.99836	-12.13665	12.68459	12.71209	0.92154	1.08514	189.7863	170.1295	72.2128	0.31408	 	7.23404E24	 	3.22604E-25	 	-16156.34238	26.10712	 
200.0	1.0	0.0	7.79967	6.99694	-12.15445	12.65831	12.64514	0.91673	1.09083	190.0741	170.27528	72.32905	0.31395	 	1.46337E25	 	1.57809E-25	 	-16286.63594	26.05871	 
195.0	1.0	0.0	7.80125	6.99553	-12.17219	12.63203	12.578	0.91188	1.09663	190.36149	170.42056	72.44516	0.31383	 	3.0051300000000003E25	 	7.60342E-26	 	-16416.68697	26.01021	 
190.0	1.0	0.0	7.80282	6.99412	-12.18986	12.60574	12.51065	0.907	1.10253	190.64848	170.56534	72.56114	0.31371	 	6.26785E25	 	3.60653E-26	 	-16546.49493	25.96159	 
185.0	1.0	0.0	7.80438	6.99272	-12.20747	12.57945	12.44309	0.90208	1.10855	190.93507	170.70963	72.67699	0.31359	 	1.3284400000000001E26	 	1.68326E-26	 	-16676.05922	25.91286	 
180.0	1.0	0.0	7.80594	6.99132	-12.225	12.55316	12.37531	0.89712	1.11467	191.22126	170.85343	72.7927	0.31346	 	2.8626400000000004E26	 	7.72612E-27	 	-16805.37921	25.864	 
175.0	1.0	0.0	7.80749	6.98993	-12.24246	12.52687	12.30731	0.89213	1.12092	191.50705	170.99673	72.90827	0.31334	 	6.275250000000001E26	 	3.48561E-27	 	-16934.45422	25.815	 
170.0	1.0	0.0	7.80904	6.98855	-12.25986	12.50057	12.23907	0.88709	1.12728	191.79243	171.13954	73.02371	0.31322	 	1.4001899999999998E27	 	1.54472E-27	 	-17063.28351	25.76586	 
165.0	1.0	0.0	7.81058	6.98717	-12.27719	12.47427	12.17058	0.88202	1.13376	192.07742	171.28187	73.13902	0.3131	 	3.18198E27	 	6.72067E-28	 	-17191.86628	25.71655	 
160.0	1.0	0.0	7.81212	6.98579	-12.29444	12.44796	12.10184	0.87691	1.14037	192.362	171.4237	73.25419	0.31298	 	7.36951E27	 	2.86871E-28	 	-17320.20169	25.66708	 
155.0	1.0	0.0	7.81365	6.98442	-12.31163	12.42165	12.03284	0.87175	1.14711	192.64618	171.56505	73.36923	0.31285	 	1.7406000000000001E28	 	1.20056E-28	 	-17448.28882	25.61743	 
150.0	1.0	0.0	7.81518	6.98306	-12.32875	12.39534	11.96357	0.86656	1.15399	192.92996	171.70591	73.48413	0.31273	 	4.19547E28	 	4.92267E-29	 	-17576.12671	25.56758	 
145.0	1.0	0.0	7.8167	6.9817	-12.34581	12.36903	11.89401	0.86133	1.16099	193.21334	171.84629	73.5989	0.31261	 	1.03276E29	 	1.97615E-29	 	-17703.71428	25.51751	 
140.0	1.0	0.0	7.81821	6.98035	-12.36279	12.34271	11.82416	0.85606	1.16814	193.49632	171.98619	73.71353	0.31249	 	2.59829E29	 	7.76082E-30	 	-17831.05044	25.46723	 
135.0	1.0	0.0	7.81972	6.979	-12.3797	12.31639	11.754	0.85075	1.17544	193.77889	172.1256	73.82802	0.31237	 	6.686390000000001E29	 	2.9793E-30	 	-17958.13397	25.41671	 
130.0	1.0	0.0	7.82123	6.97766	-12.39655	12.29006	11.68352	0.84539	1.18288	194.06107	172.26453	73.94239	0.31225	 	1.76149E30	 	1.11705E-30	 	-18084.96359	25.36593	 
125.0	1.0	0.0	7.82272	6.97632	-12.41333	12.26373	11.61271	0.84	1.19048	194.34284	172.40298	74.05661	0.31212	 	4.75481E30	 	4.08696E-31	 	-18211.53794	25.31487	 
120.0	1.0	0.0	7.82422	6.97499	-12.43003	12.2374	11.54155	0.83456	1.19823	194.62421	172.54095	74.17071	0.312	 	1.3163E31	 	1.45777E-31	 	-18337.85555	25.26352	 
115.0	1.0	0.0	7.8257	6.97367	-12.44667	12.21106	11.47004	0.82909	1.20614	194.90519	172.67844	74.28466	0.31188	 	3.74086E31	 	5.06424E-32	 	-18463.91486	25.21186	 
110.0	1.0	0.0	7.82718	6.97235	-12.46324	12.18473	11.39815	0.82357	1.21423	195.18576	172.81546	74.39848	0.31176	 	1.09251E32	 	1.7117E-32	 	-18589.71419	25.15987	 
105.0	1.0	0.0	7.82866	6.97103	-12.47974	12.15839	11.32587	0.81801	1.22248	195.46593	172.952	74.51217	0.31164	 	3.28239E32	 	5.6229E-33	 	-18715.25177	25.10752	 
100.0	1.0	0.0	7.83013	6.96972	-12.49618	12.13204	11.25317	0.81241	1.23091	195.7457	173.08807	74.62572	0.31152	 	1.01568E33	 	1.79313E-33	 	-18840.52569	25.05478	 
95.0	1.0	0.0	7.8316	6.96842	-12.51254	12.10569	11.18006	0.80676	1.23952	196.02508	173.22366	74.73914	0.3114	 	3.24079E33	 	5.54448E-34	 	-18965.53392	25.00165	 
90.0	1.0	0.0	7.83305	6.96712	-12.52884	12.07934	11.10649	0.80108	1.24832	196.30405	173.35878	74.85242	0.31127	 	1.06762E34	 	1.66018E-34	 	-19090.27428	24.94807	 
85.0	1.0	0.0	7.83451	6.96583	-12.54506	12.05299	11.03246	0.79535	1.25731	196.58262	173.49343	74.96557	0.31115	 	3.63616E34	 	4.80738E-35	 	-19214.74447	24.89404	 
80.0	1.0	0.0	7.83595	6.96454	-12.56122	12.02663	10.95794	0.78958	1.26649	196.86079	173.62761	75.07858	0.31103	 	1.2821499999999999E35	 	1.34433E-35	 	-19338.94201	24.83951	 
75.0	1.0	0.0	7.8374	6.96326	-12.57731	12.00027	10.8829	0.78377	1.27589	197.13856	173.76132	75.19146	0.31091	 	4.6876399999999996E35	 	3.62492E-36	 	-19462.86425	24.78445	 
70.0	1.0	0.0	7.83883	6.96198	-12.59332	11.9739	10.80733	0.77791	1.28549	197.41593	173.89456	75.3042	0.31079	 	1.77983E36	 	9.41007E-37	 	-19586.50836	24.72882	 
65.0	1.0	0.0	7.84026	6.96071	-12.60927	11.94753	10.7312	0.77202	1.29531	197.6929	174.02733	75.41681	0.31067	 	7.02968E36	 	2.3478E-37	 	-19709.87132	24.67259	 
60.0	1.0	0.0	7.84169	6.95945	-12.62515	11.92116	10.65447	0.76608	1.30535	197.96947	174.15964	75.52928	0.31055	 	2.8933499999999997E37	 	5.61987E-38	 	-19832.94992	24.61572	 
55.0	1.0	0.0	7.84311	6.95819	-12.64097	11.89479	10.57712	0.7601	1.31562	198.24565	174.29149	75.64162	0.31043	 	1.24334E38	 	1.28816E-38	 	-19955.74069	24.55815	 
50.0	1.0	0.0	7.84452	6.95694	-12.65671	11.86841	10.49912	0.75408	1.32612	198.52142	174.42287	75.75382	0.31031	 	5.5895199999999994E38	 	2.82174E-39	 	-20078.23994	24.49985	 
45.0	1.0	0.0	7.84593	6.95569	-12.67238	11.84203	10.42043	0.74802	1.33687	198.79679	174.55379	75.86588	0.31019	 	2.6343700000000003E39	 	5.89443E-40	 	-20200.4437	24.44075	 
40.0	1.0	0.0	7.84733	6.95444	-12.68799	11.81564	10.34102	0.74192	1.34786	199.07177	174.68425	75.97781	0.31007	 	1.30461E40	 	1.17155E-40	 	-20322.34773	24.38081	 
35.0	1.0	0.0	7.84873	6.95321	-12.70352	11.78926	10.26084	0.73578	1.35911	199.34634	174.81425	76.08961	0.30994	 	6.80504E40	 	2.21013E-41	 	-20443.94749	24.31995	 
30.0	1.0	0.0	7.85012	6.95198	-12.71899	11.76287	10.17986	0.7296	1.37062	199.62052	174.94378	76.20127	0.30982	 	3.74839E41	 	3.9473E-42	 	-20565.2381	24.25812	 
25.0	1.0	0.0	7.8515	6.95075	-12.73439	 	10.09802	0.72338	1.3824	199.89429	175.07286	76.31279	0.3097	 	2.18631E42	 	6.65594E-43	 	-20686.21431	 	 
