T (C)	Fraction solid (wt)-TOTAL	Fraction liquid (wt)-LIQUID	Density (g/(cm)^3)-TOTAL	Molar volume (cm^3)-TOTAL	Volume change (%)-  	Average expansion coeff. (10e-6 1/K)-  	Thermal conductivity (W/(m*K))-TOTAL	Electrical resistivity (10e-6 Ohm*m)-TOTAL	Electrical conductivity (10e6 1/(Ohm*m))-TOTAL	Young's modulus (GPa)-TOTAL	Bulk modulus (GPa)-TOTAL	Shear modulus(GPa)-TOTAL	Poisson's ratio-TOTAL	Liquid viscosity (mPa s)-  	Total viscosity (mPa s)-  	Liquid diffusivity (10e-9 (m^2)/s)-  	Total diffusivity (10e-9 (m^2)/s)-  	Surface Tension (mN/m)-  	Enthalpy (J/mole)-TOTAL	Specific heat (J/(mole K))-TOTAL	Latent heat (J/mole)-TOTAL
1400.0	0.0	1.0	7.52976	7.80111	0.0	27.87782	28.05067	1.46136	0.68429	0.0	127.1789	0.0	0.5	8.07425	8.07425	1.01139	1.01139	1803.81281	53803.957	 	0.0
1395.0	0.0	1.0	7.53378	7.79695	-0.0533063	27.83495	27.98017	1.46067	0.68462	0.0	127.33748	0.0	0.5	8.16325	8.16325	0.99738	0.99738	1807.00664	53597.323	41.3268	0.0
1390.0	0.0	1.0	7.53779	7.7928	-0.10646	27.79219	27.90966	1.45997	0.68495	0.0	127.49606	0.0	0.5	8.25378	8.25378	0.98348	0.98348	1810.22718	53391.181	41.2284	0.0
1385.0	0.0	1.0	7.54179	7.78867	-0.15945	27.74954	27.83915	1.45926	0.68528	0.0	127.65463	0.0	0.5	8.34587	8.34587	0.9697	0.9697	1813.47435	53185.528	41.1306	0.0
1380.0	0.0	1.0	7.54578	7.78455	-0.21229	27.707	27.76865	1.45856	0.68561	0.0	127.81321	0.0	0.5	8.43956	8.43956	0.95605	0.95605	1816.74805	52980.362	41.0332	0.0
1375.0	0.0	1.0	7.54977	7.78044	-0.26497	27.66458	27.69814	1.45785	0.68594	0.0	127.97179	0.0	0.5	8.53487	8.53487	0.94251	0.94251	1820.04817	52775.679	40.9366	0.0
1370.0	0.0	1.0	7.55375	7.77634	-0.3175	27.62227	27.62764	1.45713	0.68628	0.0	128.13036	0.0	0.5	8.63185	8.63185	0.92909	0.92909	1823.37459	52571.478	40.8402	0.0
1365.0	0.0	1.0	7.55772	7.77225	-0.36988	27.58008	27.55713	1.45642	0.68662	0.0	128.28894	0.0	0.5	8.73054	8.73054	0.9158	0.9158	1826.72718	52367.755	40.7446	0.0
1361.34	0.0	1.0	7.56062	7.76927	-0.40815	27.54923	27.50547	1.45589	0.68687	0.0	128.40514	0.0	0.5	8.80395	8.80395	0.90613	0.90613	1829.2003	52218.783	40.6614	0.0
1360.0	0.0478301	0.95217	7.57225	7.7574	-0.56027	27.15333	27.64255	1.44748	0.69085	5.07937E-4	128.54169	1.70058E-4	0.49342	8.83177	9.58865	0.90254	0.8313	1828.52939	51453.553	572.65693	710.954
1355.0	0.20925	0.79075	7.61183	7.71701	-1.07807	25.80841	28.10967	1.41907	0.70469	0.19061	128.95711	0.0647914	0.47098	8.93647	82.57586	0.88923	0.0962339	1826.0228	48866.615	517.3876	3095.118
1350.0	0.3362	0.6638	7.64364	7.68494	-1.48911	24.75283	28.47775	1.39643	0.71611	1.29593	129.30464	0.44593	0.45308	9.04253	515.81694	0.8761	0.0153585	1823.58179	46805.557	412.2116	4953.873
1345.0	0.4375	0.5625	7.66961	7.65892	-1.82264	23.90748	28.77091	1.37794	0.72572	3.77912	129.60894	1.31346	0.43861	9.15008	1546.67846	0.86314	0.00510629	1821.22721	45135.903	333.9308	6421.692
1340.0	0.51938	0.48062	7.69114	7.63754	-2.0967	23.2238	29.00528	1.36259	0.7339	7.61355	129.89063	2.66807	0.42679	9.25929	3252.57505	0.85032	0.00242066	1818.97386	43761.897	274.8012	7594.331
1335.0	0.58629	0.41371	7.70927	7.61961	-2.32661	22.66014	29.19181	1.34968	0.74091	12.51847	130.15806	4.41718	0.41702	9.37027	5611.37067	0.83765	0.00139876	1816.83446	42614.231	229.5332	8541.091
1330.0	0.64154	0.35846	7.7247	7.60445	-2.52096	22.19345	29.33884	1.33874	0.74697	18.14383	130.42022	6.43911	0.40888	9.48319	8558.62838	0.8251	9.14233E-4	1814.8161	41641.987	194.4488	9312.889
1325.0	0.68756	0.31244	7.73802	7.59142	-2.68789	21.80158	29.45319	1.32939	0.75223	24.17299	130.68087	8.62074	0.40202	9.5982	12024.02622	0.81267	6.48716E-4	1812.92494	40807.245	166.9484	9947.644
1320.0	0.72619	0.27381	7.74962	7.58014	-2.83251	21.4707	29.54011	1.32133	0.75681	30.34806	130.9428	10.86796	0.39622	9.7154	15943.9864	0.80035	4.87693E-4	1811.16332	40081.41	145.167	10473.947
1315.0	0.75887	0.24113	7.75987	7.57023	-2.95961	21.18771	29.60419	1.31433	0.76084	36.48603	131.20711	13.11265	0.39125	9.83501	20272.55612	0.78814	3.82358E-4	1809.53299	39442.67	127.748	10913.609
1310.0	0.78671	0.21329	7.76898	7.56144	-3.07224	20.94438	29.64893	1.30821	0.7644	42.45228	131.4747	15.30378	0.38699	9.95715	24974.46095	0.77602	3.09395E-4	1808.03333	38874.208	113.6924	11283.445
1305.0	0.81056	0.18944	7.77718	7.55356	-3.17324	20.73293	29.67753	1.30283	0.76756	48.17243	131.74583	17.41228	0.38329	10.08194	30035.81751	0.764	2.56446E-4	1806.66319	38362.931	102.2554	11596.544
1300.0	0.83112	0.16888	7.78461	7.54645	-3.26436	20.54865	29.69239	1.29805	0.77039	53.59098	132.02091	19.41603	0.38007	10.20951	35446.34801	0.75206	2.16613E-4	1805.41949	37898.549	92.8764	11863.194
1295.0	0.84894	0.15106	7.79141	7.53996	-3.3476	20.38594	29.69565	1.29378	0.77293	58.69382	132.29939	21.3084	0.37725	10.34006	41215.89831	0.7402	1.85699E-4	1804.30004	37472.909	85.128	12091.545
1290.0	0.86445	0.13555	7.79767	7.53402	-3.42377	20.24271	29.68898	1.28995	0.77523	63.46822	132.5816	23.08339	0.37476	10.47365	47354.13654	0.72843	1.61113E-4	1803.29983	37079.498	78.6822	12288.109
1285.0	0.87803	0.12197	7.80348	7.52852	-3.49421	20.11527	29.67385	1.28648	0.77732	67.92416	132.86701	24.74367	0.37256	10.61052	53884.6477	0.71674	1.41134E-4	1802.41547	36713.072	73.2852	12458.126
1280.0	0.88998	0.11002	7.8089	7.5234	-3.55984	20.00103	29.65138	1.28332	0.77923	72.07125	133.15513	26.29196	0.37059	10.75074	60832.4417	0.70512	1.24613E-4	1801.64333	36369.383	68.7378	12605.844
1275.0	0.90052	0.0994821	7.81399	7.5186	-3.62132	19.89824	29.62266	1.28043	0.78099	75.93054	133.44582	27.73541	0.36884	10.8945	68234.07441	0.69357	1.10738E-4	1800.97885	36044.964	64.8838	12734.727
1270.0	0.90986	0.0901401	7.8188	7.51409	-3.67925	19.80522	29.58856	1.27776	0.78262	79.52169	133.73894	29.08074	0.36726	11.04193	76130.12389	0.6821	9.89323E-5	1800.41767	35736.968	61.5992	12847.618
1265.0	0.91818	0.0818194	7.82337	7.50981	-3.73409	19.7207	29.54967	1.2753	0.78413	82.85843	134.03394	30.33263	0.36583	11.19315	84557.89554	0.67071	8.87833E-5	1799.95581	35443.044	58.7848	12946.868
1260.0	0.92561	0.0743907	7.82773	7.50574	-3.78626	19.64355	29.50666	1.27301	0.78554	85.96568	134.33059	31.5	0.36453	11.34833	93571.59246	0.65939	7.997E-5	1799.589	35161.241	56.3606	13034.424
1255.0	0.93227	0.067733	7.8319	7.50185	-3.83608	19.57287	29.46003	1.27086	0.78687	88.86067	134.62872	32.58898	0.36335	11.50765	103224.1665	0.64814	7.22556E-5	1799.31309	34889.928	54.2626	13111.915
1250.0	0.93825	0.0617467	7.83591	7.49813	-3.88381	19.50794	29.41021	1.26885	0.78811	91.56163	134.928	33.60614	0.36228	11.67121	113575.2505	0.63696	6.54554E-5	1799.12403	34627.739	52.4378	13180.706
1245.0	0.94365	0.0563489	7.83978	7.49454	-3.92978	19.44784	29.3576	1.26695	0.7893	94.08544	135.22832	34.55761	0.36128	11.83919	124691.0267	0.62586	5.94246E-5	1799.01857	34373.521	50.8436	13241.947
1240.0	0.94853	0.0514655	7.84352	7.49108	-3.97417	19.39209	29.30248	1.26515	0.79042	96.44803	135.5293	35.4492	0.36037	12.01175	136643.3546	0.61484	5.40481E-5	1798.99318	34126.299	49.4444	13296.612
1235.0	0.95296	0.047037	7.84715	7.48773	-4.01711	19.34032	29.24517	1.26345	0.79149	98.66311	135.83102	36.2859	0.35952	12.18902	149510.9279	0.6039	4.92332E-5	1799.04388	33885.24	48.2118	13345.529
1230.0	0.95699	0.043009	7.85068	7.48447	-4.05889	19.2917	29.18588	1.26181	0.79251	100.74373	136.13301	37.07252	0.35874	12.37117	163378.6321	0.59303	4.49049E-5	1799.16918	33649.638	47.1204	13389.405
1229.82	0.95712	0.0428764	7.8508	7.48436	-4.0603	19.29017	29.18376	1.26176	0.79254	100.81356	136.14361	37.09893	0.35871	12.37764	163882.4673	0.59265	4.47616E-5	1799.17416	33641.501	 	13390.834
1225.0	0.96293	0.037075	7.8543	7.48099	-4.1035	19.23393	29.13466	1.25983	0.79376	103.74147	136.45605	38.2068	0.35763	12.57351	180131.2855	0.58155	4.05932E-5	1799.2318	33387.194	52.4888	13460.534
1220.0	0.96821	0.0317857	7.85781	7.47761	-4.14679	19.17978	29.0806	1.25796	0.79494	106.51369	136.77636	39.25694	0.35662	12.78014	198137.307	0.57024	3.6781E-5	1799.33106	33133.662	50.7064	13523.163
1215.0	0.97287	0.0271293	7.86121	7.47433	-4.18881	19.12911	29.02376	1.2562	0.79605	109.04815	137.09362	40.21804	0.35571	12.99047	217450.0206	0.55912	3.34021E-5	1799.47028	32888.874	48.9576	13577.455
1210.75	0.97638	0.0236166	7.86402	7.47162	-4.22364	19.08853	28.97345	1.25479	0.79695	111.02824	137.3616	40.9696	0.35501	13.1725	234983.0171	0.54982	3.08215E-5	1799.61785	32686.855	 	13617.793
1210.0	0.97696	0.0230366	7.86456	7.47112	-4.23004	19.08051	28.96393	1.25457	0.79709	111.35959	137.40862	41.09544	0.35489	13.19674	238173.3123	0.54854	3.03934E-5	1799.59845	32651.249	47.525	13624.991
1205.32	0.98047	0.0195274	7.86792	7.46802	-4.26978	19.03109	28.90301	1.25324	0.79793	113.39251	137.7015	41.86785	0.35417	13.34855	259096.9788	0.54058	2.78507E-5	1799.50663	32430.189	 	13668.313
1205.32	0.98047	0.0195274	7.86792	7.46802	-4.26978	19.03109	28.90301	1.25324	0.79793	113.39251	137.7015	41.86785	0.35417	13.34855	259096.9403	0.54058	2.78507E-5	1799.50663	32430.19	 	13668.313
1205.0	0.98086	0.0191394	7.86818	7.46778	-4.27278	19.02676	28.89947	1.25313	0.798	113.60948	137.72844	41.95022	0.3541	13.34962	260736.4623	0.54043	2.76696E-5	1799.46361	32412.915	47.6668	13673.638
1200.0	0.98663	0.0133655	7.87225	7.46417	-4.31912	18.96112	28.84991	1.25103	0.79934	116.89978	138.147	43.20012	0.353	13.36901	287795.0838	0.53782	2.49833E-5	1798.80535	32145.311	53.5208	13751.959
1195.0	0.99129	0.00871277	7.87611	7.46074	-4.36304	18.90265	28.79517	1.24916	0.80054	119.68426	138.54288	44.25908	0.35209	13.39726	316331.8191	0.53486	2.26524E-5	1798.2189	31894.66	50.1302	13813.726
1190.0	0.9951	0.00490185	7.87982	7.45747	-4.40505	18.84974	28.73688	1.24743	0.80165	122.07865	138.9217	45.17061	0.35131	13.43459	346658.4968	0.53156	2.06003E-5	1797.69885	31656.768	47.5784	13863.131
1185.0	0.99826	0.0017363	7.88339	7.45431	-4.44555	18.80124	28.67582	1.24581	0.80269	124.16619	139.28712	45.96606	0.35063	13.48097	379070.9067	0.52792	1.87745E-5	1797.24206	31428.707	45.6122	13903.101
1181.77	1.0	0.0	7.88563	7.45232	-4.47095	18.77206	28.6354	1.24481	0.80334	125.3634	139.51674	46.4226	0.35024	 	401170.3203	 	1.7701E-5	 	31286.206	 	13924.474
1180.0	1.0	0.0	7.88653	7.45148	-4.48177	18.76608	28.60731	1.24451	0.80353	125.50894	139.62436	46.4785	0.35018	 	412271.8215	 	1.72034E-5	 	31203.83535	44.97433	 
1175.0	1.0	0.0	7.88907	7.44908	-4.51257	18.74812	28.52806	1.24368	0.80407	125.91813	139.92553	46.63573	0.35002	 	445369.3822	 	1.58701E-5	 	31021.61442	36.44419	 
1170.0	1.0	0.0	7.89161	7.44668	-4.54332	18.73019	28.44881	1.24283	0.80461	126.32664	140.22535	46.79275	0.34985	 	481381.5463	 	1.46322E-5	 	30839.69144	36.38459	 
1165.0	1.0	0.0	7.89415	7.44429	-4.574	18.71231	28.36956	1.24199	0.80516	126.73448	140.52383	46.94955	0.34969	 	520587.0101	 	1.34833E-5	 	30658.0659	36.32511	 
1160.0	1.0	0.0	7.89668	7.4419	-4.60462	18.69447	28.2903	1.24114	0.80571	127.14165	140.82097	47.10613	0.34952	 	563293.1543	 	1.24178E-5	 	30476.73726	36.26573	 
1155.0	1.0	0.0	7.89921	7.43951	-4.63518	18.67668	28.21105	1.24028	0.80627	127.54815	141.11678	47.26251	0.34936	 	609839.2576	 	1.143E-5	 	30295.70497	36.20646	 
1150.0	1.0	0.0	7.90174	7.43713	-4.66568	18.65892	28.13179	1.23942	0.80683	127.95398	141.41126	47.41867	0.34919	 	660599.9832	 	1.05147E-5	 	30114.96851	36.14729	 
1145.0	1.0	0.0	7.90427	7.43476	-4.69612	18.64121	28.05253	1.23856	0.80739	128.35913	141.70442	47.57462	0.34903	 	715989.3905	 	9.66724E-6	 	29934.52733	36.08824	 
1140.0	1.0	0.0	7.90679	7.43239	-4.7265	18.62355	27.97326	1.23769	0.80796	128.76361	141.99626	47.73035	0.34887	 	776465.3197	 	8.88286E-6	 	29754.3809	36.02929	 
1135.0	1.0	0.0	7.9093	7.43002	-4.75681	18.60593	27.89399	1.23681	0.80853	129.16742	142.28679	47.88587	0.3487	 	842534.342	 	8.15733E-6	 	29574.5287	35.97044	 
1130.0	1.0	0.0	7.91182	7.42766	-4.78707	18.58836	27.81472	1.23593	0.8091	129.57055	142.57601	48.04118	0.34854	 	914757.3926	 	7.4866E-6	 	29394.97018	35.9117	 
1125.0	1.0	0.0	7.91433	7.42531	-4.81726	18.57083	27.73545	1.23505	0.80968	129.97301	142.86393	48.19627	0.34837	 	993755.8581	 	6.8669E-6	 	29215.70479	35.85308	 
1120.0	1.0	0.0	7.91683	7.42296	-4.84739	18.55335	27.65617	1.23416	0.81027	130.3748	143.15055	48.35115	0.34821	 	1080218.708	 	6.29467E-6	 	29036.73203	35.79455	 
1115.0	1.0	0.0	7.91933	7.42061	-4.87746	18.53593	27.57689	1.23327	0.81085	130.77592	143.43588	48.50582	0.34804	 	1174910.261	 	5.76658E-6	 	28858.05134	35.73614	 
1110.0	1.0	0.0	7.92183	7.41827	-4.90747	18.51855	27.49761	1.23237	0.81145	131.17637	143.71992	48.66027	0.34788	 	1278678.986	 	5.27952E-6	 	28679.66218	35.67783	 
1105.0	1.0	0.0	7.92433	7.41593	-4.93742	18.50122	27.41833	1.23146	0.81204	131.57614	144.00267	48.81451	0.34772	 	1392467.543	 	4.83057E-6	 	28501.56404	35.61963	 
1101.35	1.0	0.0	7.92615	7.41423	-4.95923	18.4886	27.36048	1.2308	0.81248	131.86736	144.20813	48.92689	0.3476	 	1482396.975	 	4.52551E-6	 	28371.82414	 	 
1100.0	1.0	0.0	7.92682	7.41361	-4.96726	18.48411	27.33905	1.23055	0.81264	131.97543	144.28444	48.96859	0.34755	 	1517342.614	 	4.41694E-6	 	28323.65558	35.58169	 
1095.0	1.0	0.0	7.92929	7.41129	-4.99691	18.4675	27.25978	1.22964	0.81325	132.37454	144.56578	49.12264	0.34739	 	1654510.518	 	4.036E-6	 	28145.76148	35.57882	 
1090.0	1.0	0.0	7.93176	7.40899	-5.0265	18.45092	27.18052	1.22872	0.81386	132.77294	144.84577	49.27646	0.34722	 	1805219.429	 	3.68553E-6	 	27968.17732	35.51683	 
1085.0	1.0	0.0	7.93423	7.40668	-5.05605	18.43437	27.10125	1.22779	0.81447	133.17064	145.12445	49.43005	0.34706	 	1970916.179	 	3.36331E-6	 	27790.9016	35.45514	 
1080.0	1.0	0.0	7.9367	7.40438	-5.08554	18.41784	27.02197	1.22686	0.81509	133.56764	145.40181	49.58342	0.3469	 	2153213.738	 	3.06722E-6	 	27613.93285	35.39375	 
1075.0	1.0	0.0	7.93916	7.40208	-5.11498	18.40134	26.94269	1.22592	0.81571	133.96393	145.67786	49.73656	0.34673	 	2353911.378	 	2.79534E-6	 	27437.26965	35.33264	 
1070.0	1.0	0.0	7.94162	7.39979	-5.14436	18.38488	26.8634	1.22498	0.81634	134.35953	145.9526	49.88948	0.34657	 	2575018.194	 	2.54584E-6	 	27260.91061	35.27181	 
1065.0	1.0	0.0	7.94407	7.3975	-5.17369	18.36845	26.78411	1.22403	0.81697	134.75442	146.22605	50.04217	0.34641	 	2818778.658	 	2.31702E-6	 	27084.85435	35.21125	 
1060.0	1.0	0.0	7.94653	7.39522	-5.20297	18.35205	26.70482	1.22308	0.81761	135.14862	146.49821	50.19464	0.34625	 	3087702.362	 	2.10732E-6	 	26909.09956	35.15096	 
1055.0	1.0	0.0	7.94898	7.39294	-5.23219	18.3357	26.62552	1.22212	0.81825	135.54212	146.76908	50.34689	0.34608	 	3384597.68	 	1.91526E-6	 	26733.64495	35.09092	 
1050.0	1.0	0.0	7.95142	7.39066	-5.26136	18.31938	26.54621	1.22116	0.81889	135.93493	147.03868	50.49891	0.34592	 	3712609.167	 	1.73947E-6	 	26558.48923	35.03115	 
1045.0	1.0	0.0	7.95387	7.38839	-5.29047	18.30311	26.4669	1.22019	0.81954	136.32704	147.30701	50.65071	0.34576	 	4075261.171	 	1.57869E-6	 	26383.63117	34.97161	 
1040.0	1.0	0.0	7.95631	7.38613	-5.31952	18.28687	26.38758	1.21922	0.8202	136.71846	147.57407	50.80229	0.34559	 	4476506.209	 	1.43173E-6	 	26209.06957	34.91232	 
1035.0	1.0	0.0	7.95875	7.38386	-5.34852	18.27069	26.30826	1.21824	0.82086	137.10918	147.83987	50.95365	0.34543	 	4920780.984	 	1.29751E-6	 	26034.80322	34.85327	 
1030.0	1.0	0.0	7.96118	7.38161	-5.37747	18.25455	26.22893	1.21725	0.82152	137.49921	148.10442	51.10478	0.34527	 	5413069.577	 	1.175E-6	 	25860.83099	34.79445	 
1025.0	1.0	0.0	7.96361	7.37935	-5.40635	18.23846	26.1496	1.21626	0.82219	137.88856	148.36772	51.25569	0.3451	 	5958974.931	 	1.06326E-6	 	25687.15174	34.73585	 
1020.0	1.0	0.0	7.96604	7.3771	-5.43518	18.22242	26.07026	1.21526	0.82287	138.27721	148.62979	51.40638	0.34494	 	6564801.849	 	9.61422E-7	 	25513.76435	34.67748	 
1015.0	1.0	0.0	7.96847	7.37486	-5.46396	18.20643	25.99092	1.21426	0.82355	138.66518	148.89062	51.55684	0.34478	 	7237650.133	 	8.68671E-7	 	25340.66775	34.61932	 
1010.0	1.0	0.0	7.97089	7.37262	-5.49267	18.1905	25.91157	1.21325	0.82423	139.05245	149.15021	51.70709	0.34462	 	7985521.455	 	7.84261E-7	 	25167.86089	34.56137	 
1005.29	1.0	0.0	7.97316	7.37051	-5.51965	18.17555	25.83687	1.21229	0.82488	139.4164	149.39348	51.84832	0.34446	 	8766181.772	 	7.11799E-7	 	25005.44712	 	 
1005.0	1.0	0.0	7.97342	7.37028	-5.52269	18.16947	25.82741	1.21246	0.82477	139.45945	149.41947	51.86514	0.34444	 	8822987.629	 	7.07054E-7	 	24988.81387	35.8094	 
1000.0	1.0	0.0	7.97775	7.36627	-5.57401	18.06702	25.69059	1.21415	0.82362	140.18461	149.85688	52.1485	0.34409	 	9854207.132	 	6.30586E-7	 	24707.40246	56.28228	 
995.0	1.0	0.0	7.98202	7.36234	-5.62446	17.96682	25.55719	1.21569	0.82258	140.89301	150.28351	52.4254	0.34375	 	1.101323321E7	 	5.62008E-7	 	24430.30692	55.41911	 
990.0	1.0	0.0	7.98622	7.35847	-5.67409	17.86878	25.42723	1.21709	0.82163	141.58552	150.69995	52.69618	0.34341	 	1.231684931E7	 	5.00544E-7	 	24157.36668	54.58805	 
985.0	1.0	0.0	7.99035	7.35466	-5.72291	17.77283	25.30046	1.21834	0.82079	142.26297	151.10677	52.96116	0.34309	 	1.37841756E7	 	4.4549E-7	 	23888.42699	53.78794	 
980.0	1.0	0.0	7.99443	7.35091	-5.77096	17.67889	25.17672	1.21947	0.82003	142.92612	151.50448	53.22062	0.34277	 	1.543701132E7	 	3.96211E-7	 	23623.33881	53.01764	 
975.0	1.0	0.0	7.99844	7.34722	-5.81826	17.58689	25.05583	1.22046	0.81936	143.57571	151.89358	53.47485	0.34246	 	1.730023339E7	 	3.52129E-7	 	23361.95863	52.27604	 
970.0	1.0	0.0	8.0024	7.34359	-5.86484	17.49674	24.93764	1.22133	0.81878	144.21242	152.27451	53.72411	0.34216	 	1.940225747E7	 	3.12722E-7	 	23104.14832	51.56206	 
965.0	1.0	0.0	8.0063	7.34001	-5.91072	17.40839	24.822	1.22209	0.81827	144.83689	152.6477	53.96865	0.34186	 	2.177556913E7	 	2.77518E-7	 	22849.77498	50.87467	 
960.0	1.0	0.0	8.01015	7.33648	-5.95594	17.32176	24.70876	1.22273	0.81784	145.44974	153.01353	54.2087	0.34157	 	2.445734343E7	 	2.4609E-7	 	22598.71079	50.21284	 
955.0	1.0	0.0	8.01395	7.333	-6.0005	17.23679	24.5978	1.22327	0.81748	146.05154	153.37237	54.44448	0.34129	 	2.749015935E7	 	2.18052E-7	 	22350.83292	49.57557	 
950.0	1.0	0.0	8.0177	7.32957	-6.04444	17.15341	24.48898	1.2237	0.81719	146.64283	153.72456	54.67621	0.34101	 	3.092283277E7	 	1.93058E-7	 	22106.02334	48.96191	 
945.0	1.0	0.0	8.0214	7.32619	-6.08778	17.07156	24.38219	1.22404	0.81697	147.22412	154.07043	54.90408	0.34074	 	3.481138606E7	 	1.70791E-7	 	21864.16871	48.37093	 
940.0	1.0	0.0	8.02505	7.32286	-6.13053	16.99119	24.27731	1.22428	0.81681	147.7959	154.41028	55.12828	0.34047	 	3.922017113E7	 	1.5097E-7	 	21625.16024	47.80169	 
935.0	1.0	0.0	8.02866	7.31957	-6.17272	16.91222	24.17424	1.22443	0.81671	148.35862	154.74438	55.34898	0.34021	 	4.42231825E7	 	1.33339E-7	 	21388.89354	47.25334	 
930.0	1.0	0.0	8.03222	7.31632	-6.21437	16.83462	24.07287	1.2245	0.81666	148.91271	155.07299	55.56634	0.33995	 	4.990559222E7	 	1.17668E-7	 	21155.26851	46.72501	 
925.0	1.0	0.0	8.03575	7.31311	-6.2555	16.75831	23.97312	1.22448	0.81667	149.45858	155.39638	55.78054	0.3397	 	5.636552634E7	 	1.03749E-7	 	20924.18914	46.21587	 
920.0	1.0	0.0	8.03923	7.30994	-6.29612	16.68326	23.87489	1.22439	0.81673	149.9966	155.71476	55.99171	0.33945	 	6.371616496E7	 	9.1397E-8	 	20695.56345	45.72514	 
915.0	1.0	0.0	8.04268	7.30681	-6.33625	16.6094	23.7781	1.22422	0.81685	150.52715	156.02835	56.19999	0.33921	 	7.208817902E7	 	8.0444E-8	 	20469.30327	45.25204	 
910.0	1.0	0.0	8.04608	7.30372	-6.3759	16.5367	23.68268	1.22398	0.81701	151.05055	156.33737	56.40553	0.33897	 	8.163259973E7	 	7.07396E-8	 	20245.32417	44.79582	 
905.0	1.0	0.0	8.04945	7.30066	-6.4151	16.4651	23.58854	1.22367	0.81721	151.56714	156.64199	56.60843	0.33873	 	9.252416519E7	 	6.21487E-8	 	20023.54526	44.35578	 
900.0	1.0	0.0	8.05279	7.29764	-6.45386	16.39455	23.49563	1.2233	0.81746	152.07722	156.94241	56.80883	0.3385	 	1.049652833E8	 	5.455E-8	 	19803.88912	43.93123	 
895.0	1.0	0.0	8.05609	7.29465	-6.49219	16.32503	23.40387	1.22286	0.81775	152.58108	157.23878	57.00682	0.33827	 	1.191906469E8	 	4.78347E-8	 	19586.28158	43.52151	 
890.0	1.0	0.0	8.05936	7.29169	-6.53011	16.25647	23.31321	1.22236	0.81809	153.07898	157.53128	57.20253	0.33804	 	1.354727056E8	 	4.19055E-8	 	19370.65164	43.12599	 
885.0	1.0	0.0	8.06259	7.28876	-6.56763	16.18884	23.22358	1.2218	0.81846	153.57118	157.82004	57.39604	0.33782	 	1.541280862E8	 	3.6675E-8	 	19156.93135	42.74406	 
880.0	1.0	0.0	8.0658	7.28586	-6.60476	16.12211	23.13494	1.22119	0.81887	154.05793	158.10521	57.58745	0.3376	 	1.755251878E8	 	3.20651E-8	 	18945.05562	42.37515	 
875.0	1.0	0.0	8.06897	7.283	-6.64151	16.05623	23.04723	1.22052	0.81932	154.53945	158.38692	57.77686	0.33738	 	2.000931341E8	 	2.80061E-8	 	18734.96165	42.01879	 
870.0	1.0	0.0	8.07212	7.28016	-6.67791	15.99117	22.9604	1.2198	0.8198	155.01595	158.66531	57.96433	0.33717	 	2.283323913E8	 	2.44356E-8	 	18526.59047	41.67424	 
865.0	1.0	0.0	8.07524	7.27735	-6.71395	15.92689	22.87441	1.21903	0.82032	155.48766	158.94047	58.14996	0.33695	 	2.608272897E8	 	2.12977E-8	 	18319.88501	41.34109	 
860.0	1.0	0.0	8.07833	7.27456	-6.74965	15.86335	22.78922	1.21822	0.82087	155.95474	159.21253	58.33383	0.33674	 	2.982609303E8	 	1.85429E-8	 	18114.79059	41.01888	 
855.0	1.0	0.0	8.0814	7.2718	-6.78502	15.80053	22.70478	1.21735	0.82146	156.4174	159.48159	58.51599	0.33654	 	3.414328641E8	 	1.61268E-8	 	17911.2549	40.70714	 
850.0	1.0	0.0	8.08444	7.26907	-6.82007	15.73839	22.62106	1.21644	0.82207	156.87579	159.74776	58.69652	0.33633	 	3.912800851E8	 	1.401E-8	 	17709.22775	40.40543	 
845.0	1.0	0.0	8.08673	7.26701	-6.8465	15.71456	22.54865	1.21491	0.8231	157.23385	159.96858	58.83696	0.33618	 	4.45904621E8	 	1.2239E-8	 	17548.77642	32.09027	 
840.0	1.0	0.0	8.08902	7.26495	-6.87287	15.69072	22.47624	1.21338	0.82415	157.59131	160.18842	58.97722	0.33604	 	5.087519118E8	 	1.06791E-8	 	17385.30922	32.69344	 
835.0	1.0	0.0	8.0913	7.2629	-6.89917	15.66688	22.40381	1.21183	0.8252	157.94817	160.40729	59.11728	0.33589	 	5.811481898E8	 	9.30676E-9	 	17222.1027	32.64131	 
830.0	1.0	0.0	8.09359	7.26085	-6.92541	15.64304	22.33138	1.21028	0.82626	158.30442	160.62518	59.25714	0.33574	 	6.646476979E8	 	8.10083E-9	 	17059.15618	32.5893	 
825.0	1.0	0.0	8.09586	7.25881	-6.95159	15.6192	22.25895	1.20871	0.82733	158.66008	160.84211	59.3968	0.33559	 	7.61074297E8	 	7.04241E-9	 	16896.46907	32.53742	 
820.0	1.0	0.0	8.09814	7.25677	-6.9777	15.59535	22.1865	1.20714	0.82841	159.01513	161.05807	59.53627	0.33545	 	8.725711021E8	 	6.11457E-9	 	16734.0407	32.48567	 
815.0	1.0	0.0	8.1004	7.25474	-7.00375	15.5715	22.11405	1.20555	0.82949	159.36958	161.27307	59.67555	0.3353	 	1.001659781E9	 	5.30219E-9	 	16571.87044	32.43405	 
810.0	1.0	0.0	8.10267	7.25271	-7.02974	15.54765	22.04159	1.20396	0.83059	159.72343	161.4871	59.81463	0.33515	 	1.151311499E9	 	4.59179E-9	 	16409.95762	32.38256	 
805.0	1.0	0.0	8.10493	7.25069	-7.05566	15.52379	21.96912	1.20235	0.8317	160.07668	161.70018	59.95351	0.33501	 	1.32503192E9	 	3.97136E-9	 	16248.30157	32.33121	 
800.0	1.0	0.0	8.10718	7.24867	-7.08152	15.49993	21.89664	1.20074	0.83282	160.42933	161.9123	60.0922	0.33486	 	1.526963203E9	 	3.43019E-9	 	16086.90162	32.27999	 
795.0	1.0	0.0	8.10943	7.24666	-7.10732	15.47607	21.82416	1.19911	0.83395	160.78137	162.12347	60.23069	0.33471	 	1.76200656E9	 	2.95877E-9	 	15925.75708	32.22891	 
790.0	1.0	0.0	8.11168	7.24465	-7.13305	15.4522	21.75167	1.19748	0.83509	161.13282	162.33369	60.36898	0.33457	 	2.035969775E9	 	2.54865E-9	 	15764.86725	32.17797	 
785.0	1.0	0.0	8.11392	7.24265	-7.15872	15.42834	21.67917	1.19583	0.83624	161.48366	162.54296	60.50708	0.33442	 	2.355745002E9	 	2.19233E-9	 	15604.23142	32.12717	 
780.0	1.0	0.0	8.11616	7.24065	-7.18432	15.40446	21.60666	1.19418	0.8374	161.83391	162.75129	60.64499	0.33427	 	2.729523421E9	 	1.88317E-9	 	15443.84886	32.07651	 
775.0	1.0	0.0	8.1184	7.23866	-7.20986	15.38059	21.53414	1.19251	0.83857	162.18355	162.95867	60.78269	0.33413	 	3.167054785E9	 	1.61531E-9	 	15283.71885	32.026	 
770.0	1.0	0.0	8.12063	7.23667	-7.23534	15.35671	21.46161	1.19083	0.83975	162.53259	163.16511	60.9202	0.33398	 	3.679961758E9	 	1.38354E-9	 	15123.84063	31.97564	 
765.0	1.0	0.0	8.12285	7.23469	-7.26075	15.33283	21.38908	1.18914	0.84094	162.88103	163.37062	61.05751	0.33383	 	4.282121218E9	 	1.18328E-9	 	14964.21342	31.92544	 
760.0	1.0	0.0	8.12507	7.23271	-7.2861	15.30895	21.31654	1.18744	0.84215	163.22887	163.57519	61.19463	0.33369	 	4.990127559E9	 	1.0105E-9	 	14804.83646	31.87539	 
755.0	1.0	0.0	8.12729	7.23074	-7.31139	15.28507	21.24398	1.18573	0.84336	163.57611	163.77884	61.33155	0.33354	 	5.823856564E9	 	8.61653E-10	 	14645.70894	31.8255	 
750.0	1.0	0.0	8.1295	7.22877	-7.33661	15.26118	21.17142	1.18401	0.84459	163.92275	163.98155	61.46828	0.33339	 	6.807152832E9	 	7.33602E-10	 	14486.83005	31.77578	 
745.0	1.0	0.0	8.13171	7.22681	-7.36177	15.23729	21.09885	1.18228	0.84583	164.26879	164.18333	61.6048	0.33325	 	7.968669273E9	 	6.23609E-10	 	14328.19895	31.72622	 
740.0	1.0	0.0	8.13391	7.22485	-7.38687	15.21339	21.02626	1.18053	0.84708	164.61422	164.3842	61.74113	0.3331	 	9.342894099E9	 	5.29272E-10	 	14169.81477	31.67684	 
735.0	1.0	0.0	8.13611	7.2229	-7.4119	15.1895	20.95367	1.17878	0.84834	164.95906	164.58414	61.87727	0.33295	 	1.09714E10	 	4.48487E-10	 	14011.67663	31.62763	 
730.0	1.0	0.0	8.13831	7.22095	-7.43687	15.1656	20.88107	1.17701	0.84961	165.3033	164.78316	62.0132	0.33281	 	1.2904399999999998E10	 	3.79414E-10	 	13853.78364	31.5786	 
725.0	1.0	0.0	8.1405	7.21901	-7.46177	15.14169	20.80846	1.17523	0.8509	165.64693	164.98126	62.14894	0.33266	 	1.5202699999999998E10	 	3.2045E-10	 	13696.13485	31.52976	 
720.0	1.0	0.0	8.14268	7.21707	-7.48661	15.11779	20.73583	1.17344	0.8522	165.98996	165.17846	62.28449	0.33251	 	1.79399E10	 	2.70197E-10	 	13538.72932	31.48111	 
715.0	1.0	0.0	8.14486	7.21514	-7.51139	15.09388	20.6632	1.17163	0.85351	166.3324	165.37474	62.41983	0.33237	 	2.12055E10	 	2.27437E-10	 	13381.56605	31.43265	 
710.0	1.0	0.0	8.14704	7.21321	-7.5361	15.06997	20.59056	1.16982	0.85483	166.67423	165.57011	62.55498	0.33222	 	2.5108099999999996E10	 	1.91114E-10	 	13224.64402	31.38441	 
705.0	1.0	0.0	8.14921	7.21129	-7.56075	15.04605	20.5179	1.16799	0.85617	167.01546	165.76457	62.68993	0.33208	 	2.9780299999999996E10	 	1.60311E-10	 	13067.96217	31.33637	 
700.0	1.0	0.0	8.15138	7.20937	-7.58533	15.02213	20.44524	1.16615	0.85752	167.3561	165.95814	62.82469	0.33193	 	3.5384E10	 	1.34233E-10	 	12911.51943	31.28855	 
695.0	1.0	0.0	8.15354	7.20746	-7.60986	14.99821	20.37256	1.1643	0.85889	167.69613	166.1508	62.95924	0.33178	 	4.21171E10	 	1.12194E-10	 	12755.31466	31.24095	 
690.0	1.0	0.0	8.1557	7.20555	-7.63431	14.97429	20.29987	1.16243	0.86027	168.03556	166.34256	63.0936	0.33164	 	5.022199999999999E10	 	9.36023E-11	 	12599.34669	31.19359	 
685.0	1.0	0.0	8.15786	7.20364	-7.65871	14.95036	20.22717	1.16055	0.86166	168.37439	166.53343	63.22777	0.33149	 	5.999679999999999E10	 	7.79457E-11	 	12443.6143	31.14648	 
680.0	1.0	0.0	8.16001	7.20175	-7.68304	14.92644	20.15446	1.15866	0.86307	168.71262	166.7234	63.36173	0.33134	 	7.1808E10	 	6.47851E-11	 	12288.11624	31.09961	 
675.0	1.0	0.0	8.16215	7.19985	-7.7073	14.9025	20.08173	1.15676	0.86449	169.05025	166.91248	63.4955	0.3312	 	8.61073E10	 	5.37432E-11	 	12132.85119	31.05301	 
670.0	1.0	0.0	8.16429	7.19797	-7.73151	14.87857	20.009	1.15484	0.86592	169.38728	167.10068	63.62907	0.33105	 	1.03453E11	 	4.44963E-11	 	11977.81778	31.00668	 
665.0	1.0	0.0	8.16643	7.19608	-7.75564	14.85463	19.93625	1.15291	0.86737	169.72371	167.28798	63.76244	0.33091	 	1.24537E11	 	3.67673E-11	 	11823.0146	30.96064	 
660.0	1.0	0.0	8.16856	7.1942	-7.77972	14.83069	19.86349	1.15096	0.86884	170.05954	167.47441	63.89562	0.33076	 	1.50215E11	 	3.03197E-11	 	11668.44307	30.9143	 
655.0	1.0	0.0	8.17069	7.19233	-7.80373	14.80675	19.79071	1.14901	0.87032	170.39477	167.65995	64.02859	0.33061	 	1.81555E11	 	2.49516E-11	 	11514.1192	30.86477	 
650.0	1.0	0.0	8.17281	7.19046	-7.82767	14.7828	19.71792	1.14704	0.87181	170.7294	167.84461	64.16137	0.33047	 	2.19883E11	 	2.04912E-11	 	11360.06428	30.81098	 
645.0	1.0	0.0	8.17493	7.1886	-7.85156	14.75885	19.64512	1.14505	0.87332	171.06343	168.0284	64.29395	0.33032	 	2.6686E11	 	1.67926E-11	 	11206.2776	30.75734	 
640.0	1.0	0.0	8.17704	7.18674	-7.87538	14.7349	19.57231	1.14305	0.87485	171.39686	168.21131	64.42633	0.33018	 	3.2456E11	 	1.3732E-11	 	11052.75845	30.70383	 
635.0	1.0	0.0	8.17915	7.18489	-7.89913	14.71094	19.49948	1.14104	0.87639	171.72969	168.39335	64.55852	0.33003	 	3.95588E11	 	1.12047E-11	 	10899.50611	30.65047	 
630.0	1.0	0.0	8.18126	7.18304	-7.92282	14.68698	19.42663	1.13901	0.87795	172.06192	168.57452	64.69051	0.32989	 	4.83218E11	 	9.12228E-12	 	10746.51987	30.59725	 
625.0	1.0	0.0	8.18336	7.1812	-7.94645	14.66302	19.35378	1.13697	0.87953	172.39355	168.75482	64.82229	0.32974	 	5.91576E11	 	7.41012E-12	 	10593.79873	30.54423	 
620.0	1.0	0.0	8.18545	7.17936	-7.97001	14.63906	19.2809	1.13491	0.88112	172.72458	168.93426	64.95388	0.32959	 	7.25875E11	 	6.00551E-12	 	10441.34125	30.49149	 
615.0	1.0	0.0	8.18754	7.17753	-7.99351	14.61509	19.20802	1.13284	0.88273	173.05501	169.11283	65.08528	0.32945	 	8.92715E11	 	4.85579E-12	 	10289.14712	30.43883	 
610.0	1.0	0.0	8.18963	7.1757	-8.01694	14.59112	19.13511	1.13076	0.88436	173.38484	169.29055	65.21647	0.3293	 	1.10048E12	 	3.91687E-12	 	10137.21563	30.3863	 
605.0	1.0	0.0	8.19171	7.17387	-8.04031	14.56715	19.0622	1.12866	0.88601	173.71406	169.46741	65.34747	0.32916	 	1.35983E12	 	3.15188E-12	 	9985.54611	30.33391	 
600.0	1.0	0.0	8.19379	7.17206	-8.06362	14.54317	18.98926	1.12654	0.88767	174.04269	169.64341	65.47826	0.32901	 	1.68439E12	 	2.53008E-12	 	9834.13787	30.28165	 
595.0	1.0	0.0	8.19586	7.17024	-8.08686	14.51919	18.91631	1.12441	0.88936	174.37072	169.81856	65.60886	0.32887	 	2.09155E12	 	2.02587E-12	 	9682.99023	30.22953	 
590.0	1.0	0.0	8.19793	7.16844	-8.11004	14.49521	18.84335	1.12226	0.89106	174.69815	169.99285	65.73926	0.32872	 	2.60367E12	 	1.61803E-12	 	9532.10251	30.17754	 
585.0	1.0	0.0	8.19999	7.16663	-8.13315	14.47123	18.77036	1.1201	0.89278	175.02498	170.1663	65.86946	0.32857	 	3.24945E12	 	1.28896E-12	 	9381.47402	30.1257	 
580.0	1.0	0.0	8.20205	7.16483	-8.1562	14.44724	18.69737	1.11792	0.89452	175.35121	170.33891	65.99946	0.32843	 	4.06595E12	 	1.02412E-12	 	9231.10411	30.07398	 
575.0	1.0	0.0	8.2041	7.16304	-8.17919	14.42325	18.62435	1.11573	0.89628	175.67684	170.51066	66.12927	0.32828	 	5.10109E12	 	8.11515E-13	 	9080.99211	30.0224	 
570.0	1.0	0.0	8.20615	7.16125	-8.20211	14.39926	18.55131	1.11352	0.89806	176.00187	170.68158	66.25887	0.32814	 	6.41699E12	 	6.41298E-13	 	8931.13733	29.97096	 
565.0	1.0	0.0	8.20819	7.15947	-8.22497	14.37526	18.47826	1.11129	0.89986	176.3263	170.85166	66.38828	0.32799	 	8.09449E12	 	5.05381E-13	 	8781.53911	29.91964	 
560.0	1.0	0.0	8.21023	7.15769	-8.24776	14.35126	18.40519	1.10904	0.90168	176.65014	171.0209	66.51748	0.32785	 	1.0239E13	 	3.97148E-13	 	8632.19681	29.86846	 
555.0	1.0	0.0	8.21227	7.15592	-8.27049	14.32726	18.3321	1.10678	0.90352	176.97337	171.1893	66.64649	0.3277	 	1.29885E13	 	3.11198E-13	 	8483.10976	29.81741	 
550.0	1.0	0.0	8.2143	7.15415	-8.29316	14.30325	18.259	1.10451	0.90538	177.296	171.35687	66.7753	0.32756	 	1.6524E13	 	2.43137E-13	 	8334.2773	29.76649	 
545.0	1.0	0.0	8.21632	7.15239	-8.31576	14.27925	18.18587	1.10221	0.90727	177.61803	171.52362	66.90391	0.32741	 	2.10838E13	 	1.89396E-13	 	8185.69877	29.7157	 
540.0	1.0	0.0	8.21834	7.15063	-8.3383	14.25523	18.11272	1.0999	0.90917	177.93946	171.68953	67.03232	0.32727	 	2.69826E13	 	1.47087E-13	 	8037.37354	29.66505	 
535.0	1.0	0.0	8.22036	7.14888	-8.36077	14.23122	18.03956	1.09757	0.9111	178.2603	171.85461	67.16053	0.32712	 	3.46373E13	 	1.13877E-13	 	7889.30097	29.61451	 
530.0	1.0	0.0	8.22237	7.14713	-8.38318	14.2072	17.96637	1.09522	0.91306	178.58053	172.01888	67.28854	0.32698	 	4.46021E13	 	8.78876E-14	 	7741.48041	29.56411	 
525.0	1.0	0.0	8.22437	7.14538	-8.40552	14.18318	17.89316	1.09286	0.91503	178.90016	172.18232	67.41635	0.32683	 	5.7616E13	 	6.76127E-14	 	7593.91121	29.51384	 
520.0	1.0	0.0	8.22637	7.14365	-8.4278	14.15916	17.81993	1.09047	0.91703	179.2192	172.34494	67.54396	0.32669	 	7.46675E13	 	5.18454E-14	 	7446.59277	29.46369	 
515.0	1.0	0.0	8.22837	7.14191	-8.45002	14.13514	17.74668	1.08807	0.91906	179.53763	172.50674	67.67137	0.32654	 	9.70844E13	 	3.96229E-14	 	7299.52442	29.41367	 
510.0	1.0	0.0	8.23036	7.14019	-8.47217	14.11111	17.67341	1.08565	0.92111	179.85547	172.66773	67.79859	0.3264	 	1.2665499999999998E14	 	3.01793E-14	 	7152.70558	29.36377	 
505.0	1.0	0.0	8.23235	7.13846	-8.49426	14.08708	17.60012	1.08321	0.92318	180.1727	172.8279	67.9256	0.32625	 	1.65798E14	 	2.29071E-14	 	7006.1356	29.314	 
500.0	1.0	0.0	8.23433	7.13674	-8.51628	14.06304	17.5268	1.08075	0.92528	180.48934	172.98726	68.05241	0.32611	 	2.17796E14	 	1.73261E-14	 	6859.81387	29.26435	 
495.0	1.0	0.0	8.23631	7.13503	-8.53824	14.03901	17.45346	1.07828	0.9274	180.80537	173.14582	68.17902	0.32596	 	2.8712E14	 	1.30578E-14	 	6713.73979	29.21482	 
490.0	1.0	0.0	8.23828	7.13332	-8.56013	14.01497	17.3801	1.07578	0.92956	181.12081	173.30357	68.30544	0.32582	 	3.79881E14	 	9.80502E-15	 	6567.91275	29.16541	 
485.0	1.0	0.0	8.24025	7.13162	-8.58196	13.99092	17.30671	1.07326	0.93174	181.43565	173.46051	68.43165	0.32567	 	5.0447199999999994E14	 	7.33508E-15	 	6422.33215	29.11612	 
480.0	1.0	0.0	8.24221	7.12992	-8.60373	13.96688	17.23329	1.07073	0.93394	181.74989	173.61665	68.55766	0.32553	 	6.72452E14	 	5.46647E-15	 	6276.99739	29.06695	 
475.0	1.0	0.0	8.24417	7.12823	-8.62543	13.94283	17.15986	1.06817	0.93618	182.06352	173.77199	68.68348	0.32538	 	8.99816E14	 	4.05809E-15	 	6131.90787	29.0179	 
470.0	1.0	0.0	8.24612	7.12654	-8.64707	13.91878	17.08639	1.0656	0.93844	182.37656	173.92653	68.80909	0.32524	 	1.20878E15	 	3.00064E-15	 	5987.06303	28.96897	 
465.0	1.0	0.0	8.24807	7.12486	-8.66864	13.89472	17.0129	1.063	0.94074	182.689	174.08027	68.9345	0.32509	 	1.63035E15	 	2.20979E-15	 	5842.46226	28.92015	 
460.0	1.0	0.0	8.25001	7.12318	-8.69015	13.87066	16.93938	1.06038	0.94306	183.00084	174.23322	69.05971	0.32495	 	2.20793E15	 	1.62067E-15	 	5698.10501	28.87145	 
455.0	1.0	0.0	8.25195	7.12151	-8.71159	13.8466	16.86584	1.05774	0.94541	183.31209	174.38538	69.18472	0.3248	 	3.0026E15	 	1.18362E-15	 	5553.99071	28.82286	 
450.0	1.0	0.0	8.25388	7.11984	-8.73297	13.82254	16.79227	1.05508	0.9478	183.62273	174.53675	69.30953	0.32466	 	4.10068E15	 	8.60715E-16	 	5410.11878	28.77439	 
445.0	1.0	0.0	8.25581	7.11818	-8.75428	13.79847	16.71867	1.0524	0.95021	183.93277	174.68733	69.43415	0.32451	 	5.6247E15	 	6.23164E-16	 	5266.48868	28.72602	 
440.0	1.0	0.0	8.25773	7.11652	-8.77554	13.77441	16.64504	1.04969	0.95266	184.24221	174.83712	69.55855	0.32437	 	7.7494E15	 	4.49159E-16	 	5123.09986	28.67776	 
435.0	1.0	0.0	8.25965	7.11487	-8.79672	13.75033	16.57138	1.04697	0.95514	184.55106	174.98613	69.68276	0.32422	 	1.07251E16	 	3.22263E-16	 	4979.95179	28.62962	 
430.0	1.0	0.0	8.26156	7.11322	-8.81784	13.72626	16.49769	1.04422	0.95765	184.8593	175.13435	69.80677	0.32408	 	1.49122E16	 	2.3014E-16	 	4837.0439	28.58158	 
425.0	1.0	0.0	8.26347	7.11158	-8.8389	13.70218	16.42397	1.04145	0.9602	185.16695	175.2818	69.93058	0.32393	 	2.08321E16	 	1.6357E-16	 	4694.37573	28.53363	 
420.0	1.0	0.0	8.26538	7.10994	-8.85989	13.6781	16.35021	1.03865	0.96279	185.474	175.42847	70.05419	0.32379	 	2.92428E16	 	1.1569E-16	 	4551.9467	28.48581	 
415.0	1.0	0.0	8.26727	7.10831	-8.88082	13.65402	16.27643	1.03583	0.96541	185.78044	175.57436	70.17759	0.32365	 	4.12519E16	 	8.1419E-17	 	4409.75646	28.43805	 
410.0	1.0	0.0	8.26917	7.10668	-8.90169	13.62993	16.20261	1.03299	0.96806	186.08629	175.71948	70.3008	0.3235	 	5.84867E16	 	5.70093E-17	 	4267.80474	28.39034	 
405.0	1.0	0.0	8.27106	7.10506	-8.92248	13.60584	16.12876	1.03013	0.97075	186.39154	175.86383	70.4238	0.32336	 	8.33501E16	 	3.97106E-17	 	4126.0913	28.34269	 
400.0	1.0	0.0	8.27294	7.10344	-8.94322	13.58175	16.05487	1.02724	0.97348	186.69619	176.00741	70.5466	0.32321	 	1.1941E17	 	2.75143E-17	 	3984.61589	28.29508	 
395.0	1.0	0.0	8.27482	7.10183	-8.96389	13.55765	15.98095	1.02432	0.97625	187.00024	176.15021	70.6692	0.32307	 	1.71993E17	 	1.89605E-17	 	3843.37826	28.24752	 
390.0	1.0	0.0	8.27669	7.10022	-8.9845	13.53355	15.907	1.02139	0.97906	187.30369	176.29226	70.7916	0.32292	 	2.49099E17	 	1.29935E-17	 	3702.37822	28.20001	 
385.0	1.0	0.0	8.27856	7.09862	-9.00504	13.50945	15.833	1.01842	0.98191	187.60655	176.43354	70.9138	0.32278	 	3.62808E17	 	8.85389E-18	 	3561.61551	28.15254	 
380.0	1.0	0.0	8.28042	7.09702	-9.02551	13.48535	15.75897	1.01543	0.9848	187.9088	176.57405	71.0358	0.32263	 	5.31475E17	 	5.99814E-18	 	3421.08995	28.10511	 
375.0	1.0	0.0	8.28228	7.09543	-9.04592	13.46124	15.6849	1.01242	0.98773	188.21045	176.71381	71.15759	0.32249	 	7.83152E17	 	4.03939E-18	 	3280.80134	28.05772	 
370.0	1.0	0.0	8.28413	7.09384	-9.06627	13.43713	15.61079	1.00938	0.99071	188.51151	176.85281	71.27918	0.32235	 	1.16099E18	 	2.70378E-18	 	3140.74947	28.01037	 
365.0	1.0	0.0	8.28598	7.09226	-9.08655	13.41302	15.53664	1.00631	0.99373	188.81196	176.99105	71.40058	0.3222	 	1.73176E18	 	1.79855E-18	 	3000.93419	27.96306	 
360.0	1.0	0.0	8.28783	7.09068	-9.10677	13.3889	15.46245	1.00322	0.99679	189.11182	177.12853	71.52177	0.32206	 	2.59951E18	 	1.18878E-18	 	2861.35533	27.91577	 
355.0	1.0	0.0	8.28966	7.08911	-9.12693	13.36478	15.38822	1.00009	0.99991	189.41108	177.26527	71.64275	0.32191	 	3.92738E18	 	7.80634E-19	 	2722.01274	27.86852	 
350.0	1.0	0.0	8.2915	7.08754	-9.14702	13.34066	15.31394	0.99695	1.00306	189.70974	177.40125	71.76354	0.32177	 	5.97297E18	 	5.09201E-19	 	2582.90629	27.82129	 
345.0	1.0	0.0	8.29332	7.08598	-9.16704	13.31654	15.23962	0.99377	1.00627	190.0078	177.53649	71.88413	0.32163	 	9.14583E18	 	3.29881E-19	 	2444.03582	27.77409	 
340.0	1.0	0.0	8.29515	7.08442	-9.187	13.29241	15.16525	0.99057	1.00952	190.30526	177.67097	72.00451	0.32148	 	1.41018E19	 	2.12217E-19	 	2305.40126	27.72691	 
335.0	1.0	0.0	8.29696	7.08287	-9.20689	13.26828	15.09084	0.98733	1.01283	190.60212	177.80472	72.12469	0.32134	 	2.18986E19	 	1.35544E-19	 	2167.0025	27.67975	 
330.0	1.0	0.0	8.29878	7.08132	-9.22672	13.24415	15.01638	0.98407	1.01619	190.89839	177.93772	72.24467	0.32119	 	3.42554E19	 	8.59375E-20	 	2028.83944	27.63261	 
325.0	1.0	0.0	8.30058	7.07978	-9.24649	13.22001	14.94187	0.98078	1.0196	191.19405	178.06998	72.36444	0.32105	 	5.39871E19	 	5.40763E-20	 	1890.91203	27.58548	 
320.0	1.0	0.0	8.30239	7.07824	-9.26619	13.19587	14.86732	0.97746	1.02306	191.48912	178.2015	72.48402	0.32091	 	8.57396E19	 	3.37652E-20	 	1753.22021	27.53837	 
315.0	1.0	0.0	8.30418	7.07671	-9.28583	13.17173	14.79271	0.97411	1.02658	191.78358	178.33228	72.60339	0.32076	 	1.3724299999999998E20	 	2.09164E-20	 	1615.76395	27.49125	 
310.0	1.0	0.0	8.30598	7.07518	-9.3054	13.14758	14.71804	0.97073	1.03016	192.07745	178.46233	72.72256	0.32062	 	2.2146199999999997E20	 	1.28519E-20	 	1478.54323	27.44414	 
305.0	1.0	0.0	8.30776	7.07366	-9.3249	13.12344	14.64333	0.96731	1.03379	192.37072	178.59164	72.84152	0.32047	 	3.6033299999999997E20	 	7.8311E-21	 	1341.55804	27.39704	 
300.0	1.0	0.0	8.30954	7.07215	-9.34435	13.09928	14.56856	0.96387	1.03749	192.66339	178.72022	72.96029	0.32033	 	5.912859999999999E20	 	4.73105E-21	 	1204.80842	27.34992	 
295.0	1.0	0.0	8.31132	7.07063	-9.36372	13.07513	14.49373	0.96039	1.04124	192.95546	178.84807	73.07885	0.32019	 	9.787619999999999E20	 	2.83317E-21	 	1068.2944	27.30281	 
290.0	1.0	0.0	8.31309	7.06913	-9.38304	13.05097	14.41884	0.95689	1.04506	193.24693	178.97519	73.19721	0.32004	 	1.63472E21	 	1.68139E-21	 	932.01603	27.25567	 
285.0	1.0	0.0	8.31486	7.06763	-9.40228	13.02681	14.3439	0.95334	1.04894	193.5378	179.10159	73.31536	0.3199	 	2.7555E21	 	9.88638E-22	 	795.97341	27.20852	 
280.0	1.0	0.0	8.31662	7.06613	-9.42147	13.00265	14.26889	0.94977	1.05289	193.82808	179.22726	73.43331	0.31976	 	4.6887500000000003E21	 	5.75802E-22	 	660.16664	27.16136	 
275.0	1.0	0.0	8.31837	7.06464	-9.44058	12.97849	14.19382	0.94616	1.0569	194.11775	179.35221	73.55106	0.31961	 	8.0561E21	 	3.32094E-22	 	524.59582	27.11416	 
270.0	1.0	0.0	8.32013	7.06315	-9.45964	12.95432	14.11869	0.94252	1.06098	194.40683	179.47644	73.66861	0.31947	 	1.3980399999999998E22	 	1.89621E-22	 	389.26114	27.06694	 
265.0	1.0	0.0	8.32187	7.06167	-9.47863	12.93015	14.04349	0.93885	1.06514	194.69531	179.59995	73.78595	0.31933	 	2.4511199999999997E22	 	1.07158E-22	 	254.16275	27.01968	 
260.0	1.0	0.0	8.32361	7.06019	-9.49755	12.90597	13.96822	0.93514	1.06936	194.98319	179.72274	73.90309	0.31918	 	4.34294E22	 	5.99174E-23	 	119.30087	26.97238	 
255.0	1.0	0.0	8.32535	7.05872	-9.51641	12.8818	13.89288	0.93139	1.07367	195.27047	179.84481	74.02003	0.31904	 	7.77867E22	 	3.3139E-23	 	-15.32428	26.92503	 
250.0	1.0	0.0	8.32707	7.05726	-9.5352	12.85762	13.81747	0.92761	1.07804	195.55715	179.96617	74.13677	0.31889	 	1.40885E23	 	1.81237E-23	 	-149.71243	26.87763	 
245.0	1.0	0.0	8.3288	7.0558	-9.55393	12.83343	13.74199	0.92379	1.0825	195.84323	180.08682	74.2533	0.31875	 	2.58109E23	 	9.79802E-24	 	-283.86329	26.83017	 
240.0	1.0	0.0	8.33052	7.05434	-9.57259	12.80925	13.66643	0.91993	1.08704	196.12871	180.20676	74.36962	0.31861	 	4.78483E23	 	5.23437E-24	 	-417.77653	26.78265	 
235.0	1.0	0.0	8.33223	7.05289	-9.59119	12.78506	13.59079	0.91604	1.09166	196.4136	180.32599	74.48575	0.31846	 	8.97851E23	 	2.76232E-24	 	-551.4518	26.73505	 
230.0	1.0	0.0	8.33394	7.05144	-9.60973	12.76087	13.51508	0.91211	1.09636	196.69789	180.44452	74.60167	0.31832	 	1.70598E24	 	1.43949E-24	 	-684.88871	26.68738	 
225.0	1.0	0.0	8.33564	7.05	-9.6282	12.73667	13.43928	0.90813	1.10116	196.98157	180.56234	74.71738	0.31818	 	3.28353E24	 	7.40467E-25	 	-818.08681	26.63962	 
220.0	1.0	0.0	8.33734	7.04857	-9.6466	12.71247	13.36339	0.90413	1.10604	197.26466	180.67945	74.8329	0.31803	 	6.40434E24	 	3.7583E-25	 	-951.04564	26.59177	 
215.0	1.0	0.0	8.33903	7.04714	-9.66494	12.68827	13.28741	0.90008	1.11102	197.54715	180.79586	74.94821	0.31789	 	1.2663400000000001E25	 	1.88144E-25	 	-1083.76469	26.54381	 
210.0	1.0	0.0	8.34072	7.04571	-9.68321	12.66407	13.21135	0.89599	1.11609	197.82905	180.91158	75.06331	0.31775	 	2.53954E25	 	9.28568E-26	 	-1216.2434	26.49574	 
205.0	1.0	0.0	8.3424	7.04429	-9.70142	12.63986	13.13519	0.89185	1.12126	198.11034	181.02659	75.17821	0.3176	 	5.16749E25	 	4.51618E-26	 	-1348.48116	26.44755	 
200.0	1.0	0.0	8.34408	7.04287	-9.71957	12.61566	13.05894	0.88768	1.12653	198.39103	181.14091	75.29291	0.31746	 	1.06739E26	 	2.16352E-26	 	-1480.47733	26.39923	 
195.0	1.0	0.0	8.34575	7.04146	-9.73765	12.59144	12.98258	0.88347	1.13191	198.67113	181.25454	75.4074	0.31732	 	2.23924E26	 	1.0204E-26	 	-1612.23123	26.35078	 
190.0	1.0	0.0	8.34742	7.04006	-9.75566	12.56723	12.90613	0.87921	1.13739	198.95063	181.36747	75.52169	0.31718	 	4.77334E26	 	4.73572E-27	 	-1743.74206	26.30217	 
185.0	1.0	0.0	8.34908	7.03866	-9.77361	12.54301	12.82957	0.87491	1.14298	199.22953	181.47971	75.63578	0.31703	 	1.0344699999999999E27	 	2.1616E-27	 	-1875.00905	26.2534	 
180.0	1.0	0.0	8.35073	7.03726	-9.79149	12.51879	12.7529	0.87056	1.14868	199.50783	181.59126	75.74966	0.31689	 	2.2805E27	 	9.69838E-28	 	-2006.03131	26.20445	 
175.0	1.0	0.0	8.35238	7.03587	-9.80931	12.49457	12.67611	0.86617	1.15451	199.78553	181.70212	75.86333	0.31675	 	5.116819999999999E27	 	4.27474E-28	 	-2136.80793	26.15532	 
170.0	1.0	0.0	8.35403	7.03449	-9.82707	12.47034	12.59922	0.86173	1.16045	200.06263	181.8123	75.97681	0.3166	 	1.1692000000000001E28	 	1.84989E-28	 	-2267.33788	26.10599	 
165.0	1.0	0.0	8.35567	7.03311	-9.84476	12.44611	12.5222	0.85725	1.16652	200.33913	181.92179	76.09007	0.31646	 	2.72253E28	 	7.85484E-29	 	-2397.62012	26.05645	 
160.0	1.0	0.0	8.3573	7.03173	-9.86238	12.42188	12.44505	0.85272	1.17271	200.61504	182.0306	76.20314	0.31632	 	6.4644E28	 	3.27037E-29	 	-2527.6535	26.00668	 
155.0	1.0	0.0	8.35893	7.03036	-9.87994	12.39764	12.36778	0.84815	1.17904	200.89035	182.13872	76.316	0.31617	 	1.56623E29	 	1.33422E-29	 	-2657.4368	25.95666	 
150.0	1.0	0.0	8.36055	7.029	-9.89743	12.3734	12.29037	0.84352	1.18551	201.16506	182.24617	76.42865	0.31603	 	3.8749500000000004E29	 	5.32985E-30	 	-2786.96871	25.90638	 
145.0	1.0	0.0	8.36217	7.02764	-9.91486	12.34916	12.21283	0.83885	1.19212	201.43917	182.35294	76.5411	0.31589	 	9.79682E29	 	2.08321E-30	 	-2916.24785	25.85583	 
140.0	1.0	0.0	8.36378	7.02628	-9.93222	12.32492	12.13515	0.83412	1.19887	201.71268	182.45903	76.65334	0.31575	 	2.53311E30	 	7.96051E-31	 	-3045.27274	25.80498	 
135.0	1.0	0.0	8.36539	7.02494	-9.94952	12.30067	12.05731	0.82935	1.20577	201.98559	182.56445	76.76538	0.3156	 	6.703949999999999E30	 	2.9715E-31	 	-3174.04179	25.75381	 
130.0	1.0	0.0	8.36699	7.02359	-9.96676	12.27642	11.97933	0.82452	1.21283	202.25791	182.6692	76.87722	0.31546	 	1.81757E31	 	1.08258E-31	 	-3302.55331	25.7023	 
125.0	1.0	0.0	8.36858	7.02225	-9.98392	12.25217	11.90118	0.81964	1.22005	202.52963	182.77327	76.98885	0.31532	 	5.0528E31	 	3.84593E-32	 	-3430.8055	25.65044	 
120.0	1.0	0.0	8.37018	7.02092	-10.00103	12.22791	11.82287	0.81471	1.22744	202.80074	182.87668	77.10027	0.31518	 	1.44168E32	 	1.331E-32	 	-3558.79646	25.59819	 
115.0	1.0	0.0	8.37176	7.01959	-10.01806	12.20365	11.74439	0.80972	1.23499	203.07126	182.97941	77.21149	0.31503	 	4.2260399999999995E32	 	4.48284E-33	 	-3686.52414	25.54554	 
110.0	1.0	0.0	8.37334	7.01826	-10.03504	12.17939	11.66573	0.80468	1.24273	203.34119	183.08148	77.3225	0.31489	 	1.2740600000000001E33	 	1.4678E-33	 	-3813.98635	25.49244	 
105.0	1.0	0.0	8.37491	7.01695	-10.05194	12.15513	11.58689	0.79958	1.25065	203.61051	183.18289	77.43331	0.31475	 	3.95475E33	 	4.66693E-34	 	-3941.18079	25.43889	 
100.0	1.0	0.0	8.37648	7.01563	-10.06879	12.13086	11.50786	0.79443	1.25877	203.87923	183.28363	77.54392	0.3146	 	1.26541E34	 	1.43926E-34	 	-4068.10497	25.38484	 
95.0	1.0	0.0	8.37804	7.01432	-10.08556	12.10659	11.42862	0.78922	1.26708	204.14736	183.38371	77.65431	0.31446	 	4.17893E34	 	4.29978E-35	 	-4194.75626	25.33026	 
90.0	1.0	0.0	8.3796	7.01302	-10.10227	12.08232	11.34918	0.78395	1.27559	204.41489	183.48313	77.76451	0.31432	 	1.4262199999999999E35	 	1.24276E-35	 	-4321.13185	25.27512	 
85.0	1.0	0.0	8.38115	7.01172	-10.11892	12.05804	11.26952	0.77862	1.28432	204.68182	183.58189	77.87449	0.31418	 	5.037229999999999E35	 	3.47025E-36	 	-4447.22875	25.21938	 
80.0	1.0	0.0	8.3827	7.01043	-10.1355	12.03376	11.18964	0.77323	1.29328	204.94815	183.67999	77.98427	0.31404	 	1.8437999999999997E36	 	9.34827E-37	 	-4573.04375	25.163	 
75.0	1.0	0.0	8.38424	7.00914	-10.15202	12.00948	11.10952	0.76778	1.30246	205.21389	183.77744	78.09385	0.31389	 	7.005259999999999E36	 	2.42565E-37	 	-4698.57346	25.10594	 
70.0	1.0	0.0	8.38578	7.00786	-10.16847	11.98519	11.02916	0.76227	1.31188	205.47902	183.87423	78.20322	0.31375	 	2.76712E37	 	6.05262E-38	 	-4823.81421	25.04815	 
65.0	1.0	0.0	8.38731	7.00658	-10.18485	11.96091	10.94855	0.75669	1.32154	205.74356	183.97038	78.31238	0.31361	 	1.13835E38	 	1.44985E-38	 	-4948.76214	24.98959	 
60.0	1.0	0.0	8.38883	7.0053	-10.20117	11.93662	10.86766	0.75105	1.33147	206.0075	184.06587	78.42134	0.31347	 	4.88605E38	 	3.32789E-39	 	-5073.41309	24.93019	 
55.0	1.0	0.0	8.39035	7.00404	-10.21743	11.91232	10.7865	0.74535	1.34166	206.27084	184.16071	78.5301	0.31332	 	2.19241E39	 	7.30528E-40	 	-5197.76262	24.86991	 
50.0	1.0	0.0	8.39186	7.00277	-10.23362	11.88803	10.70504	0.73957	1.35213	206.53359	184.25491	78.63864	0.31318	 	1.03053E40	 	1.53048E-40	 	-5321.806	24.80867	 
45.0	1.0	0.0	8.39337	7.00152	-10.24974	11.86373	10.62328	0.73374	1.36289	206.79573	184.34845	78.74698	0.31304	 	5.08543E40	 	3.05345E-41	 	-5445.53814	24.74643	 
40.0	1.0	0.0	8.39487	7.00026	-10.2658	11.83942	10.5412	0.72783	1.37395	207.05728	184.44136	78.85512	0.3129	 	2.6407800000000003E41	 	5.78771E-42	 	-5568.95362	24.6831	 
35.0	1.0	0.0	8.39637	6.99901	-10.28179	11.81512	10.45879	0.72185	1.38533	207.31823	184.53362	78.96305	0.31275	 	1.44662E42	 	1.03967E-42	 	-5692.04661	24.6186	 
30.0	1.0	0.0	8.39786	6.99777	-10.29772	11.79081	10.37602	0.7158	1.39703	207.57858	184.62524	79.07077	0.31261	 	8.381829999999999E42	 	1.76525E-43	 	-5814.81088	24.55285	 
25.0	1.0	0.0	8.39934	6.99653	-10.31358	 	10.29289	0.70968	1.40908	207.83834	184.71622	79.17828	0.31247	 	5.15128E43	 	2.82492E-44	 	-5937.23975	 	 
