T (C)	Fraction solid (wt)-TOTAL	Fraction liquid (wt)-LIQUID	Density (g/(cm)^3)-TOTAL	Molar volume (cm^3)-TOTAL	Volume change (%)-  	Average expansion coeff. (10e-6 1/K)-  	Thermal conductivity (W/(m*K))-TOTAL	Electrical resistivity (10e-6 Ohm*m)-TOTAL	Electrical conductivity (10e6 1/(Ohm*m))-TOTAL	Young's modulus (GPa)-TOTAL	Bulk modulus (GPa)-TOTAL	Shear modulus(GPa)-TOTAL	Poisson's ratio-TOTAL	Liquid viscosity (mPa s)-  	Total viscosity (mPa s)-  	Liquid diffusivity (10e-9 (m^2)/s)-  	Total diffusivity (10e-9 (m^2)/s)-  	Surface Tension (mN/m)-  	Enthalpy (J/mole)-TOTAL	Specific heat (J/(mole K))-TOTAL	Latent heat (J/mole)-TOTAL
1400.0	0.0	1.0	7.25688	7.92571	0.0	31.63397	28.52513	1.43705	0.69587	0.0	121.787	0.0	0.5	6.8916	6.8916	1.18495	1.18495	1754.62514	47662.749	 	0.0
1395.0	0.0	1.0	7.26085	7.92138	-0.0545686	31.59933	28.44622	1.43673	0.69602	0.0	121.9337	0.0	0.5	6.96506	6.96506	1.16895	1.16895	1757.28586	47460.014	40.547	0.0
1390.0	0.0	1.0	7.2648	7.91707	-0.10898	31.56486	28.36731	1.43641	0.69618	0.0	122.08039	0.0	0.5	7.03976	7.03976	1.15308	1.15308	1759.98485	47257.734	40.456	0.0
1385.0	0.0	1.0	7.26875	7.91277	-0.16324	31.53057	28.2884	1.43609	0.69634	0.0	122.22709	0.0	0.5	7.11571	7.11571	1.13734	1.13734	1762.72279	47055.91	40.3648	0.0
1380.0	0.0	1.0	7.27269	7.90848	-0.21734	31.49645	28.20949	1.43576	0.69649	0.0	122.37379	0.0	0.5	7.19295	7.19295	1.12174	1.12174	1765.50039	46854.536	40.2748	0.0
1375.0	0.0	1.0	7.27663	7.90421	-0.27129	31.46252	28.13058	1.43544	0.69665	0.0	122.52049	0.0	0.5	7.27151	7.27151	1.10626	1.10626	1768.3183	46653.613	40.1846	0.0
1370.0	0.0	1.0	7.28055	7.89994	-0.32508	31.42877	28.05167	1.43511	0.69681	0.0	122.66719	0.0	0.5	7.35141	7.35141	1.09092	1.09092	1771.17721	46453.137	40.0952	0.0
1367.5	0.0	1.0	7.28252	7.89781	-0.35195	31.41195	28.01217	1.43494	0.69689	0.0	122.74062	0.0	0.5	7.39192	7.39192	1.08329	1.08329	1772.62381	46352.954	40.02885	0.0
1365.0	8.0E-5	0.99992	7.2846	7.89558	-0.38019	31.39106	27.97136	1.43485	0.69694	4.88047E-14	122.83998	1.62685E-14	0.49998	7.43471	7.43471	1.07542	1.07542	1774.16095	46247.085	42.39457	6.022
1360.0	2.4E-4	0.99976	7.28873	7.89109	-0.43683	31.34876	27.88969	1.43466	0.69703	3.86677E-12	123.03812	1.28899E-12	0.49992	7.52145	7.52145	1.05977	1.05977	1777.27316	46035.576	42.3018	17.944
1355.0	3.9E-4	0.99961	7.29287	7.88658	-0.49365	31.30563	27.80793	1.43447	0.69712	2.91106E-11	123.23497	9.70438E-12	0.49987	7.60972	7.60972	1.04427	1.04427	1780.43198	45824.686	42.178	29.686
1350.0	5.4E-4	0.99946	7.29697	7.88211	-0.55009	31.26325	27.72601	1.43429	0.69721	1.09058E-10	123.43121	3.63571E-11	0.49982	7.69957	7.69957	1.02891	1.02891	1783.63759	45614.412	42.0548	41.252
1345.0	6.9E-4	0.99931	7.30107	7.87767	-0.60618	31.22155	27.64442	1.43409	0.6973	2.90593E-10	123.62715	9.68793E-11	0.49977	7.79088	7.79088	1.01372	1.01372	1786.89048	45404.749	41.9326	52.642
1340.0	8.4E-4	0.99916	7.30517	7.87326	-0.66171	31.18113	27.56291	1.43389	0.6974	6.32092E-10	123.823	2.10737E-10	0.49972	7.88383	7.88383	0.99868	0.99868	1790.19093	45195.694	41.811	63.857
1335.0	9.9E-4	0.99901	7.30926	7.86889	-0.71695	31.14125	27.48149	1.43368	0.69751	1.20201E-9	124.01854	4.00758E-10	0.49967	7.97842	7.97842	0.98378	0.98378	1793.53948	44987.244	41.69	74.901
1330.0	0.00113	0.99887	7.31334	7.86456	-0.77149	31.10306	27.40014	1.43347	0.69761	2.07653E-9	124.21387	6.92348E-10	0.49963	8.07467	8.07467	0.96903	0.96903	1796.93626	44779.394	41.57	85.773
1325.0	0.00128	0.99872	7.31738	7.86011	-0.82766	31.05987	27.31851	1.43327	0.69771	3.33897E-9	124.40592	1.11331E-9	0.49957	8.17262	8.17262	0.95443	0.95443	1800.38293	44572.142	41.4504	96.475
1321.78	0.00137	0.99863	7.31999	7.85734	-0.8626	31.03539	27.26615	1.43313	0.69777	4.39742E-9	124.53087	1.46625E-9	0.49954	8.23661	8.23661	0.94511	0.94511	1802.62594	44439.107	 	103.269
1320.0	0.0677804	0.93222	7.33846	7.83757	-1.11211	30.35207	27.47168	1.42081	0.70382	0.00182642	125.44338	6.12604E-4	0.49071	8.27961	9.71616	0.93915	0.80029	1802.21536	43371.42	240.1444	1101.067
1315.0	0.22986	0.77014	7.38381	7.78945	-1.71916	28.69642	27.98398	1.39043	0.7192	0.2672	127.82524	0.0909552	0.46886	8.40066	100.45815	0.92271	0.0771601	1801.09982	40757.001	522.8838	3519.785
1310.0	0.35442	0.64558	7.41933	7.75217	-2.18961	27.4285	28.38367	1.36653	0.73178	1.57393	129.67103	0.54206	0.4518	8.52233	546.07125	0.90667	0.0141501	1800.06401	38720.791	407.242	5360.715
1305.0	0.45215	0.54785	7.44774	7.72257	-2.56302	26.43631	28.7008	1.34716	0.7423	4.29279	131.14698	1.49239	0.43822	8.64486	1512.16841	0.891	0.00509372	1802.71587	37096.93767	324.77067	6789.044
1300.0	0.53019	0.46981	7.46977	7.69939	-2.85555	25.6754	28.94646	1.3315	0.75103	8.29977	132.29311	2.90764	0.42723	8.76839	3021.86506	0.87566	0.00254087	1805.38709	35774.53032	264.48147	7916.007
1295.0	0.59349	0.40651	7.48788	7.68042	-3.09489	25.06632	29.14247	1.31834	0.75853	13.26631	133.24858	4.6771	0.41822	8.89333	5032.94092	0.86062	0.00152073	1808.07719	34677.12052	219.48196	8818.412
1290.0	0.6455	0.3545	7.50306	7.66453	-3.29532	24.56836	29.29728	1.30719	0.765	18.84075	134.06674	6.67766	0.41073	9.01979	7484.18205	0.84585	0.0010194	1810.78717	33750.4664	185.33082	9550.496
1285.0	0.68872	0.31128	7.51605	7.65102	-3.46576	24.1561	29.4186	1.29764	0.77063	24.72595	134.78624	8.80278	0.40444	9.14801	10320.35205	0.83132	7.36888E-4	1813.51629	32955.48844	158.99559	10151.337
1280.0	0.725	0.275	7.52735	7.63931	-3.61358	23.8085	29.51233	1.28937	0.77558	30.69839	135.43225	10.97075	0.3991	9.27817	13498.4881	0.81703	5.61584E-4	1816.26546	32263.51734	138.39422	10649.602
1275.0	0.75576	0.24424	7.53734	7.62903	-3.74327	23.51275	29.58318	1.28214	0.77995	36.59744	136.02352	13.12175	0.39453	9.41051	16987.86294	0.80295	4.44796E-4	1819.03381	31653.17275	122.06892	11066.668
1270.0	0.78202	0.21798	7.5463	7.61985	-3.85902	23.25684	29.635	1.27576	0.78385	42.3211	136.57298	15.21699	0.39059	9.54522	20772.5539	0.78906	3.62581E-4	1821.82254	31108.27628	108.97929	11418.712
1265.0	0.80462	0.19538	7.55442	7.61159	-3.96331	23.03369	29.67086	1.27009	0.78735	47.80539	137.09048	17.23146	0.38715	9.68242	24847.36532	0.77536	3.02138E-4	1824.63081	30616.41759	98.37174	11718.142
1260.0	0.82419	0.17581	7.56189	7.60406	-4.05831	22.83707	29.69326	1.26501	0.79051	53.0161	137.58298	19.15119	0.38415	9.82241	29215.27279	0.76182	2.56131E-4	1827.45866	30167.96132	89.69125	11974.59
1255.0	0.84126	0.15874	7.56881	7.59713	-4.14569	22.6622	29.70416	1.26042	0.79339	57.93548	138.05548	20.96841	0.38149	9.96523	33885.77052	0.74845	2.20108E-4	1830.30616	29755.34312	82.52364	12195.62
1250.0	0.85621	0.14379	7.57528	7.5907	-4.22682	22.50514	29.70535	1.25624	0.79602	62.56614	138.51212	22.68304	0.37914	10.11108	38878.30142	0.73524	1.91215E-4	1833.1734	29372.56065	76.55649	12387.231
1245.0	0.86938	0.13062	7.58138	7.5847	-4.30252	22.36353	29.69807	1.25243	0.79845	66.91058	138.95579	24.29509	0.37704	10.26027	44212.47121	0.72218	1.67593E-4	1836.05971	29014.80756	71.55062	12554.225
1240.0	0.88105	0.11895	7.58716	7.57903	-4.37408	22.23362	29.6835	1.24892	0.80069	70.9836	139.38824	25.80936	0.37515	10.41278	49916.29374	0.70925	1.47954E-4	1838.967	28678.2025	67.32101	12700.484
1235.0	0.89142	0.10858	7.59267	7.57365	-4.44197	22.11409	29.66264	1.24566	0.80278	74.80113	139.81157	27.23114	0.37345	10.56892	56022.46692	0.69647	1.31392E-4	1841.89455	28359.58515	63.72347	12829.165
1230.0	0.90068	0.0993238	7.59795	7.56856	-4.50623	22.00489	29.63619	1.24264	0.80474	78.37291	140.22724	28.56347	0.37191	10.72883	62561.88149	0.68381	1.17268E-4	1844.83992	28056.36017	60.645	12942.86
1225.0	0.91106	0.0889415	7.60343	7.56323	-4.57346	21.88546	29.61586	1.23936	0.80687	82.52663	140.68856	30.11532	0.37018	10.89859	70243.84135	0.67092	1.04096E-4	1847.74908	27735.50622	64.17079	13074.589
1220.0	0.92051	0.0794934	7.60873	7.55809	-4.63836	21.77237	29.59116	1.23625	0.8089	86.49254	141.14393	31.59941	0.36858	11.07187	78554.3625	0.65822	9.27726E-5	1850.66563	27427.42698	61.61585	13193.947
1215.0	0.92882	0.0711767	7.61378	7.55317	-4.70037	21.66748	29.56074	1.23338	0.81078	90.14751	141.58593	32.96924	0.36715	11.24788	87423.91502	0.64575	8.30813E-5	1853.59865	27135.17711	58.44997	13297.876
1210.0	0.93618	0.0638227	7.61862	7.54845	-4.75993	21.56949	29.52539	1.23071	0.81254	93.52217	142.01652	34.23577	0.36585	11.42668	96910.16029	0.63351	7.46969E-5	1856.54806	26856.3353	55.76836	13388.794
1205.0	0.94271	0.0572916	7.62328	7.5439	-4.81732	21.47763	29.48575	1.22821	0.81419	96.64351	142.43725	35.40872	0.36469	11.60829	107075.0082	0.62149	6.73778E-5	1859.51296	26588.92423	53.48221	13468.676
1200.0	0.94855	0.0514464	7.6278	7.53951	-4.87277	21.3912	29.44244	1.22586	0.81576	99.5428	142.85046	36.4995	0.36362	11.78741	117991.3212	0.60998	6.09374E-5	1862.49332	26330.70758	51.64333	13539.756
1195.0	0.95424	0.0457602	7.63259	7.53513	-4.92805	21.30458	29.39778	1.22355	0.81729	102.41229	143.2711	37.58022	0.36258	11.91532	129918.2624	0.60138	5.51553E-5	1865.49995	26071.82603	51.77631	13611.894
1190.0	0.95929	0.0407141	7.63726	7.5309	-4.98142	21.22337	29.34951	1.22139	0.81874	105.06223	143.68279	38.57934	0.36164	12.0474	142733.1469	0.59276	5.00323E-5	1868.52081	25822.07927	49.94935	13675.286
1185.0	0.96378	0.0362178	7.64183	7.5268	-5.03315	21.14682	29.29833	1.21934	0.82011	107.51716	144.08669	39.50585	0.36077	12.18388	156527.1194	0.58412	4.54673E-5	1871.55589	25580.17501	48.38085	13731.223
1180.0	0.97539	0.0246126	7.64936	7.51949	-5.12531	20.93768	29.23631	1.21774	0.82119	113.74178	144.85346	41.85528	0.35875	12.29306	176914.3203	0.57695	4.00898E-5	1874.45983	25158.46792	84.34142	13967.346
1175.0	0.98593	0.0140688	7.65655	7.51234	-5.21557	20.73293	29.16517	1.21651	0.82202	119.72333	145.60703	44.11725	0.35688	12.40978	199096.1563	0.56956	3.55007E-5	1877.29998	24746.97673	82.29824	14193.637
1170.0	0.99246	0.00753813	7.66214	7.50676	-5.28599	20.59172	29.09207	1.21535	0.82281	123.72183	146.19499	45.63231	0.35564	12.53059	220449.2919	0.56212	3.19514E-5	1880.16405	24423.48912	64.69752	14332.303
1165.0	0.99686	0.0031412	7.66686	7.50203	-5.34563	20.48489	29.01706	1.21427	0.82354	126.62193	146.69394	46.73294	0.35474	12.65726	242077.4418	0.55456	2.89959E-5	1883.0531	24146.8828	55.32126	14424.465
1160.0	1.0	0.0	7.67105	7.49782	-5.39873	20.39883	28.94176	1.2132	0.82427	128.85832	147.13971	47.58288	0.35404	 	264603.3392	 	2.64352E-5	 	23897.95448	49.78566	14489.325
1156.61	1.0	0.0	7.67273	7.49618	-5.41949	20.39088	28.88709	1.21262	0.82466	129.14856	147.34419	47.69448	0.35392	 	278747.6678	 	2.50344E-5	 	23771.30705	 	 
1155.0	1.0	0.0	7.67464	7.49432	-5.44294	20.34167	28.79598	1.21509	0.82298	129.5013	147.53798	47.83205	0.35371	 	286811.0312	 	2.43033E-5	 	23649.42339	49.70622	 
1150.0	1.0	0.0	7.68047	7.48862	-5.51481	20.19134	28.52464	1.22235	0.81809	130.54619	148.09005	48.24045	0.35308	 	313611.2436	 	2.21486E-5	 	23276.04351	74.67598	 
1145.0	1.0	0.0	7.68618	7.48307	-5.58492	20.0456	28.26728	1.22915	0.81357	131.54209	148.60369	48.63036	0.35247	 	343198.3175	 	2.0168E-5	 	22911.57672	72.89336	 
1140.0	1.0	0.0	7.69175	7.47764	-5.65331	19.90435	28.02202	1.23553	0.80937	132.49981	149.09162	49.00572	0.35188	 	375884.8758	 	1.83493E-5	 	22555.62625	71.19009	 
1135.0	1.0	0.0	7.69719	7.47235	-5.72005	19.76743	27.78794	1.24153	0.80546	133.42358	149.5583	49.3681	0.35131	 	412020.6277	 	1.66808E-5	 	22207.81773	69.5617	 
1130.0	1.0	0.0	7.70252	7.46719	-5.78522	19.63464	27.5643	1.24716	0.80182	134.31617	150.00634	49.71851	0.35077	 	451996.92	 	1.51515E-5	 	21867.79667	68.00421	 
1125.0	1.0	0.0	7.70773	7.46214	-5.84887	19.50582	27.35048	1.25243	0.79845	135.17976	150.4377	50.05778	0.35024	 	496251.9651	 	1.37511E-5	 	21535.22643	66.51405	 
1120.0	1.0	0.0	7.71282	7.45721	-5.91108	19.3808	27.14588	1.25736	0.79532	136.01628	150.85394	50.38662	0.34973	 	545276.7708	 	1.247E-5	 	21209.78639	65.08801	 
1115.0	1.0	0.0	7.71781	7.45239	-5.97191	19.25941	26.94996	1.26196	0.79242	136.82743	151.25642	50.70566	0.34923	 	599621.715	 	1.12991E-5	 	20891.17056	63.72317	 
1110.0	1.0	0.0	7.7227	7.44768	-6.03141	19.14151	26.76218	1.26623	0.78974	137.61476	151.64632	51.01549	0.34875	 	659904.2754	 	1.023E-5	 	20579.08597	62.41692	 
1105.0	1.0	0.0	7.72749	7.44306	-6.08964	19.02695	26.58207	1.27021	0.78727	138.37974	152.02469	51.31666	0.34829	 	726817.5178	 	9.2546E-6	 	20273.25175	61.16684	 
1100.0	1.0	0.0	7.73218	7.43854	-6.14666	18.91557	26.40914	1.27388	0.785	139.1237	152.39247	51.60968	0.34784	 	801140.0067	 	8.36558E-6	 	19973.39803	59.97074	 
1095.0	1.0	0.0	7.73679	7.43412	-6.20252	18.80726	26.24295	1.27728	0.78291	139.8479	152.75051	51.89503	0.34741	 	883746.7508	 	7.55601E-6	 	19679.2653	58.82655	 
1090.0	1.0	0.0	7.7413	7.42978	-6.25726	18.70187	26.0831	1.28041	0.781	140.55353	153.09958	52.17315	0.34699	 	975622.0081	 	6.81944E-6	 	19390.60368	57.73232	 
1089.92	1.0	0.0	7.74138	7.42971	-6.25817	18.70012	26.08047	1.28046	0.78097	140.56521	153.10534	52.17775	0.34698	 	977247.8532	 	6.80768E-6	 	19385.80441	 	 
1085.0	1.0	0.0	7.74573	7.42553	-6.31085	18.59956	25.92922	1.28329	0.77925	141.2419	153.44078	52.44453	0.34658	 	1077891.124	 	6.14978E-6	 	19107.11809	56.69712	 
1080.0	1.0	0.0	7.75008	7.42136	-6.36342	18.49994	25.7809	1.28592	0.77765	141.91384	153.77435	52.70951	0.34619	 	1191789.457	 	5.54157E-6	 	18828.63247	55.69712	 
1075.0	1.0	0.0	7.75435	7.41727	-6.41501	18.40286	25.63777	1.28832	0.7762	142.57035	154.10088	52.96846	0.3458	 	1318723.474	 	4.98966E-6	 	18554.92554	54.74139	 
1070.0	1.0	0.0	7.75855	7.41326	-6.46568	18.30821	25.49951	1.2905	0.77489	143.21234	154.42089	53.22175	0.34543	 	1460281.242	 	4.48926E-6	 	18285.7819	53.82873	 
1065.0	1.0	0.0	7.76268	7.40931	-6.51546	18.21587	25.3658	1.29248	0.77371	143.84071	154.73489	53.4697	0.34507	 	1618255.894	 	4.03594E-6	 	18020.99442	52.9575	 
1060.0	1.0	0.0	7.76675	7.40544	-6.56439	18.12573	25.23635	1.29425	0.77265	144.45626	155.04332	53.71263	0.34471	 	1794673.666	 	3.6256E-6	 	17760.36406	52.12607	 
1057.14	1.0	0.0	7.76905	7.40324	-6.59203	18.07508	25.16405	1.29518	0.77209	144.80324	155.21757	53.84958	0.34452	 	1904856.571	 	3.40855E-6	 	17612.93993	 	 
1057.11	1.0	0.0	7.76908	7.40321	-6.59246	18.07397	25.1631	1.29521	0.77208	144.80644	155.21906	53.85085	0.34451	 	1905903.781	 	3.40661E-6	 	17611.24162	 	 
1055.0	1.0	0.0	7.77077	7.40161	-6.61267	18.03706	25.11055	1.29586	0.77169	145.06003	155.34672	53.95095	0.34437	 	1991884.073	 	3.25439E-6	 	17503.2415	51.42451	 
1050.0	1.0	0.0	7.7747	7.39786	-6.65998	17.95113	24.98877	1.29727	0.77085	145.65246	155.64558	54.18481	0.34403	 	2212421.39	 	2.91896E-6	 	17250.20462	50.60738	 
1045.0	1.0	0.0	7.77859	7.39417	-6.70655	17.86708	24.87048	1.29851	0.77011	146.23424	155.93998	54.41449	0.34371	 	2459233.658	 	2.61608E-6	 	17000.78828	49.88327	 
1040.0	1.0	0.0	7.78241	7.39053	-6.75241	17.78483	24.75545	1.2996	0.76947	146.80602	156.23024	54.64025	0.34339	 	2735653.186	 	2.34283E-6	 	16754.8236	49.19294	 
1035.0	1.0	0.0	7.78618	7.38695	-6.7976	17.70427	24.64346	1.30053	0.76891	147.3684	156.51665	54.86232	0.34307	 	3045460.976	 	2.09648E-6	 	16512.14929	48.53486	 
1030.0	1.0	0.0	7.78991	7.38342	-6.84214	17.62533	24.53433	1.30133	0.76845	147.92194	156.79948	55.08091	0.34277	 	3392951.453	 	1.87458E-6	 	16272.61184	47.90749	 
1025.0	1.0	0.0	7.79358	7.37994	-6.88607	17.54792	24.42787	1.30198	0.76806	148.46718	157.07897	55.29624	0.34247	 	3783005.541	 	1.67484E-6	 	16036.06483	47.3094	 
1020.0	1.0	0.0	7.79721	7.3765	-6.92941	17.47197	24.32391	1.30251	0.76775	149.0046	157.35535	55.5085	0.34218	 	4221176.15	 	1.49521E-6	 	15802.36897	46.73917	 
1015.64	1.0	0.0	7.80034	7.37354	-6.96678	17.4068	24.23509	1.30287	0.76753	149.46766	157.59419	55.6914	0.34193	 	4647878.437	 	1.35336E-6	 	15600.62292	 	 
1015.27	1.0	0.0	7.80129	7.37265	-6.97805	17.37028	24.22442	1.30308	0.76741	149.56783	157.63596	55.73138	0.34186	 	4693312.146	 	1.33988E-6	 	15558.53119	 	 
1015.0	1.0	0.0	7.80148	7.37247	-6.98038	17.36622	24.21894	1.3031	0.7674	149.59674	157.65094	55.7428	0.34185	 	4721876.255	 	1.33149E-6	 	15545.93461	51.28687	 
1010.0	1.0	0.0	7.80503	7.36912	-7.02264	17.29267	24.1198	1.30338	0.76724	150.12142	157.92319	55.95002	0.34157	 	5277834.58	 	1.18661E-6	 	15317.09366	45.76819	 
1005.0	1.0	0.0	7.80854	7.36581	-7.06439	17.22037	24.02269	1.30355	0.76714	150.63951	158.19283	56.15466	0.34129	 	5903920.92	 	1.05664E-6	 	15090.75558	45.26762	 
1000.0	1.0	0.0	7.812	7.36254	-7.10564	17.14925	23.92746	1.30361	0.7671	151.15138	158.46001	56.35685	0.34102	 	6609559.786	 	9.40143E-7	 	14866.80359	44.7904	 
995.0	1.0	0.0	7.81543	7.35931	-7.14641	17.07925	23.83406	1.30358	0.76712	151.6574	158.72488	56.55674	0.34075	 	7405521.53	 	8.35799E-7	 	14645.12825	44.33507	 
990.0	1.0	0.0	7.81883	7.35611	-7.18673	17.01031	23.74236	1.30346	0.76719	152.15787	158.98756	56.75445	0.34049	 	8304127.023	 	7.42417E-7	 	14425.62604	43.90044	 
985.0	1.0	0.0	7.82219	7.35295	-7.22661	16.94236	23.65224	1.30325	0.76732	152.65312	159.24818	56.95011	0.34024	 	9319482.328	 	6.58912E-7	 	14208.19944	43.48532	 
980.0	1.0	0.0	7.82552	7.34982	-7.26607	16.87536	23.56362	1.30295	0.76749	153.14343	159.50684	57.14382	0.33998	 	1.046775482E7	 	5.843E-7	 	13992.75585	43.08872	 
975.0	1.0	0.0	7.82882	7.34673	-7.30513	16.80925	23.4764	1.30257	0.76771	153.62905	159.76365	57.3357	0.33973	 	1.176749056E7	 	5.1769E-7	 	13779.2082	42.70953	 
970.0	1.0	0.0	7.83208	7.34366	-7.3438	16.74398	23.3905	1.30212	0.76798	154.11023	160.01869	57.52583	0.33949	 	1.323998585E7	 	4.58271E-7	 	13567.47379	42.34688	 
965.0	1.0	0.0	7.83532	7.34063	-7.3821	16.6795	23.30586	1.30159	0.76829	154.58721	160.27204	57.71431	0.33924	 	1.490971882E7	 	4.05313E-7	 	13357.4749	41.99978	 
960.0	1.0	0.0	7.83853	7.33762	-7.42005	16.61576	23.2224	1.30099	0.76864	155.06019	160.52378	57.90123	0.33901	 	1.68048535E7	 	3.58152E-7	 	13149.13755	41.66747	 
955.0	1.0	0.0	7.84172	7.33464	-7.45765	16.55273	23.14005	1.30033	0.76904	155.52937	160.77398	58.08666	0.33877	 	1.895782689E7	 	3.16191E-7	 	12942.39246	41.34902	 
950.0	1.0	0.0	7.84488	7.33168	-7.49492	16.49036	23.05876	1.2996	0.76947	155.99493	161.02271	58.27067	0.33854	 	2.140603488E7	 	2.78888E-7	 	12737.17346	41.0438	 
945.0	1.0	0.0	7.84801	7.32875	-7.53188	16.42862	22.97867	1.2988	0.76994	156.45706	161.27001	58.45334	0.33831	 	2.419263554E7	 	2.45756E-7	 	12533.41844	40.751	 
940.0	1.0	0.0	7.85113	7.32585	-7.56853	16.36746	22.89932	1.29795	0.77045	156.9159	161.51594	58.63472	0.33808	 	2.736748979E7	 	2.16355E-7	 	12331.06877	40.46993	 
935.0	1.0	0.0	7.85421	7.32297	-7.60488	16.30685	22.82087	1.29704	0.77098	157.37161	161.76054	58.81488	0.33786	 	3.098826097E7	 	1.90288E-7	 	12130.06839	40.20007	 
930.0	1.0	0.0	7.85728	7.32011	-7.64095	16.24676	22.74327	1.29608	0.77156	157.82431	162.00387	58.99387	0.33763	 	3.512170968E7	 	1.67198E-7	 	11930.36477	39.94073	 
925.0	1.0	0.0	7.86033	7.31727	-7.67674	16.18716	22.66648	1.29507	0.77216	158.27416	162.24596	59.17174	0.33741	 	3.984521026E7	 	1.46765E-7	 	11731.90814	39.69132	 
920.0	1.0	0.0	7.86335	7.31446	-7.71227	16.12802	22.59046	1.29401	0.77279	158.72125	162.48685	59.34855	0.3372	 	4.524853464E7	 	1.287E-7	 	11534.65103	39.45142	 
915.0	1.0	0.0	7.86636	7.31166	-7.74753	16.0693	22.51517	1.29289	0.77346	159.16571	162.72657	59.52433	0.33698	 	5.143596097E7	 	1.12743E-7	 	11338.54879	39.22045	 
910.0	1.0	0.0	7.86935	7.30889	-7.78255	16.01098	22.44058	1.29173	0.77416	159.60765	162.96515	59.69912	0.33677	 	5.852874372E7	 	9.86637E-8	 	11143.55902	38.99795	 
905.0	1.0	0.0	7.87232	7.30613	-7.81733	15.95303	22.36666	1.29052	0.77488	160.04715	163.20262	59.87298	0.33656	 	6.666804288E7	 	8.62521E-8	 	10949.64153	38.7835	 
900.0	1.0	0.0	7.87527	7.30339	-7.85187	15.89544	22.29337	1.28927	0.77563	160.48431	163.43902	60.04592	0.33635	 	7.60183719E7	 	7.5322E-8	 	10756.75832	38.57664	 
895.0	1.0	0.0	7.8782	7.30067	-7.88618	15.83816	22.22069	1.28797	0.77641	160.91921	163.67435	60.218	0.33614	 	8.6771699E7	 	6.57063E-8	 	10564.87295	38.37707	 
890.0	1.0	0.0	7.88112	7.29797	-7.92028	15.7812	22.14858	1.28664	0.77722	161.35194	163.90865	60.38923	0.33593	 	9.915227065E7	 	5.72558E-8	 	10373.95121	38.18435	 
885.0	1.0	0.0	7.88402	7.29529	-7.95415	15.72451	22.07704	1.28526	0.77805	161.78258	164.14194	60.55966	0.33573	 	1.134223574E8	 	4.98371E-8	 	10183.96053	37.99814	 
880.0	1.0	0.0	7.8869	7.29262	-7.98782	15.66808	22.00602	1.28384	0.77891	162.21118	164.37423	60.7293	0.33553	 	1.298890675E8	 	4.33311E-8	 	9994.86961	37.81818	 
875.0	1.0	0.0	7.88977	7.28997	-8.02128	15.61189	21.93552	1.28238	0.7798	162.63782	164.60555	60.89818	0.33533	 	1.489124553E8	 	3.76317E-8	 	9806.6489	37.64414	 
870.0	1.0	0.0	7.89263	7.28733	-8.05455	15.55592	21.86551	1.28088	0.78071	163.06255	164.83591	61.06634	0.33513	 	1.709151362E8	 	3.26445E-8	 	9619.27113	37.47555	 
865.0	1.0	0.0	7.89547	7.28471	-8.08762	15.50016	21.79596	1.27935	0.78165	163.48544	165.06533	61.23378	0.33493	 	1.963938066E8	 	2.82851E-8	 	9432.70979	37.31227	 
860.0	1.0	0.0	7.89829	7.2821	-8.1205	15.44458	21.72687	1.27778	0.78261	163.90654	165.29382	61.40054	0.33473	 	2.259329212E8	 	2.44791E-8	 	9246.93965	37.15403	 
855.0	1.0	0.0	7.9011	7.27951	-8.1532	15.38917	21.65821	1.27618	0.78359	164.3259	165.52139	61.56663	0.33454	 	2.602211031E8	 	2.11598E-8	 	9061.93687	37.00056	 
850.0	1.0	0.0	7.9039	7.27693	-8.18571	15.33391	21.58997	1.27454	0.7846	164.74357	165.74807	61.73207	0.33434	 	3.00070714E8	 	1.82684E-8	 	8877.67833	36.85171	 
845.0	1.0	0.0	7.90612	7.27489	-8.21149	15.30898	21.52512	1.27268	0.78574	165.10672	165.97314	61.87464	0.3342	 	3.415365681E8	 	1.5979E-8	 	8724.40908	30.65385	 
840.0	1.0	0.0	7.90834	7.27285	-8.23719	15.28404	21.46025	1.27082	0.78689	165.46924	166.19724	62.01701	0.33406	 	3.891847412E8	 	1.396E-8	 	8568.23881	31.23406	 
835.0	1.0	0.0	7.91055	7.27082	-8.26283	15.2591	21.39538	1.26895	0.78805	165.83112	166.42037	62.15916	0.33392	 	4.440033329E8	 	1.21815E-8	 	8412.29705	31.18835	 
830.0	1.0	0.0	7.91275	7.26879	-8.28841	15.23417	21.3305	1.26707	0.78922	166.19238	166.64253	62.30111	0.33378	 	5.07148852E8	 	1.06166E-8	 	8256.58314	31.14278	 
825.0	1.0	0.0	7.91495	7.26677	-8.31391	15.20923	21.26561	1.26517	0.79041	166.55301	166.86372	62.44284	0.33364	 	5.799766922E8	 	9.2414E-9	 	8101.09635	31.09736	 
820.0	1.0	0.0	7.91715	7.26476	-8.33936	15.1843	21.20072	1.26327	0.7916	166.91301	167.08395	62.58437	0.3335	 	6.64077442E8	 	8.03429E-9	 	7945.83597	31.05208	 
815.0	1.0	0.0	7.91934	7.26275	-8.36473	15.15936	21.13581	1.26135	0.7928	167.27238	167.30321	62.7257	0.33336	 	7.613202072E8	 	6.97603E-9	 	7790.80123	31.00695	 
810.0	1.0	0.0	7.92153	7.26074	-8.39004	15.13443	21.0709	1.25942	0.79401	167.63111	167.52152	62.86681	0.33322	 	8.739043729E8	 	6.04939E-9	 	7635.99139	30.96197	 
805.0	1.0	0.0	7.92371	7.25874	-8.41528	15.10949	21.00598	1.25748	0.79524	167.98922	167.73888	63.00771	0.33308	 	1.004421539E9	 	5.23902E-9	 	7481.40567	30.91714	 
800.0	1.0	0.0	7.92589	7.25674	-8.44046	15.08456	20.94104	1.25553	0.79647	168.3467	167.95528	63.14841	0.33294	 	1.155929738E9	 	4.53123E-9	 	7327.04326	30.87248	 
795.0	1.0	0.0	7.92807	7.25475	-8.46557	15.05963	20.8761	1.25357	0.79772	168.70355	168.17073	63.2889	0.33281	 	1.332042498E9	 	3.91382E-9	 	7172.90333	30.82799	 
790.0	1.0	0.0	7.93024	7.25277	-8.49061	15.0347	20.81115	1.2516	0.79898	169.05978	168.38524	63.42918	0.33267	 	1.537035896E9	 	3.37596E-9	 	7018.98504	30.78366	 
785.0	1.0	0.0	7.9324	7.25079	-8.51559	15.00976	20.74619	1.24961	0.80025	169.41537	168.5988	63.56925	0.33253	 	1.775977404E9	 	2.90801E-9	 	6865.28752	30.7395	 
780.0	1.0	0.0	7.93456	7.24881	-8.5405	14.98483	20.68122	1.24761	0.80153	169.77033	168.81142	63.70911	0.33239	 	2.054881231E9	 	2.50144E-9	 	6711.80987	30.69553	 
775.0	1.0	0.0	7.93672	7.24685	-8.56534	14.9599	20.61624	1.2456	0.80282	170.12467	169.0231	63.84877	0.33225	 	2.380895896E9	 	2.14867E-9	 	6558.55117	30.65174	 
770.0	1.0	0.0	7.93887	7.24488	-8.59012	14.93497	20.55125	1.24358	0.80413	170.47838	169.23384	63.98821	0.33211	 	2.762531061E9	 	1.843E-9	 	6405.51045	30.60814	 
765.0	1.0	0.0	7.94102	7.24292	-8.61483	14.91004	20.48625	1.24155	0.80545	170.83146	169.44365	64.12745	0.33197	 	3.209932307E9	 	1.57852E-9	 	6252.68672	30.56475	 
760.0	1.0	0.0	7.94316	7.24097	-8.63948	14.88511	20.42124	1.2395	0.80678	171.18391	169.65253	64.26648	0.33183	 	3.735214511E9	 	1.35E-9	 	6100.07897	30.52155	 
755.0	1.0	0.0	7.9453	7.23902	-8.66406	14.86019	20.35622	1.23744	0.80812	171.53573	169.86048	64.4053	0.33169	 	4.352867006E9	 	1.15284E-9	 	5947.68612	30.47857	 
750.0	1.0	0.0	7.94743	7.23708	-8.68857	14.83526	20.29119	1.23537	0.80947	171.88693	170.06751	64.54391	0.33155	 	5.080246784E9	 	9.82972E-10	 	5795.5071	30.4358	 
745.0	1.0	0.0	7.94956	7.23514	-8.71302	14.81033	20.22614	1.23329	0.81084	172.2375	170.27361	64.68232	0.33141	 	5.938179915E9	 	8.36845E-10	 	5643.54075	30.39327	 
740.0	1.0	0.0	7.95168	7.23321	-8.7374	14.7854	20.16109	1.23119	0.81222	172.58744	170.47879	64.82051	0.33127	 	6.951696183E9	 	7.11328E-10	 	5491.78589	30.35097	 
735.0	1.0	0.0	7.9538	7.23128	-8.76171	14.76048	20.09602	1.22908	0.81361	172.93675	170.68305	64.9585	0.33113	 	8.150928001E9	 	6.03677E-10	 	5340.24129	30.30892	 
730.0	1.0	0.0	7.95591	7.22936	-8.78596	14.73555	20.03095	1.22696	0.81502	173.28544	170.8864	65.09627	0.33099	 	9.572212314E9	 	5.11494E-10	 	5188.90567	30.26712	 
725.0	1.0	0.0	7.95802	7.22744	-8.81014	14.71063	19.96586	1.22482	0.81644	173.6335	171.08883	65.23384	0.33085	 	1.12594E10	 	4.32679E-10	 	5037.77769	30.2256	 
720.0	1.0	0.0	7.96013	7.22553	-8.83426	14.6857	19.90076	1.22268	0.81788	173.98093	171.29036	65.3712	0.33072	 	1.3265699999999998E10	 	3.65401E-10	 	4886.85597	30.18434	 
715.0	1.0	0.0	7.96223	7.22363	-8.85831	14.66078	19.83565	1.22051	0.81933	174.32774	171.49097	65.50835	0.33058	 	1.5655499999999998E10	 	3.08065E-10	 	4736.13904	30.14339	 
710.0	1.0	0.0	7.96433	7.22172	-8.88229	14.63585	19.77053	1.21834	0.82079	174.67392	171.69068	65.6453	0.33044	 	1.85069E10	 	2.59282E-10	 	4585.6254	30.10273	 
705.0	1.0	0.0	7.96642	7.21983	-8.90621	14.61093	19.70539	1.21615	0.82227	175.01947	171.88949	65.78203	0.3303	 	2.19151E10	 	2.17846E-10	 	4435.31345	30.06239	 
700.0	1.0	0.0	7.9685	7.21794	-8.93006	14.58601	19.64024	1.21395	0.82376	175.3644	172.08739	65.91856	0.33016	 	2.5996099999999996E10	 	1.82709E-10	 	4285.20152	30.02239	 
695.0	1.0	0.0	7.97058	7.21605	-8.95385	14.56108	19.57508	1.21173	0.82527	175.7087	172.2844	66.05487	0.33002	 	3.0891399999999996E10	 	1.52965E-10	 	4135.28789	29.98273	 
690.0	1.0	0.0	7.97266	7.21417	-8.97757	14.53616	19.50991	1.2095	0.82679	176.05237	172.48051	66.19098	0.32988	 	3.67744E10	 	1.27831E-10	 	3985.5707	29.94344	 
685.0	1.0	0.0	7.97473	7.2123	-9.00122	14.51124	19.44472	1.20725	0.82833	176.39542	172.67573	66.32688	0.32974	 	4.38575E10	 	1.06629E-10	 	3836.04807	29.90453	 
680.0	1.0	0.0	7.9768	7.21043	-9.0248	14.48632	19.37952	1.20499	0.82988	176.73784	172.87006	66.46257	0.3296	 	5.240169999999999E10	 	8.87775E-11	 	3686.71794	29.86603	 
675.0	1.0	0.0	7.97886	7.20857	-9.04832	14.4614	19.3143	1.20272	0.83145	177.07963	173.0635	66.59805	0.32947	 	6.272799999999999E10	 	7.37739E-11	 	3537.57822	29.82794	 
670.0	1.0	0.0	7.98092	7.20671	-9.07178	14.43648	19.24908	1.20043	0.83303	177.4208	173.25605	66.73332	0.32933	 	7.52325E10	 	6.11874E-11	 	3388.62666	29.79031	 
665.0	1.0	0.0	7.98298	7.20485	-9.09516	14.41156	19.18384	1.19813	0.83464	177.76135	173.44772	66.86838	0.32919	 	9.04048E10	 	5.06486E-11	 	3239.86091	29.75315	 
660.0	1.0	0.0	7.98502	7.203	-9.11849	14.38664	19.11858	1.19581	0.83625	178.10127	173.63851	67.00324	0.32905	 	1.08851E11	 	4.18414E-11	 	3091.28444	29.71529	 
655.0	1.0	0.0	7.98707	7.20116	-9.14174	14.36172	19.05331	1.19348	0.83789	178.44056	173.82842	67.13788	0.32891	 	1.31323E11	 	3.44955E-11	 	2942.93006	29.67087	 
650.0	1.0	0.0	7.98911	7.19932	-9.16493	14.33681	18.98802	1.19113	0.83954	178.77923	174.01745	67.27232	0.32877	 	1.58758E11	 	2.83808E-11	 	2794.84145	29.61772	 
645.0	1.0	0.0	7.99114	7.19749	-9.18805	14.31189	18.92272	1.18877	0.84121	179.11728	174.20561	67.40654	0.32863	 	1.9232E11	 	2.3301E-11	 	2647.01765	29.56476	 
640.0	1.0	0.0	7.99317	7.19566	-9.21111	14.28697	18.85741	1.18639	0.8429	179.4547	174.3929	67.54056	0.3285	 	2.33468E11	 	1.90898E-11	 	2499.45774	29.51198	 
635.0	1.0	0.0	7.99519	7.19384	-9.2341	14.26206	18.79208	1.18399	0.8446	179.79149	174.57932	67.67437	0.32836	 	2.84025E11	 	1.56059E-11	 	2352.16081	29.45939	 
630.0	1.0	0.0	7.99721	7.19202	-9.25702	14.23714	18.72673	1.18158	0.84632	180.12766	174.76487	67.80796	0.32822	 	3.46281E11	 	1.27297E-11	 	2205.12594	29.40697	 
625.0	1.0	0.0	7.99923	7.19021	-9.27988	14.21223	18.66137	1.17916	0.84806	180.4632	174.94955	67.94135	0.32808	 	4.23115E11	 	1.03604E-11	 	2058.35174	29.35484	 
620.0	1.0	0.0	8.00124	7.18841	-9.30267	14.18731	18.59599	1.17671	0.84982	180.79812	175.13338	68.07453	0.32794	 	5.1816E11	 	8.41294E-12	 	1911.83619	29.30311	 
615.0	1.0	0.0	8.00324	7.18661	-9.3254	14.1624	18.5306	1.17426	0.8516	181.13242	175.31634	68.2075	0.3278	 	6.36003E11	 	6.81575E-12	 	1765.57896	29.25145	 
610.0	1.0	0.0	8.00525	7.18481	-9.34806	14.13748	18.46519	1.17178	0.8534	181.46609	175.49845	68.34026	0.32767	 	7.8246E11	 	5.50882E-12	 	1619.57914	29.19996	 
605.0	1.0	0.0	8.00724	7.18302	-9.37065	14.11257	18.39976	1.16929	0.85522	181.79914	175.6797	68.47282	0.32753	 	9.64918E11	 	4.44186E-12	 	1473.83585	29.14866	 
600.0	1.0	0.0	8.00923	7.18123	-9.39318	14.08766	18.33431	1.16678	0.85706	182.13156	175.8601	68.60516	0.32739	 	1.19278E12	 	3.57285E-12	 	1328.34819	29.09753	 
595.0	1.0	0.0	8.01122	7.17945	-9.41564	14.06275	18.26885	1.16426	0.85892	182.46336	176.03965	68.73729	0.32725	 	1.47806E12	 	2.86674E-12	 	1183.11529	29.04658	 
590.0	1.0	0.0	8.0132	7.17768	-9.43803	14.03784	18.20337	1.16172	0.86079	182.79454	176.21835	68.86921	0.32711	 	1.83613E12	 	2.2944E-12	 	1038.13626	28.99581	 
585.0	1.0	0.0	8.01517	7.17591	-9.46036	14.01292	18.13787	1.15916	0.86269	183.12509	176.3962	69.00093	0.32698	 	2.28671E12	 	1.83163E-12	 	893.41021	28.94521	 
580.0	1.0	0.0	8.01715	7.17414	-9.48262	13.98801	18.07235	1.15658	0.86462	183.45502	176.57321	69.13243	0.32684	 	2.8552E12	 	1.4584E-12	 	748.93626	28.89479	 
575.0	1.0	0.0	8.01911	7.17239	-9.50482	13.9631	18.00681	1.15399	0.86656	183.78432	176.74937	69.26372	0.3267	 	3.57436E12	 	1.15814E-12	 	604.71355	28.84454	 
570.0	1.0	0.0	8.02107	7.17063	-9.52695	13.93819	17.94126	1.15138	0.86852	184.113	176.9247	69.39481	0.32656	 	4.4866E12	 	9.17221E-13	 	460.7412	28.79447	 
565.0	1.0	0.0	8.02303	7.16888	-9.54901	13.91329	17.87568	1.14875	0.87051	184.44106	177.09919	69.52568	0.32642	 	5.64696E12	 	7.24426E-13	 	317.01832	28.74457	 
560.0	1.0	0.0	8.02498	7.16714	-9.57101	13.88838	17.81009	1.1461	0.87252	184.76849	177.27285	69.65635	0.32629	 	7.12706E12	 	5.70557E-13	 	173.54408	28.69485	 
555.0	1.0	0.0	8.02693	7.1654	-9.59294	13.86347	17.74447	1.14344	0.87456	185.0953	177.44567	69.7868	0.32615	 	9.02043E12	 	4.48093E-13	 	30.31759	28.6453	 
550.0	1.0	0.0	8.02887	7.16367	-9.6148	13.83856	17.67883	1.14075	0.87661	185.42149	177.61766	69.91705	0.32601	 	1.14495E13	 	3.50896E-13	 	-112.662	28.59592	 
545.0	1.0	0.0	8.03081	7.16194	-9.6366	13.81366	17.61318	1.13805	0.8787	185.74706	177.78882	70.04708	0.32587	 	1.45751E13	 	2.73972E-13	 	-255.39555	28.54671	 
540.0	1.0	0.0	8.03274	7.16022	-9.65833	13.78875	17.5475	1.13533	0.8808	186.072	177.95915	70.17691	0.32574	 	1.86092E13	 	2.1327E-13	 	-397.8839	28.49767	 
535.0	1.0	0.0	8.03467	7.1585	-9.68	13.76384	17.4818	1.13259	0.88293	186.39632	178.12867	70.30652	0.3256	 	2.38317E13	 	1.6551E-13	 	-540.12791	28.4488	 
530.0	1.0	0.0	8.03659	7.15679	-9.7016	13.73894	17.41608	1.12983	0.88509	186.72002	178.29735	70.43592	0.32546	 	3.0614E13	 	1.28045E-13	 	-682.12842	28.4001	 
525.0	1.0	0.0	8.03851	7.15508	-9.72314	13.71403	17.35033	1.12705	0.88727	187.04309	178.46522	70.56512	0.32532	 	3.94502E13	 	9.87467E-14	 	-823.88627	28.35157	 
520.0	1.0	0.0	8.04042	7.15338	-9.7446	13.68913	17.28457	1.12425	0.88948	187.36554	178.63228	70.6941	0.32519	 	5.09994E13	 	7.59061E-14	 	-965.40231	28.30321	 
515.0	1.0	0.0	8.04232	7.15168	-9.766	13.66423	17.21878	1.12143	0.89172	187.68737	178.79851	70.82288	0.32505	 	6.6145E13	 	5.81566E-14	 	-1106.67736	28.25501	 
510.0	1.0	0.0	8.04423	7.14999	-9.78734	13.63932	17.15296	1.11859	0.89398	188.00858	178.96393	70.95144	0.32491	 	8.60737E13	 	4.4408E-14	 	-1247.71224	28.20698	 
505.0	1.0	0.0	8.04612	7.14831	-9.80861	13.61442	17.08712	1.11573	0.89627	188.32916	179.12854	71.0798	0.32477	 	1.12386E14	 	3.37938E-14	 	-1388.50779	28.15911	 
500.0	1.0	0.0	8.04802	7.14663	-9.82981	13.58952	17.02126	1.11285	0.89859	188.64912	179.29234	71.20794	0.32464	 	1.4725E14	 	2.56269E-14	 	-1529.06482	28.11141	 
495.0	1.0	0.0	8.0499	7.14495	-9.85095	13.56462	16.95537	1.10995	0.90094	188.96846	179.45534	71.33587	0.3245	 	1.93609E14	 	1.93646E-14	 	-1669.38414	28.06386	 
490.0	1.0	0.0	8.05178	7.14328	-9.87202	13.53971	16.88946	1.10703	0.90332	189.28718	179.61753	71.4636	0.32436	 	2.5547699999999997E14	 	1.45796E-14	 	-1809.46657	28.01649	 
485.0	1.0	0.0	8.05366	7.14162	-9.89303	13.51481	16.82352	1.10409	0.90572	189.60528	179.77891	71.59111	0.32422	 	3.3835E14	 	1.09364E-14	 	-1949.31291	27.96927	 
480.0	1.0	0.0	8.05553	7.13996	-9.91397	13.48991	16.75756	1.10113	0.90816	189.92275	179.9395	71.71841	0.32409	 	4.49782E14	 	8.17271E-15	 	-2088.92396	27.92221	 
475.0	1.0	0.0	8.0574	7.1383	-9.93484	13.46501	16.69156	1.09814	0.91063	190.2396	180.09928	71.8455	0.32395	 	6.00191E14	 	6.08395E-15	 	-2228.30052	27.87531	 
470.0	1.0	0.0	8.05926	7.13665	-9.95564	13.44011	16.62554	1.09513	0.91313	190.55584	180.25827	71.97238	0.32381	 	8.04014E14	 	4.51128E-15	 	-2367.44335	27.82857	 
465.0	1.0	0.0	8.06112	7.13501	-9.97639	13.41522	16.5595	1.0921	0.91566	190.87144	180.41646	72.09905	0.32368	 	1.08133E15	 	3.33176E-15	 	-2506.35325	27.78198	 
460.0	1.0	0.0	8.06297	7.13337	-9.99706	13.39032	16.49342	1.08905	0.91823	191.18643	180.57386	72.22551	0.32354	 	1.46018E15	 	2.4506E-15	 	-2645.03101	27.73555	 
455.0	1.0	0.0	8.06482	7.13174	-10.01767	13.36542	16.42732	1.08598	0.92083	191.5008	180.73047	72.35176	0.3234	 	1.97992E15	 	1.79498E-15	 	-2783.47738	27.68927	 
450.0	1.0	0.0	8.06666	7.13011	-10.03821	13.34052	16.36118	1.08288	0.92346	191.81454	180.88629	72.4778	0.32326	 	2.69598E15	 	1.30918E-15	 	-2921.69313	27.64315	 
445.0	1.0	0.0	8.0685	7.12849	-10.05869	13.31563	16.29502	1.07976	0.92613	192.12767	181.04133	72.60362	0.32313	 	3.68683E15	 	9.50711E-16	 	-3059.67902	27.59718	 
440.0	1.0	0.0	8.07033	7.12687	-10.07909	13.29073	16.22882	1.07661	0.92884	192.44017	181.19558	72.72924	0.32299	 	5.06403E15	 	6.8734E-16	 	-3197.43579	27.55135	 
435.0	1.0	0.0	8.07215	7.12526	-10.09944	13.26584	16.16259	1.07345	0.93158	192.75205	181.34904	72.85465	0.32285	 	6.98691E15	 	4.94683E-16	 	-3334.96419	27.50568	 
430.0	1.0	0.0	8.07397	7.12365	-10.11972	13.24094	16.09633	1.07025	0.93436	193.06331	181.50173	72.97984	0.32272	 	9.68416E15	 	3.54383E-16	 	-3472.26496	27.46015	 
425.0	1.0	0.0	8.07579	7.12205	-10.13993	13.21605	16.03004	1.06704	0.93717	193.37395	181.65363	73.10482	0.32258	 	1.34856E16	 	2.52677E-16	 	-3609.33873	27.41475	 
420.0	1.0	0.0	8.0776	7.12045	-10.16007	13.19115	15.96372	1.0638	0.94003	193.68397	181.80476	73.22959	0.32244	 	1.88692E16	 	1.79292E-16	 	-3746.18636	27.36953	 
415.0	1.0	0.0	8.07941	7.11886	-10.18015	13.16626	15.89736	1.06053	0.94292	193.99337	181.95512	73.35416	0.32231	 	2.65311E16	 	1.26595E-16	 	-3882.80822	27.32437	 
410.0	1.0	0.0	8.08121	7.11727	-10.20016	13.14137	15.83096	1.05724	0.94586	194.30214	182.1047	73.47851	0.32217	 	3.74907E16	 	8.89363E-17	 	-4019.20451	27.27926	 
405.0	1.0	0.0	8.083	7.11569	-10.22011	13.11647	15.76454	1.05393	0.94883	194.6103	182.25351	73.60264	0.32203	 	5.32485E16	 	6.21592E-17	 	-4155.37544	27.23419	 
400.0	1.0	0.0	8.08479	7.11412	-10.23999	13.09158	15.69807	1.05059	0.95185	194.91783	182.40155	73.72657	0.3219	 	7.60246E16	 	4.3216E-17	 	-4291.32121	27.18915	 
395.0	1.0	0.0	8.08658	7.11255	-10.25981	13.06669	15.63157	1.04722	0.95491	195.22475	182.54883	73.85029	0.32176	 	1.09123E17	 	2.98844E-17	 	-4427.04201	27.14416	 
390.0	1.0	0.0	8.08836	7.11098	-10.27956	13.0418	15.56503	1.04383	0.95801	195.53104	182.69533	73.97379	0.32162	 	1.57487E17	 	2.0552E-17	 	-4562.538	27.0992	 
385.0	1.0	0.0	8.09013	7.10942	-10.29924	13.01691	15.49845	1.04041	0.96116	195.83672	182.84108	74.09708	0.32149	 	2.28556E17	 	1.40546E-17	 	-4697.80938	27.05428	 
380.0	1.0	0.0	8.0919	7.10787	-10.31885	12.99202	15.43183	1.03696	0.96436	196.14177	182.98607	74.22017	0.32135	 	3.33595E17	 	9.55609E-18	 	-4832.85627	27.00938	 
375.0	1.0	0.0	8.09367	7.10632	-10.3384	12.96713	15.36517	1.03348	0.9676	196.4462	183.13029	74.34304	0.32121	 	4.89755E17	 	6.45927E-18	 	-4967.67883	26.96451	 
370.0	1.0	0.0	8.09543	7.10477	-10.35789	12.94224	15.29848	1.02998	0.97089	196.75001	183.27376	74.4657	0.32108	 	7.23321E17	 	4.33978E-18	 	-5102.27721	26.91968	 
365.0	1.0	0.0	8.09718	7.10323	-10.37731	12.91735	15.23173	1.02645	0.97423	197.05321	183.41647	74.58814	0.32094	 	1.07482E18	 	2.89782E-18	 	-5236.65152	26.87486	 
360.0	1.0	0.0	8.09893	7.1017	-10.39666	12.89246	15.16495	1.0229	0.97762	197.35578	183.55843	74.71038	0.32081	 	1.60716E18	 	1.92279E-18	 	-5370.80187	26.83007	 
355.0	1.0	0.0	8.10067	7.10017	-10.41595	12.86758	15.09812	1.01931	0.98106	197.65773	183.69963	74.8324	0.32067	 	2.4186E18	 	1.26761E-18	 	-5504.72836	26.7853	 
350.0	1.0	0.0	8.10241	7.09865	-10.43516	12.84269	15.03125	1.0157	0.98455	197.95906	183.84009	74.95421	0.32053	 	3.66368E18	 	8.30159E-19	 	-5638.43107	26.74054	 
345.0	1.0	0.0	8.10414	7.09713	-10.45432	12.8178	14.96433	1.01205	0.98809	198.25978	183.97979	75.07581	0.3204	 	5.58713E18	 	5.39998E-19	 	-5771.91008	26.6958	 
340.0	1.0	0.0	8.10587	7.09562	-10.47341	12.79292	14.89737	1.00838	0.99169	198.55987	184.11876	75.1972	0.32026	 	8.57922E18	 	3.48823E-19	 	-5905.16544	26.65107	 
335.0	1.0	0.0	8.10759	7.09411	-10.49243	12.76803	14.83036	1.00467	0.99535	198.85934	184.25697	75.31838	0.32012	 	1.32669E19	 	2.23731E-19	 	-6038.1972	26.60635	 
330.0	1.0	0.0	8.10931	7.09261	-10.51138	12.74315	14.76329	1.00094	0.99906	199.1582	184.39445	75.43934	0.31999	 	2.06648E19	 	1.42456E-19	 	-6171.00539	26.56164	 
325.0	1.0	0.0	8.11102	7.09111	-10.53027	12.71827	14.69618	0.99718	1.00283	199.45643	184.53118	75.56009	0.31985	 	3.24273E19	 	9.00298E-20	 	-6303.59001	26.51692	 
320.0	1.0	0.0	8.11273	7.08962	-10.5491	12.69338	14.62902	0.99338	1.00666	199.75404	184.66717	75.68063	0.31972	 	5.12729E19	 	5.64629E-20	 	-6435.95105	26.47221	 
315.0	1.0	0.0	8.11443	7.08813	-10.56785	12.6685	14.5618	0.98955	1.01056	200.05104	184.80243	75.80096	0.31958	 	8.17051E19	 	3.51339E-20	 	-6568.08849	26.42749	 
310.0	1.0	0.0	8.11613	7.08665	-10.58654	12.64362	14.49453	0.98569	1.01451	200.34741	184.93695	75.92108	0.31945	 	1.3124399999999998E20	 	2.16864E-20	 	-6700.00231	26.38276	 
305.0	1.0	0.0	8.11782	7.08517	-10.60517	12.61873	14.42721	0.9818	1.01853	200.64317	185.07074	76.04098	0.31931	 	2.1255499999999997E20	 	1.32757E-20	 	-6831.69242	26.33802	 
300.0	1.0	0.0	8.1195	7.0837	-10.62373	12.59385	14.35983	0.97788	1.02262	200.9383	185.20379	76.16067	0.31917	 	3.4714899999999997E20	 	8.05822E-21	 	-6963.15875	26.29327	 
295.0	1.0	0.0	8.12119	7.08224	-10.64222	12.56897	14.29239	0.97392	1.02678	201.23282	185.33612	76.28015	0.31904	 	5.7188699999999997E20	 	4.84886E-21	 	-7094.40119	26.24849	 
290.0	1.0	0.0	8.12286	7.08078	-10.66065	12.54409	14.22489	0.96993	1.031	201.52672	185.46771	76.39941	0.3189	 	9.505039999999999E20	 	2.89172E-21	 	-7225.41965	26.20369	 
285.0	1.0	0.0	8.12453	7.07932	-10.67901	12.51921	14.15733	0.96591	1.0353	201.82	185.59859	76.51847	0.31877	 	1.59423E21	 	1.70878E-21	 	-7356.21394	26.15886	 
280.0	1.0	0.0	8.12619	7.07787	-10.6973	12.49433	14.08971	0.96185	1.03966	202.11266	185.72873	76.63731	0.31863	 	2.69904E21	 	1.00028E-21	 	-7486.78393	26.114	 
275.0	1.0	0.0	8.12785	7.07643	-10.71553	12.46945	14.02202	0.95776	1.04411	202.4047	185.85815	76.75594	0.3185	 	4.61357E21	 	5.79894E-22	 	-7617.12941	26.0691	 
270.0	1.0	0.0	8.12951	7.07499	-10.7337	12.44457	13.95427	0.95363	1.04863	202.69612	185.98686	76.87435	0.31836	 	7.964400000000001E21	 	3.32854E-22	 	-7747.25015	26.02415	 
265.0	1.0	0.0	8.13116	7.07355	-10.75179	12.4197	13.88645	0.94946	1.05323	202.98692	186.11484	76.99256	0.31822	 	1.38891E22	 	1.8911E-22	 	-7877.14592	25.97915	 
260.0	1.0	0.0	8.1328	7.07212	-10.76982	12.39482	13.81856	0.94526	1.05791	203.2771	186.2421	77.11055	0.31809	 	2.4475199999999998E22	 	1.06319E-22	 	-8006.81644	25.9341	 
255.0	1.0	0.0	8.13444	7.0707	-10.78779	12.36994	13.75061	0.94103	1.06267	203.56667	186.36865	77.22832	0.31795	 	4.3594999999999995E22	 	5.91299E-23	 	-8136.26141	25.88899	 
250.0	1.0	0.0	8.13607	7.06928	-10.80569	12.34506	13.68257	0.93675	1.06752	203.85561	186.49449	77.34589	0.31782	 	7.851269999999999E22	 	3.25217E-23	 	-8265.48049	25.84382	 
245.0	1.0	0.0	8.1377	7.06787	-10.82352	12.32019	13.61447	0.93244	1.07245	204.14394	186.61961	77.46324	0.31768	 	1.4301199999999998E23	 	1.76835E-23	 	-8394.47331	25.79856	 
240.0	1.0	0.0	8.13932	7.06646	-10.84128	12.29531	13.54628	0.92809	1.07748	204.43165	186.74402	77.58038	0.31755	 	2.6356199999999997E23	 	9.50273E-24	 	-8523.23948	25.75323	 
235.0	1.0	0.0	8.14093	7.06506	-10.85899	12.27044	13.47802	0.9237	1.0826	204.71873	186.86772	77.6973	0.31741	 	4.9160599999999994E23	 	5.04501E-24	 	-8651.77855	25.70781	 
230.0	1.0	0.0	8.14254	7.06366	-10.87662	12.24556	13.40968	0.91927	1.08781	205.00521	186.99071	77.81402	0.31728	 	9.283929999999999E23	 	2.64516E-24	 	-8780.09006	25.6623	 
225.0	1.0	0.0	8.14415	7.06227	-10.89419	12.22069	13.34125	0.91481	1.09313	205.29106	187.113	77.93052	0.31714	 	1.77578E24	 	1.36917E-24	 	-8908.17349	25.61668	 
220.0	1.0	0.0	8.14575	7.06088	-10.91169	12.19582	13.27274	0.9103	1.09854	205.57629	187.23459	78.0468	0.31701	 	3.4415900000000003E24	 	6.9937E-25	 	-9036.02828	25.57096	 
215.0	1.0	0.0	8.14734	7.0595	-10.92913	12.17094	13.20414	0.90575	1.10405	205.86091	187.35547	78.16288	0.31687	 	6.76106E24	 	3.52392E-25	 	-9163.65383	25.52511	 
210.0	1.0	0.0	8.14893	7.05812	-10.9465	12.14607	13.13544	0.90116	1.10968	206.1449	187.47565	78.27873	0.31674	 	1.34691E25	 	1.75077E-25	 	-9291.04952	25.47914	 
205.0	1.0	0.0	8.15052	7.05675	-10.9638	12.1212	13.06666	0.89653	1.11541	206.42828	187.59513	78.39438	0.3166	 	2.72224E25	 	8.57285E-26	 	-9418.21464	25.43302	 
200.0	1.0	0.0	8.1521	7.05538	-10.98104	12.09633	12.99777	0.89186	1.12125	206.71104	187.71392	78.50981	0.31647	 	5.584320000000001E25	 	4.13538E-26	 	-9545.14844	25.38676	 
195.0	1.0	0.0	8.15367	7.05402	-10.99821	12.07146	12.92879	0.88714	1.12722	206.99318	187.83201	78.62503	0.31633	 	1.1632700000000002E26	 	1.96423E-26	 	-9671.85015	25.34034	 
190.0	1.0	0.0	8.15524	7.05267	-11.01532	12.04659	12.85971	0.88238	1.1333	207.2747	187.9494	78.74004	0.3162	 	2.4619000000000002E26	 	9.182E-27	 	-9798.31889	25.29375	 
185.0	1.0	0.0	8.1568	7.05132	-11.03236	12.02172	12.79051	0.87758	1.1395	207.55561	188.06611	78.85483	0.31606	 	5.296250000000001E26	 	4.22207E-27	 	-9924.55377	25.24698	 
180.0	1.0	0.0	8.15835	7.04997	-11.04933	11.99685	12.72121	0.87273	1.14583	207.8359	188.18212	78.96941	0.31593	 	1.1588E27	 	1.90862E-27	 	-10050.55381	25.20001	 
175.0	1.0	0.0	8.15991	7.04863	-11.06624	11.97198	12.6518	0.86783	1.15229	208.11556	188.29744	79.08377	0.31579	 	2.58009E27	 	8.47763E-28	 	-10176.31798	25.15283	 
170.0	1.0	0.0	8.16145	7.0473	-11.08308	11.94711	12.58227	0.86289	1.15889	208.39462	188.41208	79.19792	0.31566	 	5.84935E27	 	3.69769E-28	 	-10301.84517	25.10544	 
165.0	1.0	0.0	8.16299	7.04597	-11.09986	11.92224	12.51262	0.85791	1.16563	208.67305	188.52603	79.31186	0.31552	 	1.3511100000000001E28	 	1.58277E-28	 	-10427.13418	25.0578	 
160.0	1.0	0.0	8.16453	7.04464	-11.11657	11.89738	12.44285	0.85287	1.17251	208.95086	188.63929	79.42558	0.31539	 	3.18178E28	 	6.64438E-29	 	-10552.18377	25.00992	 
155.0	1.0	0.0	8.16605	7.04332	-11.13321	11.87251	12.37295	0.84779	1.17954	209.22806	188.75187	79.53909	0.31525	 	7.644300000000001E28	 	2.73366E-29	 	-10676.9926	24.96177	 
150.0	1.0	0.0	8.16758	7.04201	-11.14979	11.84764	12.30292	0.84266	1.18672	209.50464	188.86378	79.65239	0.31512	 	1.8750000000000002E29	 	1.10149E-29	 	-10801.55923	24.91333	 
145.0	1.0	0.0	8.1691	7.0407	-11.1663	11.82278	12.23275	0.83748	1.19406	209.7806	188.975	79.76547	0.31498	 	4.6987400000000005E29	 	4.34347E-30	 	-10925.88216	24.86459	 
140.0	1.0	0.0	8.17061	7.0394	-11.18275	11.79791	12.16243	0.83225	1.20156	210.05594	189.08554	79.87833	0.31485	 	1.20398E30	 	1.67484E-30	 	-11049.95975	24.81552	 
135.0	1.0	0.0	8.17212	7.0381	-11.19913	11.77305	12.09197	0.82697	1.20924	210.33067	189.19541	79.99099	0.31471	 	3.1569699999999996E30	 	6.31009E-31	 	-11173.79028	24.76611	 
130.0	1.0	0.0	8.17362	7.03681	-11.21544	11.74818	12.02136	0.82164	1.21708	210.60478	189.3046	80.10343	0.31458	 	8.478249999999999E30	 	2.32085E-31	 	-11297.37194	24.71633	 
125.0	1.0	0.0	8.17511	7.03552	-11.23169	11.72332	11.95059	0.81625	1.22511	210.87827	189.41312	80.21565	0.31445	 	2.33409E31	 	8.32562E-32	 	-11420.70275	24.66616	 
120.0	1.0	0.0	8.1766	7.03424	-11.24787	11.69846	11.87966	0.81081	1.23333	211.15114	189.52097	80.32766	0.31431	 	6.59347E31	 	2.91025E-32	 	-11543.78066	24.61558	 
115.0	1.0	0.0	8.17809	7.03296	-11.26399	11.6736	11.80856	0.80532	1.24174	211.42339	189.62815	80.43945	0.31418	 	1.9130699999999998E32	 	9.90274E-33	 	-11666.60347	24.56456	 
110.0	1.0	0.0	8.17957	7.03169	-11.28004	11.64873	11.73728	0.79977	1.25035	211.69503	189.73466	80.55103	0.31404	 	5.70718E32	 	3.27668E-33	 	-11789.16881	24.51307	 
105.0	1.0	0.0	8.18104	7.03042	-11.29602	11.62387	11.66582	0.79417	1.25917	211.96605	189.84051	80.6624	0.31391	 	1.7525300000000002E33	 	1.05314E-33	 	-11911.47419	24.46108	 
100.0	1.0	0.0	8.18251	7.02916	-11.31194	11.59901	11.59417	0.78852	1.26821	212.23645	189.94569	80.77355	0.31377	 	5.54584E33	 	3.284E-34	 	-12033.51695	24.40855	 
95.0	1.0	0.0	8.18397	7.0279	-11.32779	11.57415	11.52232	0.7828	1.27746	212.50624	190.0502	80.88449	0.31364	 	1.81075E34	 	9.92324E-35	 	-12155.29427	24.35546	 
90.0	1.0	0.0	8.18543	7.02665	-11.34358	11.54929	11.45026	0.77703	1.28695	212.77541	190.15405	80.99521	0.31351	 	6.10801E34	 	2.90184E-35	 	-12276.80313	24.30177	 
85.0	1.0	0.0	8.18688	7.0254	-11.3593	11.52443	11.37799	0.7712	1.29669	213.04396	190.25724	81.10572	0.31337	 	2.1314999999999997E35	 	8.20099E-36	 	-12398.04033	24.24744	 
80.0	1.0	0.0	8.18833	7.02416	-11.37495	11.49957	11.3055	0.76531	1.30667	213.31189	190.35978	81.21601	0.31324	 	7.70621E35	 	2.23669E-36	 	-12519.00244	24.19242	 
75.0	1.0	0.0	8.18977	7.02293	-11.39054	11.47471	11.23278	0.75936	1.31691	213.57921	190.46165	81.32609	0.3131	 	2.89087E36	 	5.87794E-37	 	-12639.68581	24.13667	 
70.0	1.0	0.0	8.1912	7.0217	-11.40606	11.44986	11.15981	0.75334	1.32742	213.84591	190.56287	81.43595	0.31297	 	1.1270599999999998E37	 	1.48601E-37	 	-12760.08658	24.08015	 
65.0	1.0	0.0	8.19263	7.02047	-11.42152	11.425	11.08659	0.74727	1.33821	214.11199	190.66343	81.5456	0.31284	 	4.5745E37	 	3.60789E-38	 	-12880.20059	24.0228	 
60.0	1.0	0.0	8.19406	7.01925	-11.43691	11.40014	11.01311	0.74113	1.34929	214.37745	190.76335	81.65503	0.3127	 	1.93642E38	 	8.39704E-39	 	-13000.02342	23.96457	 
55.0	1.0	0.0	8.19548	7.01804	-11.45223	11.37528	10.93935	0.73493	1.36067	214.6423	190.86261	81.76425	0.31257	 	8.56553E38	 	1.86984E-39	 	-13119.55034	23.90538	 
50.0	1.0	0.0	8.19689	7.01683	-11.46749	11.35043	10.86531	0.72867	1.37237	214.90653	190.96121	81.87325	0.31243	 	3.9672700000000005E39	 	3.97557E-40	 	-13238.77632	23.8452	 
45.0	1.0	0.0	8.19829	7.01563	-11.48268	11.32557	10.79096	0.72233	1.3844	215.17015	191.05918	81.98203	0.3123	 	1.92821E40	 	8.05314E-41	 	-13357.69596	23.78393	 
40.0	1.0	0.0	8.1997	7.01443	-11.49781	11.30072	10.71629	0.71594	1.39677	215.43314	191.15649	82.09061	0.31217	 	9.85696E40	 	1.55059E-41	 	-13476.30349	23.7215	 
35.0	1.0	0.0	8.20109	7.01323	-11.51287	11.27587	10.64129	0.70947	1.4095	215.69552	191.25316	82.19896	0.31203	 	5.31285E41	 	2.83088E-42	 	-13594.59273	23.65785	 
30.0	1.0	0.0	8.20248	7.01204	-11.52786	11.25101	10.56595	0.70294	1.42261	215.95729	191.34918	82.3071	0.3119	 	3.02723E42	 	4.88764E-43	 	-13712.55708	23.59287	 
25.0	1.0	0.0	8.20387	7.01086	-11.54279	 	10.49023	0.69633	1.4361	216.21844	191.44456	82.41503	0.31177	 	1.82856E43	 	7.95814E-44	 	-13830.18942	 	 
