T (C)	Fraction solid (wt)-TOTAL	Fraction liquid (wt)-LIQUID	Density (g/(cm)^3)-TOTAL	Molar volume (cm^3)-TOTAL	Volume change (%)-  	Average expansion coeff. (10e-6 1/K)-  	Thermal conductivity (W/(m*K))-TOTAL	Electrical resistivity (10e-6 Ohm*m)-TOTAL	Electrical conductivity (10e6 1/(Ohm*m))-TOTAL	Young's modulus (GPa)-TOTAL	Bulk modulus (GPa)-TOTAL	Shear modulus(GPa)-TOTAL	Poisson's ratio-TOTAL	Liquid viscosity (mPa s)-  	Total viscosity (mPa s)-  	Liquid diffusivity (10e-9 (m^2)/s)-  	Total diffusivity (10e-9 (m^2)/s)-  	Surface Tension (mN/m)-  	Enthalpy (J/mole)-TOTAL	Specific heat (J/(mole K))-TOTAL	Latent heat (J/mole)-TOTAL
1400.0	0.0	1.0	7.42355	7.84218	0.0	26.33606	26.29662	1.55884	0.6415	0.0	126.58446	0.0	0.5	8.67192	8.67192	0.94169	0.94169	1805.79449	59583.755	 	0.0
1395.0	0.0	1.0	7.42743	7.83809	-0.0521362	26.29154	26.2448	1.55725	0.64216	0.0	126.76112	0.0	0.5	8.7681	8.7681	0.92857	0.92857	1808.88758	59376.138	41.5234	0.0
1390.0	0.0	1.0	7.43129	7.83401	-0.10412	26.24712	26.19299	1.55565	0.64282	0.0	126.93779	0.0	0.5	8.86594	8.86594	0.91557	0.91557	1812.00686	59169.0	41.4276	0.0
1385.0	0.0	1.0	7.43515	7.82995	-0.15595	26.20278	26.14118	1.55405	0.64348	0.0	127.11445	0.0	0.5	8.96546	8.96546	0.90269	0.90269	1815.15233	58962.34	41.332	0.0
1380.0	0.0	1.0	7.439	7.8259	-0.20763	26.15853	26.08937	1.55244	0.64415	0.0	127.29112	0.0	0.5	9.06672	9.06672	0.88992	0.88992	1818.32399	58756.154	41.2372	0.0
1375.0	0.0	1.0	7.44284	7.82185	-0.25915	26.11437	26.03756	1.55082	0.64482	0.0	127.46779	0.0	0.5	9.16974	9.16974	0.87726	0.87726	1821.52181	58550.442	41.1424	0.0
1370.0	0.0	1.0	7.44668	7.81783	-0.31053	26.0703	25.98575	1.5492	0.64549	0.0	127.64445	0.0	0.5	9.27457	9.27457	0.86471	0.86471	1824.74578	58345.201	41.0482	0.0
1365.0	0.0	1.0	7.4505	7.81381	-0.36175	26.02632	25.93394	1.54757	0.64617	0.0	127.82112	0.0	0.5	9.38126	9.38126	0.85227	0.85227	1827.99584	58140.429	40.9544	0.0
1360.0	0.0	1.0	7.45433	7.8098	-0.41281	25.98244	25.88213	1.54594	0.64686	0.0	127.99778	0.0	0.5	9.48983	9.48983	0.83995	0.83995	1831.27195	57936.124	40.861	0.0
1355.0	0.0	1.0	7.45814	7.80581	-0.46373	25.93865	25.83032	1.5443	0.64754	0.0	128.17445	0.0	0.5	9.60034	9.60034	0.82774	0.82774	1834.57404	57732.284	40.768	0.0
1350.0	0.0	1.0	7.46194	7.80183	-0.51449	25.89495	25.77851	1.54265	0.64824	0.0	128.35111	0.0	0.5	9.71283	9.71283	0.81564	0.81564	1837.90205	57528.907	40.6754	0.0
1345.0	0.0	1.0	7.46574	7.79786	-0.5651	25.85136	25.7267	1.54099	0.64893	0.0	128.52778	0.0	0.5	9.82734	9.82734	0.80365	0.80365	1841.25589	57325.992	40.583	0.0
1340.0	0.0	1.0	7.46953	7.7939	-0.61555	25.80786	25.67488	1.53933	0.64963	0.0	128.70444	0.0	0.5	9.94393	9.94393	0.79178	0.79178	1844.63547	57123.535	40.4914	0.0
1335.0	0.0	1.0	7.47331	7.78996	-0.66586	25.76446	25.62307	1.53766	0.65034	0.0	128.88111	0.0	0.5	10.06263	10.06263	0.78001	0.78001	1848.04069	56921.536	40.3998	0.0
1330.0	0.0	1.0	7.47709	7.78603	-0.71601	25.72116	25.57126	1.53599	0.65105	0.0	129.05778	0.0	0.5	10.18351	10.18351	0.76836	0.76836	1851.47145	56719.992	40.3088	0.0
1325.0	0.0	1.0	7.48086	7.78211	-0.76601	25.67796	25.51945	1.53431	0.65176	0.0	129.23444	0.0	0.5	10.30661	10.30661	0.75681	0.75681	1854.92762	56518.902	40.218	0.0
1320.35	0.0	1.0	7.48435	7.77847	-0.81232	25.63791	25.47132	1.53274	0.65243	0.0	129.39857	0.0	0.5	10.42301	10.42301	0.74619	0.74619	1858.16122	56332.491	40.12964	0.0
1320.0	0.01021	0.98979	7.4862	7.77658	-0.83652	25.57587	25.50257	1.53052	0.65337	1.05615E-6	129.24515	3.52416E-7	0.49845	10.43633	10.58097	0.74507	0.73488	1858.08998	56163.402	476.6024	154.859
1315.0	0.14384	0.85616	7.51028	7.7517	-1.15367	24.76647	25.91361	1.50151	0.66599	0.0422989	127.2018	0.0143092	0.47803	10.62469	40.68547	0.72956	0.19052	1857.1394	53943.811	443.9182	2174.262
1310.0	0.25204	0.74796	7.53017	7.73122	-1.41491	24.11155	26.24442	1.47792	0.67663	0.40384	125.5687	0.13817	0.46134	10.81596	294.48694	0.7144	0.0262387	1856.27458	52118.512	365.0598	3799.819
1305.0	0.34087	0.65913	7.54686	7.71406	-1.63372	23.57402	26.51367	1.45829	0.68573	1.36619	124.25712	0.47191	0.44752	11.01024	1013.53193	0.69958	0.00759972	1855.50493	50593.669	304.9686	5125.366
1300.0	0.4147	0.5853	7.56109	7.6995	-1.81941	23.12826	26.73411	1.44169	0.69363	3.02197	123.20206	1.05226	0.43594	11.2076	2346.5562	0.68508	0.00327209	1854.83622	49301.236	258.4866	6218.948
1295.0	0.47675	0.52325	7.57339	7.68695	-1.97941	22.75374	26.91503	1.42744	0.70055	5.32478	122.35299	1.86683	0.42615	11.40812	4358.585	0.6709	0.00175602	1854.27179	48191.046	222.038	7130.728
1290.0	0.52943	0.47057	7.58417	7.67593	-2.11994	22.43316	27.06307	1.41511	0.70666	8.16121	121.66997	2.87816	0.41778	11.61193	7063.89728	0.65703	0.00108005	1853.81374	47225.553	193.0986	7898.252
1286.33	0.56291	0.43709	7.59125	7.66872	-2.21186	22.22903	27.15289	1.40712	0.71067	10.48485	121.26438	3.71162	0.41243	11.76356	9466.33858	0.64704	8.04055E-4	1853.54146	46596.312	 	8382.654
1285.0	0.58002	0.41998	7.59497	7.66493	-2.26021	22.11078	27.23748	1.40155	0.7135	11.82227	121.17217	4.19303	0.40975	11.80698	10853.71037	0.64411	7.00677E-4	1853.22481	46287.892	187.5322	8638.381
1280.0	0.63696	0.36304	7.60776	7.65189	-2.42645	21.70937	27.51265	1.38308	0.72302	17.30134	120.92079	6.17551	0.4008	11.96839	16826.14516	0.63338	4.50521E-4	1852.18875	45241.814	209.2156	9487.366
1275.0	0.68301	0.31699	7.61869	7.64075	-2.56856	21.37607	27.72469	1.36808	0.73095	23.09407	120.80005	8.28619	0.39353	12.12985	23739.94756	0.62294	3.18288E-4	1851.38801	44360.966	176.1696	10171.555
1270.0	0.72083	0.27917	7.62822	7.63101	-2.69268	21.09349	27.88789	1.35568	0.73763	28.93433	120.77593	10.42663	0.38752	12.29175	31456.6967	0.61275	2.39432E-4	1850.79327	43604.373	151.3186	10731.922
1265.0	0.75233	0.24767	7.63667	7.6224	-2.80246	20.85137	28.01309	1.34525	0.74336	34.65067	120.82605	12.53194	0.38249	12.45446	39897.02065	0.60278	1.88168E-4	1850.37779	42943.2	132.2346	11197.299
1260.0	0.77886	0.22114	7.64427	7.61465	-2.90133	20.63997	28.10816	1.33634	0.74831	40.1381	120.93286	14.5614	0.37824	12.61826	49018.97449	0.59302	1.52654E-4	1850.11964	42356.654	117.3092	11588.479
1255.0	0.80144	0.19856	7.65118	7.6076	-2.99128	20.45362	28.17923	1.32863	0.75266	45.34448	121.08426	16.49382	0.37459	12.78351	58819.49908	0.58345	1.26804E-4	1849.99811	41829.411	105.4486	11920.784
1250.0	0.82083	0.17917	7.65753	7.6011	-3.07414	20.28715	28.23085	1.32186	0.75651	50.24353	121.27087	18.31781	0.37144	12.9507	69311.23001	0.57403	1.07257E-4	1849.99565	41349.957	95.8908	12205.727
1245.0	0.83763	0.16237	7.66344	7.59506	-3.15112	20.13709	28.26675	1.31585	0.75997	54.8365	121.48571	20.03245	0.36869	13.11997	80539.51581	0.56477	9.2001E-5	1850.09557	40909.489	88.0936	12452.106
1240.0	0.85228	0.14772	7.66896	7.58942	-3.223	20.00134	28.28966	1.31045	0.7631	59.12862	121.72372	21.63855	0.36628	13.29173	92553.04359	0.55563	7.97954E-5	1850.2822	40501.175	81.6628	12666.754
1235.0	0.86516	0.13484	7.67418	7.58411	-3.29077	19.87703	28.30185	1.30556	0.76596	63.13942	121.98028	23.14251	0.36414	13.46631	105424.7285	0.54662	6.98214E-5	1850.54202	40119.636	76.3078	12855.049
1230.0	0.87655	0.12345	7.67912	7.57907	-3.35504	19.76241	28.30504	1.30108	0.76859	66.8881	122.25203	24.55078	0.36224	13.64418	119233.7177	0.5377	6.15304E-5	1850.8621	39760.586	71.81	13021.273
1225.0	0.88668	0.11332	7.68384	7.57426	-3.41641	19.65575	28.30067	1.29695	0.77104	70.39547	122.53627	25.87058	0.36053	13.82549	134073.3293	0.52889	5.45381E-5	1851.23034	39420.567	68.0038	13168.883
1220.72	0.89448	0.10552	7.68772	7.5703	-3.46687	19.57009	28.2917	1.29366	0.773	73.21621	122.78739	26.93348	0.3592	13.98365	147654.9137	0.52141	4.93802E-5	1851.5743	39142.954	 	13282.241
1220.0	0.89574	0.10426	7.68839	7.56963	-3.47544	19.55546	28.28751	1.29323	0.77326	73.68548	122.84866	27.11032	0.35899	14.0076	150030.2837	0.52027	4.85748E-5	1851.6304	39096.72	64.7694	13300.736
1215.0	0.90394	0.09606	7.6929	7.56508	-3.53345	19.45746	28.2583	1.29023	0.77506	76.84794	123.26057	28.30296	0.3576	14.17805	167257.0606	0.51229	4.34259E-5	1852.06316	38783.832	62.5776	13422.044
1210.0	0.91134	0.0886633	7.69724	7.5607	-3.58934	19.36527	28.22726	1.28731	0.77681	79.81766	123.65541	29.42437	0.35632	14.35543	185859.4186	0.50426	3.89482E-5	1852.5355	38483.907	59.985	13530.801
1205.0	0.91807	0.0819349	7.70142	7.55647	-3.64326	19.27847	28.19439	1.28446	0.77853	82.61019	124.03703	30.48013	0.35515	14.53994	205970.7757	0.49618	3.50267E-5	1853.02289	38195.018	57.7778	13628.932
1200.0	0.92422	0.075779	7.70547	7.55237	-3.69546	19.19632	28.15983	1.28169	0.78022	85.25387	124.40837	31.4807	0.35407	14.73182	227773.3132	0.48806	3.15668E-5	1853.50208	37915.589	55.8858	13718.012
1195.0	0.92989	0.070111	7.70942	7.54839	-3.74625	19.11793	28.12362	1.27898	0.78187	87.76623	124.77179	32.43252	0.35306	14.93123	251446.0348	0.47991	2.84979E-5	1853.95295	37644.324	54.253	13799.334
1190.0	0.93514	0.0648586	7.71327	7.5445	-3.79589	19.04253	28.08582	1.27634	0.78349	90.16491	125.12922	33.34214	0.35212	15.13833	277192.4555	0.47173	2.57629E-5	1854.35702	37380.153	52.8342	13873.967
1185.0	0.94004	0.0599642	7.71704	7.54069	-3.84443	18.96996	28.04077	1.27403	0.78491	92.46521	125.48241	34.21521	0.35123	15.35344	305236.5401	0.46354	2.33159E-5	1854.69623	37122.189	51.5928	13942.798
1180.0	0.94462	0.0553783	7.72074	7.53696	-3.892	18.89988	27.99951	1.27153	0.78646	94.67935	125.83267	35.05625	0.35039	15.57696	335821.9184	0.45532	2.11197E-5	1854.95533	36869.699	50.498	14006.555
1175.0	0.94894	0.051062	7.72438	7.53329	-3.93881	18.83163	27.95682	1.26909	0.78797	96.81877	126.18081	35.86954	0.3496	15.80921	369216.7511	0.44709	1.91434E-5	1855.12324	36622.083	49.5232	14065.839
1170.0	0.95302	0.0469827	7.72796	7.52968	-3.98487	18.76523	27.91271	1.26671	0.78945	98.89275	126.52767	36.65852	0.34884	16.05068	405718.7202	0.43884	1.73609E-5	1855.18941	36378.849	48.6468	14121.14
1165.0	0.95689	0.0431141	7.7315	7.52612	-4.03023	18.70047	27.86725	1.26438	0.7909	100.90709	126.87374	37.42535	0.34811	16.30182	445647.464	0.43058	1.57507E-5	1855.14763	36139.603	47.8492	14172.849
1160.0	0.96056	0.0394373	7.73498	7.52261	-4.07497	18.63718	27.82042	1.2621	0.79233	102.86765	127.21923	38.17219	0.34742	16.56322	489358.0627	0.42231	1.42939E-5	1854.9955	35904.027	47.1152	14221.283
1157.94	0.962	0.0379962	7.73639	7.52118	-4.09318	18.61175	27.80059	1.26118	0.79291	103.65096	127.36129	38.47072	0.34714	16.67403	508538.7749	0.4189	1.3735E-5	1854.89598	35808.103	 	14240.096
1155.0	0.96401	0.0359851	7.7384	7.51916	-4.11894	18.57587	27.77198	1.25989	0.79372	104.75641	127.56383	38.89214	0.34676	16.83482	537135.4905	0.41405	1.29771E-5	1854.72557	35672.41	46.3234	14266.153
1150.0	0.96735	0.0326479	7.7418	7.51574	-4.16254	18.51519	27.7224	1.25773	0.79509	106.61897	127.90957	39.60253	0.34611	17.11787	589594.9595	0.40578	1.1781E-5	1854.36642	35443.413	45.7994	14308.793
1148.18	0.96851	0.031494	7.74302	7.51452	-4.17821	18.4937	27.70386	1.25696	0.79557	107.27614	128.03543	39.85328	0.34589	17.22355	609897.908	0.40277	1.13743E-5	1854.20539	35360.939	 	14323.425
1145.0	0.97131	0.0286925	7.74538	7.51207	-4.20941	18.4432	27.67376	1.25551	0.79649	108.79928	128.26911	40.43474	0.34537	17.38346	649146.4335	0.39817	1.06627E-5	1853.65237	35202.848	48.113	14363.393
1140.0	0.97555	0.0244514	7.74906	7.50825	-4.25812	18.36447	27.62532	1.25328	0.79791	111.15147	128.63601	41.33322	0.34458	17.6471	715931.3666	0.39084	9.63393E-6	1852.71925	34957.963	48.977	14422.699
1135.0	0.97951	0.0204908	7.75266	7.50449	-4.30604	18.28765	27.5752	1.25111	0.79929	113.41007	129.00069	42.19656	0.34383	17.92512	789148.3434	0.38342	8.70917E-6	1851.68268	34718.637	47.8652	14476.835
1130.0	0.98321	0.0167867	7.75619	7.50079	-4.35325	18.21254	27.52338	1.24902	0.80063	115.58017	129.36297	43.02664	0.34312	18.21849	869460.1587	0.37591	7.87664E-6	1850.55668	34484.409	46.8456	14526.258
1125.0	0.98668	0.013319	7.75964	7.49714	-4.39978	18.139	27.46994	1.24699	0.80193	117.66635	129.72286	43.82513	0.34245	18.52829	957603.248	0.3683	7.12615E-6	1849.35755	34254.883	45.9052	14571.362
1120.0	0.98993	0.010072	7.76303	7.49354	-4.44569	18.0669	27.41491	1.24502	0.8032	119.67209	130.08028	44.59332	0.34182	18.85558	1054385.898	0.36062	6.44889E-6	1848.10803	34029.713	45.034	14612.493
1115.0	0.99297	0.00703326	7.76636	7.48999	-4.491	17.99616	27.35834	1.24312	0.80443	121.59902	130.43522	45.33177	0.34121	19.20135	1160689.327	0.35285	5.83723E-6	1846.83122	33808.592	44.2242	14649.956
1110.0	0.99581	0.00419006	7.76961	7.48648	-4.53573	17.92673	27.29982	1.2413	0.80561	123.45045	130.78771	46.0417	0.34064	19.56713	1277506.974	0.34501	5.28436E-6	1845.55303	33591.243	43.4698	14684.025
1105.0	0.99847	0.00153303	7.77281	7.48301	-4.57998	17.85831	27.24026	1.23951	0.80677	125.22759	131.13765	46.72353	0.34009	19.9537	1405914.576	0.3371	4.78436E-6	1844.30123	33377.422	42.7642	14714.944
1101.87	1.0	0.0	7.77477	7.48087	-4.60729	17.81653	27.20274	1.2384	0.80749	126.283	131.35517	47.12865	0.33977	 	1492517.498	 	4.49651E-6	 	33245.635	 	14732.385
1100.0	1.0	0.0	7.77572	7.47996	-4.61886	17.80773	27.17604	1.23794	0.8078	126.43745	131.47442	47.18806	0.33972	 	1541350.287	 	4.34814E-6	 	33141.83441	47.11752	 
1095.0	1.0	0.0	7.77828	7.47749	-4.65029	17.78239	27.10451	1.23668	0.80861	126.84958	131.79077	47.3467	0.33958	 	1680632.434	 	3.97327E-6	 	32975.72134	33.22261	 
1090.0	1.0	0.0	7.78084	7.47504	-4.68164	17.75709	27.03297	1.23542	0.80944	127.26117	132.10605	47.50516	0.33945	 	1833663.985	 	3.62836E-6	 	32809.91374	33.16152	 
1085.0	1.0	0.0	7.78339	7.47258	-4.71291	17.73184	26.96143	1.23416	0.81027	127.67219	132.42027	47.66344	0.33931	 	2001914.088	 	3.31123E-6	 	32644.41081	33.10059	 
1080.0	1.0	0.0	7.78594	7.47014	-4.74409	17.70664	26.88988	1.23289	0.8111	128.08267	132.73343	47.82155	0.33917	 	2187020.533	 	3.01981E-6	 	32479.2118	33.0398	 
1075.0	1.0	0.0	7.78849	7.4677	-4.7752	17.68148	26.81832	1.23161	0.81195	128.49259	133.04553	47.97948	0.33904	 	2390810.673	 	2.7522E-6	 	32314.31592	32.97917	 
1070.0	1.0	0.0	7.79102	7.46527	-4.80622	17.65638	26.74675	1.23032	0.81279	128.90195	133.35657	48.13724	0.3389	 	2615324.438	 	2.5066E-6	 	32149.72242	32.9187	 
1065.0	1.0	0.0	7.79356	7.46284	-4.83716	17.63132	26.67518	1.22903	0.81365	129.31076	133.66656	48.29481	0.33876	 	2862841.2	 	2.28136E-6	 	31985.43052	32.85838	 
1060.0	1.0	0.0	7.79609	7.46042	-4.86802	17.60631	26.6036	1.22774	0.81451	129.71902	133.9755	48.45221	0.33863	 	3135909.518	 	2.07492E-6	 	31821.43945	32.79821	 
1055.0	1.0	0.0	7.79861	7.458	-4.8988	17.58135	26.53201	1.22643	0.81537	130.12672	134.2834	48.60943	0.33849	 	3437381.079	 	1.88585E-6	 	31657.74844	32.7382	 
1050.0	1.0	0.0	7.80113	7.4556	-4.9295	17.55644	26.46041	1.22512	0.81625	130.53386	134.59025	48.76648	0.33836	 	3770449.55	 	1.71278E-6	 	31494.35672	32.67834	 
1045.0	1.0	0.0	7.80364	7.4532	-4.96011	17.53158	26.38881	1.2238	0.81713	130.94046	134.89606	48.92335	0.33822	 	4138693.806	 	1.55449E-6	 	31331.26351	32.61864	 
1040.0	1.0	0.0	7.80615	7.4508	-4.99065	17.50677	26.31719	1.22248	0.81801	131.3465	135.20084	49.08004	0.33808	 	4546127.798	 	1.40981E-6	 	31168.46805	32.55909	 
1035.0	1.0	0.0	7.80865	7.44841	-5.0211	17.48201	26.24557	1.22115	0.8189	131.75199	135.50458	49.23655	0.33795	 	4997257.272	 	1.27765E-6	 	31005.96957	32.4997	 
1030.0	1.0	0.0	7.81115	7.44603	-5.05147	17.45731	26.17394	1.21981	0.8198	132.15692	135.80729	49.39289	0.33781	 	5497143.707	 	1.15703E-6	 	30843.76728	32.44046	 
1025.0	1.0	0.0	7.81364	7.44366	-5.08176	17.43266	26.10231	1.21846	0.82071	132.5613	136.10897	49.54905	0.33768	 	6051477.745	 	1.04701E-6	 	30681.86043	32.38137	 
1020.0	1.0	0.0	7.81613	7.44129	-5.11197	17.40806	26.03066	1.21711	0.82162	132.96512	136.40963	49.70503	0.33754	 	6666661.983	 	9.46732E-7	 	30520.24822	32.32244	 
1015.0	1.0	0.0	7.81861	7.43893	-5.1421	17.38352	25.959	1.21575	0.82254	133.3684	136.70927	49.86084	0.33741	 	7349907.018	 	8.55404E-7	 	30358.92991	32.26366	 
1010.0	1.0	0.0	7.82109	7.43657	-5.17215	17.35904	25.88734	1.21438	0.82346	133.77112	137.00788	50.01647	0.33727	 	8109339.518	 	7.72287E-7	 	30197.9047	32.20504	 
1005.0	1.0	0.0	7.82356	7.43422	-5.20211	17.3346	25.81567	1.21301	0.8244	134.17328	137.30549	50.17192	0.33714	 	8954126.301	 	6.96699E-7	 	30037.17182	32.14658	 
1002.58	1.0	0.0	7.82475	7.43309	-5.21656	17.32283	25.78104	1.21234	0.82485	134.36736	137.44888	50.24695	0.33707	 	9395803.48	 	6.62694E-7	 	29959.6324	 	 
1000.0	1.0	0.0	7.82687	7.43107	-5.2422	17.27155	25.73204	1.21219	0.82495	134.69341	137.65105	50.37473	0.33691	 	9960260.302	 	6.23872E-7	 	29820.03731	43.4269	 
995.0	1.0	0.0	7.83089	7.42726	-5.29083	17.17532	25.63791	1.21186	0.82517	135.31028	138.03444	50.61649	0.33662	 	1.115398316E7	 	5.54916E-7	 	29555.4928	52.9089	 
990.0	1.0	0.0	7.83481	7.42354	-5.33827	17.08263	25.54428	1.21151	0.82542	135.91041	138.40854	50.85168	0.33634	 	1.249666297E7	 	4.93341E-7	 	29297.67214	51.56413	 
985.0	1.0	0.0	7.83865	7.41991	-5.38463	16.99315	25.4527	1.21106	0.82572	136.49544	138.77425	51.08094	0.33607	 	1.400804641E7	 	4.38371E-7	 	29046.00956	50.33251	 
980.0	1.0	0.0	7.84241	7.41635	-5.42999	16.90661	25.36349	1.21049	0.82611	137.06681	139.13236	51.30484	0.33581	 	1.57106685E7	 	3.8931E-7	 	28800.00033	49.20185	 
976.03	1.0	0.0	7.84534	7.41358	-5.46531	16.83987	25.29439	1.20995	0.82648	137.51131	139.4116	51.47903	0.33561	 	1.721477876E7	 	3.54169E-7	 	28608.50871	 	 
975.0	1.0	0.0	7.8461	7.41287	-5.4744	16.82283	25.27664	1.2098	0.82658	137.62581	139.48367	51.5239	0.33555	 	1.763036021E7	 	3.45535E-7	 	28559.1673	48.16661	 
970.0	1.0	0.0	7.84971	7.40945	-5.51791	16.7417	25.19198	1.209	0.82713	138.17374	139.82901	51.73859	0.33531	 	1.97967953E7	 	3.06489E-7	 	28323.02972	47.22752	 
968.75	1.0	0.0	7.8506	7.40861	-5.52862	16.72185	25.17121	1.20879	0.82727	138.30857	139.91411	51.79143	0.33525	 	2.037859231E7	 	2.97441E-7	 	28264.91533	 	 
965.0	1.0	0.0	7.85311	7.40624	-5.55886	16.66975	25.11659	1.20775	0.82798	138.67358	140.12739	51.93524	0.33506	 	2.222328383E7	 	2.71927E-7	 	28080.81269	48.44341	 
960.0	1.0	0.0	7.85641	7.40313	-5.5985	16.60224	25.04511	1.20631	0.82897	139.15206	140.40735	52.12377	0.33482	 	2.495752159E7	 	2.41158E-7	 	27839.65532	48.23147	 
955.0	1.0	0.0	7.85966	7.40008	-5.63746	16.53668	24.97537	1.20477	0.83003	139.62244	140.68295	52.30912	0.33459	 	2.804909506E7	 	2.13707E-7	 	27602.77202	47.37666	 
950.0	1.0	0.0	7.86285	7.39707	-5.67579	16.47294	24.90689	1.20317	0.83114	140.08527	140.95446	52.49152	0.33436	 	3.15478969E7	 	1.89233E-7	 	27369.85578	46.58325	 
945.0	1.0	0.0	7.866	7.39411	-5.71353	16.41086	24.84678	1.20115	0.83254	140.54108	141.2221	52.67115	0.33414	 	3.551123436E7	 	1.67426E-7	 	27140.63046	45.84506	 
940.0	1.0	0.0	7.8691	7.3912	-5.75072	16.35032	24.77967	1.19946	0.83371	140.99029	141.48609	52.84821	0.33392	 	4.000499977E7	 	1.48009E-7	 	26914.84673	45.15675	 
935.0	1.0	0.0	7.87216	7.38832	-5.78741	16.2912	24.71324	1.19773	0.83492	141.43331	141.74661	53.02284	0.3337	 	4.510503692E7	 	1.30732E-7	 	26692.27873	44.5136	 
930.0	1.0	0.0	7.87519	7.38548	-5.8236	16.2334	24.64745	1.19595	0.83615	141.8705	142.0038	53.19519	0.33349	 	5.089873495E7	 	1.15372E-7	 	26472.72124	43.9115	 
925.0	1.0	0.0	7.87818	7.38268	-5.85935	16.17681	24.58223	1.19414	0.83742	142.30216	142.25782	53.36539	0.33328	 	5.748689098E7	 	1.01725E-7	 	26255.98716	43.34682	 
920.0	1.0	0.0	7.88114	7.37991	-5.89467	16.12136	24.51753	1.1923	0.83872	142.72857	142.50877	53.53353	0.33308	 	6.498589192E7	 	8.96113E-8	 	26041.90538	42.81636	 
915.0	1.0	0.0	7.88406	7.37717	-5.92958	16.06696	24.45332	1.19042	0.84004	143.14999	142.75677	53.69974	0.33287	 	7.353028326E7	 	7.88663E-8	 	25830.31905	42.31727	 
910.0	1.0	0.0	7.88696	7.37446	-5.96411	16.01354	24.38954	1.18851	0.84139	143.56664	143.0019	53.86408	0.33268	 	8.327575688E7	 	6.93438E-8	 	25621.08388	41.84703	 
905.0	1.0	0.0	7.88982	7.37178	-5.99828	15.96102	24.32618	1.18657	0.84277	143.97871	143.24425	54.02664	0.33248	 	9.440268623E7	 	6.0912E-8	 	25414.06683	41.40341	 
900.0	1.0	0.0	7.89266	7.36913	-6.03211	15.90936	24.26319	1.1846	0.84417	144.3864	143.48388	54.1875	0.33228	 	1.071202789E8	 	5.34526E-8	 	25209.14485	40.9844	 
895.0	1.0	0.0	7.89548	7.3665	-6.06562	15.85848	24.20055	1.1826	0.84559	144.78984	143.72084	54.34672	0.33209	 	1.216714597E8	 	4.68594E-8	 	25006.20387	40.5882	 
890.0	1.0	0.0	7.89827	7.3639	-6.09881	15.80833	24.13825	1.18058	0.84704	145.18918	143.95518	54.50435	0.3319	 	1.383386261E8	 	4.10373E-8	 	24805.1378	40.21321	 
885.0	1.0	0.0	7.90104	7.36132	-6.13171	15.75887	24.07625	1.17853	0.84851	145.58455	144.18695	54.66043	0.33172	 	1.574504632E8	 	3.59011E-8	 	24605.84775	39.85801	 
880.0	1.0	0.0	7.90379	7.35876	-6.16433	15.71004	24.01454	1.17646	0.85001	145.97604	144.41616	54.81503	0.33153	 	1.793899667E8	 	3.13743E-8	 	24408.24125	39.5213	 
875.0	1.0	0.0	7.90651	7.35622	-6.19668	15.6618	23.9531	1.17436	0.85152	146.36376	144.64283	54.96816	0.33135	 	2.046039948E8	 	2.73887E-8	 	24212.23138	39.20197	 
870.0	1.0	0.0	7.90922	7.35371	-6.22878	15.61411	23.89193	1.17224	0.85306	146.74777	144.86699	55.11986	0.33117	 	2.336144987E8	 	2.38831E-8	 	24017.73694	38.89889	 
865.0	1.0	0.0	7.91191	7.35121	-6.26063	15.56693	23.831	1.1701	0.85463	147.12814	145.08863	55.27017	0.33099	 	2.670319344E8	 	2.08029E-8	 	23824.68103	38.61118	 
860.0	1.0	0.0	7.91457	7.34873	-6.29224	15.52022	23.77423	1.16774	0.85635	147.50492	145.30775	55.41909	0.33081	 	3.055711568E8	 	1.80993E-8	 	23632.99092	38.33802	 
855.0	1.0	0.0	7.91723	7.34627	-6.32364	15.47394	23.71371	1.16556	0.85796	147.87816	145.52434	55.56666	0.33064	 	3.500703464E8	 	1.57289E-8	 	23442.59751	38.07868	 
850.0	1.0	0.0	7.91986	7.34382	-6.35482	15.42807	23.65341	1.16335	0.85959	148.24786	145.73837	55.71286	0.33046	 	4.01513518E8	 	1.36529E-8	 	23253.43496	37.83251	 
845.0	1.0	0.0	7.92216	7.34169	-6.382	15.39964	23.58583	1.16149	0.86096	148.62353	146.00188	55.8592	0.33034	 	4.57588429E8	 	1.19265E-8	 	23104.66396	29.7542	 
840.0	1.0	0.0	7.92446	7.33956	-6.4091	15.37122	23.51824	1.15962	0.86235	148.99869	146.26454	56.00538	0.33022	 	5.221075029E8	 	1.04059E-8	 	22953.12004	30.30879	 
835.0	1.0	0.0	7.92675	7.33745	-6.43612	15.34282	23.45064	1.15774	0.86375	149.37336	146.52635	56.15139	0.33009	 	5.964331535E8	 	9.06825E-9	 	22801.84114	30.25578	 
830.0	1.0	0.0	7.92903	7.33533	-6.46307	15.31443	23.38303	1.15585	0.86517	149.74752	146.78731	56.29724	0.32997	 	6.821621035E8	 	7.89285E-9	 	22650.82643	30.20294	 
825.0	1.0	0.0	7.93131	7.33323	-6.48993	15.28606	23.3154	1.15394	0.86659	150.12118	147.04743	56.44292	0.32985	 	7.811681538E8	 	6.86126E-9	 	22500.07505	30.15028	 
820.0	1.0	0.0	7.93358	7.33113	-6.51671	15.2577	23.24776	1.15203	0.86803	150.49434	147.30671	56.58845	0.32973	 	8.956532098E8	 	5.95699E-9	 	22349.58614	30.09778	 
815.0	1.0	0.0	7.93585	7.32903	-6.54342	15.22935	23.18012	1.15011	0.86948	150.867	147.56515	56.73381	0.3296	 	1.028208243E9	 	5.16529E-9	 	22199.35883	30.04546	 
810.0	1.0	0.0	7.93811	7.32694	-6.57004	15.20102	23.11246	1.14818	0.87095	151.23916	147.82275	56.87901	0.32948	 	1.181886231E9	 	4.47301E-9	 	22049.39225	29.99332	 
805.0	1.0	0.0	7.94036	7.32486	-6.59658	15.1727	23.04479	1.14623	0.87242	151.61082	148.07951	57.02404	0.32936	 	1.360289547E9	 	3.86843E-9	 	21899.68552	29.94134	 
800.0	1.0	0.0	7.94261	7.32279	-6.62305	15.1444	22.9771	1.14428	0.87391	151.98198	148.33543	57.16892	0.32924	 	1.567674838E9	 	3.34111E-9	 	21750.23775	29.88956	 
795.0	1.0	0.0	7.94486	7.32072	-6.64943	15.11611	22.90941	1.14231	0.87542	152.35264	148.59053	57.31363	0.32911	 	1.809079046E9	 	2.88178E-9	 	21601.04805	29.83794	 
790.0	1.0	0.0	7.9471	7.31865	-6.67574	15.08784	22.8417	1.14033	0.87694	152.7228	148.84479	57.45818	0.32899	 	2.090471097E9	 	2.4822E-9	 	21452.11549	29.78651	 
785.0	1.0	0.0	7.94933	7.3166	-6.70197	15.05958	22.77398	1.13835	0.87847	153.09246	149.09823	57.60256	0.32887	 	2.41893475E9	 	2.13506E-9	 	21303.43918	29.73526	 
780.0	1.0	0.0	7.95156	7.31455	-6.72811	15.03133	22.70624	1.13635	0.88001	153.46162	149.35084	57.74679	0.32875	 	2.802889349E9	 	1.83388E-9	 	21155.01817	29.6842	 
775.0	1.0	0.0	7.95378	7.3125	-6.75418	15.0031	22.6385	1.13434	0.88157	153.83028	149.60263	57.89085	0.32862	 	3.252356763E9	 	1.57294E-9	 	21006.85154	29.63333	 
770.0	1.0	0.0	7.956	7.31046	-6.78017	14.97488	22.57074	1.13231	0.88315	154.19844	149.85359	58.03475	0.3285	 	3.77928469E9	 	1.34717E-9	 	20858.93833	29.58264	 
765.0	1.0	0.0	7.95821	7.30843	-6.80608	14.94668	22.50297	1.13028	0.88474	154.5661	150.10374	58.17848	0.32838	 	4.397938863E9	 	1.15212E-9	 	20711.27757	29.53215	 
760.0	1.0	0.0	7.96042	7.30641	-6.83191	14.91849	22.43518	1.12824	0.88634	154.93326	150.35306	58.32206	0.32826	 	5.125379621E9	 	9.83839E-10	 	20563.8683	29.48185	 
755.0	1.0	0.0	7.96262	7.30439	-6.85766	14.89031	22.36738	1.12618	0.88796	155.29992	150.60157	58.46547	0.32813	 	5.982041964E9	 	8.38868E-10	 	20416.70951	29.43176	 
750.0	1.0	0.0	7.96481	7.30237	-6.88333	14.86215	22.29957	1.12411	0.88959	155.66609	150.84927	58.60871	0.32801	 	6.992442754E9	 	7.14163E-10	 	20269.80021	29.38186	 
745.0	1.0	0.0	7.967	7.30037	-6.90892	14.834	22.23174	1.12203	0.89124	156.03175	151.09615	58.7518	0.32789	 	8.186044398E9	 	6.0705E-10	 	20123.13936	29.33217	 
740.0	1.0	0.0	7.96919	7.29837	-6.93444	14.80587	22.1639	1.11994	0.89291	156.39692	151.34222	58.89472	0.32777	 	9.598311495E9	 	5.15188E-10	 	19976.72594	29.28269	 
735.0	1.0	0.0	7.97137	7.29637	-6.95987	14.77775	22.09605	1.11783	0.89459	156.76158	151.58749	59.03748	0.32764	 	1.1272E10	 	4.36527E-10	 	19830.55886	29.23341	 
730.0	1.0	0.0	7.97354	7.29438	-6.98523	14.74965	22.02818	1.11572	0.89629	157.12575	151.83195	59.18008	0.32752	 	1.3258799999999998E10	 	3.69274E-10	 	19684.63706	29.18436	 
725.0	1.0	0.0	7.97571	7.2924	-7.0105	14.72155	21.96029	1.11359	0.898	157.48942	152.0756	59.32251	0.3274	 	1.5621099999999998E10	 	3.11868E-10	 	19538.95944	29.13552	 
720.0	1.0	0.0	7.97787	7.29043	-7.0357	14.69348	21.89239	1.11144	0.89973	157.85259	152.31845	59.46479	0.32728	 	1.84348E10	 	2.62944E-10	 	19393.52486	29.08692	 
715.0	1.0	0.0	7.98003	7.28846	-7.06082	14.66542	21.82448	1.10929	0.90148	158.21526	152.5605	59.6069	0.32716	 	2.17917E10	 	2.21319E-10	 	19248.33217	29.03854	 
710.0	1.0	0.0	7.98218	7.28649	-7.08586	14.63737	21.75655	1.10712	0.90324	158.57744	152.80176	59.74884	0.32703	 	2.5803799999999996E10	 	1.85962E-10	 	19103.38021	28.99039	 
705.0	1.0	0.0	7.98432	7.28453	-7.11083	14.60933	21.68861	1.10494	0.90502	158.93912	153.04221	59.89063	0.32691	 	3.0607399999999996E10	 	1.55979E-10	 	18958.66776	28.94249	 
700.0	1.0	0.0	7.98646	7.28258	-7.13571	14.58131	21.62064	1.10275	0.90682	159.30029	153.28187	60.03225	0.32679	 	3.6369E10	 	1.30598E-10	 	18814.19359	28.89483	 
695.0	1.0	0.0	7.9886	7.28064	-7.16052	14.55331	21.55267	1.10054	0.90864	159.66098	153.52074	60.17371	0.32667	 	4.32921E10	 	1.09149E-10	 	18669.95642	28.84743	 
690.0	1.0	0.0	7.99072	7.2787	-7.18525	14.52532	21.48468	1.09833	0.91048	160.02116	153.75882	60.315	0.32655	 	5.162659999999999E10	 	9.10558E-11	 	18525.95495	28.80029	 
685.0	1.0	0.0	7.99285	7.27676	-7.2099	14.49734	21.41667	1.09609	0.91233	160.38084	153.99611	60.45613	0.32642	 	6.167869999999999E10	 	7.58202E-11	 	18382.18785	28.75342	 
680.0	1.0	0.0	7.99496	7.27484	-7.23447	14.46938	21.34864	1.09385	0.9142	160.74003	154.23261	60.5971	0.3263	 	7.38258E10	 	6.30144E-11	 	18238.65374	28.70682	 
675.0	1.0	0.0	7.99708	7.27292	-7.25896	14.44143	21.2806	1.09159	0.9161	161.09872	154.46833	60.73791	0.32618	 	8.85328E10	 	5.22709E-11	 	18095.35118	28.66051	 
670.0	1.0	0.0	7.99918	7.271	-7.28338	14.41349	21.21254	1.08932	0.91801	161.45691	154.70326	60.87855	0.32606	 	1.06374E11	 	4.32744E-11	 	17952.27871	28.61449	 
665.0	1.0	0.0	8.00128	7.26909	-7.30771	14.38557	21.14446	1.08703	0.91994	161.81461	154.93741	61.01903	0.32594	 	1.28062E11	 	3.57552E-11	 	17809.43481	28.56878	 
660.0	1.0	0.0	8.00338	7.26719	-7.33197	14.35767	21.07637	1.08473	0.92189	162.17181	155.17078	61.15935	0.32581	 	1.54478E11	 	2.94831E-11	 	17666.82038	28.52289	 
655.0	1.0	0.0	8.00546	7.2653	-7.35615	14.32977	21.00826	1.08242	0.92386	162.52851	155.40337	61.29951	0.32569	 	1.86719E11	 	2.42614E-11	 	17524.44857	28.47436	 
650.0	1.0	0.0	8.00755	7.2634	-7.38026	14.3019	20.94013	1.08009	0.92585	162.88471	155.63519	61.4395	0.32557	 	2.26154E11	 	1.9923E-11	 	17382.33702	28.42231	 
645.0	1.0	0.0	8.00963	7.26152	-7.40428	14.27403	20.87198	1.07775	0.92786	163.24042	155.86624	61.57933	0.32545	 	2.7449E11	 	1.63258E-11	 	17240.48481	28.37044	 
640.0	1.0	0.0	8.0117	7.25964	-7.42823	14.24618	20.80381	1.07539	0.9299	163.59563	156.09651	61.719	0.32533	 	3.33863E11	 	1.33493E-11	 	17098.89101	28.31876	 
635.0	1.0	0.0	8.01376	7.25777	-7.4521	14.21835	20.73563	1.07302	0.93195	163.95034	156.32601	61.8585	0.3252	 	4.06957E11	 	1.08917E-11	 	16957.55472	28.26726	 
630.0	1.0	0.0	8.01582	7.25591	-7.47589	14.19053	20.66742	1.07063	0.93403	164.30456	156.55474	61.99784	0.32508	 	4.97141E11	 	8.8668E-12	 	16816.475	28.21594	 
625.0	1.0	0.0	8.01788	7.25405	-7.49961	14.16272	20.5992	1.06823	0.93613	164.65828	156.7827	62.13702	0.32496	 	6.08666E11	 	7.20206E-12	 	16675.65082	28.16484	 
620.0	1.0	0.0	8.01993	7.25219	-7.52324	14.13493	20.53095	1.06581	0.93825	165.0115	157.0099	62.27603	0.32484	 	7.469E11	 	5.83645E-12	 	16535.08092	28.11398	 
615.0	1.0	0.0	8.02197	7.25034	-7.5468	14.10715	20.46269	1.06338	0.94039	165.36423	157.23634	62.41488	0.32472	 	9.18642E11	 	4.71875E-12	 	16394.76456	28.06327	 
610.0	1.0	0.0	8.02401	7.2485	-7.57029	14.07938	20.3944	1.06094	0.94256	165.71646	157.46201	62.55357	0.3246	 	1.13253E12	 	3.80604E-12	 	16254.70085	28.01274	 
605.0	1.0	0.0	8.02604	7.24667	-7.59369	14.05163	20.3261	1.05848	0.94476	166.06819	157.68693	62.69209	0.32447	 	1.39954E12	 	3.06246E-12	 	16114.88886	27.9624	 
600.0	1.0	0.0	8.02807	7.24484	-7.61702	14.02389	20.25777	1.056	0.94697	166.41943	157.91108	62.83045	0.32435	 	1.73371E12	 	2.4581E-12	 	15975.32771	27.91223	 
595.0	1.0	0.0	8.03009	7.24301	-7.64027	13.99617	20.18943	1.05351	0.94921	166.77017	158.13448	62.96865	0.32423	 	2.15296E12	 	1.96809E-12	 	15836.0165	27.86224	 
590.0	1.0	0.0	8.03211	7.2412	-7.66344	13.96846	20.12106	1.051	0.95148	167.12042	158.35713	63.10669	0.32411	 	2.68033E12	 	1.57176E-12	 	15696.95432	27.81244	 
585.0	1.0	0.0	8.03412	7.23939	-7.68654	13.94077	20.05267	1.04847	0.95377	167.47017	158.57902	63.24456	0.32399	 	3.34539E12	 	1.252E-12	 	15558.14027	27.76281	 
580.0	1.0	0.0	8.03612	7.23758	-7.70956	13.91309	19.98426	1.04593	0.95609	167.81942	158.80016	63.38227	0.32387	 	4.18635E12	 	9.94665E-13	 	15419.57346	27.71336	 
575.0	1.0	0.0	8.03812	7.23578	-7.7325	13.88543	19.91582	1.04338	0.95843	168.16818	159.02055	63.51981	0.32375	 	5.25256E12	 	7.88112E-13	 	15281.25301	27.66409	 
570.0	1.0	0.0	8.04011	7.23399	-7.75537	13.85777	19.84737	1.0408	0.9608	168.51644	159.2402	63.6572	0.32362	 	6.60809E12	 	6.22752E-13	 	15143.17801	27.615	 
565.0	1.0	0.0	8.0421	7.2322	-7.77815	13.83014	19.77888	1.03821	0.96319	168.86421	159.4591	63.79441	0.3235	 	8.33625E12	 	4.90724E-13	 	15005.34758	27.56609	 
560.0	1.0	0.0	8.04408	7.23042	-7.80086	13.80251	19.71038	1.03561	0.96562	169.21148	159.67725	63.93147	0.32338	 	1.05457E13	 	3.85597E-13	 	14867.76084	27.51735	 
555.0	1.0	0.0	8.04605	7.22864	-7.8235	13.7749	19.64185	1.03298	0.96807	169.55826	159.89467	64.06836	0.32326	 	1.33787E13	 	3.02121E-13	 	14730.41688	27.46879	 
550.0	1.0	0.0	8.04802	7.22688	-7.84606	13.74731	19.5733	1.03034	0.97055	169.90454	160.11134	64.20509	0.32314	 	1.70219E13	 	2.36025E-13	 	14593.31484	27.42041	 
545.0	1.0	0.0	8.04999	7.22511	-7.86854	13.71973	19.50472	1.02768	0.97306	170.25032	160.32727	64.34165	0.32302	 	2.1721E13	 	1.8384E-13	 	14456.45383	27.3722	 
540.0	1.0	0.0	8.05194	7.22336	-7.89094	13.69216	19.43612	1.02501	0.9756	170.59561	160.54247	64.47805	0.3229	 	2.78006E13	 	1.42759E-13	 	14319.83296	27.32417	 
535.0	1.0	0.0	8.0539	7.2216	-7.91327	13.66461	19.36749	1.02231	0.97817	170.9404	160.75693	64.61429	0.32278	 	3.56907E13	 	1.10516E-13	 	14183.45138	27.27632	 
530.0	1.0	0.0	8.05584	7.21986	-7.93552	13.63707	19.29884	1.0196	0.98077	171.2847	160.97065	64.75037	0.32265	 	4.59628E13	 	8.52858E-14	 	14047.30818	27.22864	 
525.0	1.0	0.0	8.05778	7.21812	-7.9577	13.60955	19.23016	1.01688	0.9834	171.6285	161.18365	64.88628	0.32253	 	5.93792E13	 	6.5605E-14	 	13911.40252	27.18113	 
520.0	1.0	0.0	8.05972	7.21639	-7.9798	13.58204	19.16145	1.01413	0.98607	171.97181	161.39591	65.02202	0.32241	 	7.69598E13	 	5.03011E-14	 	13775.73351	27.1338	 
515.0	1.0	0.0	8.06165	7.21466	-8.00182	13.55454	19.09271	1.01136	0.98876	172.31463	161.60744	65.15761	0.32229	 	1.00074E14	 	3.8439E-14	 	13640.30027	27.08665	 
510.0	1.0	0.0	8.06357	7.21294	-8.02377	13.52706	19.02395	1.00858	0.99149	172.65694	161.81825	65.29303	0.32217	 	1.3056899999999998E14	 	2.92747E-14	 	13505.10196	27.03966	 
505.0	1.0	0.0	8.06549	7.21122	-8.04564	13.49959	18.95516	1.00578	0.99426	172.99877	162.02833	65.42828	0.32205	 	1.70938E14	 	2.22183E-14	 	13370.13769	26.99285	 
500.0	1.0	0.0	8.0674	7.20952	-8.06743	13.47214	18.88634	1.00296	0.99705	173.3401	162.23769	65.56337	0.32193	 	2.2457E14	 	1.68035E-14	 	13235.40661	26.94622	 
495.0	1.0	0.0	8.06931	7.20781	-8.08915	13.4447	18.81749	1.00012	0.99988	173.68093	162.44632	65.6983	0.32181	 	2.96079E14	 	1.26627E-14	 	13100.90785	26.89975	 
490.0	1.0	0.0	8.07121	7.20612	-8.11079	13.41728	18.74862	0.99726	1.00275	174.02127	162.65424	65.83307	0.32169	 	3.91775E14	 	9.50735E-15	 	12966.64057	26.85346	 
485.0	1.0	0.0	8.0731	7.20442	-8.13235	13.38987	18.67971	0.99438	1.00565	174.36111	162.86143	65.96767	0.32156	 	5.2031999999999994E14	 	7.11166E-15	 	12832.60389	26.80734	 
480.0	1.0	0.0	8.07499	7.20274	-8.15384	13.36247	18.61077	0.99148	1.00859	174.70046	163.06791	66.1021	0.32144	 	6.9365E14	 	5.29941E-15	 	12698.79696	26.76139	 
475.0	1.0	0.0	8.07688	7.20106	-8.17526	13.33509	18.5418	0.98856	1.01157	175.03932	163.27368	66.23638	0.32132	 	9.28281E14	 	3.93365E-15	 	12565.21892	26.71561	 
470.0	1.0	0.0	8.07875	7.19939	-8.1966	13.30772	18.4728	0.98562	1.01459	175.37768	163.47872	66.37048	0.3212	 	1.24716E15	 	2.90832E-15	 	12431.86893	26.67	 
465.0	1.0	0.0	8.08062	7.19772	-8.21786	13.28036	18.40376	0.98266	1.01764	175.71555	163.68306	66.50443	0.32108	 	1.68229E15	 	2.14157E-15	 	12298.74614	26.62456	 
460.0	1.0	0.0	8.08249	7.19606	-8.23905	13.25302	18.3347	0.97968	1.02074	176.05292	163.88668	66.63821	0.32096	 	2.27851E15	 	1.57046E-15	 	12165.84969	26.57929	 
455.0	1.0	0.0	8.08435	7.1944	-8.26016	13.2257	18.2656	0.97668	1.02387	176.3898	164.0896	66.77183	0.32084	 	3.09894E15	 	1.14682E-15	 	12033.17875	26.53419	 
450.0	1.0	0.0	8.0862	7.19275	-8.28119	13.19839	18.19646	0.97366	1.02705	176.72618	164.29181	66.90528	0.32072	 	4.23273E15	 	8.33862E-16	 	11900.73245	26.48926	 
445.0	1.0	0.0	8.08805	7.19111	-8.30215	13.17109	18.12729	0.97062	1.03027	177.06207	164.49331	67.03857	0.3206	 	5.8065E15	 	6.03653E-16	 	11768.50997	26.4445	 
440.0	1.0	0.0	8.0899	7.18947	-8.32304	13.14381	18.05809	0.96755	1.03353	177.39746	164.6941	67.17169	0.32048	 	8.00079E15	 	4.35045E-16	 	11636.51045	26.3999	 
435.0	1.0	0.0	8.09173	7.18784	-8.34385	13.11654	17.98884	0.96447	1.03684	177.73236	164.8942	67.30465	0.32036	 	1.10743E16	 	3.121E-16	 	11504.73307	26.35548	 
430.0	1.0	0.0	8.09356	7.18621	-8.36458	13.08928	17.91957	0.96136	1.04019	178.06677	165.09359	67.43745	0.32024	 	1.53996E16	 	2.22856E-16	 	11373.17696	26.31122	 
425.0	1.0	0.0	8.09539	7.18459	-8.38524	13.06204	17.85025	0.95823	1.04359	178.40068	165.29228	67.57008	0.32012	 	2.15156E16	 	1.58373E-16	 	11241.84134	26.26712	 
420.0	1.0	0.0	8.09721	7.18298	-8.40582	13.03482	17.7809	0.95508	1.04703	178.7341	165.49028	67.70255	0.32	 	3.0206E16	 	1.12001E-16	 	11110.7253	26.22321	 
415.0	1.0	0.0	8.09902	7.18137	-8.42633	13.0076	17.71151	0.95191	1.05052	179.06703	165.68757	67.83485	0.31987	 	4.26161E16	 	7.88127E-17	 	10979.82816	26.17943	 
410.0	1.0	0.0	8.10083	7.17977	-8.44676	12.9804	17.64207	0.94871	1.05407	179.39946	165.88417	67.96699	0.31975	 	6.04285E16	 	5.51774E-17	 	10849.14928	26.13578	 
405.0	1.0	0.0	8.10263	7.17817	-8.46712	12.95322	17.5726	0.94549	1.05766	179.7314	166.08008	68.09897	0.31963	 	8.61284E16	 	3.84296E-17	 	10718.68803	26.09225	 
400.0	1.0	0.0	8.10443	7.17658	-8.4874	12.92605	17.50309	0.94224	1.0613	180.06284	166.2753	68.23078	0.31951	 	1.23406E17	 	2.66232E-17	 	10588.44377	26.04885	 
395.0	1.0	0.0	8.10622	7.175	-8.50761	12.8989	17.43353	0.93898	1.06499	180.39379	166.46982	68.36242	0.31939	 	1.77773E17	 	1.8344E-17	 	10458.41587	26.00558	 
390.0	1.0	0.0	8.108	7.17342	-8.52775	12.87175	17.36394	0.93569	1.06874	180.72425	166.66366	68.4939	0.31927	 	2.57505E17	 	1.25693E-17	 	10328.60369	25.96244	 
385.0	1.0	0.0	8.10978	7.17184	-8.5478	12.84463	17.29429	0.93237	1.07254	181.05421	166.85681	68.62522	0.31915	 	3.75103E17	 	8.5637E-18	 	10199.0066	25.91942	 
380.0	1.0	0.0	8.11155	7.17028	-8.56779	12.81751	17.22461	0.92903	1.07639	181.38368	167.04927	68.75637	0.31903	 	5.49561E17	 	5.80075E-18	 	10069.62394	25.87653	 
375.0	1.0	0.0	8.11332	7.16872	-8.5877	12.79041	17.15487	0.92567	1.0803	181.71266	167.24105	68.88736	0.31891	 	8.09916E17	 	3.90591E-18	 	9940.45509	25.83377	 
370.0	1.0	0.0	8.11508	7.16716	-8.60753	12.76333	17.0851	0.92228	1.08427	182.04114	167.43214	69.01818	0.31879	 	1.20084E18	 	2.61406E-18	 	9811.49941	25.79114	 
365.0	1.0	0.0	8.11683	7.16561	-8.62729	12.73626	17.01527	0.91886	1.0883	182.36913	167.62256	69.14884	0.31867	 	1.79146E18	 	1.73861E-18	 	9682.75624	25.74863	 
360.0	1.0	0.0	8.11858	7.16407	-8.64698	12.7092	16.9454	0.91542	1.09239	182.69662	167.81229	69.27934	0.31855	 	2.68952E18	 	1.149E-18	 	9554.22493	25.70626	 
355.0	1.0	0.0	8.12033	7.16253	-8.66659	12.68216	16.87547	0.91196	1.09655	183.02362	168.00134	69.40967	0.31843	 	4.06398E18	 	7.54395E-19	 	9425.90482	25.66402	 
350.0	1.0	0.0	8.12206	7.161	-8.68612	12.65513	16.8055	0.90846	1.10076	183.35013	168.18972	69.53983	0.31831	 	6.18166E18	 	4.92011E-19	 	9297.79526	25.62191	 
345.0	1.0	0.0	8.12379	7.15947	-8.70558	12.62812	16.73547	0.90494	1.10504	183.67615	168.37742	69.66983	0.31819	 	9.46685E18	 	3.18695E-19	 	9169.89556	25.57994	 
340.0	1.0	0.0	8.12552	7.15795	-8.72497	12.60112	16.66539	0.9014	1.10939	184.00167	168.56445	69.79966	0.31807	 	1.45991E19	 	2.04988E-19	 	9042.20506	25.5381	 
335.0	1.0	0.0	8.12724	7.15644	-8.74428	12.57413	16.59526	0.89783	1.1138	184.3267	168.75081	69.92933	0.31795	 	2.26745E19	 	1.30906E-19	 	8914.72307	25.4964	 
330.0	1.0	0.0	8.12895	7.15493	-8.76352	12.54716	16.52507	0.89423	1.11828	184.65124	168.93649	70.05884	0.31783	 	3.54748E19	 	8.29836E-20	 	8787.44889	25.45484	 
325.0	1.0	0.0	8.13066	7.15342	-8.78269	12.5202	16.45483	0.8906	1.12284	184.97528	169.12151	70.18818	0.31771	 	5.59181E19	 	5.22089E-20	 	8660.38181	25.41342	 
320.0	1.0	0.0	8.13236	7.15193	-8.80178	12.49326	16.38453	0.88694	1.12747	185.29883	169.30585	70.31735	0.31759	 	8.88213E19	 	3.25937E-20	 	8533.5211	25.37214	 
315.0	1.0	0.0	8.13406	7.15044	-8.8208	12.46633	16.31417	0.88326	1.13217	185.62189	169.48953	70.44636	0.31747	 	1.4219999999999998E20	 	2.01872E-20	 	8406.86602	25.33102	 
310.0	1.0	0.0	8.13575	7.14895	-8.83974	12.43941	16.24375	0.87955	1.13695	185.94446	169.67255	70.57521	0.31735	 	2.2950099999999997E20	 	1.24017E-20	 	8280.41583	25.29004	 
305.0	1.0	0.0	8.13743	7.14747	-8.85861	12.41251	16.17327	0.87581	1.1418	186.26653	169.8549	70.70389	0.31723	 	3.7347899999999997E20	 	7.55546E-21	 	8154.16973	25.24922	 
300.0	1.0	0.0	8.13911	7.146	-8.8774	12.38563	16.10272	0.87204	1.14674	186.58811	170.03658	70.8324	0.31711	 	6.12968E20	 	4.5637E-21	 	8028.12691	25.20856	 
295.0	1.0	0.0	8.14078	7.14453	-8.89612	12.35875	16.03211	0.86824	1.15176	186.90919	170.21761	70.96075	0.31699	 	1.01484E21	 	2.73245E-21	 	7902.28654	25.16807	 
290.0	1.0	0.0	8.14245	7.14307	-8.91477	12.3319	15.96144	0.86441	1.15686	187.22979	170.39798	71.08894	0.31687	 	1.69529E21	 	1.62131E-21	 	7776.64777	25.12775	 
285.0	1.0	0.0	8.14411	7.14161	-8.93335	12.30505	15.89069	0.86055	1.16205	187.54989	170.57769	71.21695	0.31675	 	2.85814E21	 	9.53134E-22	 	7651.20968	25.08762	 
280.0	1.0	0.0	8.14577	7.14016	-8.95185	12.27822	15.81988	0.85665	1.16733	187.8695	170.75674	71.34481	0.31663	 	4.86434E21	 	5.55016E-22	 	7525.97132	25.04767	 
275.0	1.0	0.0	8.14742	7.13871	-8.97027	12.25141	15.749	0.85273	1.1727	188.18861	170.93513	71.4725	0.31651	 	8.35945E21	 	3.20043E-22	 	7400.9317	25.00792	 
270.0	1.0	0.0	8.14906	7.13727	-8.98863	12.2246	15.67804	0.84878	1.17816	188.50723	171.11288	71.60002	0.31639	 	1.45098E22	 	1.82703E-22	 	7276.08977	24.96839	 
265.0	1.0	0.0	8.1507	7.13584	-9.00691	12.19782	15.60701	0.84479	1.18372	188.82537	171.28997	71.72738	0.31627	 	2.54445E22	 	1.03228E-22	 	7151.44439	24.92907	 
260.0	1.0	0.0	8.15233	7.13441	-9.02511	12.17104	15.5359	0.84077	1.18938	189.143	171.46641	71.85457	0.31615	 	4.50923E22	 	5.77077E-23	 	7026.9944	24.89	 
255.0	1.0	0.0	8.15395	7.13299	-9.04325	12.14428	15.46471	0.83672	1.19514	189.46015	171.6422	71.9816	0.31603	 	8.07823E22	 	3.19101E-23	 	6902.73848	24.85118	 
250.0	1.0	0.0	8.15557	7.13157	-9.0613	12.11754	15.39344	0.83264	1.201	189.7768	171.81734	72.10846	0.31591	 	1.4634199999999999E23	 	1.74479E-23	 	6778.67526	24.81264	 
245.0	1.0	0.0	8.15719	7.13016	-9.07929	12.09081	15.32209	0.82852	1.20697	190.09296	171.99183	72.23515	0.31579	 	2.68166E23	 	9.43058E-24	 	6654.80321	24.77441	 
240.0	1.0	0.0	8.15879	7.12876	-9.0972	12.06409	15.25066	0.82437	1.21305	190.40863	172.16568	72.36168	0.31567	 	4.9723799999999994E23	 	5.03694E-24	 	6531.1207	24.7365	 
235.0	1.0	0.0	8.16039	7.12736	-9.11505	12.03739	15.17914	0.82018	1.21924	190.72381	172.33889	72.48805	0.31555	 	9.33257E23	 	2.65752E-24	 	6407.6259	24.69896	 
230.0	1.0	0.0	8.16199	7.12597	-9.13281	12.0107	15.10752	0.81596	1.22555	191.03849	172.51145	72.61425	0.31543	 	1.77367E24	 	1.38456E-24	 	6284.31678	24.66182	 
225.0	1.0	0.0	8.16358	7.12458	-9.15051	11.98403	15.03582	0.81171	1.23197	191.35269	172.68337	72.74028	0.31531	 	3.4146200000000003E24	 	7.12039E-25	 	6161.19108	24.62514	 
220.0	1.0	0.0	8.16516	7.1232	-9.16813	11.95737	14.96402	0.80742	1.23852	191.66639	172.85465	72.86615	0.3152	 	6.66164E24	 	3.61314E-25	 	6038.24626	24.58896	 
215.0	1.0	0.0	8.16674	7.12182	-9.18568	11.93072	14.89212	0.80309	1.24519	191.97959	173.02529	72.99185	0.31508	 	1.31754E25	 	1.80832E-25	 	5915.47942	24.55337	 
210.0	1.0	0.0	8.16831	7.12045	-9.20315	11.90409	14.82013	0.79872	1.252	192.29231	173.1953	73.11738	0.31496	 	2.64289E25	 	8.92255E-26	 	5792.88726	24.51843	 
205.0	1.0	0.0	8.16988	7.11909	-9.22056	11.87747	14.74803	0.79432	1.25894	192.60453	173.36466	73.24275	0.31484	 	5.37918E25	 	4.33845E-26	 	5670.46594	24.48426	 
200.0	1.0	0.0	8.17144	7.11773	-9.23789	11.85087	14.67582	0.78988	1.26601	192.91627	173.5334	73.36796	0.31472	 	1.11142E26	 	2.07783E-26	 	5548.21106	24.45098	 
195.0	1.0	0.0	8.17299	7.11637	-9.25514	11.82428	14.60351	0.78541	1.27323	193.22751	173.7015	73.49299	0.3146	 	2.3322100000000003E26	 	9.79724E-27	 	5426.11738	24.41874	 
190.0	1.0	0.0	8.17454	7.11503	-9.27233	11.7977	14.53108	0.78089	1.28059	193.53825	173.86897	73.61787	0.31448	 	4.9729E26	 	4.54567E-27	 	5304.17873	24.38773	 
185.0	1.0	0.0	8.17608	7.11368	-9.28944	11.77114	14.45854	0.77634	1.2881	193.84851	174.03581	73.74257	0.31436	 	1.0780299999999999E27	 	2.07427E-27	 	5182.38776	24.35819	 
180.0	1.0	0.0	8.17762	7.11235	-9.30648	11.74459	14.38587	0.77174	1.29577	194.15828	174.20202	73.86711	0.31424	 	2.37719E27	 	9.30388E-28	 	5060.73559	24.33043	 
175.0	1.0	0.0	8.17915	7.11102	-9.32345	11.71806	14.31309	0.76711	1.3036	194.46755	174.3676	73.99149	0.31412	 	5.335349999999999E27	 	4.09966E-28	 	4939.21143	24.30483	 
170.0	1.0	0.0	8.18067	7.10969	-9.34034	11.69154	14.24018	0.76243	1.31159	194.77633	174.53255	74.1157	0.314	 	1.2195E28	 	1.77359E-28	 	4817.80203	24.28188	 
165.0	1.0	0.0	8.18219	7.10837	-9.35717	11.66504	14.16713	0.75772	1.31975	195.08462	174.69688	74.23974	0.31388	 	2.8405200000000003E28	 	7.52855E-29	 	4696.49099	24.26221	 
160.0	1.0	0.0	8.1837	7.10706	-9.37392	11.63855	14.09395	0.75296	1.32809	195.39242	174.86059	74.36361	0.31376	 	6.7467E28	 	3.13353E-29	 	4575.25782	24.24663	 
155.0	1.0	0.0	8.18521	7.10575	-9.3906	11.61207	14.02063	0.74816	1.33661	195.69973	175.02367	74.48732	0.31364	 	1.6351500000000003E29	 	1.27798E-29	 	4454.07666	24.23623	 
150.0	1.0	0.0	8.18671	7.10445	-9.4072	11.58561	13.94717	0.74332	1.34532	196.00654	175.18613	74.61087	0.31353	 	4.0468E29	 	5.10351E-30	 	4331.97765	24.4198	 
145.0	1.0	0.0	8.18821	7.10315	-9.42374	11.55916	13.87356	0.73843	1.35422	196.31287	175.34798	74.73424	0.31341	 	1.02347E30	 	1.99408E-30	 	4208.23602	24.74832	 
140.0	1.0	0.0	8.18969	7.10186	-9.4402	11.53273	13.79979	0.7335	1.36332	196.6187	175.5092	74.85745	0.31329	 	2.64726E30	 	7.61726E-31	 	4085.0462	24.63797	 
135.0	1.0	0.0	8.19118	7.10058	-9.45659	11.50631	13.72587	0.72853	1.37263	196.92404	175.66981	74.9805	0.31317	 	7.008519999999999E30	 	2.84237E-31	 	3962.38291	24.53266	 
130.0	1.0	0.0	8.19265	7.0993	-9.47291	11.47991	13.65178	0.72351	1.38215	197.22889	175.8298	75.10338	0.31305	 	1.90084E31	 	1.03516E-31	 	3840.22397	24.43179	 
125.0	1.0	0.0	8.19412	7.09802	-9.48915	11.45352	13.57751	0.71844	1.3919	197.53325	175.98917	75.22609	0.31293	 	5.2862399999999995E31	 	3.67609E-32	 	3718.54998	24.3348	 
120.0	1.0	0.0	8.19559	7.09675	-9.50533	11.42714	13.50307	0.71333	1.40187	197.83712	176.14794	75.34863	0.31281	 	1.50886E32	 	1.27174E-32	 	3597.344	24.2412	 
115.0	1.0	0.0	8.19705	7.09549	-9.52143	11.40078	13.42845	0.70817	1.41208	198.14049	176.30609	75.47101	0.31269	 	4.4246999999999995E32	 	4.28157E-33	 	3476.59125	24.15055	 
110.0	1.0	0.0	8.1985	7.09423	-9.53746	11.37443	13.35364	0.70297	1.42254	198.44338	176.46363	75.59322	0.31257	 	1.33449E33	 	1.40133E-33	 	3356.27897	24.06246	 
105.0	1.0	0.0	8.19995	7.09298	-9.55342	11.34809	13.27862	0.69771	1.43325	198.74578	176.62056	75.71527	0.31246	 	4.14403E33	 	4.45378E-34	 	3236.39612	23.97657	 
100.0	1.0	0.0	8.20139	7.09174	-9.56931	11.32177	13.20341	0.69241	1.44423	199.04768	176.77688	75.83715	0.31234	 	1.3265400000000002E34	 	1.37294E-34	 	3116.93327	23.89257	 
95.0	1.0	0.0	8.20282	7.09049	-9.58513	11.29547	13.12798	0.68706	1.45548	199.34909	176.9326	75.95886	0.31222	 	4.3826900000000005E34	 	4.09988E-35	 	2997.88246	23.81016	 
90.0	1.0	0.0	8.20425	7.08926	-9.60087	11.26917	13.05232	0.68165	1.46702	199.65002	177.08771	76.08041	0.3121	 	1.4964199999999999E35	 	1.18445E-35	 	2879.23698	23.7291	 
85.0	1.0	0.0	8.20567	7.08803	-9.61655	11.2429	12.97644	0.6762	1.47885	199.95045	177.24221	76.20179	0.31198	 	5.2876199999999995E35	 	3.30592E-36	 	2760.99137	23.64912	 
80.0	1.0	0.0	8.20709	7.08681	-9.63215	11.21663	12.90032	0.67069	1.49099	200.25039	177.39611	76.323	0.31186	 	1.93637E36	 	8.90139E-37	 	2643.14124	23.57003	 
75.0	1.0	0.0	8.2085	7.08559	-9.64768	11.19038	12.82395	0.66514	1.50345	200.54984	177.54942	76.44405	0.31174	 	7.360519999999999E36	 	2.30858E-37	 	2525.68323	23.4916	 
70.0	1.0	0.0	8.20991	7.08438	-9.66314	11.16415	12.74731	0.65953	1.51624	200.8488	177.70212	76.56493	0.31162	 	2.9088999999999997E37	 	5.75761E-38	 	2408.61492	23.41366	 
65.0	1.0	0.0	8.2113	7.08317	-9.67853	11.13793	12.67041	0.65386	1.52938	201.14727	177.85422	76.68564	0.31151	 	1.1972899999999998E38	 	1.37847E-38	 	2291.93481	23.33602	 
60.0	1.0	0.0	8.2127	7.08197	-9.69385	11.11172	12.59322	0.64814	1.54288	201.44526	178.00572	76.80619	0.31139	 	5.1417699999999994E38	 	3.16238E-39	 	2175.6422	23.25852	 
55.0	1.0	0.0	8.21408	7.08077	-9.7091	11.08553	12.51574	0.64237	1.55675	201.74275	178.15663	76.92657	0.31127	 	2.3084100000000002E39	 	6.93818E-40	 	2059.73728	23.18098	 
50.0	1.0	0.0	8.21546	7.07958	-9.72427	11.05935	12.43795	0.63653	1.57101	202.03975	178.30694	77.04678	0.31115	 	1.0856699999999999E40	 	1.45276E-40	 	1944.22097	23.10326	 
45.0	1.0	0.0	8.21684	7.0784	-9.73938	11.03319	12.35983	0.63065	1.58568	202.33626	178.45666	77.16683	0.31103	 	5.36063E40	 	2.8967E-41	 	1829.095	23.0252	 
40.0	1.0	0.0	8.21821	7.07722	-9.75441	11.00703	12.28138	0.6247	1.60077	202.63228	178.60579	77.2867	0.31091	 	2.78535E41	 	5.4873E-42	 	1714.36183	22.94663	 
35.0	1.0	0.0	8.21957	7.07605	-9.76937	10.9809	12.20257	0.6187	1.6163	202.92781	178.75433	77.40642	0.31079	 	1.52676E42	 	9.85097E-43	 	1600.02472	22.86742	 
30.0	1.0	0.0	8.22093	7.07488	-9.78427	10.95477	12.1234	0.61263	1.6323	203.22286	178.90227	77.52596	0.31068	 	8.851819999999999E42	 	1.67152E-43	 	1486.0877	22.7874	 
25.0	1.0	0.0	8.22228	7.07372	-9.79909	 	12.04383	0.60651	1.64878	203.51741	179.04963	77.64534	0.31056	 	5.44372E43	 	2.67317E-44	 	1372.55559	 	 
