T (C)	Fraction solid (wt)-TOTAL	Fraction liquid (wt)-LIQUID	Density (g/(cm)^3)-TOTAL	Molar volume (cm^3)-TOTAL	Volume change (%)-  	Average expansion coeff. (10e-6 1/K)-  	Thermal conductivity (W/(m*K))-TOTAL	Electrical resistivity (10e-6 Ohm*m)-TOTAL	Electrical conductivity (10e6 1/(Ohm*m))-TOTAL	Young's modulus (GPa)-TOTAL	Bulk modulus (GPa)-TOTAL	Shear modulus(GPa)-TOTAL	Poisson's ratio-TOTAL	Liquid viscosity (mPa s)-  	Total viscosity (mPa s)-  	Liquid diffusivity (10e-9 (m^2)/s)-  	Total diffusivity (10e-9 (m^2)/s)-  	Surface Tension (mN/m)-  	Enthalpy (J/mole)-TOTAL	Specific heat (J/(mole K))-TOTAL	Latent heat (J/mole)-TOTAL
1400.0	0.0	1.0	7.57656	7.86684	0.0	28.20333	27.59267	1.48562	0.67312	0.0	127.65339	0.0	0.5	8.42148	8.42148	0.96969	0.96969	1845.76837	54111.765	 	0.0
1395.0	0.0	1.0	7.58063	7.86262	-0.0536697	28.16049	27.52442	1.48485	0.67347	0.0	127.81405	0.0	0.5	8.51503	8.51503	0.95617	0.95617	1849.31666	53906.881	40.9768	0.0
1390.0	0.0	1.0	7.58469	7.85841	-0.10718	28.11776	27.45618	1.48408	0.67382	0.0	127.97471	0.0	0.5	8.61018	8.61018	0.94277	0.94277	1852.88611	53702.473	40.8816	0.0
1385.0	0.0	1.0	7.58874	7.85421	-0.16054	28.07514	27.38793	1.48331	0.67417	0.0	128.13536	0.0	0.5	8.70698	8.70698	0.92949	0.92949	1856.47657	53498.538	40.787	0.0
1380.0	0.0	1.0	7.59279	7.85003	-0.21374	28.03263	27.31968	1.48253	0.67452	0.0	128.29602	0.0	0.5	8.80547	8.80547	0.91632	0.91632	1860.08787	53295.075	40.6926	0.0
1375.0	0.0	1.0	7.59682	7.84586	-0.26679	27.99024	27.25144	1.48174	0.67488	0.0	128.45667	0.0	0.5	8.90567	8.90567	0.90327	0.90327	1863.71983	53092.079	40.5992	0.0
1370.0	0.0	1.0	7.60086	7.8417	-0.31968	27.94796	27.18319	1.48096	0.67524	0.0	128.61733	0.0	0.5	9.00764	9.00764	0.89033	0.89033	1867.37229	52889.55	40.5058	0.0
1366.33	0.0	1.0	7.60381	7.83865	-0.35841	27.917	27.1331	1.48038	0.6755	0.0	128.73526	0.0	0.5	9.08363	9.08363	0.88091	0.88091	1870.06629	52741.186	40.42384	0.0
1365.0	0.0565602	0.94344	7.61819	7.82385	-0.54653	27.42229	27.30353	1.46994	0.6803	0.00102628	129.08396	3.43874E-4	0.49224	9.12152	10.09977	0.87654	0.79164	1869.71419	51832.558	683.28683	854.924
1360.0	0.24707	0.75293	7.66693	7.77405	-1.1795	25.76068	27.89019	1.43463	0.69704	0.38459	130.20835	0.13119	0.46574	9.26566	115.72375	0.86027	0.0688795	1868.18176	48769.001	612.7114	3716.874
1355.0	0.39122	0.60878	7.70461	7.73607	-1.66233	24.50665	28.3437	1.40736	0.71055	2.47332	131.07967	0.8556	0.44536	9.41246	699.03296	0.84426	0.011368	1866.46375	46421.938	469.4126	5862.788
1350.0	0.50218	0.49782	7.73429	7.70636	-2.04004	23.53836	28.69886	1.38567	0.72167	6.83878	131.77813	2.39211	0.42945	9.56199	1980.16191	0.82851	0.00400078	1864.60492	44587.801	366.8274	7496.231
1345.0	0.58889	0.41111	7.75808	7.6827	-2.34075	22.77981	28.97714	1.36814	0.73092	13.12949	132.35942	4.63335	0.41685	9.71444	3947.82259	0.81299	0.00200054	1862.6449	43127.117	292.1368	8756.675
1340.0	0.6575	0.3425	7.77748	7.66351	-2.58473	22.17602	29.19344	1.3538	0.73866	20.66641	132.85835	7.34544	0.40675	9.86987	6489.05164	0.79772	0.00121333	1860.62138	41942.548	236.9138	9741.453
1335.0	0.71243	0.28757	7.79353	7.64769	-2.78585	21.68937	29.35938	1.34198	0.74517	28.80186	133.29985	10.29686	0.39857	10.02858	9476.48553	0.78266	8.28259E-4	1858.56816	40965.014	195.5068	10519.644
1330.0	0.75686	0.24314	7.80701	7.63444	-2.9542	21.29242	29.48454	1.33213	0.75068	37.04037	133.70063	13.30583	0.39189	10.19057	12803.14431	0.76783	6.11145E-4	1856.51463	40144.736	164.0556	11141.025
1325.0	0.79313	0.20687	7.81849	7.62319	-3.09721	20.96498	29.57634	1.32385	0.75537	45.04735	134.07187	16.24661	0.38636	10.35615	16390.72669	0.75319	4.75889E-4	1854.48652	39445.336	139.88	11641.97
1320.0	0.823	0.177	7.8284	7.61348	-3.2206	20.69136	29.64095	1.31683	0.7594	52.62251	134.42139	19.04187	0.38176	10.52542	20188.55736	0.73876	3.85157E-4	1852.50654	38839.884	121.0904	12049.409
1315.0	0.84779	0.15221	7.83707	7.60502	-3.32815	20.46133	29.68338	1.31082	0.76288	59.66387	134.7554	21.65043	0.37789	10.69864	24169.31657	0.72452	3.20711E-4	1850.59079	38308.204	106.336	12383.512
1310.0	0.86851	0.13149	7.84473	7.59754	-3.42326	20.2655	29.70747	1.30564	0.76591	66.12782	135.07756	24.05318	0.37462	10.87598	28319.66819	0.71046	2.72848E-4	1848.75557	37835.013	94.6382	12659.562
1305.0	0.88596	0.11404	7.8516	7.59086	-3.50825	20.09759	29.7166	1.30111	0.76857	72.02452	135.39128	26.25142	0.37182	11.05766	32644.21519	0.69658	2.35955E-4	1847.0114	37408.615	85.2796	12889.253
1304.38	0.88786	0.11214	7.85239	7.59008	-3.51809	20.07877	29.71645	1.30061	0.76887	72.6957	135.43001	26.50201	0.37151	11.0806	33184.98402	0.69486	2.32018E-4	1846.80339	37359.232	 	12914.163
1300.0	0.90343	0.0965678	7.85888	7.58412	-3.59382	19.92669	29.72593	1.29658	0.77126	78.24214	135.7275	28.57542	0.36905	11.15272	37520.66493	0.68846	2.04638E-4	1841.8519	36975.8	86.563	13125.792
1295.0	0.91828	0.0817229	7.86556	7.57803	-3.67125	19.77827	29.7229	1.2926	0.77364	83.89057	136.04849	30.69199	0.36665	11.24147	42610.68406	0.68085	1.7962E-4	1836.63149	36580.048	79.1504	13325.696
1290.0	0.93054	0.0694637	7.8716	7.57258	-3.74059	19.65245	29.70742	1.28915	0.77571	88.85124	136.35647	32.55492	0.36464	11.33675	47857.43504	0.67297	1.59418E-4	1831.84923	36221.242	71.7612	13489.081
1285.0	0.94075	0.0592498	7.87711	7.56761	-3.80371	19.54402	29.68193	1.28613	0.77753	93.2166	136.65524	34.19742	0.36292	11.43849	53295.6202	0.66486	1.42694E-4	1827.4817	35891.575	65.9334	13623.75
1280.0	0.94933	0.0506686	7.8822	7.56306	-3.86158	19.45032	29.64835	1.28345	0.77915	97.06949	136.94832	35.64948	0.36144	11.54662	58963.59417	0.65652	1.28563E-4	1823.49953	35585.128	61.2894	13735.622
1275.0	0.9566	0.0434044	7.88695	7.55883	-3.91532	19.36815	29.60814	1.28106	0.78061	100.48347	137.23733	36.93803	0.36016	11.66109	64900.39238	0.64798	1.16427E-4	1819.8785	35297.365	57.5526	13829.229
1270.0	0.96279	0.037209	7.89141	7.55487	-3.96563	19.29553	29.56249	1.27889	0.78193	103.52317	137.52365	38.08682	0.35904	11.78193	71148.25396	0.63926	1.0586E-4	1816.59243	35024.778	54.5174	13908.078
1265.0	0.96811	0.0318882	7.89563	7.55114	-4.0131	19.2309	29.51232	1.27691	0.78314	106.24286	137.80802	39.1159	0.35805	11.90906	77749.90846	0.63039	9.65574E-5	1813.61669	34764.629	52.0298	13974.903
1260.0	0.97271	0.0272908	7.89966	7.54759	-4.05828	19.17264	29.45838	1.27509	0.78426	108.68866	138.09117	40.04236	0.35717	12.04249	84750.43572	0.62138	8.82936E-5	1810.93008	34514.763	49.9732	14031.859
1255.0	0.97671	0.0232941	7.90352	7.54419	-4.10142	19.12004	29.40127	1.2734	0.7853	110.89917	138.3734	40.88054	0.35638	12.18229	92196.7491	0.61224	8.08979E-5	1808.50911	34273.468	48.259	14080.655
1250.0	0.9802	0.0197991	7.90723	7.54093	-4.14291	19.07207	29.34147	1.27182	0.78627	112.90791	138.65493	41.64294	0.35567	12.32852	100138.8848	0.603	7.42381E-5	1806.3352	34039.375	46.8186	14122.658
1247.38	0.98184	0.0181569	7.90912	7.53927	-4.16401	19.04876	29.30906	1.27104	0.78676	113.88171	138.80249	42.01279	0.35532	12.40761	104513.6109	0.59813	7.10081E-5	1805.27941	33919.313	 	14142.114
1245.0	0.98399	0.0160071	7.91107	7.53754	-4.18592	19.01903	29.28069	1.27028	0.78723	115.09818	138.94042	42.47486	0.3549	12.46057	108947.6586	0.59465	6.80117E-5	1803.9975	33798.993	48.0764	14171.356
1240.0	0.98808	0.0119207	7.91507	7.53403	-4.23062	18.96039	29.21944	1.26875	0.78818	117.47797	139.22738	43.37951	0.35407	12.57317	118736.3557	0.58739	6.21992E-5	1801.5423	33552.608	49.277	14226.461
1238.99	0.9888	0.0112016	7.91585	7.53334	-4.23937	18.94941	29.20662	1.26846	0.78836	117.9114	139.28542	43.54439	0.35392	12.59667	120778.6185	0.5859	6.11065E-5	1801.08149	33504.341	 	14236.02
1237.74	0.99014	0.00985708	7.91698	7.53236	-4.2518	18.93069	29.1921	1.26805	0.78861	118.69528	139.37786	43.84228	0.35366	12.59143	123565.2636	0.58566	5.96794E-5	1800.66826	33437.206	 	14255.723
1235.0	0.99286	0.00713924	7.91942	7.53026	-4.2785	18.89151	29.16002	1.26713	0.78918	120.31244	139.57876	44.45712	0.35313	12.58048	129835.9369	0.58511	5.66939E-5	1799.80441	33292.832	51.9552	14295.359
1230.0	0.99703	0.00297419	7.92367	7.52663	-4.3247	18.82722	29.09932	1.26557	0.79016	122.88879	139.93319	45.4375	0.35228	12.5641	141691.0591	0.58393	5.17782E-5	1798.39871	33042.349	50.0966	14355.365
1225.47	1.0	0.0	7.92729	7.52354	-4.36399	18.77649	29.04192	1.26425	0.79098	124.83168	140.24163	46.17762	0.35165	 	152932.0432	 	4.78277E-5	 	32828.178	 	14397.324
1225.0	1.0	0.0	7.92754	7.52331	-4.36686	18.77494	29.03462	1.26417	0.79103	124.86888	140.26878	46.19191	0.35163	 	153962.9468	 	4.74926E-5	 	32804.27272	47.61526	 
1220.0	1.0	0.0	7.93019	7.5208	-4.39877	18.75414	28.95677	1.26334	0.79155	125.26104	140.54848	46.3428	0.35146	 	165390.5795	 	4.40635E-5	 	32620.79381	36.69578	 
1215.0	1.0	0.0	7.93283	7.5183	-4.43061	18.73338	28.87893	1.2625	0.79208	125.65254	140.82689	46.49348	0.35129	 	177751.9037	 	4.0862E-5	 	32437.61289	36.63618	 
1210.0	1.0	0.0	7.93547	7.5158	-4.46238	18.71264	28.80108	1.26166	0.79261	126.04336	141.10402	46.64395	0.35112	 	191129.9796	 	3.78742E-5	 	32254.72943	36.57669	 
1205.0	1.0	0.0	7.9381	7.5133	-4.49409	18.69193	28.72323	1.26081	0.79314	126.43352	141.37987	46.7942	0.35095	 	205615.8403	 	3.50872E-5	 	32072.14285	36.51732	 
1200.0	1.0	0.0	7.94074	7.51081	-4.52574	18.67126	28.64537	1.25997	0.79367	126.82301	141.65444	46.94424	0.35078	 	221309.312	 	3.24888E-5	 	31889.8526	36.45805	 
1195.0	1.0	0.0	7.94336	7.50833	-4.55732	18.65061	28.56752	1.25911	0.79421	127.21184	141.92775	47.09407	0.35061	 	238319.9455	 	3.00675E-5	 	31707.85815	36.39889	 
1190.0	1.0	0.0	7.94599	7.50585	-4.58883	18.63	28.48966	1.25825	0.79475	127.6	142.19979	47.24368	0.35045	 	256767.9942	 	2.78122E-5	 	31526.15891	36.33985	 
1185.0	1.0	0.0	7.94861	7.50337	-4.62028	18.60942	28.4118	1.25739	0.7953	127.98749	142.47057	47.39308	0.35028	 	276785.5744	 	2.57126E-5	 	31344.75434	36.28091	 
1180.0	1.0	0.0	7.95122	7.50091	-4.65166	18.58888	28.33393	1.25652	0.79585	128.37431	142.7401	47.54227	0.35011	 	298517.8965	 	2.37589E-5	 	31163.64386	36.22209	 
1175.0	1.0	0.0	7.95384	7.49844	-4.68298	18.56837	28.25606	1.25565	0.7964	128.76047	143.00838	47.69124	0.34994	 	322124.6543	 	2.1942E-5	 	30982.82695	36.16338	 
1170.0	1.0	0.0	7.95644	7.49598	-4.71423	18.54789	28.17819	1.25477	0.79696	129.14596	143.27541	47.84	0.34977	 	347781.6039	 	2.02531E-5	 	30802.30303	36.10478	 
1165.0	1.0	0.0	7.95905	7.49353	-4.74541	18.52745	28.10032	1.25389	0.79752	129.53078	143.54121	47.98855	0.3496	 	375682.2388	 	1.8684E-5	 	30622.07156	36.0463	 
1160.0	1.0	0.0	7.96165	7.49108	-4.77653	18.50705	28.02244	1.253	0.79808	129.91494	143.80577	48.13688	0.34943	 	406039.7762	 	1.7227E-5	 	30442.13197	35.98792	 
1155.0	1.0	0.0	7.96425	7.48864	-4.80758	18.48668	27.94456	1.25211	0.79865	130.29843	144.06909	48.285	0.34926	 	439089.2362	 	1.58748E-5	 	30262.48371	35.92965	 
1150.0	1.0	0.0	7.96684	7.4862	-4.83857	18.46634	27.86667	1.25121	0.79922	130.68125	144.3312	48.43291	0.3491	 	475089.9002	 	1.46205E-5	 	30083.12622	35.8715	 
1145.0	1.0	0.0	7.96943	7.48377	-4.86949	18.44604	27.78878	1.25031	0.7998	131.06341	144.59208	48.5806	0.34893	 	514327.9509	 	1.34576E-5	 	29904.05893	35.81346	 
1140.0	1.0	0.0	7.97202	7.48134	-4.90035	18.42578	27.71089	1.24941	0.80038	131.4449	144.85174	48.72808	0.34876	 	557119.4722	 	1.23802E-5	 	29725.28132	35.75552	 
1135.0	1.0	0.0	7.9746	7.47892	-4.93114	18.40556	27.63299	1.2485	0.80096	131.82572	145.11019	48.87534	0.34859	 	603813.7943	 	1.13824E-5	 	29546.7928	35.6977	 
1130.0	1.0	0.0	7.97718	7.4765	-4.96186	18.38538	27.55509	1.24758	0.80155	132.20587	145.36744	49.02239	0.34842	 	654797.2221	 	1.04589E-5	 	29368.59283	35.63999	 
1125.0	1.0	0.0	7.97975	7.47409	-4.99252	18.36523	27.47718	1.24666	0.80214	132.58536	145.62348	49.16923	0.34826	 	710497.2888	 	9.60457E-6	 	29190.68085	35.5824	 
1120.0	1.0	0.0	7.98232	7.47168	-5.02312	18.34513	27.39927	1.24573	0.80274	132.96418	145.87832	49.31585	0.34809	 	771387.3654	 	8.81479E-6	 	29013.05629	35.52491	 
1115.0	1.0	0.0	7.98489	7.46928	-5.05365	18.32506	27.32136	1.2448	0.80334	133.34234	146.13197	49.46225	0.34792	 	837991.9691	 	8.08506E-6	 	28835.71862	35.46754	 
1110.0	1.0	0.0	7.98745	7.46689	-5.08411	18.30503	27.24344	1.24387	0.80395	133.71983	146.38443	49.60844	0.34775	 	910892.7421	 	7.4112E-6	 	28658.66725	35.41027	 
1105.0	1.0	0.0	7.99001	7.46449	-5.1145	18.28505	27.16551	1.24292	0.80455	134.09665	146.63571	49.75442	0.34759	 	990734.9548	 	6.78931E-6	 	28481.90165	35.35312	 
1100.0	1.0	0.0	7.99256	7.46211	-5.14483	18.26511	27.08758	1.24198	0.80517	134.4728	146.8858	49.90018	0.34742	 	1078235.141	 	6.21572E-6	 	28305.42124	35.29608	 
1095.0	1.0	0.0	7.99511	7.45973	-5.1751	18.2452	27.00965	1.24103	0.80578	134.84829	147.13472	50.04573	0.34725	 	1174189.309	 	5.68699E-6	 	28129.22548	35.23915	 
1092.33	1.0	0.0	7.99648	7.45846	-5.19124	18.23459	26.96801	1.24052	0.80612	135.04864	147.26724	50.1234	0.34716	 	1229223.354	 	5.42177E-6	 	28035.20428	 	 
1090.0	1.0	0.0	7.99766	7.45736	-5.20525	18.22553	26.93171	1.24007	0.80641	135.22332	147.38281	50.19113	0.34708	 	1279499.699	 	5.19984E-6	 	27953.20414	35.20427	 
1085.0	1.0	0.0	8.00019	7.45499	-5.23527	18.20609	26.85377	1.23911	0.80703	135.59789	147.63008	50.33639	0.34692	 	1395156.774	 	4.75129E-6	 	27777.34939	35.17095	 
1080.0	1.0	0.0	8.00272	7.45264	-5.26524	18.18667	26.77583	1.23814	0.80766	135.97178	147.87616	50.48143	0.34675	 	1522239.202	 	4.3386E-6	 	27601.7903	35.11182	 
1075.0	1.0	0.0	8.00525	7.45028	-5.29515	18.16729	26.69788	1.23716	0.8083	136.34498	148.12103	50.62625	0.34658	 	1661969.205	 	3.95915E-6	 	27426.52571	35.05292	 
1070.0	1.0	0.0	8.00777	7.44794	-5.32499	18.14793	26.61993	1.23619	0.80894	136.71749	148.36472	50.77085	0.34642	 	1815709.488	 	3.61048E-6	 	27251.55446	34.99425	 
1065.0	1.0	0.0	8.01029	7.44559	-5.35478	18.1286	26.54197	1.2352	0.80958	137.08932	148.60723	50.91522	0.34625	 	1984980.772	 	3.2903E-6	 	27076.87542	34.93581	 
1060.0	1.0	0.0	8.01281	7.44325	-5.38451	18.10931	26.464	1.23421	0.81023	137.46046	148.84856	51.05937	0.34608	 	2171481.045	 	2.99647E-6	 	26902.48748	34.87759	 
1055.0	1.0	0.0	8.01532	7.44092	-5.41417	18.09005	26.38603	1.23322	0.81089	137.83093	149.08872	51.2033	0.34592	 	2377107.775	 	2.727E-6	 	26728.38956	34.81958	 
1050.0	1.0	0.0	8.01783	7.43859	-5.44377	18.07082	26.30805	1.23222	0.81155	138.2007	149.32771	51.347	0.34575	 	2603983.097	 	2.48003E-6	 	26554.5806	34.76179	 
1045.0	1.0	0.0	8.02034	7.43627	-5.47332	18.05163	26.23006	1.23121	0.81221	138.5698	149.56554	51.49049	0.34559	 	2854481.896	 	2.25385E-6	 	26381.05955	34.70421	 
1040.0	1.0	0.0	8.02284	7.43395	-5.5028	18.03248	26.15207	1.2302	0.81288	138.93821	149.80222	51.63375	0.34542	 	3131264.299	 	2.04683E-6	 	26207.82538	34.64683	 
1035.0	1.0	0.0	8.02534	7.43163	-5.53221	18.01337	26.07407	1.22918	0.81355	139.30595	150.03775	51.7768	0.34525	 	3437312.148	 	1.85748E-6	 	26034.87711	34.58965	 
1030.0	1.0	0.0	8.02783	7.42932	-5.56157	17.99429	25.99606	1.22815	0.81423	139.673	150.27213	51.91962	0.34509	 	3775970.244	 	1.68443E-6	 	25862.21372	34.53268	 
1025.0	1.0	0.0	8.03032	7.42702	-5.59086	17.97526	25.91805	1.22712	0.81491	140.03938	150.50538	52.06222	0.34492	 	4150994.23	 	1.52637E-6	 	25689.83426	34.47589	 
1020.0	1.0	0.0	8.03281	7.42472	-5.62009	17.95627	25.84002	1.22609	0.8156	140.40507	150.73749	52.2046	0.34476	 	4566603.822	 	1.38211E-6	 	25517.73777	34.4193	 
1015.0	1.0	0.0	8.03529	7.42243	-5.64926	17.93733	25.762	1.22505	0.81629	140.77009	150.96847	52.34676	0.34459	 	5027544.012	 	1.25054E-6	 	25345.9233	34.36289	 
1010.0	1.0	0.0	8.03777	7.42014	-5.67837	17.91843	25.68396	1.224	0.81699	141.13443	151.19834	52.4887	0.34443	 	5539155.484	 	1.13063E-6	 	25174.38995	34.30667	 
1005.0	1.0	0.0	8.04025	7.41785	-5.70741	17.89957	25.60591	1.22295	0.8177	141.4981	151.42708	52.63042	0.34426	 	6107453.893	 	1.02143E-6	 	25003.1368	34.25063	 
1000.0	1.0	0.0	8.04272	7.41557	-5.73639	17.88077	25.52786	1.22189	0.81841	141.86109	151.65471	52.77192	0.3441	 	6739221.105	 	9.22054E-7	 	24832.16295	34.19477	 
995.0	1.0	0.0	8.04519	7.4133	-5.7653	17.86201	25.4498	1.22082	0.81912	142.2234	151.88123	52.9132	0.34393	 	7442108.848	 	8.3169E-7	 	24661.46753	34.13908	 
990.0	1.0	0.0	8.04765	7.41103	-5.79415	17.84331	25.37173	1.21975	0.81984	142.58504	152.10664	53.05425	0.34377	 	8224758.511	 	7.49581E-7	 	24491.04966	34.08357	 
985.0	1.0	0.0	8.05011	7.40876	-5.82294	17.82466	25.29365	1.21867	0.82057	142.946	152.33096	53.19509	0.3436	 	9096937.162	 	6.75031E-7	 	24320.9085	34.02823	 
980.0	1.0	0.0	8.05257	7.4065	-5.85166	17.80606	25.21556	1.21759	0.8213	143.30629	152.55418	53.33571	0.34344	 	1.006969457E7	 	6.07398E-7	 	24151.04319	33.97306	 
979.69	1.0	0.0	8.05272	7.40636	-5.85344	17.8049	25.21072	1.21752	0.82134	143.32859	152.56798	53.34441	0.34343	 	1.013354397E7	 	6.03422E-7	 	24140.52818	 	 
975.0	1.0	0.0	8.05657	7.40283	-5.89839	17.71673	25.09155	1.21872	0.82053	143.9016	152.8378	53.57157	0.34308	 	1.126857517E7	 	5.40611E-7	 	23902.91672	49.6253	 
970.0	1.0	0.0	8.06061	7.39911	-5.94561	17.62453	24.96762	1.21987	0.81976	144.49897	153.11829	53.80849	0.34272	 	1.262853885E7	 	4.8046E-7	 	23652.95559	49.99222	 
965.0	1.0	0.0	8.0646	7.39545	-5.99214	17.53409	24.8465	1.22088	0.81908	145.08317	153.39183	54.0403	0.34236	 	1.416396132E7	 	4.26653E-7	 	23406.29741	49.33164	 
960.0	1.0	0.0	8.06854	7.39184	-6.03801	17.44532	24.72792	1.22178	0.81848	145.65492	153.65879	54.26726	0.34201	 	1.589900259E7	 	3.78558E-7	 	23162.79818	48.69985	 
955.0	1.0	0.0	8.07242	7.38829	-6.08324	17.35814	24.61169	1.22258	0.81794	146.21487	153.91955	54.48963	0.34168	 	1.786136591E7	 	3.35601E-7	 	22922.32048	48.09554	 
950.0	1.0	0.0	8.07626	7.38477	-6.12786	17.27246	24.49769	1.22327	0.81748	146.76363	154.17444	54.70765	0.34134	 	2.008285249E7	 	2.97263E-7	 	22684.73331	47.51743	 
945.0	1.0	0.0	8.08005	7.38131	-6.1719	17.18821	24.38578	1.22386	0.81709	147.3018	154.42376	54.92156	0.34102	 	2.260000271E7	 	2.63075E-7	 	22449.91174	46.96431	 
940.0	1.0	0.0	8.0838	7.37789	-6.21538	17.10531	24.27583	1.22435	0.81676	147.82991	154.66779	55.13154	0.3407	 	2.545484811E7	 	2.32611E-7	 	22217.73672	46.43501	 
935.0	1.0	0.0	8.0875	7.37451	-6.25832	17.02368	24.16774	1.22476	0.81649	148.34845	154.90678	55.33781	0.34039	 	2.869578592E7	 	2.05489E-7	 	21988.09479	45.92839	 
930.0	1.0	0.0	8.09116	7.37117	-6.30075	16.94327	24.06139	1.22508	0.81627	148.8579	155.14098	55.54055	0.34008	 	3.237860706E7	 	1.81363E-7	 	21760.87787	45.44338	 
925.0	1.0	0.0	8.09479	7.36787	-6.3427	16.86399	23.9567	1.22532	0.81611	149.35871	155.37059	55.73992	0.33978	 	3.656769178E7	 	1.59919E-7	 	21535.98301	44.97897	 
920.0	1.0	0.0	8.09837	7.36461	-6.38416	16.78579	23.85356	1.22548	0.816	149.85128	155.59583	55.93609	0.33949	 	4.133741554E7	 	1.40876E-7	 	21313.3121	44.53418	 
915.0	1.0	0.0	8.10192	7.36139	-6.42518	16.7086	23.7519	1.22557	0.81595	150.336	155.81688	56.12921	0.3392	 	4.677379871E7	 	1.23981E-7	 	21092.77176	44.10807	 
910.0	1.0	0.0	8.10544	7.35819	-6.46576	16.63236	23.65162	1.22559	0.81593	150.81324	156.03392	56.31942	0.33891	 	5.297643869E7	 	1.09004E-7	 	20874.27299	43.69976	 
905.0	1.0	0.0	8.10892	7.35503	-6.50593	16.55702	23.55266	1.22554	0.81597	151.28333	156.2471	56.50685	0.33863	 	6.006079249E7	 	9.57406E-8	 	20657.731	43.3084	 
900.0	1.0	0.0	8.11237	7.3519	-6.5457	16.48251	23.45495	1.22542	0.81605	151.74659	156.45658	56.69164	0.33835	 	6.816085091E7	 	8.4005E-8	 	20443.06506	42.93319	 
895.0	1.0	0.0	8.11579	7.34881	-6.58508	16.40879	23.35842	1.22524	0.81617	152.20333	156.6625	56.8739	0.33808	 	7.743229946E7	 	7.36314E-8	 	20230.19822	42.57337	 
890.0	1.0	0.0	8.11918	7.34574	-6.6241	16.3358	23.263	1.225	0.81633	152.65383	156.86499	57.05373	0.33781	 	8.805624861E7	 	6.44707E-8	 	20019.05717	42.22821	 
885.0	1.0	0.0	8.12254	7.3427	-6.66276	16.26349	23.16865	1.2247	0.81653	153.09836	157.06418	57.23125	0.33754	 	1.002436423E8	 	5.6389E-8	 	19809.57207	41.89702	 
880.0	1.0	0.0	8.12588	7.33968	-6.70108	16.19181	23.0753	1.22435	0.81676	153.53716	157.26019	57.40655	0.33728	 	1.142404658E8	 	4.92666E-8	 	19601.67635	41.57914	 
875.0	1.0	0.0	8.12919	7.33669	-6.73908	16.12072	22.98291	1.22394	0.81703	153.97047	157.45312	57.57973	0.33702	 	1.303339435E8	 	4.2996E-8	 	19395.30622	41.27403	 
870.0	1.0	0.0	8.13248	7.33373	-6.77676	16.05017	22.89142	1.22348	0.81734	154.39853	157.64307	57.75087	0.33676	 	1.488598356E8	 	3.74811E-8	 	19190.40156	40.98093	 
865.0	1.0	0.0	8.13574	7.33079	-6.81414	15.98011	22.80081	1.22297	0.81768	154.82153	157.83016	57.92006	0.33651	 	1.702111921E8	 	3.26361E-8	 	18986.90473	40.69937	 
860.0	1.0	0.0	8.13898	7.32787	-6.85123	15.91052	22.71102	1.22241	0.81806	155.23969	158.01447	58.08738	0.33626	 	1.948486724E8	 	2.83842E-8	 	18784.76075	40.4288	 
855.0	1.0	0.0	8.1422	7.32497	-6.88804	15.84133	22.62201	1.2218	0.81846	155.65318	158.1961	58.2529	0.33601	 	2.233129081E8	 	2.4657E-8	 	18583.91722	40.16871	 
850.0	1.0	0.0	8.14539	7.3221	-6.92458	15.77253	22.53376	1.22115	0.8189	156.0622	158.37513	58.41668	0.33577	 	2.562392245E8	 	2.13934E-8	 	18384.32417	39.91861	 
845.0	1.0	0.0	8.14773	7.32	-6.95126	15.74763	22.46102	1.21965	0.8199	156.40036	158.57604	58.54972	0.33562	 	2.914592347E8	 	1.87244E-8	 	18224.87348	31.89014	 
840.0	1.0	0.0	8.15006	7.31791	-6.97787	15.72274	22.38827	1.21815	0.82092	156.73794	158.77606	58.68257	0.33547	 	3.319040081E8	 	1.63692E-8	 	18062.42016	32.49066	 
835.0	1.0	0.0	8.15239	7.31582	-7.00441	15.69784	22.3155	1.21663	0.82194	157.07492	158.97519	58.81522	0.33533	 	3.784046313E8	 	1.42932E-8	 	17900.22014	32.44	 
830.0	1.0	0.0	8.15471	7.31373	-7.03089	15.67295	22.24272	1.2151	0.82298	157.41132	159.17342	58.94767	0.33518	 	4.319331965E8	 	1.24654E-8	 	17738.2727	32.38949	 
825.0	1.0	0.0	8.15703	7.31166	-7.0573	15.64806	22.16993	1.21357	0.82402	157.74713	159.37078	59.07994	0.33503	 	4.93628207E8	 	1.0858E-8	 	17576.57711	32.33912	 
820.0	1.0	0.0	8.15934	7.30958	-7.08365	15.62317	22.09713	1.21202	0.82507	158.08235	159.56724	59.212	0.33488	 	5.648248272E8	 	9.4461E-9	 	17415.13261	32.2889	 
815.0	1.0	0.0	8.16165	7.30752	-7.10992	15.59829	22.02432	1.21047	0.82613	158.41698	159.76283	59.34388	0.33474	 	6.47090948E8	 	8.20749E-9	 	17253.93847	32.23883	 
810.0	1.0	0.0	8.16395	7.30546	-7.13613	15.5734	21.95149	1.2089	0.8272	158.75102	159.95754	59.47556	0.33459	 	7.4227025E8	 	7.12219E-9	 	17092.99388	32.18892	 
805.0	1.0	0.0	8.16625	7.3034	-7.16227	15.54852	21.87865	1.20733	0.82828	159.08448	160.15137	59.60704	0.33444	 	8.525336952E8	 	6.1724E-9	 	16932.29809	32.13916	 
800.0	1.0	0.0	8.16854	7.30135	-7.18835	15.52364	21.8058	1.20574	0.82936	159.41735	160.34432	59.73833	0.3343	 	9.804411846E8	 	5.34227E-9	 	16771.85027	32.08956	 
795.0	1.0	0.0	8.17083	7.2993	-7.21435	15.49876	21.73293	1.20415	0.83046	159.74962	160.53641	59.86943	0.33415	 	1.129015502E9	 	4.61763E-9	 	16611.64962	32.04013	 
790.0	1.0	0.0	8.17312	7.29726	-7.24029	15.47388	21.66005	1.20254	0.83157	160.08131	160.72763	60.00033	0.334	 	1.301831119E9	 	3.9859E-9	 	16451.69529	31.99087	 
785.0	1.0	0.0	8.1754	7.29523	-7.26617	15.449	21.58716	1.20093	0.83269	160.41241	160.91798	60.13104	0.33386	 	1.50312102E9	 	3.4359E-9	 	16291.98644	31.94177	 
780.0	1.0	0.0	8.17767	7.2932	-7.29197	15.42413	21.51425	1.19931	0.83382	160.74293	161.10747	60.26155	0.33371	 	1.737905385E9	 	2.95768E-9	 	16132.52219	31.89285	 
775.0	1.0	0.0	8.17994	7.29117	-7.31771	15.39925	21.44133	1.19767	0.83495	161.07285	161.29609	60.39187	0.33356	 	2.012146862E9	 	2.54244E-9	 	15973.30163	31.84411	 
770.0	1.0	0.0	8.18221	7.28915	-7.34338	15.37438	21.36839	1.19603	0.8361	161.40219	161.48386	60.52199	0.33342	 	2.332938207E9	 	2.18238E-9	 	15814.32386	31.79555	 
765.0	1.0	0.0	8.18447	7.28714	-7.36898	15.34951	21.29544	1.19437	0.83726	161.73093	161.67078	60.65192	0.33327	 	2.708729411E9	 	1.8706E-9	 	15655.58793	31.74719	 
760.0	1.0	0.0	8.18673	7.28513	-7.39452	15.32465	21.22247	1.19271	0.83843	162.05909	161.85684	60.78165	0.33313	 	3.149603052E9	 	1.60101E-9	 	15497.09288	31.69901	 
755.0	1.0	0.0	8.18898	7.28313	-7.41999	15.29978	21.14948	1.19103	0.83961	162.38667	162.04205	60.91119	0.33298	 	3.667608691E9	 	1.36823E-9	 	15338.83769	31.65104	 
750.0	1.0	0.0	8.19123	7.28113	-7.44539	15.27492	21.07649	1.18934	0.8408	162.71365	162.22641	61.04054	0.33283	 	4.277169621E9	 	1.16753E-9	 	15180.82137	31.60326	 
745.0	1.0	0.0	8.19347	7.27913	-7.47073	15.25005	21.00347	1.18765	0.842	163.04004	162.40992	61.16968	0.33269	 	4.995578471E9	 	9.94747E-10	 	15023.04284	31.55571	 
740.0	1.0	0.0	8.19571	7.27715	-7.496	15.22519	20.93044	1.18594	0.84322	163.36585	162.59259	61.29864	0.33254	 	5.843602124E9	 	8.46213E-10	 	14865.50102	31.50836	 
735.0	1.0	0.0	8.19794	7.27516	-7.5212	15.20033	20.85739	1.18422	0.84444	163.69107	162.77442	61.42739	0.33239	 	6.846221325E9	 	7.18722E-10	 	14708.19478	31.46125	 
730.0	1.0	0.0	8.20017	7.27319	-7.54633	15.17548	20.78433	1.18249	0.84568	164.0157	162.95541	61.55595	0.33225	 	8.033536571E9	 	6.09461E-10	 	14551.12297	31.41436	 
725.0	1.0	0.0	8.2024	7.27121	-7.5714	15.15062	20.71124	1.18074	0.84692	164.33975	163.13557	61.68432	0.3321	 	9.441879661E9	 	5.1597E-10	 	14394.28436	31.36772	 
720.0	1.0	0.0	8.20461	7.26925	-7.5964	15.12577	20.63814	1.17899	0.84818	164.6632	163.31489	61.81249	0.33196	 	1.11152E10	 	4.36099E-10	 	14237.67773	31.32133	 
715.0	1.0	0.0	8.20683	7.26729	-7.62133	15.10091	20.56503	1.17723	0.84945	164.98607	163.49338	61.94047	0.33181	 	1.3106599999999998E10	 	3.67975E-10	 	14081.30178	31.27519	 
710.0	1.0	0.0	8.20904	7.26533	-7.64619	15.07606	20.49189	1.17545	0.85074	165.30835	163.67104	62.06824	0.33167	 	1.5480799999999998E10	 	3.09964E-10	 	13925.15516	31.22932	 
705.0	1.0	0.0	8.21124	7.26338	-7.67099	15.05121	20.41874	1.17366	0.85203	165.63004	163.84788	62.19583	0.33152	 	1.83163E10	 	2.60648E-10	 	13769.23648	31.18374	 
700.0	1.0	0.0	8.21344	7.26143	-7.69572	15.02637	20.34556	1.17186	0.85334	165.95114	164.02389	62.32322	0.33138	 	2.17085E10	 	2.18795E-10	 	13613.54429	31.13844	 
695.0	1.0	0.0	8.21564	7.25949	-7.72039	15.00152	20.27237	1.17005	0.85466	166.27166	164.19908	62.45041	0.33123	 	2.5774199999999996E10	 	1.83335E-10	 	13458.07708	31.09344	 
690.0	1.0	0.0	8.21783	7.25756	-7.74499	14.97668	20.19916	1.16823	0.856	166.59159	164.37345	62.5774	0.33108	 	3.0655899999999996E10	 	1.53344E-10	 	13302.83327	31.04876	 
685.0	1.0	0.0	8.22001	7.25563	-7.76951	14.95184	20.12592	1.16639	0.85735	166.91093	164.547	62.7042	0.33094	 	3.65283E10	 	1.28024E-10	 	13147.81121	31.00441	 
680.0	1.0	0.0	8.2222	7.2537	-7.79398	14.927	20.05267	1.16454	0.85871	167.22968	164.71974	62.83081	0.33079	 	4.36057E10	 	1.06685E-10	 	12993.00918	30.96041	 
675.0	1.0	0.0	8.22437	7.25178	-7.81837	14.90216	19.9794	1.16268	0.86008	167.54785	164.89166	62.95721	0.33065	 	5.215169999999999E10	 	8.8735E-11	 	12838.42538	30.91676	 
670.0	1.0	0.0	8.22654	7.24987	-7.8427	14.87732	19.9061	1.16081	0.86147	167.86542	165.06277	63.08342	0.3305	 	6.249109999999999E10	 	7.3663E-11	 	12684.05792	30.87349	 
665.0	1.0	0.0	8.22871	7.24796	-7.86696	14.85249	19.83279	1.15892	0.86287	168.18241	165.23308	63.20944	0.33036	 	7.50247E10	 	6.10316E-11	 	12529.90484	30.83062	 
660.0	1.0	0.0	8.23087	7.24606	-7.89116	14.82765	19.75945	1.15702	0.86429	168.49882	165.40258	63.33526	0.33021	 	9.02489E10	 	5.04657E-11	 	12375.9686	30.78725	 
655.0	1.0	0.0	8.23303	7.24416	-7.91529	14.80282	19.68609	1.15511	0.86572	168.81463	165.57128	63.46088	0.33007	 	1.08779E11	 	4.16449E-11	 	12222.27413	30.73889	 
650.0	1.0	0.0	8.23518	7.24227	-7.93935	14.77799	19.6127	1.15319	0.86716	169.12986	165.73917	63.5863	0.32992	 	1.31378E11	 	3.42954E-11	 	12068.85466	30.6839	 
645.0	1.0	0.0	8.23733	7.24038	-7.96334	14.75316	19.5393	1.15125	0.86862	169.4445	165.90627	63.71153	0.32978	 	1.59E11	 	2.81841E-11	 	11915.70927	30.62908	 
640.0	1.0	0.0	8.23947	7.2385	-7.98727	14.72834	19.46587	1.1493	0.87009	169.75855	166.07257	63.83656	0.32963	 	1.92831E11	 	2.31127E-11	 	11762.83711	30.57443	 
635.0	1.0	0.0	8.2416	7.23662	-8.01113	14.70351	19.39241	1.14734	0.87158	170.07201	166.23808	63.9614	0.32949	 	2.34359E11	 	1.89131E-11	 	11610.23727	30.51997	 
630.0	1.0	0.0	8.24374	7.23475	-8.03492	14.67869	19.31894	1.14536	0.87309	170.38489	166.40279	64.08603	0.32934	 	2.85445E11	 	1.54427E-11	 	11457.90891	30.46567	 
625.0	1.0	0.0	8.24586	7.23288	-8.05865	14.65387	19.24543	1.14337	0.87461	170.69718	166.56671	64.21048	0.3292	 	3.48431E11	 	1.25811E-11	 	11305.85097	30.41159	 
620.0	1.0	0.0	8.24799	7.23102	-8.0823	14.62905	19.1719	1.14137	0.87614	171.00888	166.72985	64.33472	0.32906	 	4.26266E11	 	1.02266E-11	 	11154.06224	30.35775	 
615.0	1.0	0.0	8.2501	7.22917	-8.1059	14.60423	19.09835	1.13935	0.87769	171.31999	166.8922	64.45877	0.32891	 	5.22674E11	 	8.29358E-12	 	11002.54202	30.30404	 
610.0	1.0	0.0	8.25222	7.22732	-8.12942	14.57941	19.02477	1.13732	0.87926	171.63052	167.05377	64.58262	0.32877	 	6.42368E11	 	6.71023E-12	 	10851.28945	30.25051	 
605.0	1.0	0.0	8.25432	7.22547	-8.15288	14.5546	18.95116	1.13527	0.88085	171.94046	167.21455	64.70627	0.32862	 	7.91327E11	 	5.41626E-12	 	10700.30369	30.19715	 
600.0	1.0	0.0	8.25643	7.22363	-8.17627	14.52978	18.87752	1.13321	0.88245	172.24981	167.37456	64.82972	0.32848	 	9.77161E11	 	4.36123E-12	 	10549.58386	30.14396	 
595.0	1.0	0.0	8.25852	7.22179	-8.19959	14.50497	18.80386	1.13113	0.88407	172.55858	167.53379	64.95298	0.32833	 	1.20957E12	 	3.50308E-12	 	10399.12913	30.09095	 
590.0	1.0	0.0	8.26062	7.21997	-8.22285	14.48016	18.73016	1.12904	0.88571	172.86676	167.69224	65.07604	0.32819	 	1.50096E12	 	2.80675E-12	 	10248.93864	30.0381	 
585.0	1.0	0.0	8.26271	7.21814	-8.24604	14.45536	18.65644	1.12694	0.88736	173.17435	167.84993	65.1989	0.32805	 	1.86724E12	 	2.2431E-12	 	10099.01154	29.98542	 
580.0	1.0	0.0	8.26479	7.21632	-8.26916	14.43055	18.58269	1.12482	0.88903	173.48135	168.00684	65.32157	0.3279	 	2.32886E12	 	1.788E-12	 	9949.34699	29.93291	 
575.0	1.0	0.0	8.26687	7.21451	-8.29222	14.40575	18.50891	1.12268	0.89072	173.78776	168.16298	65.44404	0.32776	 	2.91217E12	 	1.42148E-12	 	9799.94415	29.88057	 
570.0	1.0	0.0	8.26894	7.2127	-8.31521	14.38094	18.4351	1.12054	0.89243	174.09359	168.31836	65.56631	0.32761	 	3.65126E12	 	1.12707E-12	 	9650.80217	29.8284	 
565.0	1.0	0.0	8.27101	7.2109	-8.33813	14.35614	18.36125	1.11837	0.89416	174.39883	168.47297	65.68838	0.32747	 	4.59028E12	 	8.91188E-13	 	9501.92023	29.77639	 
560.0	1.0	0.0	8.27307	7.2091	-8.36099	14.33134	18.28738	1.11619	0.89591	174.70349	168.62682	65.81025	0.32733	 	5.78668E12	 	7.02717E-13	 	9353.2975	29.72455	 
555.0	1.0	0.0	8.27513	7.20731	-8.38378	14.30655	18.21347	1.11399	0.89767	175.00755	168.77991	65.93193	0.32718	 	7.31533E12	 	5.52538E-13	 	9204.93314	29.67287	 
550.0	1.0	0.0	8.27718	7.20552	-8.4065	14.28175	18.13953	1.11178	0.89946	175.31103	168.93225	66.0534	0.32704	 	9.27417E12	 	4.33202E-13	 	9056.82634	29.62136	 
545.0	1.0	0.0	8.27923	7.20374	-8.42915	14.25696	18.06555	1.10955	0.90126	175.61392	169.08382	66.17468	0.3269	 	1.17917E13	 	3.38644E-13	 	8908.97626	29.57002	 
540.0	1.0	0.0	8.28127	7.20196	-8.45174	14.23216	17.99154	1.10731	0.90309	175.91623	169.23465	66.29576	0.32675	 	1.50369E13	 	2.63935E-13	 	8761.3821	29.51883	 
535.0	1.0	0.0	8.28331	7.20019	-8.47426	14.20737	17.91749	1.10505	0.90494	176.21795	169.38472	66.41665	0.32661	 	1.92331E13	 	2.05083E-13	 	8614.04304	29.46781	 
530.0	1.0	0.0	8.28534	7.19842	-8.49672	14.18258	17.84341	1.10277	0.90681	176.51908	169.53404	66.53733	0.32647	 	2.46758E13	 	1.58859E-13	 	8466.95827	29.41695	 
525.0	1.0	0.0	8.28737	7.19666	-8.5191	14.1578	17.76929	1.10048	0.9087	176.81962	169.68262	66.65782	0.32632	 	3.17576E13	 	1.22666E-13	 	8320.12699	29.36626	 
520.0	1.0	0.0	8.28939	7.1949	-8.54142	14.13301	17.69513	1.09816	0.91061	177.11957	169.83045	66.77811	0.32618	 	4.10021E13	 	9.4414E-14	 	8173.5484	29.31572	 
515.0	1.0	0.0	8.29141	7.19315	-8.56368	14.10823	17.62094	1.09584	0.91254	177.41894	169.97753	66.89819	0.32604	 	5.31095E13	 	7.24309E-14	 	8027.22169	29.26534	 
510.0	1.0	0.0	8.29342	7.19141	-8.58586	14.08344	17.5467	1.09349	0.9145	177.71773	170.12387	67.01808	0.32589	 	6.90197E13	 	5.53807E-14	 	7881.14608	29.21512	 
505.0	1.0	0.0	8.29543	7.18967	-8.60798	14.05866	17.47243	1.09113	0.91648	178.01592	170.26948	67.13778	0.32575	 	8.99987E13	 	4.22001E-14	 	7735.32079	29.16506	 
500.0	1.0	0.0	8.29743	7.18793	-8.63004	14.03389	17.39811	1.08875	0.91849	178.31353	170.41435	67.25727	0.32561	 	1.17758E14	 	3.2045E-14	 	7589.74501	29.11516	 
495.0	1.0	0.0	8.29943	7.1862	-8.65202	14.00911	17.32375	1.08635	0.92051	178.61055	170.55848	67.37656	0.32546	 	1.5462E14	 	2.42476E-14	 	7444.418	29.0654	 
490.0	1.0	0.0	8.30142	7.18448	-8.67394	13.98433	17.24935	1.08393	0.92256	178.90698	170.70187	67.49566	0.32532	 	2.03746E14	 	1.82813E-14	 	7299.33896	29.01581	 
485.0	1.0	0.0	8.30341	7.18276	-8.6958	13.95956	17.17491	1.0815	0.92464	179.20283	170.84454	67.61455	0.32518	 	2.6945899999999997E14	 	1.37325E-14	 	7154.50713	28.96637	 
480.0	1.0	0.0	8.30539	7.18105	-8.71758	13.93479	17.10042	1.07905	0.92674	179.49809	170.98648	67.73325	0.32504	 	3.57692E14	 	1.02768E-14	 	7009.92175	28.91708	 
475.0	1.0	0.0	8.30736	7.17934	-8.7393	13.91002	17.02589	1.07658	0.92887	179.79276	171.12768	67.85175	0.32489	 	4.76618E14	 	7.66134E-15	 	6865.58206	28.86794	 
470.0	1.0	0.0	8.30934	7.17763	-8.76095	13.88525	16.95131	1.07409	0.93102	180.08685	171.26817	67.97004	0.32475	 	6.37542E14	 	5.68924E-15	 	6721.4873	28.81895	 
465.0	1.0	0.0	8.3113	7.17594	-8.78254	13.86048	16.87668	1.07158	0.9332	180.38034	171.40792	68.08814	0.32461	 	8.56167E14	 	4.20797E-15	 	6577.63675	28.77011	 
460.0	1.0	0.0	8.31326	7.17424	-8.80406	13.83572	16.802	1.06905	0.93541	180.67326	171.54696	68.20604	0.32447	 	1.1544E15	 	3.09974E-15	 	6434.02965	28.72142	 
455.0	1.0	0.0	8.31522	7.17255	-8.82551	13.81096	16.72728	1.0665	0.93764	180.96558	171.68528	68.32374	0.32432	 	1.56291E15	 	2.27391E-15	 	6290.66527	28.67288	 
450.0	1.0	0.0	8.31717	7.17087	-8.8469	13.78619	16.6525	1.06393	0.93991	181.25732	171.82288	68.44124	0.32418	 	2.12487E15	 	1.66105E-15	 	6147.54289	28.62448	 
445.0	1.0	0.0	8.31912	7.1692	-8.86822	13.76143	16.57767	1.06135	0.9422	181.54847	171.95976	68.55854	0.32404	 	2.90127E15	 	1.20813E-15	 	6004.66179	28.57622	 
440.0	1.0	0.0	8.32106	7.16752	-8.88947	13.73668	16.50279	1.05874	0.94452	181.83903	172.09593	68.67564	0.3239	 	3.97869E15	 	8.74837E-16	 	5862.02125	28.52811	 
435.0	1.0	0.0	8.32299	7.16586	-8.91065	13.71192	16.42786	1.05611	0.94687	182.12901	172.23138	68.79254	0.32376	 	5.48062E15	 	6.30641E-16	 	5719.62057	28.48014	 
430.0	1.0	0.0	8.32492	7.1642	-8.93177	13.68717	16.35287	1.05346	0.94925	182.4184	172.36613	68.90924	0.32361	 	7.58398E15	 	4.5252E-16	 	5577.45905	28.4323	 
425.0	1.0	0.0	8.32685	7.16254	-8.95282	13.66241	16.27782	1.0508	0.95166	182.7072	172.50016	69.02574	0.32347	 	1.05435E16	 	3.23185E-16	 	5435.53607	28.3846	 
420.0	1.0	0.0	8.32877	7.16089	-8.97381	13.63766	16.20272	1.04811	0.9541	182.99542	172.63349	69.14204	0.32333	 	1.47278E16	 	2.29708E-16	 	5293.85083	28.33705	 
415.0	1.0	0.0	8.33068	7.15924	-8.99473	13.61291	16.12756	1.0454	0.95658	183.28304	172.76611	69.25814	0.32319	 	2.06728E16	 	1.62469E-16	 	5152.40294	28.28958	 
410.0	1.0	0.0	8.33259	7.1576	-9.01558	13.58816	16.05233	1.04266	0.95908	183.57009	172.89803	69.37404	0.32305	 	2.91619E16	 	1.14337E-16	 	5011.19211	28.24217	 
405.0	1.0	0.0	8.33449	7.15597	-9.03637	13.56342	15.97705	1.03991	0.96162	183.85654	173.02925	69.48974	0.3229	 	4.13463E16	 	8.00527E-17	 	4870.21805	28.19481	 
400.0	1.0	0.0	8.33639	7.15434	-9.05708	13.53867	15.9017	1.03713	0.9642	184.14241	173.15977	69.60524	0.32276	 	5.89263E16	 	5.57557E-17	 	4729.48049	28.14751	 
395.0	1.0	0.0	8.33829	7.15271	-9.07774	13.51393	15.82628	1.03433	0.96681	184.42769	173.2896	69.72054	0.32262	 	8.44278E16	 	3.86256E-17	 	4588.97915	28.10027	 
390.0	1.0	0.0	8.34018	7.15109	-9.09832	13.48919	15.7508	1.03151	0.96945	184.71239	173.41872	69.83564	0.32248	 	1.21623E17	 	2.66123E-17	 	4448.7138	28.05307	 
385.0	1.0	0.0	8.34206	7.14948	-9.11884	13.46445	15.67526	1.02867	0.97213	184.99649	173.54716	69.95054	0.32234	 	1.7618E17	 	1.82329E-17	 	4308.68417	28.00593	 
380.0	1.0	0.0	8.34394	7.14787	-9.13929	13.43971	15.59964	1.0258	0.97484	185.28002	173.6749	70.06523	0.3222	 	2.56661E17	 	1.24205E-17	 	4168.89005	27.95882	 
375.0	1.0	0.0	8.34581	7.14627	-9.15968	13.41498	15.52395	1.02291	0.9776	185.56295	173.80194	70.17973	0.32206	 	3.76084E17	 	8.41158E-18	 	4029.33121	27.91177	 
370.0	1.0	0.0	8.34768	7.14467	-9.17999	13.39024	15.44819	1.02	0.98039	185.8453	173.92831	70.29403	0.32191	 	5.54356E17	 	5.66252E-18	 	3890.00743	27.86476	 
365.0	1.0	0.0	8.34954	7.14308	-9.20025	13.36551	15.37235	1.01706	0.98322	186.12706	174.05398	70.40812	0.32177	 	8.22118E17	 	3.78857E-18	 	3750.9185	27.81778	 
360.0	1.0	0.0	8.35139	7.14149	-9.22043	13.34078	15.29644	1.0141	0.98609	186.40823	174.17897	70.52201	0.32163	 	1.22682E18	 	2.5189E-18	 	3612.06426	27.77085	 
355.0	1.0	0.0	8.35325	7.1399	-9.24055	13.31605	15.22045	1.01112	0.989	186.68882	174.30327	70.63571	0.32149	 	1.84246E18	 	1.66399E-18	 	3473.44452	27.72395	 
350.0	1.0	0.0	8.35509	7.13833	-9.2606	13.29132	15.14438	1.00811	0.99196	186.96882	174.4269	70.7492	0.32135	 	2.78515E18	 	1.09202E-18	 	3335.05912	27.67708	 
345.0	1.0	0.0	8.35693	7.13675	-9.28059	13.2666	15.06823	1.00507	0.99495	187.24823	174.54984	70.86249	0.32121	 	4.2384E18	 	7.11834E-19	 	3196.90791	27.63024	 
340.0	1.0	0.0	8.35877	7.13519	-9.30051	13.24187	14.99199	1.00201	0.99799	187.52706	174.67211	70.97558	0.32107	 	6.49425E18	 	4.60813E-19	 	3058.99075	27.58343	 
335.0	1.0	0.0	8.3606	7.13363	-9.32036	13.21715	14.91567	0.99893	1.00107	187.8053	174.7937	71.08846	0.32093	 	1.00208E19	 	2.96206E-19	 	2921.30754	27.53664	 
330.0	1.0	0.0	8.36242	7.13207	-9.34015	13.19243	14.83925	0.99582	1.0042	188.08295	174.91461	71.20115	0.32079	 	1.5574E19	 	1.89021E-19	 	2783.85816	27.48988	 
325.0	1.0	0.0	8.36424	7.13052	-9.35987	13.16771	14.76275	0.99268	1.00737	188.36002	175.03486	71.31363	0.32065	 	2.43838E19	 	1.19728E-19	 	2646.64253	27.44313	 
320.0	1.0	0.0	8.36605	7.12897	-9.37952	13.143	14.68615	0.98952	1.0106	188.6365	175.15443	71.42591	0.3205	 	3.84665E19	 	7.52608E-20	 	2509.66057	27.39639	 
315.0	1.0	0.0	8.36786	7.12743	-9.3991	13.11828	14.60946	0.98633	1.01386	188.91239	175.27333	71.538	0.32036	 	6.11548E19	 	4.69401E-20	 	2372.91225	27.34967	 
310.0	1.0	0.0	8.36967	7.1259	-9.41862	13.09357	14.53266	0.98311	1.01718	189.18769	175.39156	71.64987	0.32022	 	9.80011E19	 	2.90426E-20	 	2236.39751	27.30295	 
305.0	1.0	0.0	8.37146	7.12437	-9.43808	13.06886	14.45577	0.97986	1.02055	189.46241	175.50913	71.76155	0.32008	 	1.58334E20	 	1.78219E-20	 	2100.11633	27.25623	 
300.0	1.0	0.0	8.37326	7.12284	-9.45746	13.04415	14.37877	0.97659	1.02397	189.73655	175.62603	71.87303	0.31994	 	2.5795999999999997E20	 	1.08443E-20	 	1964.06874	27.20952	 
295.0	1.0	0.0	8.37504	7.12132	-9.47678	13.01944	14.30167	0.97329	1.02744	190.01009	175.74227	71.9843	0.3198	 	4.2389799999999993E20	 	6.54167E-21	 	1828.25475	27.1628	 
290.0	1.0	0.0	8.37683	7.11981	-9.49604	12.99473	14.22446	0.96996	1.03097	190.28305	175.85785	72.09537	0.31966	 	7.027499999999999E20	 	3.9112E-21	 	1692.6744	27.11607	 
285.0	1.0	0.0	8.3786	7.1183	-9.51522	12.97003	14.14713	0.9666	1.03455	190.55542	175.97277	72.20624	0.31952	 	1.17564E21	 	2.3172E-21	 	1557.32777	27.06933	 
280.0	1.0	0.0	8.38037	7.11679	-9.53434	12.94532	14.06969	0.96322	1.03819	190.82721	176.08704	72.31691	0.31938	 	1.98512E21	 	1.36001E-21	 	1422.21494	27.02257	 
275.0	1.0	0.0	8.38214	7.11529	-9.5534	12.92062	13.99213	0.9598	1.04188	191.09841	176.20064	72.42737	0.31924	 	3.38415E21	 	7.90562E-22	 	1287.33604	26.97578	 
270.0	1.0	0.0	8.3839	7.1138	-9.57238	12.89592	13.91445	0.95636	1.04564	191.36902	176.31359	72.53763	0.3191	 	5.82611E21	 	4.55017E-22	 	1152.6912	26.92897	 
265.0	1.0	0.0	8.38565	7.11231	-9.59131	12.87122	13.83664	0.95288	1.04945	191.63905	176.42589	72.64769	0.31896	 	1.01319E22	 	2.59238E-22	 	1018.28061	26.88212	 
260.0	1.0	0.0	8.3874	7.11083	-9.61016	12.84653	13.75871	0.94938	1.05332	191.90848	176.53754	72.75755	0.31882	 	1.7803699999999999E22	 	1.46159E-22	 	884.10443	26.83523	 
255.0	1.0	0.0	8.38915	7.10935	-9.62895	12.82183	13.68064	0.94584	1.05726	192.17734	176.64854	72.8672	0.31868	 	3.1620399999999996E22	 	8.15224E-23	 	750.16293	26.7883	 
250.0	1.0	0.0	8.39088	7.10788	-9.64767	12.79714	13.60243	0.94227	1.06127	192.4456	176.75889	72.97665	0.31854	 	5.677939999999999E22	 	4.49699E-23	 	616.45633	26.74132	 
245.0	1.0	0.0	8.39262	7.10641	-9.66632	12.77245	13.52408	0.93867	1.06533	192.71328	176.86859	73.0859	0.3184	 	1.03115E23	 	2.45257E-23	 	482.98494	26.69428	 
240.0	1.0	0.0	8.39434	7.10495	-9.68491	12.74776	13.44559	0.93504	1.06947	192.98037	176.97765	73.19495	0.31826	 	1.89453E23	 	1.322E-23	 	349.74908	26.64717	 
235.0	1.0	0.0	8.39607	7.10349	-9.70344	12.72307	13.36694	0.93138	1.07368	193.24688	177.08607	73.30379	0.31812	 	3.52273E23	 	7.04042E-24	 	216.74911	26.59999	 
230.0	1.0	0.0	8.39778	7.10204	-9.72189	12.69838	13.28815	0.92768	1.07796	193.5128	177.19384	73.41243	0.31798	 	6.631509999999999E23	 	3.70315E-24	 	83.98542	26.55274	 
225.0	1.0	0.0	8.39949	7.10059	-9.74028	12.6737	13.20919	0.92395	1.08231	193.77813	177.30098	73.52086	0.31784	 	1.26433E24	 	1.92303E-24	 	-48.54155	26.50539	 
220.0	1.0	0.0	8.4012	7.09915	-9.7586	12.64902	13.13007	0.92019	1.08673	194.04288	177.40748	73.6291	0.31771	 	2.44225E24	 	9.85541E-25	 	-180.83132	26.45795	 
215.0	1.0	0.0	8.4029	7.09771	-9.77686	12.62434	13.05078	0.9164	1.09123	194.30703	177.51334	73.73713	0.31757	 	4.78166E24	 	4.98266E-25	 	-312.88337	26.41041	 
210.0	1.0	0.0	8.40459	7.09628	-9.79505	12.59966	12.97132	0.91257	1.09581	194.57061	177.61856	73.84495	0.31743	 	9.493060000000001E24	 	2.48406E-25	 	-444.69714	26.36275	 
205.0	1.0	0.0	8.40628	7.09486	-9.81317	12.57498	12.89168	0.9087	1.10047	194.83359	177.72315	73.95258	0.31729	 	1.9118900000000002E25	 	1.22064E-25	 	-576.27202	26.31498	 
200.0	1.0	0.0	8.40797	7.09344	-9.83123	12.5503	12.81185	0.9048	1.10522	195.09599	177.82711	74.06	0.31715	 	3.907910000000001E25	 	5.90937E-26	 	-707.60734	26.26706	 
195.0	1.0	0.0	8.40964	7.09202	-9.84922	12.52563	12.73183	0.90087	1.11004	195.3578	177.93044	74.16721	0.31701	 	8.110710000000001E25	 	2.81717E-26	 	-838.70238	26.21901	 
190.0	1.0	0.0	8.41132	7.09061	-9.86715	12.50096	12.65161	0.8969	1.11496	195.61903	178.03314	74.27423	0.31687	 	1.7101E26	 	1.32187E-26	 	-969.55638	26.1708	 
185.0	1.0	0.0	8.41298	7.08921	-9.885	12.47629	12.57119	0.89289	1.11996	195.87967	178.13522	74.38103	0.31673	 	3.66482E26	 	6.10157E-27	 	-1100.1685	26.12242	 
180.0	1.0	0.0	8.41464	7.08781	-9.9028	12.45162	12.49056	0.88885	1.12506	196.13972	178.23666	74.48764	0.31659	 	7.987120000000001E26	 	2.7691E-27	 	-1230.53786	26.07387	 
175.0	1.0	0.0	8.4163	7.08641	-9.92052	12.42695	12.40971	0.88476	1.13024	196.39919	178.33749	74.59404	0.31645	 	1.7712399999999998E27	 	1.2349E-27	 	-1360.66348	26.02512	 
170.0	1.0	0.0	8.41795	7.08502	-9.93818	12.40228	12.32863	0.88065	1.13553	196.65807	178.43769	74.70024	0.31631	 	3.9991699999999995E27	 	5.40839E-28	 	-1490.54435	25.97617	 
165.0	1.0	0.0	8.41959	7.08364	-9.95577	12.37762	12.24732	0.87649	1.14091	196.91636	178.53727	74.80623	0.31618	 	9.19887E27	 	2.32474E-28	 	-1620.17936	25.927	 
160.0	1.0	0.0	8.42123	7.08226	-9.9733	12.35296	12.16577	0.8723	1.1464	197.17407	178.63622	74.91202	0.31604	 	2.157E28	 	9.80108E-29	 	-1749.56734	25.8776	 
155.0	1.0	0.0	8.42287	7.08089	-9.99076	12.3283	12.08396	0.86807	1.15199	197.43119	178.73457	75.0176	0.3159	 	5.15956E28	 	4.05014E-29	 	-1878.70702	25.82794	 
150.0	1.0	0.0	8.4245	7.07952	-10.00815	12.30364	12.0019	0.86379	1.15768	197.68772	178.83229	75.12298	0.31576	 	1.2598700000000001E29	 	1.63929E-29	 	-2007.59706	25.77801	 
145.0	1.0	0.0	8.42612	7.07816	-10.02548	12.27898	11.91956	0.85948	1.16349	197.94367	178.9294	75.22816	0.31562	 	3.1427400000000003E29	 	6.49397E-30	 	-2136.23603	25.72779	 
140.0	1.0	0.0	8.42773	7.0768	-10.04274	12.25433	11.83695	0.85513	1.16941	198.19903	179.02589	75.33313	0.31548	 	8.014970000000001E29	 	2.5159E-30	 	-2264.62238	25.67727	 
135.0	1.0	0.0	8.42935	7.07544	-10.05993	12.22967	11.75405	0.85074	1.17544	198.4538	179.12178	75.4379	0.31535	 	2.0914899999999998E30	 	9.52467E-31	 	-2392.75449	25.62642	 
130.0	1.0	0.0	8.43095	7.0741	-10.07706	12.20502	11.67085	0.84631	1.1816	198.70799	179.21705	75.54246	0.31521	 	5.58913E30	 	3.52054E-31	 	-2520.63059	25.57522	 
125.0	1.0	0.0	8.43255	7.07275	-10.09413	12.18037	11.58733	0.84184	1.18787	198.96159	179.31171	75.64682	0.31507	 	1.5309199999999999E31	 	1.26935E-31	 	-2648.24882	25.52365	 
120.0	1.0	0.0	8.43415	7.07142	-10.11112	12.15572	11.5035	0.83733	1.19428	199.21461	179.40577	75.75097	0.31493	 	4.30223E31	 	4.46017E-32	 	-2775.60721	25.47168	 
115.0	1.0	0.0	8.43573	7.07009	-10.12805	12.13108	11.41932	0.83277	1.20081	199.46704	179.49922	75.85492	0.31479	 	1.24164E32	 	1.52578E-32	 	-2902.70361	25.41928	 
110.0	1.0	0.0	8.43732	7.06876	-10.14491	12.10643	11.3348	0.82817	1.20748	199.71888	179.59206	75.95866	0.31466	 	3.6839099999999996E32	 	5.07629E-33	 	-3029.53578	25.36643	 
105.0	1.0	0.0	8.4389	7.06744	-10.16171	12.08179	11.24991	0.82353	1.21428	199.97013	179.6843	76.0622	0.31452	 	1.1249E33	 	1.64073E-33	 	-3156.10131	25.31311	 
100.0	1.0	0.0	8.44047	7.06612	-10.17844	12.05715	11.16464	0.81885	1.22122	200.2208	179.77594	76.16553	0.31438	 	3.53925E33	 	5.14588E-34	 	-3282.39762	25.25926	 
95.0	1.0	0.0	8.44203	7.06481	-10.19511	12.03251	11.07898	0.81413	1.22831	200.47089	179.86698	76.26866	0.31424	 	1.1487600000000002E34	 	1.56416E-34	 	-3408.42197	25.20487	 
90.0	1.0	0.0	8.44359	7.06351	-10.2117	12.00787	10.9929	0.80936	1.23555	200.72038	179.95742	76.37158	0.3141	 	3.8514800000000004E34	 	4.60198E-35	 	-3534.17144	25.1499	 
85.0	1.0	0.0	8.44515	7.0622	-10.22824	11.98323	10.9064	0.80454	1.24294	200.96929	180.04726	76.4743	0.31397	 	1.33566E35	 	1.30875E-35	 	-3659.64291	25.09429	 
80.0	1.0	0.0	8.4467	7.06091	-10.2447	11.9586	10.81945	0.79969	1.25049	201.21762	180.13651	76.57681	0.31383	 	4.7979699999999995E35	 	3.59243E-36	 	-3784.83306	25.03803	 
75.0	1.0	0.0	8.44824	7.05962	-10.2611	11.93396	10.73203	0.79479	1.2582	201.46535	180.22516	76.67912	0.31369	 	1.78801E36	 	9.50347E-37	 	-3909.73833	24.98105	 
70.0	1.0	0.0	8.44978	7.05833	-10.27743	11.90933	10.64413	0.78984	1.26608	201.7125	180.31322	76.78122	0.31355	 	6.923619999999999E36	 	2.41901E-37	 	-4034.35494	24.92332	 
65.0	1.0	0.0	8.45131	7.05705	-10.2937	11.8847	10.55571	0.78485	1.27413	201.95907	180.40068	76.88312	0.31342	 	2.7904999999999997E37	 	5.91444E-38	 	-4158.67884	24.86478	 
60.0	1.0	0.0	8.45284	7.05578	-10.3099	11.86007	10.46677	0.77982	1.28235	202.20505	180.48756	76.98481	0.31328	 	1.17274E38	 	1.38651E-38	 	-4282.70569	24.80537	 
55.0	1.0	0.0	8.45436	7.05451	-10.32604	11.83545	10.37726	0.77474	1.29076	202.45044	180.57384	77.08629	0.31314	 	5.14902E38	 	3.11053E-39	 	-4406.43088	24.74504	 
50.0	1.0	0.0	8.45587	7.05325	-10.34211	11.81082	10.28717	0.76962	1.29935	202.69525	180.65954	77.18757	0.313	 	2.3666200000000002E39	 	6.66441E-40	 	-4529.84947	24.68372	 
45.0	1.0	0.0	8.45738	7.05199	-10.35811	11.7862	10.19647	0.76445	1.30813	202.93947	180.74465	77.28865	0.31287	 	1.14118E40	 	1.36071E-40	 	-4652.95615	24.62134	 
40.0	1.0	0.0	8.45889	7.05073	-10.37404	11.76158	10.10513	0.75924	1.31711	203.1831	180.82918	77.38951	0.31273	 	5.78624E40	 	2.64145E-41	 	-4775.74528	24.55782	 
35.0	1.0	0.0	8.46039	7.04949	-10.38991	11.73696	10.01312	0.75398	1.3263	203.42615	180.91313	77.49018	0.31259	 	3.09257E41	 	4.86328E-42	 	-4898.21077	24.4931	 
30.0	1.0	0.0	8.46188	7.04824	-10.40572	11.71234	9.92039	0.74868	1.33569	203.66861	180.99649	77.59063	0.31246	 	1.74684E42	 	8.47014E-43	 	-5020.34614	24.42707	 
25.0	1.0	0.0	8.46336	7.047	-10.42146	 	9.82692	0.74333	1.34529	203.91049	181.07927	77.69088	0.31232	 	1.0457000000000001E43	 	1.3916E-43	 	-5142.14438	 	 
