T (C)	Fraction solid (wt)-TOTAL	Fraction liquid (wt)-LIQUID	Density (g/(cm)^3)-TOTAL	Molar volume (cm^3)-TOTAL	Volume change (%)-  	Average expansion coeff. (10e-6 1/K)-  	Thermal conductivity (W/(m*K))-TOTAL	Electrical resistivity (10e-6 Ohm*m)-TOTAL	Electrical conductivity (10e6 1/(Ohm*m))-TOTAL	Young's modulus (GPa)-TOTAL	Bulk modulus (GPa)-TOTAL	Shear modulus(GPa)-TOTAL	Poisson's ratio-TOTAL	Liquid viscosity (mPa s)-  	Total viscosity (mPa s)-  	Liquid diffusivity (10e-9 (m^2)/s)-  	Total diffusivity (10e-9 (m^2)/s)-  	Surface Tension (mN/m)-  	Enthalpy (J/mole)-TOTAL	Specific heat (J/(mole K))-TOTAL	Latent heat (J/mole)-TOTAL
1400.0	0.0	1.0	6.93568	7.91571	0.0	33.33638	29.22568	1.40261	0.71296	0.0	120.33824	0.0	0.5	6.17841	6.17841	1.32174	1.32174	1734.40186	45471.344	 	0.0
1395.0	0.0	1.0	6.93963	7.91121	-0.0569174	33.30052	29.14462	1.40231	0.71311	0.0	120.48276	0.0	0.5	6.24272	6.24272	1.30421	1.30421	1736.48414	45269.663	40.3362	0.0
1390.0	0.0	1.0	6.94357	7.90672	-0.11367	33.26484	29.06356	1.402	0.71327	0.0	120.62728	0.0	0.5	6.30809	6.30809	1.28683	1.28683	1738.58283	45068.43	40.2466	0.0
1385.0	0.0	1.0	6.94751	7.90224	-0.17027	33.22935	28.98251	1.4017	0.71342	0.0	120.7718	0.0	0.5	6.37455	6.37455	1.26958	1.26958	1740.69796	44867.642	40.1576	0.0
1380.0	0.0	1.0	6.95144	7.89777	-0.2267	33.19405	28.90145	1.40139	0.71358	0.0	120.91632	0.0	0.5	6.44212	6.44212	1.25248	1.25248	1742.82957	44667.297	40.069	0.0
1375.0	0.0	1.0	6.95536	7.89331	-0.28297	33.15895	28.82039	1.40108	0.71374	0.0	121.06084	0.0	0.5	6.51082	6.51082	1.23552	1.23552	1744.97767	44467.392	39.981	0.0
1370.0	0.0	1.0	6.95927	7.88887	-0.33908	33.12403	28.73933	1.40077	0.71389	0.0	121.20536	0.0	0.5	6.58067	6.58067	1.21869	1.21869	1747.14226	44267.925	39.8934	0.0
1365.0	0.0	1.0	6.96318	7.88444	-0.39503	33.08931	28.65827	1.40046	0.71405	0.0	121.34988	0.0	0.5	6.65171	6.65171	1.20201	1.20201	1749.32333	44068.893	39.8064	0.0
1360.0	0.0	1.0	6.96709	7.88003	-0.45082	33.05479	28.57722	1.40014	0.71421	0.0	121.4944	0.0	0.5	6.72396	6.72396	1.18546	1.18546	1751.52086	43870.294	39.7198	0.0
1355.0	0.0	1.0	6.97098	7.87563	-0.50645	33.02048	28.49616	1.39983	0.71437	0.0	121.63892	0.0	0.5	6.79744	6.79744	1.16906	1.16906	1753.73479	43672.125	39.6338	0.0
1350.0	0.0	1.0	6.97487	7.87123	-0.56191	32.98636	28.4151	1.39951	0.71454	0.0	121.78344	0.0	0.5	6.87219	6.87219	1.15279	1.15279	1755.96507	43474.385	39.548	0.0
1345.0	0.0	1.0	6.97875	7.86686	-0.61721	32.95245	28.33404	1.39919	0.7147	0.0	121.92796	0.0	0.5	6.94823	6.94823	1.13666	1.13666	1758.21162	43277.07	39.463	0.0
1340.0	0.0	1.0	6.98263	7.86249	-0.67235	32.91875	28.25298	1.39887	0.71486	0.0	122.07248	0.0	0.5	7.02559	7.02559	1.12067	1.12067	1760.47437	43080.179	39.3782	0.0
1335.64	0.0	1.0	6.986	7.8587	-0.72032	32.88952	28.18228	1.39859	0.71501	0.0	122.19854	0.0	0.5	7.09417	7.09417	1.10684	1.10684	1762.46122	42908.785	39.29874	0.0
1335.0	0.018	0.982	6.99136	7.85264	-0.79688	32.68397	28.23899	1.39522	0.71673	8.99093E-6	122.32549	3.00152E-6	0.49773	7.10395	7.27727	1.10488	1.07856	1762.26954	42631.197	434.62086	252.51
1330.0	0.14959	0.85041	7.03093	7.80845	-1.35511	31.18725	28.66063	1.37042	0.7297	0.0440863	123.28691	0.0148843	0.48096	7.18076	17.7981	1.08966	0.43963	1760.81235	40599.724	406.2946	2087.931
1327.4	0.20734	0.79266	7.04861	7.78889	-1.60222	30.53011	28.84493	1.35946	0.73559	0.16474	123.74539	0.0559	0.47353	7.2211	43.88144	1.08181	0.17802	1760.11754	39696.11	 	2889.709
1325.0	0.29035	0.70965	7.07387	7.76109	-1.95344	29.56204	29.11903	1.34464	0.74369	0.64287	124.56947	0.21978	0.46257	7.28611	147.33935	1.07055	0.0529402	1760.18416	38405.522	438.8404	4086.499
1320.0	0.43219	0.56781	7.11755	7.71344	-2.55535	27.91381	29.60385	1.31848	0.75845	3.26494	126.01325	1.13084	0.4436	7.42103	724.39974	1.0478	0.0107341	1760.19061	36186.579	443.7886	6110.221
1315.0	0.5363	0.4637	7.15035	7.67798	-3.00334	26.70522	29.96473	1.29852	0.77011	7.9615	127.15892	2.78483	0.42944	7.55592	1801.1916	1.02587	0.00430347	1762.26168	34525.56634	332.20253	7575.36
1310.0	0.61499	0.38501	7.17523	7.65169	-3.33548	25.82908	30.23103	1.28303	0.77941	14.07752	128.07034	4.96184	0.41858	7.69121	3284.329	1.00465	0.00235268	1764.3434	33238.67574	257.37812	8666.518
1305.0	0.67589	0.32411	7.19497	7.63104	-3.59637	25.15714	30.43032	1.2706	0.78703	20.91212	128.85121	7.41535	0.41006	7.82737	5066.65021	0.98405	0.00152025	1766.43551	32211.16353	205.50244	9498.738
1300.0	0.72399	0.27601	7.21103	7.61436	-3.80709	24.62915	30.57831	1.26044	0.79337	27.94222	129.54315	9.95629	0.40324	7.96488	7063.72121	0.964	0.00108698	1768.53788	31368.58894	168.51492	10146.454
1295.0	0.76262	0.23738	7.2244	7.60054	-3.98163	24.20499	30.68682	1.25199	0.79873	34.83903	130.17315	12.46296	0.3977	8.10405	9221.40575	0.94443	8.29998E-4	1770.65034	30661.19949	141.47789	10659.417
1290.0	0.79411	0.20589	7.23575	7.58886	-4.12923	23.85826	30.76438	1.24485	0.80331	41.41173	130.75881	14.86285	0.39313	8.24519	11507.26118	0.92531	6.63003E-4	1772.77235	30054.78973	121.28195	11071.829
1285.0	0.82012	0.17988	7.24558	7.57876	-4.25678	23.5691	30.81733	1.23874	0.80727	47.56719	131.31138	17.11908	0.3893	8.38868	13905.98772	0.90657	5.46883E-4	1774.90483	29525.2562	105.90671	11407.793
1280.0	0.84183	0.15817	7.25421	7.5699	-4.36874	23.32473	30.85059	1.23343	0.81074	53.27488	131.8393	19.21807	0.38606	8.53482	16414.46216	0.88819	4.61821E-4	1777.0468	29055.23944	94.00335	11684.666
1275.0	0.86015	0.13985	7.2619	7.562	-4.46855	23.11527	30.86792	1.22877	0.81382	58.53623	132.34826	21.15836	0.38329	8.68387	19036.41597	0.87013	3.96931E-4	1779.19817	28631.99101	84.64969	11915.191
1270.0	0.87573	0.12427	7.26885	7.55486	-4.55866	22.93368	30.87214	1.22464	0.81657	63.36724	132.84218	22.94432	0.38089	8.83616	21778.95651	0.85238	3.45826E-4	1781.35892	28245.99144	77.19991	12108.887
1265.0	0.8891	0.1109	7.27519	7.54835	-4.64095	22.77452	30.86551	1.22093	0.81905	67.80027	133.32404	24.58666	0.3788	8.99192	24655.18474	0.8349	3.04493E-4	1783.5286	27890.0183	71.19463	12272.974
1260.0	0.90152	0.0984796	7.28119	7.54212	-4.71966	22.62505	30.8542	1.21741	0.82142	72.16211	133.81198	26.20581	0.37683	9.15579	27787.97855	0.81729	2.69286E-4	1785.68877	27546.07017	68.78963	12425.449
1255.0	0.91521	0.0847942	7.2873	7.53557	-4.80234	22.46217	30.85059	1.21358	0.82401	77.20148	134.34054	28.08012	0.37466	9.33696	31492.08685	0.79882	2.36838E-4	1787.79305	27183.43657	72.52672	12597.024
1250.0	0.92667	0.0733287	7.29283	7.52958	-4.87801	22.31961	30.83583	1.21019	0.82632	81.69337	134.84853	29.75411	0.37281	9.52083	35339.84916	0.78083	2.10361E-4	1789.90241	26850.98609	66.4901	12738.823
1245.0	0.93637	0.063634	7.29788	7.52404	-4.94806	22.19338	30.81193	1.20715	0.8284	85.70839	135.33994	31.25296	0.3712	9.70765	39357.01204	0.76329	1.88269E-4	1792.01587	26542.54329	61.68856	12857.022
1240.0	0.94463	0.0553708	7.30255	7.51885	-5.01364	22.08004	30.78056	1.2044	0.83029	89.31129	135.81764	32.60003	0.3698	9.89746	43571.00534	0.74618	1.69501E-4	1794.13404	26253.41975	57.82471	12956.306
1235.0	0.95172	0.0482761	7.30691	7.51395	-5.07556	21.97727	30.74295	1.20189	0.83202	92.55737	136.28383	33.81535	0.36857	10.09023	48010.18434	0.72951	1.5332E-4	1796.25672	25980.00804	54.68234	13040.279
1230.0	0.95786	0.0421446	7.31101	7.50929	-5.13439	21.88332	30.70012	1.19958	0.83363	95.49417	136.74036	34.91624	0.36747	10.28604	52704.5791	0.71325	1.392E-4	1798.38296	25719.50173	52.10126	13111.748
1225.0	0.96319	0.0368128	7.31489	7.50484	-5.19067	21.79668	30.65289	1.19743	0.83512	98.16417	137.1885	35.91825	0.36649	10.48504	57686.02275	0.69738	1.26757E-4	1800.51262	25469.69141	49.96206	13172.917
1220.0	0.96786	0.032144	7.31859	7.50054	-5.24488	21.71587	30.60185	1.19542	0.83652	100.60465	137.62936	36.83508	0.36561	10.68631	62988.84014	0.68197	1.15698E-4	1802.64558	25228.63566	48.21115	13225.726
1215.0	0.97234	0.0276613	7.32241	7.49615	-5.30043	21.63011	30.5475	1.19354	0.83784	103.00351	138.06886	37.73715	0.36475	10.86779	68745.50096	0.66833	1.05655E-4	1804.77053	24987.61308	48.20452	13278.894
1210.0	0.97624	0.0237633	7.32607	7.49192	-5.35377	21.5507	30.48977	1.19178	0.83908	105.18592	138.50137	38.55862	0.36397	11.05135	74881.39612	0.65502	9.66714E-5	1806.89863	24754.76625	46.56937	13324.277
1205.0	0.97965	0.0203524	7.32958	7.48785	-5.40527	21.47655	30.42937	1.19012	0.84025	107.18346	138.92777	39.31118	0.36327	11.23693	81439.71364	0.64203	8.85868E-5	1809.0299	24528.73877	45.2055	13363.226
1200.0	0.98265	0.0173497	7.33298	7.4839	-5.45517	21.40689	30.36679	1.18854	0.84137	109.0219	139.34871	40.0044	0.36262	11.4246	88465.69579	0.62935	8.12753E-5	1811.164	24308.45325	44.0571	13396.82
1195.0	0.98609	0.0139115	7.33674	7.47973	-5.50778	21.3279	30.30438	1.18695	0.8425	111.09131	139.79555	40.78503	0.36191	11.52826	96283.78985	0.62157	7.44224E-5	1813.3018	24078.54527	45.9816	13440.42
1190.0	0.98954	0.0104595	7.34069	7.47553	-5.56091	21.24652	30.24507	1.18522	0.84372	113.20086	140.25329	41.58132	0.3612	11.57706	104834.1172	0.61685	6.81197E-5	1815.44315	23846.95646	46.31776	13486.079
1185.0	0.99309	0.00691273	7.34483	7.47121	-5.61542	21.15991	30.17885	1.18377	0.84476	115.41295	140.73139	42.41687	0.36046	11.6208	114240.8169	0.61242	6.22971E-5	1817.56562	23609.12641	47.56601	13538.36
1180.0	1.0	0.0	7.35101	7.46511	-5.69251	20.99842	30.10312	1.18267	0.84554	119.48296	141.40334	43.95438	0.35917	 	126176.3936	 	5.62107E-5	 	23287.22276	64.38073	13675.089
1175.0	1.0	0.0	7.3535	7.46259	-5.72439	20.98461	30.02108	1.18183	0.84615	119.96862	141.7716	44.1397	0.35896	 	135762.6749	 	5.20619E-5	 	23103.38759	36.76703	 
1170.0	1.0	0.0	7.35598	7.46007	-5.75621	20.97088	29.93904	1.18097	0.84676	120.45332	142.13785	44.32472	0.35876	 	146150.9154	 	4.81944E-5	 	22926.04162	35.46919	 
1165.0	1.0	0.0	7.35846	7.45756	-5.78796	20.95724	29.857	1.18011	0.84738	120.93706	142.50212	44.50944	0.35856	 	157414.1844	 	4.4591E-5	 	22748.97147	35.41403	 
1160.0	1.0	0.0	7.36093	7.45505	-5.81965	20.9437	29.77496	1.17925	0.848	121.41984	142.86442	44.69385	0.35835	 	169632.7531	 	4.12353E-5	 	22572.17628	35.35904	 
1155.0	1.0	0.0	7.36341	7.45254	-5.85128	20.93024	29.69291	1.17838	0.84862	121.90166	143.22475	44.87795	0.35815	 	182894.8391	 	3.81118E-5	 	22395.65529	35.3042	 
1151.47	1.0	0.0	7.36515	7.45078	-5.87354	20.92081	29.63505	1.17777	0.84906	122.24083	143.47765	45.00759	0.358	 	192925.8531	 	3.6041E-5	 	22271.35059	 	 
1150.0	1.0	0.0	7.36674	7.44917	-5.89385	20.87978	29.55475	1.17975	0.84764	122.59756	143.68826	45.14577	0.3578	 	197809.9568	 	3.51147E-5	 	22170.19719	45.09162	 
1145.0	1.0	0.0	7.37205	7.4438	-5.96174	20.74318	29.29149	1.18617	0.84305	123.75894	144.35326	45.59647	0.35711	 	215423.8264	 	3.21303E-5	 	21831.7008	67.69928	 
1140.0	1.0	0.0	7.37726	7.43855	-6.02811	20.61047	29.03892	1.19227	0.83874	124.88008	144.98686	46.03207	0.35645	 	234793.0463	 	2.93758E-5	 	21499.97553	66.34506	 
1135.0	1.0	0.0	7.38236	7.43341	-6.09305	20.48148	28.79623	1.19806	0.83468	125.96612	145.59502	46.45443	0.3558	 	256108.0931	 	2.68357E-5	 	21174.70741	65.05362	 
1134.43	1.0	0.0	7.38294	7.43283	-6.10037	20.46701	28.76917	1.1987	0.83423	126.08776	145.6628	46.50176	0.35573	 	258669.9697	 	2.65591E-5	 	21138.03567	 	 
1130.0	1.0	0.0	7.38735	7.42839	-6.15646	20.35658	28.56278	1.20357	0.83086	127.02021	146.18135	46.86471	0.35518	 	279595.1975	 	2.44941E-5	 	20855.17499	63.90648	 
1125.0	1.0	0.0	7.39224	7.42347	-6.21854	20.23513	28.33814	1.20878	0.82728	128.04348	146.74651	47.26333	0.35458	 	305482.3944	 	2.23385E-5	 	20541.51004	62.73299	 
1120.0	1.0	0.0	7.39704	7.41866	-6.27938	20.11686	28.12182	1.21373	0.82391	129.03755	147.2919	47.65089	0.35399	 	334033.7097	 	2.03561E-5	 	20233.5062	61.60077	 
1115.0	1.0	0.0	7.40175	7.41393	-6.33902	20.00164	27.91337	1.2184	0.82075	130.00403	147.81892	48.02798	0.35342	 	365546.7582	 	1.85345E-5	 	19930.90803	60.51963	 
1110.0	1.0	0.0	7.40638	7.4093	-6.39754	19.88933	27.71235	1.22282	0.81778	130.94436	148.32881	48.39513	0.35287	 	400354.8145	 	1.68621E-5	 	19633.4735	59.48691	 
1105.0	1.0	0.0	7.41093	7.40476	-6.45497	19.77979	27.51836	1.22699	0.815	131.85991	148.8227	48.75286	0.35233	 	438831.3757	 	1.5328E-5	 	19340.97317	58.50007	 
1100.0	1.0	0.0	7.4154	7.40029	-6.51136	19.67289	27.33101	1.23092	0.8124	132.75195	149.30162	49.10163	0.35181	 	481395.3321	 	1.3922E-5	 	19053.18919	57.5568	 
1095.0	1.0	0.0	7.41979	7.39591	-6.56675	19.56852	27.14993	1.23461	0.80997	133.62165	149.7665	49.44189	0.3513	 	528516.8758	 	1.26346E-5	 	18769.91453	56.65493	 
1090.0	1.0	0.0	7.42412	7.3916	-6.6212	19.46655	26.97478	1.23809	0.8077	134.47013	150.21819	49.77404	0.35081	 	580724.162	 	1.14567E-5	 	18490.95252	55.7924	 
1085.0	1.0	0.0	7.42838	7.38736	-6.67473	19.36689	26.80523	1.24135	0.80557	135.29843	150.65746	50.09849	0.35032	 	638610.9932	 	1.038E-5	 	18216.11578	54.96735	 
1080.0	1.0	0.0	7.43257	7.38319	-6.72739	19.26941	26.64098	1.24441	0.8036	136.10752	151.08504	50.41559	0.34986	 	702845.4572	 	9.39664E-6	 	17945.22593	54.17797	 
1075.0	1.0	0.0	7.4367	7.37909	-6.77921	19.17403	26.48172	1.24726	0.80176	136.89835	151.50158	50.7257	0.3494	 	774179.9092	 	8.4993E-6	 	17678.1129	53.42261	 
1070.0	1.0	0.0	7.44077	7.37505	-6.83023	19.08065	26.32719	1.24993	0.80004	137.67177	151.90772	51.02914	0.34895	 	853462.2849	 	7.68116E-6	 	17414.61484	52.69961	 
1065.0	1.0	0.0	7.44479	7.37107	-6.88048	18.98917	26.17713	1.25242	0.79846	138.42862	152.30401	51.32624	0.34852	 	941649.0184	 	6.93589E-6	 	17154.57714	52.00754	 
1060.0	1.0	0.0	7.44875	7.36715	-6.93	18.8995	26.03128	1.25473	0.79699	139.16969	152.69098	51.61727	0.34809	 	1039819.922	 	6.2576E-6	 	16897.8524	51.34495	 
1055.0	1.0	0.0	7.45266	7.36329	-6.97881	18.81156	25.88943	1.25687	0.79563	139.8957	153.06913	51.90253	0.34768	 	1149195.122	 	5.64079E-6	 	16644.30004	50.71047	 
1050.0	1.0	0.0	7.45652	7.35948	-7.02694	18.72527	25.75134	1.25885	0.79437	140.60738	153.43892	52.18229	0.34727	 	1271154.54	 	5.08039E-6	 	16393.78571	50.10287	 
1046.22	1.0	0.0	7.4594	7.35663	-7.06292	18.66105	25.64928	1.26025	0.79349	141.13653	153.71331	52.39038	0.34697	 	1372701.116	 	4.69112E-6	 	16206.25569	 	 
1045.73	1.0	0.0	7.46084	7.35522	-7.08077	18.60361	25.62525	1.26097	0.79304	141.31163	153.76859	52.46062	0.34684	 	1389609.692	 	4.63234E-6	 	16139.97353	 	 
1045.0	1.0	0.0	7.46139	7.35467	-7.08769	18.59124	25.60586	1.26122	0.79288	141.41324	153.82136	52.50059	0.34678	 	1410600.379	 	4.56087E-6	 	16103.75847	58.00545	 
1040.0	1.0	0.0	7.46516	7.35096	-7.1346	18.5076	25.47543	1.26287	0.79185	142.0994	154.17728	52.77054	0.34639	 	1563326.738	 	4.09969E-6	 	15858.19215	49.11326	 
1035.0	1.0	0.0	7.46888	7.3473	-7.18089	18.42544	25.34816	1.26438	0.7909	142.77302	154.52601	53.03566	0.34601	 	1734077.082	 	3.68193E-6	 	15615.3617	48.56609	 
1030.0	1.0	0.0	7.47256	7.34368	-7.22659	18.34466	25.22389	1.26575	0.79004	143.43469	154.86792	53.29618	0.34564	 	1925143.586	 	3.30383E-6	 	15375.14982	48.04238	 
1025.0	1.0	0.0	7.4762	7.3401	-7.27174	18.26521	25.10246	1.26699	0.78927	144.08495	155.20334	53.55231	0.34527	 	2139130.579	 	2.96193E-6	 	15137.44375	47.54121	 
1020.0	1.0	0.0	7.4798	7.33657	-7.31635	18.18701	24.98371	1.26811	0.78857	144.72433	155.53257	53.80425	0.34492	 	2378999.831	 	2.65302E-6	 	14902.13741	47.06127	 
1015.0	1.0	0.0	7.48336	7.33308	-7.36044	18.11	24.8675	1.26911	0.78795	145.35333	155.85593	54.0522	0.34456	 	2648122.961	 	2.37419E-6	 	14669.12979	46.60152	 
1010.0	1.0	0.0	7.48688	7.32963	-7.40403	18.03412	24.75371	1.27	0.7874	145.97242	156.17369	54.29633	0.34422	 	2950341.728	 	2.12272E-6	 	14438.32457	46.16104	 
1005.0	1.0	0.0	7.49037	7.32622	-7.44714	17.95931	24.64219	1.27077	0.78692	146.58205	156.4861	54.53681	0.34388	 	3290037.954	 	1.89613E-6	 	14209.63014	45.73889	 
1000.0	1.0	0.0	7.49383	7.32284	-7.4898	17.88552	24.53285	1.27145	0.78651	147.18263	156.79341	54.77381	0.34355	 	3672214.323	 	1.69215E-6	 	13982.95923	45.33418	 
995.0	1.0	0.0	7.49725	7.3195	-7.53202	17.81269	24.42556	1.27201	0.78615	147.77458	157.09586	55.00748	0.34322	 	4102588.257	 	1.50869E-6	 	13758.22918	44.94601	 
990.0	1.0	0.0	7.50064	7.31619	-7.57381	17.74077	24.32022	1.27249	0.78586	148.35826	157.39366	55.23797	0.3429	 	4587700.656	 	1.34384E-6	 	13535.36081	44.57367	 
985.0	1.0	0.0	7.504	7.31292	-7.6152	17.66971	24.21674	1.27287	0.78563	148.93404	157.68701	55.46541	0.34258	 	5135042.077	 	1.19585E-6	 	13314.27923	44.21632	 
980.0	1.0	0.0	7.50733	7.30967	-7.65619	17.59947	24.11503	1.27316	0.78545	149.50225	157.97611	55.68994	0.34227	 	5753199.564	 	1.06312E-6	 	13094.91266	43.87331	 
975.0	1.0	0.0	7.51063	7.30646	-7.6968	17.53	24.01499	1.27336	0.78533	150.06323	158.26115	55.91168	0.34197	 	6452027.453	 	9.44185E-7	 	12877.19325	43.54388	 
970.0	1.0	0.0	7.51391	7.30327	-7.73705	17.46126	23.91655	1.27348	0.78525	150.61728	158.54228	56.13076	0.34166	 	7242847.192	 	8.37724E-7	 	12661.05588	43.22747	 
965.0	1.0	0.0	7.51716	7.30011	-7.77694	17.39321	23.81964	1.27352	0.78523	151.16469	158.81968	56.34727	0.34137	 	8138678.813	 	7.42516E-7	 	12446.43888	42.9234	 
960.0	1.0	0.0	7.52038	7.29698	-7.8165	17.32581	23.72418	1.27348	0.78525	151.70574	159.0935	56.56134	0.34107	 	9154512.281	 	6.57457E-7	 	12233.28358	42.63106	 
955.0	1.0	0.0	7.52359	7.29388	-7.85573	17.25901	23.63011	1.27336	0.78532	152.24068	159.36389	56.77305	0.34078	 	1.03076255E7	 	5.8154E-7	 	12021.53359	42.35	 
950.0	1.0	0.0	7.52676	7.2908	-7.89465	17.19279	23.53737	1.27317	0.78544	152.76977	159.63098	56.98251	0.3405	 	1.161795469E7	 	5.1385E-7	 	11811.13561	42.07959	 
945.0	1.0	0.0	7.52992	7.28774	-7.93325	17.12711	23.44589	1.27292	0.7856	153.29325	159.89491	57.18982	0.34021	 	1.31085303E7	 	4.53559E-7	 	11602.03889	41.81934	 
940.0	1.0	0.0	7.53305	7.28471	-7.97157	17.06194	23.35562	1.27259	0.7858	153.81133	160.15579	57.39504	0.33994	 	1.48059871E7	 	3.99911E-7	 	11394.19458	41.56886	 
935.0	1.0	0.0	7.53617	7.2817	-8.00959	16.99724	23.26651	1.2722	0.78604	154.32424	160.41376	57.59828	0.33966	 	1.674116417E7	 	3.52226E-7	 	11187.55655	41.32761	 
930.0	1.0	0.0	7.53926	7.27871	-8.04734	16.93298	23.17852	1.27175	0.78632	154.83217	160.66892	57.7996	0.33939	 	1.894981107E7	 	3.09886E-7	 	10982.08084	41.09514	 
925.0	1.0	0.0	7.54234	7.27574	-8.08482	16.86914	23.09159	1.27123	0.78664	155.33533	160.92138	57.99908	0.33912	 	2.147341667E7	 	2.72331E-7	 	10777.72495	40.87118	 
920.0	1.0	0.0	7.54539	7.2728	-8.12205	16.80569	23.00568	1.27065	0.787	155.83388	161.17124	58.1968	0.33885	 	2.436019172E7	 	2.39057E-7	 	10574.44899	40.65519	 
915.0	1.0	0.0	7.54843	7.26987	-8.15902	16.74259	22.92076	1.27001	0.78739	156.32801	161.4186	58.39282	0.33859	 	2.766622263E7	 	2.09608E-7	 	10372.21464	40.44687	 
910.0	1.0	0.0	7.55145	7.26696	-8.19574	16.67983	22.83678	1.26932	0.78782	156.81789	161.66356	58.5872	0.33833	 	3.145684035E7	 	1.83574E-7	 	10170.98557	40.24581	 
905.0	1.0	0.0	7.55445	7.26407	-8.23223	16.61738	22.75372	1.26857	0.78829	157.30367	161.9062	58.78001	0.33807	 	3.580823627E7	 	1.60585E-7	 	9970.72648	40.05182	 
900.0	1.0	0.0	7.55744	7.2612	-8.26849	16.55521	22.67153	1.26777	0.78879	157.78551	162.14662	58.9713	0.33782	 	4.080938339E7	 	1.40307E-7	 	9771.40429	39.86444	 
895.0	1.0	0.0	7.56041	7.25835	-8.30453	16.49331	22.59019	1.26691	0.78932	158.26355	162.38489	59.16114	0.33756	 	4.656430521E7	 	1.22443E-7	 	9572.98719	39.68342	 
890.0	1.0	0.0	7.56336	7.25552	-8.34035	16.43164	22.50966	1.266	0.78989	158.73793	162.6211	59.34957	0.33731	 	5.319478364E7	 	1.06722E-7	 	9375.44522	39.50839	 
885.0	1.0	0.0	7.5663	7.2527	-8.37595	16.37019	22.42992	1.26504	0.79049	159.20878	162.85532	59.53665	0.33707	 	6.084357807E7	 	9.29045E-8	 	9178.74892	39.33926	 
880.0	1.0	0.0	7.56923	7.2499	-8.41135	16.30894	22.35094	1.26403	0.79112	159.67622	163.08763	59.72243	0.33682	 	6.967825045E7	 	8.07747E-8	 	8982.87066	39.17565	 
875.0	1.0	0.0	7.57214	7.24711	-8.44654	16.24787	22.2727	1.26297	0.79179	160.14039	163.31809	59.90694	0.33658	 	7.989573913E7	 	7.01393E-8	 	8787.78394	39.01734	 
870.0	1.0	0.0	7.57503	7.24434	-8.48155	16.18696	22.19518	1.26186	0.79248	160.60139	163.54678	60.09025	0.33633	 	9.172782066E7	 	6.08259E-8	 	8593.46411	38.86397	 
865.0	1.0	0.0	7.57791	7.24158	-8.51635	16.12619	22.11835	1.2607	0.79321	161.05933	163.77377	60.27238	0.3361	 	1.054476472E8	 	5.26804E-8	 	8399.88718	38.71539	 
860.0	1.0	0.0	7.58078	7.23884	-8.55097	16.06554	22.04219	1.2595	0.79396	161.51433	163.99912	60.45338	0.33586	 	1.213775545E8	 	4.55655E-8	 	8207.03024	38.57139	 
855.0	1.0	0.0	7.58364	7.23612	-8.58541	16.005	21.96668	1.25825	0.79475	161.96648	164.22289	60.63329	0.33562	 	1.398984706E8	 	3.93587E-8	 	8014.87145	38.43176	 
850.0	1.0	0.0	7.58648	7.23341	-8.61967	15.94455	21.8918	1.25696	0.79557	162.41589	164.44514	60.81215	0.33539	 	1.614611827E8	 	3.39513E-8	 	7823.39021	38.29625	 
845.0	1.0	0.0	7.58869	7.2313	-8.64626	15.91881	21.82603	1.25514	0.79673	162.79998	164.68755	60.96265	0.33524	 	1.832677482E8	 	2.97784E-8	 	7665.69626	31.53879	 
840.0	1.0	0.0	7.59089	7.2292	-8.67278	15.89308	21.76024	1.2533	0.79789	163.1834	164.92891	61.11293	0.3351	 	2.082563308E8	 	2.60881E-8	 	7505.00633	32.13799	 
835.0	1.0	0.0	7.59309	7.22711	-8.69924	15.86734	21.69445	1.25146	0.79907	163.56616	165.16923	61.26298	0.33495	 	2.369252379E8	 	2.28283E-8	 	7344.54016	32.09323	 
830.0	1.0	0.0	7.59529	7.22502	-8.72563	15.84161	21.62864	1.2496	0.80026	163.94824	165.40852	61.41282	0.3348	 	2.698560721E8	 	1.99521E-8	 	7184.29695	32.04864	 
825.0	1.0	0.0	7.59748	7.22293	-8.75194	15.81588	21.56283	1.24773	0.80145	164.32965	165.64678	61.56243	0.33466	 	3.077285253E8	 	1.74173E-8	 	7024.27594	32.0042	 
820.0	1.0	0.0	7.59967	7.22086	-8.7782	15.79015	21.49701	1.24586	0.80266	164.71039	165.88401	61.71182	0.33451	 	3.513379562E8	 	1.51859E-8	 	6864.47628	31.95993	 
815.0	1.0	0.0	7.60185	7.21878	-8.80438	15.76442	21.43117	1.24397	0.80388	165.09046	166.12021	61.86099	0.33437	 	4.016163014E8	 	1.3224E-8	 	6704.89714	31.91583	 
810.0	1.0	0.0	7.60403	7.21672	-8.83049	15.73869	21.36533	1.24207	0.80511	165.46986	166.3554	62.00994	0.33422	 	4.596569865E8	 	1.15012E-8	 	6545.53765	31.8719	 
805.0	1.0	0.0	7.6062	7.21466	-8.85654	15.71297	21.29948	1.24016	0.80635	165.84859	166.58956	62.15866	0.33407	 	5.267446477E8	 	9.99001E-9	 	6386.39689	31.82815	 
800.0	1.0	0.0	7.60837	7.2126	-8.88252	15.68724	21.23362	1.23823	0.8076	166.22665	166.82272	62.30717	0.33393	 	6.0439064E8	 	8.66621E-9	 	6227.47396	31.78459	 
795.0	1.0	0.0	7.61053	7.21055	-8.90843	15.66152	21.16774	1.2363	0.80887	166.60405	167.05486	62.45545	0.33378	 	6.943755232E8	 	7.508E-9	 	6068.76788	31.74122	 
790.0	1.0	0.0	7.61269	7.2085	-8.93427	15.6358	21.10186	1.23435	0.81014	166.98078	167.28599	62.60351	0.33364	 	7.987999704E8	 	6.49596E-9	 	5910.27767	31.69804	 
785.0	1.0	0.0	7.61485	7.20646	-8.96004	15.61008	21.03597	1.2324	0.81143	167.35684	167.51612	62.75136	0.33349	 	9.201458608E8	 	5.61277E-9	 	5752.0023	31.65507	 
780.0	1.0	0.0	7.617	7.20443	-8.98575	15.58436	20.97006	1.23043	0.81272	167.73223	167.74525	62.89898	0.33335	 	1.061349705E9	 	4.84304E-9	 	5593.9407	31.61232	 
775.0	1.0	0.0	7.61914	7.2024	-9.01138	15.55865	20.90415	1.22845	0.81403	168.10696	167.97338	63.04638	0.3332	 	1.225891026E9	 	4.1731E-9	 	5436.09176	31.56979	 
770.0	1.0	0.0	7.62128	7.20037	-9.03695	15.53293	20.83822	1.22646	0.81536	168.48102	168.20052	63.19356	0.33306	 	1.417898914E9	 	3.59078E-9	 	5278.45435	31.52748	 
765.0	1.0	0.0	7.62342	7.19836	-9.06245	15.50722	20.77228	1.22445	0.81669	168.85441	168.42666	63.34051	0.33291	 	1.642280687E9	 	3.08531E-9	 	5121.02726	31.48542	 
760.0	1.0	0.0	7.62555	7.19634	-9.08789	15.48151	20.70633	1.22244	0.81804	169.22714	168.65182	63.48725	0.33276	 	1.904877495E9	 	2.64718E-9	 	4963.80925	31.4436	 
755.0	1.0	0.0	7.62768	7.19433	-9.11325	15.4558	20.64037	1.22041	0.8194	169.59921	168.87599	63.63377	0.33262	 	2.212652818E9	 	2.26793E-9	 	4806.79904	31.40204	 
750.0	1.0	0.0	7.62981	7.19233	-9.13855	15.43009	20.57439	1.21837	0.82077	169.97061	169.09918	63.78006	0.33247	 	2.573921184E9	 	1.94013E-9	 	4649.99529	31.36075	 
745.0	1.0	0.0	7.63192	7.19034	-9.16378	15.40438	20.5084	1.21631	0.82216	170.34134	169.32139	63.92614	0.33233	 	2.998626152E9	 	1.6572E-9	 	4493.39655	31.31975	 
740.0	1.0	0.0	7.63404	7.18834	-9.18894	15.37868	20.44241	1.21425	0.82355	170.71141	169.54263	64.07199	0.33218	 	3.498678741E9	 	1.41337E-9	 	4337.0014	31.27903	 
735.0	1.0	0.0	7.63615	7.18636	-9.21403	15.35297	20.37639	1.21217	0.82497	171.08082	169.76289	64.21763	0.33204	 	4.088370168E9	 	1.20354E-9	 	4180.80829	31.23862	 
730.0	1.0	0.0	7.63825	7.18438	-9.23905	15.32727	20.31037	1.21008	0.82639	171.44956	169.98219	64.36304	0.33189	 	4.784876054E9	 	1.02325E-9	 	4024.81559	31.19854	 
725.0	1.0	0.0	7.64036	7.1824	-9.26401	15.30157	20.24433	1.20798	0.82783	171.81764	170.20052	64.50823	0.33175	 	5.6088735E9	 	8.68574E-10	 	3869.02165	31.15879	 
720.0	1.0	0.0	7.64245	7.18043	-9.2889	15.27587	20.17828	1.20586	0.82928	172.18506	170.41788	64.6532	0.33161	 	6.585297614E9	 	7.36082E-10	 	3713.4247	31.11939	 
715.0	1.0	0.0	7.64454	7.17847	-9.31372	15.25017	20.11221	1.20373	0.83075	172.55182	170.63429	64.79795	0.33146	 	7.744270695E9	 	6.22772E-10	 	3558.02289	31.08036	 
710.0	1.0	0.0	7.64663	7.17651	-9.33847	15.22448	20.04613	1.20159	0.83223	172.91791	170.84974	64.94248	0.33132	 	9.122245601E9	 	5.26023E-10	 	3402.81427	31.04172	 
705.0	1.0	0.0	7.64871	7.17455	-9.36315	15.19878	19.98003	1.19943	0.83373	173.28334	171.06423	65.08679	0.33117	 	1.07634E10	 	4.43549E-10	 	3247.79681	31.00349	 
700.0	1.0	0.0	7.65079	7.1726	-9.38777	15.17309	19.91392	1.19726	0.83524	173.64811	171.27778	65.23088	0.33103	 	1.2721499999999998E10	 	3.73362E-10	 	3092.96837	30.96569	 
695.0	1.0	0.0	7.65286	7.17066	-9.41232	15.1474	19.8478	1.19508	0.83677	174.01222	171.49037	65.37475	0.33088	 	1.5061699999999998E10	 	3.1373E-10	 	2938.32669	30.92834	 
690.0	1.0	0.0	7.65493	7.16872	-9.4368	15.12171	19.78166	1.19288	0.83831	174.37567	171.70203	65.5184	0.33074	 	1.78637E10	 	2.63154E-10	 	2783.86939	30.89146	 
685.0	1.0	0.0	7.657	7.16679	-9.46121	15.09602	19.7155	1.19067	0.83986	174.73845	171.91274	65.66183	0.33059	 	2.12247E10	 	2.20332E-10	 	2629.59397	30.85508	 
680.0	1.0	0.0	7.65906	7.16486	-9.48555	15.07033	19.64933	1.18845	0.84143	175.10058	172.12251	65.80504	0.33045	 	2.5263799999999996E10	 	1.8414E-10	 	2475.49778	30.81924	 
675.0	1.0	0.0	7.66111	7.16294	-9.50983	15.04465	19.58314	1.18621	0.84302	175.46205	172.33134	65.94802	0.33031	 	3.0126799999999996E10	 	1.53607E-10	 	2321.57805	30.78395	 
670.0	1.0	0.0	7.66316	7.16103	-9.53404	15.01896	19.51694	1.18395	0.84463	175.82285	172.53924	66.09079	0.33016	 	3.5993E10	 	1.27894E-10	 	2167.8318	30.74925	 
665.0	1.0	0.0	7.66521	7.15912	-9.55818	14.99328	19.45072	1.18169	0.84625	176.183	172.74621	66.23334	0.33002	 	4.30831E10	 	1.0628E-10	 	2014.25594	30.71517	 
660.0	1.0	0.0	7.66725	7.15721	-9.58225	14.9676	19.38448	1.17941	0.84788	176.54249	172.95226	66.37567	0.32987	 	5.166939999999999E10	 	8.81465E-11	 	1860.85548	30.68009	 
655.0	1.0	0.0	7.66928	7.15531	-9.60625	14.94192	19.31823	1.17711	0.84954	176.90132	173.15737	66.51777	0.32973	 	6.208819999999999E10	 	7.29618E-11	 	1707.67664	30.63577	 
650.0	1.0	0.0	7.67131	7.15342	-9.63019	14.91624	19.25195	1.1748	0.85121	177.25949	173.36157	66.65966	0.32959	 	7.47566E10	 	6.02712E-11	 	1554.78074	30.57918	 
645.0	1.0	0.0	7.67334	7.15153	-9.65406	14.89057	19.18566	1.17247	0.8529	177.617	173.56485	66.80132	0.32944	 	9.01919E10	 	4.96858E-11	 	1402.16667	30.52282	 
640.0	1.0	0.0	7.67536	7.14964	-9.67786	14.86489	19.11936	1.17013	0.8546	177.97385	173.76721	66.94277	0.3293	 	1.09038E11	 	4.08743E-11	 	1249.83329	30.46667	 
635.0	1.0	0.0	7.67738	7.14776	-9.70159	14.83922	19.05303	1.16778	0.85633	178.33005	173.96866	67.08399	0.32916	 	1.32098E11	 	3.35542E-11	 	1097.7795	30.41076	 
630.0	1.0	0.0	7.67939	7.14589	-9.72525	14.81355	18.98668	1.16541	0.85807	178.68559	174.1692	67.225	0.32901	 	1.60376E11	 	2.74858E-11	 	946.00419	30.35506	 
625.0	1.0	0.0	7.6814	7.14402	-9.74885	14.78788	18.92031	1.16302	0.85983	179.04047	174.36883	67.36578	0.32887	 	1.95127E11	 	2.24656E-11	 	794.50591	30.29966	 
620.0	1.0	0.0	7.6834	7.14216	-9.77238	14.76221	18.85393	1.16062	0.86161	179.39469	174.56756	67.50634	0.32872	 	2.37931E11	 	1.83215E-11	 	643.28272	30.24464	 
615.0	1.0	0.0	7.6854	7.1403	-9.79584	14.73654	18.78752	1.1582	0.86341	179.74826	174.76538	67.64669	0.32858	 	2.90773E11	 	1.4908E-11	 	492.33395	30.18975	 
610.0	1.0	0.0	7.6874	7.13845	-9.81923	14.71088	18.72109	1.15576	0.86523	180.10117	174.96231	67.78681	0.32844	 	3.56158E11	 	1.21026E-11	 	341.65852	30.13509	 
605.0	1.0	0.0	7.68938	7.13661	-9.84256	14.68521	18.65465	1.15331	0.86707	180.45343	175.15833	67.92672	0.32829	 	4.37254E11	 	9.80215E-12	 	191.25532	30.08064	 
600.0	1.0	0.0	7.69137	7.13476	-9.86581	14.65955	18.58818	1.15085	0.86892	180.80502	175.35347	68.0664	0.32815	 	5.3808E11	 	7.92007E-12	 	41.12326	30.02641	 
595.0	1.0	0.0	7.69335	7.13293	-9.889	14.63389	18.52169	1.14837	0.8708	181.15597	175.54771	68.20586	0.32801	 	6.63738E11	 	6.38388E-12	 	-108.73872	29.9724	 
590.0	1.0	0.0	7.69532	7.1311	-9.91212	14.60823	18.45517	1.14587	0.8727	181.50625	175.74106	68.3451	0.32787	 	8.20736E11	 	5.13298E-12	 	-258.33172	29.9186	 
585.0	1.0	0.0	7.69729	7.12927	-9.93517	14.58257	18.38864	1.14335	0.87462	181.85589	175.93353	68.48412	0.32772	 	1.01738E12	 	4.11686E-12	 	-407.65682	29.86502	 
580.0	1.0	0.0	7.69926	7.12745	-9.95816	14.55692	18.32208	1.14082	0.87656	182.20486	176.12512	68.62293	0.32758	 	1.26432E12	 	3.29347E-12	 	-556.71508	29.81165	 
575.0	1.0	0.0	7.70122	7.12564	-9.98108	14.53126	18.25549	1.13827	0.87853	182.55318	176.31582	68.76151	0.32744	 	1.57523E12	 	2.62793E-12	 	-705.50758	29.7585	 
570.0	1.0	0.0	7.70317	7.12383	-10.00393	14.50561	18.18889	1.1357	0.88051	182.90085	176.50565	68.89987	0.32729	 	1.96773E12	 	2.09135E-12	 	-854.0354	29.70556	 
565.0	1.0	0.0	7.70512	7.12203	-10.02671	14.47996	18.12225	1.13312	0.88252	183.24786	176.6946	69.03801	0.32715	 	2.46455E12	 	1.65986E-12	 	-1002.29959	29.65284	 
560.0	1.0	0.0	7.70707	7.12023	-10.04942	14.45431	18.0556	1.13052	0.88455	183.59422	176.88268	69.17593	0.32701	 	3.09516E12	 	1.31379E-12	 	-1150.30124	29.60033	 
555.0	1.0	0.0	7.70901	7.11844	-10.07207	14.42866	17.98891	1.1279	0.8866	183.93993	177.06988	69.31363	0.32687	 	3.89783E12	 	1.03699E-12	 	-1298.04138	29.54803	 
550.0	1.0	0.0	7.71094	7.11665	-10.09464	14.40301	17.9222	1.12526	0.88868	184.28498	177.25623	69.45111	0.32672	 	4.92244E12	 	8.16179E-13	 	-1445.52108	29.49594	 
545.0	1.0	0.0	7.71288	7.11487	-10.11715	14.37737	17.85547	1.12261	0.89078	184.62938	177.4417	69.58837	0.32658	 	6.23413E12	 	6.40536E-13	 	-1592.74138	29.44406	 
540.0	1.0	0.0	7.7148	7.11309	-10.13959	14.35172	17.78871	1.11993	0.89291	184.97312	177.62631	69.72541	0.32644	 	7.91833E12	 	5.01215E-13	 	-1739.70335	29.39239	 
535.0	1.0	0.0	7.71672	7.11132	-10.16197	14.32608	17.72192	1.11724	0.89506	185.31621	177.81007	69.86223	0.3263	 	1.00873E13	 	3.91023E-13	 	-1886.40801	29.34093	 
530.0	1.0	0.0	7.71864	7.10956	-10.18428	14.30044	17.6551	1.11453	0.89724	185.65865	177.99296	69.99883	0.32616	 	1.28893E13	 	3.04127E-13	 	-2032.85643	29.28968	 
525.0	1.0	0.0	7.72055	7.1078	-10.20651	14.2748	17.58825	1.1118	0.89944	186.00044	178.175	70.13521	0.32601	 	1.65201E13	 	2.35807E-13	 	-2179.04963	29.23864	 
520.0	1.0	0.0	7.72246	7.10604	-10.22868	14.24916	17.52137	1.10906	0.90167	186.34157	178.35619	70.27136	0.32587	 	2.12402E13	 	1.82257E-13	 	-2324.98864	29.1878	 
515.0	1.0	0.0	7.72436	7.10429	-10.25079	14.22353	17.45446	1.10629	0.90392	186.68205	178.53652	70.4073	0.32573	 	2.7396E13	 	1.40413E-13	 	-2470.6745	29.13717	 
510.0	1.0	0.0	7.72626	7.10255	-10.27282	14.19789	17.38752	1.1035	0.90621	187.02188	178.71601	70.54302	0.32559	 	3.5451E13	 	1.07821E-13	 	-2616.10821	29.08674	 
505.0	1.0	0.0	7.72815	7.10081	-10.29479	14.17226	17.32055	1.1007	0.90852	187.36106	178.89466	70.67851	0.32545	 	4.60265E13	 	8.25168E-14	 	-2761.29082	29.03652	 
500.0	1.0	0.0	7.73004	7.09907	-10.31669	14.14663	17.25355	1.09787	0.91085	187.69958	179.07246	70.81379	0.3253	 	5.99589E13	 	6.29357E-14	 	-2906.22333	28.9865	 
495.0	1.0	0.0	7.73192	7.09735	-10.33852	14.121	17.18652	1.09503	0.91322	188.03745	179.24942	70.94884	0.32516	 	7.83781E13	 	4.78342E-14	 	-3050.90675	28.93669	 
490.0	1.0	0.0	7.7338	7.09562	-10.36028	14.09537	17.11945	1.09216	0.91562	188.37468	179.42555	71.08368	0.32502	 	1.02816E14	 	3.62274E-14	 	-3195.34208	28.88707	 
485.0	1.0	0.0	7.73567	7.09391	-10.38198	14.06974	17.05234	1.08927	0.91804	188.71125	179.60084	71.21829	0.32488	 	1.3535699999999998E14	 	2.73377E-14	 	-3339.53034	28.83765	 
480.0	1.0	0.0	7.73754	7.09219	-10.40361	14.04412	16.98521	1.08637	0.9205	189.04717	179.77529	71.35269	0.32474	 	1.78848E14	 	2.05534E-14	 	-3483.4725	28.78843	 
475.0	1.0	0.0	7.7394	7.09049	-10.42517	14.01849	16.91803	1.08344	0.92299	189.38244	179.94892	71.48686	0.3246	 	2.37196E14	 	1.53946E-14	 	-3627.16956	28.73941	 
470.0	1.0	0.0	7.74126	7.08879	-10.44666	13.99287	16.85082	1.08049	0.9255	189.71706	180.12172	71.62081	0.32445	 	3.15778E14	 	1.14863E-14	 	-3770.6225	28.69059	 
465.0	1.0	0.0	7.74311	7.08709	-10.46809	13.96725	16.78357	1.07752	0.92805	190.05103	180.29369	71.75455	0.32431	 	4.22025E14	 	8.53677E-15	 	-3913.8323	28.64196	 
460.0	1.0	0.0	7.74496	7.0854	-10.48944	13.94163	16.71629	1.07453	0.93064	190.38434	180.46483	71.88806	0.32417	 	5.66255E14	 	6.31927E-15	 	-4056.79992	28.59353	 
455.0	1.0	0.0	7.7468	7.08371	-10.51073	13.91601	16.64896	1.07152	0.93325	190.71701	180.63516	72.02135	0.32403	 	7.62852E14	 	4.65873E-15	 	-4199.52634	28.54528	 
450.0	1.0	0.0	7.74864	7.08203	-10.53196	13.8904	16.5816	1.06848	0.93591	191.04903	180.80467	72.15442	0.32389	 	1.03195E15	 	3.42024E-15	 	-4342.01252	28.49724	 
445.0	1.0	0.0	7.75047	7.08036	-10.55311	13.86478	16.51419	1.06543	0.93859	191.3804	180.97336	72.28727	0.32375	 	1.40186E15	 	2.50034E-15	 	-4484.2594	28.44938	 
440.0	1.0	0.0	7.7523	7.07869	-10.5742	13.83917	16.44674	1.06235	0.94131	191.71112	181.14124	72.4199	0.32361	 	1.91255E15	 	1.81993E-15	 	-4626.26793	28.40171	 
435.0	1.0	0.0	7.75412	7.07703	-10.59521	13.81356	16.37925	1.05925	0.94407	192.04119	181.3083	72.5523	0.32347	 	2.62077E15	 	1.31881E-15	 	-4768.03903	28.35422	 
430.0	1.0	0.0	7.75594	7.07537	-10.61617	13.78795	16.31171	1.05612	0.94686	192.37061	181.47456	72.68449	0.32333	 	3.60737E15	 	9.51358E-16	 	-4909.57366	28.30692	 
425.0	1.0	0.0	7.75775	7.07372	-10.63705	13.76234	16.24413	1.05298	0.94969	192.69938	181.64001	72.81646	0.32319	 	4.98815E15	 	6.83118E-16	 	-5050.8726	28.25979	 
420.0	1.0	0.0	7.75956	7.07207	-10.65786	13.73673	16.17651	1.0498	0.95256	193.02751	181.80465	72.9482	0.32304	 	6.92978E15	 	4.88196E-16	 	-5191.93696	28.21287	 
415.0	1.0	0.0	7.76136	7.07043	-10.67861	13.71113	16.10884	1.04661	0.95547	193.35498	181.96849	73.07973	0.3229	 	9.67328E15	 	3.47213E-16	 	-5332.76716	28.16604	 
410.0	1.0	0.0	7.76316	7.06879	-10.69929	13.68552	16.04111	1.04339	0.95841	193.68181	182.13153	73.21103	0.32276	 	1.3569E16	 	2.45728E-16	 	-5473.36339	28.11925	 
405.0	1.0	0.0	7.76495	7.06716	-10.71991	13.65992	15.97334	1.04015	0.9614	194.00798	182.29377	73.34211	0.32262	 	1.91289E16	 	1.7303E-16	 	-5613.72588	28.0725	 
400.0	1.0	0.0	7.76673	7.06553	-10.74045	13.63432	15.90552	1.03688	0.96443	194.33351	182.45522	73.47298	0.32248	 	2.71049E16	 	1.21213E-16	 	-5753.85481	28.02579	 
395.0	1.0	0.0	7.76852	7.06391	-10.76093	13.60872	15.83765	1.03359	0.9675	194.65839	182.61587	73.60362	0.32234	 	3.86074E16	 	8.44675E-17	 	-5893.75036	27.97911	 
390.0	1.0	0.0	7.77029	7.06229	-10.78134	13.58312	15.76973	1.03028	0.97061	194.98263	182.77573	73.73404	0.3222	 	5.52854E16	 	5.85447E-17	 	-6033.41271	27.93247	 
385.0	1.0	0.0	7.77207	7.06068	-10.80168	13.55753	15.70175	1.02694	0.97377	195.30621	182.9348	73.86424	0.32206	 	7.96012E16	 	4.03545E-17	 	-6172.84201	27.88586	 
380.0	1.0	0.0	7.77383	7.05908	-10.82195	13.53193	15.63371	1.02357	0.97697	195.62915	183.09309	73.99421	0.32192	 	1.15253E17	 	2.76597E-17	 	-6312.03844	27.83929	 
375.0	1.0	0.0	7.77559	7.05748	-10.84216	13.50634	15.56562	1.02018	0.98022	195.95144	183.25059	74.12397	0.32178	 	1.67828E17	 	1.88494E-17	 	-6451.00214	27.79274	 
370.0	1.0	0.0	7.77735	7.05589	-10.8623	13.48075	15.49747	1.01676	0.98352	196.27309	183.4073	74.25351	0.32164	 	2.45819E17	 	1.27698E-17	 	-6589.73321	27.74622	 
365.0	1.0	0.0	7.7791	7.0543	-10.88237	13.45516	15.42926	1.01331	0.98686	196.59408	183.56324	74.38282	0.3215	 	3.62212E17	 	8.59898E-18	 	-6728.2318	27.69972	 
360.0	1.0	0.0	7.78085	7.05271	-10.90237	13.42957	15.36099	1.00984	0.99025	196.91443	183.7184	74.51191	0.32136	 	5.36993E17	 	5.75472E-18	 	-6866.498	27.65324	 
355.0	1.0	0.0	7.78259	7.05114	-10.92231	13.40398	15.29265	1.00634	0.9937	197.23414	183.87278	74.64079	0.32122	 	8.01121E17	 	3.82695E-18	 	-7004.53192	27.60678	 
350.0	1.0	0.0	7.78433	7.04956	-10.94218	13.3784	15.22426	1.00282	0.99719	197.55319	184.02638	74.76944	0.32108	 	1.20286E18	 	2.52851E-18	 	-7142.33361	27.56034	 
345.0	1.0	0.0	7.78606	7.048	-10.96198	13.35281	15.15579	0.99927	1.00073	197.8716	184.17921	74.89787	0.32094	 	1.81797E18	 	1.65956E-18	 	-7279.90317	27.51391	 
340.0	1.0	0.0	7.78778	7.04643	-10.98171	13.32723	15.08726	0.99569	1.00433	198.18937	184.33128	75.02607	0.3208	 	2.76621E18	 	1.08185E-18	 	-7417.24064	27.46749	 
335.0	1.0	0.0	7.78951	7.04488	-11.00138	13.30165	15.01865	0.99208	1.00799	198.50648	184.48257	75.15406	0.32066	 	4.23819E18	 	7.00354E-19	 	-7554.34605	27.42108	 
330.0	1.0	0.0	7.79122	7.04333	-11.02097	13.27607	14.94998	0.98844	1.01169	198.82296	184.6331	75.28183	0.32052	 	6.53955E18	 	4.50157E-19	 	-7691.21943	27.37468	 
325.0	1.0	0.0	7.79293	7.04178	-11.04051	13.25049	14.88123	0.98478	1.01546	199.13878	184.78287	75.40937	0.32038	 	1.0164E19	 	2.87232E-19	 	-7827.86078	27.32827	 
320.0	1.0	0.0	7.79464	7.04024	-11.05997	13.22492	14.81241	0.98108	1.01928	199.45396	184.93187	75.53669	0.32025	 	1.59151E19	 	1.81904E-19	 	-7964.27008	27.28186	 
315.0	1.0	0.0	7.79634	7.0387	-11.07936	13.19934	14.74351	0.97736	1.02317	199.76849	185.08012	75.66379	0.32011	 	2.51111E19	 	1.14316E-19	 	-8100.44731	27.23545	 
310.0	1.0	0.0	7.79803	7.03717	-11.09869	13.17377	14.67453	0.9736	1.02711	200.08238	185.2276	75.79067	0.31997	 	3.99318E19	 	7.12767E-20	 	-8236.39243	27.18902	 
305.0	1.0	0.0	7.79972	7.03565	-11.11795	13.1482	14.60546	0.96982	1.03112	200.39562	185.37433	75.91733	0.31983	 	6.40113E19	 	4.4083E-20	 	-8372.10536	27.14258	 
300.0	1.0	0.0	7.80141	7.03413	-11.13714	13.12263	14.53632	0.96601	1.03519	200.70822	185.52031	76.04376	0.31969	 	1.03459E20	 	2.70387E-20	 	-8507.586	27.09613	 
295.0	1.0	0.0	7.80309	7.03262	-11.15627	13.09706	14.46708	0.96216	1.03933	201.02017	185.66554	76.16998	0.31955	 	1.68637E20	 	1.64436E-20	 	-8642.83426	27.04965	 
290.0	1.0	0.0	7.80476	7.03111	-11.17533	13.07149	14.39776	0.95829	1.04353	201.33148	185.81001	76.29597	0.31941	 	2.7726999999999997E20	 	9.91305E-21	 	-8777.85001	27.00315	 
285.0	1.0	0.0	7.80643	7.0296	-11.19432	13.04593	14.32834	0.95438	1.0478	201.64214	185.95374	76.42174	0.31927	 	4.5996299999999997E20	 	5.92263E-21	 	-8912.63309	26.95662	 
280.0	1.0	0.0	7.80809	7.02811	-11.21324	13.02036	14.25883	0.95044	1.05214	201.95216	186.09672	76.54729	0.31913	 	7.700469999999999E20	 	3.50601E-21	 	-9047.18333	26.91005	 
275.0	1.0	0.0	7.80975	7.02661	-11.23209	12.9948	14.18923	0.94647	1.05656	202.26154	186.23896	76.67262	0.31899	 	1.30135E21	 	2.05586E-21	 	-9181.50051	26.86344	 
270.0	1.0	0.0	7.8114	7.02513	-11.25088	12.96924	14.11952	0.94247	1.06105	202.57026	186.38046	76.79772	0.31886	 	2.2205800000000001E21	 	1.19383E-21	 	-9315.58442	26.81678	 
265.0	1.0	0.0	7.81305	7.02364	-11.2696	12.94368	14.04971	0.93843	1.06561	202.87835	186.52122	76.9226	0.31872	 	3.82693E21	 	6.86341E-22	 	-9449.43479	26.77008	 
260.0	1.0	0.0	7.81469	7.02217	-11.28825	12.91812	13.9798	0.93436	1.07025	203.18579	186.66124	77.04727	0.31858	 	6.66297E21	 	3.90542E-22	 	-9583.05135	26.72331	 
255.0	1.0	0.0	7.81633	7.0207	-11.30684	12.89257	13.90977	0.93026	1.07497	203.49258	186.80052	77.1717	0.31844	 	1.17232E22	 	2.19886E-22	 	-9716.43377	26.67648	 
250.0	1.0	0.0	7.81796	7.01923	-11.32536	12.86701	13.83963	0.92612	1.07977	203.79873	186.93907	77.29592	0.3183	 	2.0850399999999997E22	 	1.22461E-22	 	-9849.58171	26.62959	 
245.0	1.0	0.0	7.81959	7.01777	-11.34381	12.84146	13.76938	0.92195	1.08466	204.10424	187.07689	77.41992	0.31816	 	3.7497999999999997E22	 	6.74425E-23	 	-9982.49479	26.58262	 
240.0	1.0	0.0	7.82121	7.01632	-11.36219	12.81591	13.69901	0.91774	1.08963	204.40911	187.21398	77.54369	0.31803	 	6.821349999999999E22	 	3.67165E-23	 	-10115.1726	26.53556	 
235.0	1.0	0.0	7.82283	7.01487	-11.3805	12.79036	13.62851	0.9135	1.09469	204.71333	187.35034	77.66724	0.31789	 	1.25558E23	 	1.9753E-23	 	-10247.6147	26.48842	 
230.0	1.0	0.0	7.82444	7.01342	-11.39875	12.76481	13.55789	0.90923	1.09984	205.0169	187.48598	77.79057	0.31775	 	2.33931E23	 	1.04978E-23	 	-10379.82057	26.44117	 
225.0	1.0	0.0	7.82605	7.01198	-11.41693	12.73926	13.48713	0.90491	1.10508	205.31984	187.62089	77.91367	0.31761	 	4.4131999999999996E23	 	5.50925E-24	 	-10511.78972	26.39383	 
220.0	1.0	0.0	7.82765	7.01055	-11.43504	12.71371	13.41624	0.90056	1.11042	205.62213	187.75508	78.03656	0.31747	 	8.43356E23	 	2.85401E-24	 	-10643.52156	26.34637	 
215.0	1.0	0.0	7.82924	7.00912	-11.45309	12.68817	13.34521	0.89618	1.11585	205.92377	187.88855	78.15922	0.31734	 	1.63316E24	 	1.45885E-24	 	-10775.01547	26.29878	 
210.0	1.0	0.0	7.83083	7.0077	-11.47107	12.66263	13.27403	0.89175	1.12138	206.22478	188.02129	78.28166	0.3172	 	3.20618E24	 	7.35497E-25	 	-10906.27082	26.25107	 
205.0	1.0	0.0	7.83242	7.00628	-11.48898	12.63709	13.2027	0.88729	1.12702	206.52514	188.15333	78.40387	0.31706	 	6.38372E24	 	3.65576E-25	 	-11037.28687	26.20321	 
200.0	1.0	0.0	7.834	7.00487	-11.50682	12.61155	13.13122	0.88279	1.13277	206.82485	188.28464	78.52587	0.31692	 	1.28968E25	 	1.79063E-25	 	-11168.06288	26.1552	 
195.0	1.0	0.0	7.83557	7.00346	-11.52459	12.58601	13.05958	0.87826	1.13862	207.12393	188.41525	78.64764	0.31678	 	2.6449100000000003E25	 	8.63894E-26	 	-11298.59802	26.10703	 
190.0	1.0	0.0	7.83714	7.00206	-11.5423	12.56047	12.98777	0.87368	1.14458	207.42236	188.54514	78.76918	0.31665	 	5.5090500000000005E25	 	4.10328E-26	 	-11428.89144	26.05868	 
185.0	1.0	0.0	7.8387	7.00066	-11.55994	12.53494	12.91579	0.86907	1.15066	207.72015	188.67433	78.89051	0.31651	 	1.166E26	 	1.91777E-26	 	-11558.94221	26.01015	 
180.0	1.0	0.0	7.84026	6.99927	-11.57752	12.50941	12.84363	0.86441	1.15686	208.01729	188.8028	79.01161	0.31637	 	2.5090300000000002E26	 	8.81503E-27	 	-11688.74932	25.96142	 
175.0	1.0	0.0	7.84181	6.99789	-11.59502	12.48387	12.77129	0.85972	1.16318	208.3138	188.93058	79.13249	0.31623	 	5.4921E26	 	3.98265E-27	 	-11818.31172	25.91248	 
170.0	1.0	0.0	7.84336	6.9965	-11.61246	12.45834	12.69876	0.85498	1.16962	208.60966	189.05764	79.25315	0.3161	 	1.22363E27	 	1.76762E-27	 	-11947.62826	25.86331	 
165.0	1.0	0.0	7.8449	6.99513	-11.62983	12.43282	12.62603	0.8502	1.17619	208.90488	189.18401	79.37359	0.31596	 	2.77651E27	 	7.70211E-28	 	-12076.69777	25.8139	 
160.0	1.0	0.0	7.84644	6.99376	-11.64713	12.40729	12.5531	0.84538	1.1829	209.19946	189.30967	79.4938	0.31582	 	6.420469999999999E27	 	3.29275E-28	 	-12205.51894	25.76423	 
155.0	1.0	0.0	7.84797	6.9924	-11.66437	12.38176	12.47995	0.84052	1.18974	209.49339	189.43464	79.61379	0.31569	 	1.5140400000000001E28	 	1.38021E-28	 	-12334.09042	25.7143	 
150.0	1.0	0.0	7.84949	6.99104	-11.68154	12.35624	12.40658	0.83562	1.19672	209.78669	189.55891	79.73355	0.31555	 	3.64343E28	 	5.66853E-29	 	-12462.41074	25.66406	 
145.0	1.0	0.0	7.85101	6.98968	-11.69864	12.33072	12.33299	0.83067	1.20384	210.07934	189.68248	79.85309	0.31541	 	8.95377E28	 	2.27936E-29	 	-12590.47836	25.61352	 
140.0	1.0	0.0	7.85253	6.98833	-11.71568	12.3052	12.25915	0.82568	1.21112	210.37135	189.80536	79.97241	0.31527	 	2.24881E29	 	8.96689E-30	 	-12718.29163	25.56265	 
135.0	1.0	0.0	7.85404	6.98699	-11.73264	12.27968	12.18507	0.82065	1.21855	210.66272	189.92755	80.09151	0.31514	 	5.77695E29	 	3.44832E-30	 	-12845.84879	25.51143	 
130.0	1.0	0.0	7.85554	6.98565	-11.74954	12.25416	12.11073	0.81557	1.22613	210.95344	190.04906	80.21038	0.315	 	1.51917E30	 	1.29523E-30	 	-12973.148	25.45984	 
125.0	1.0	0.0	7.85704	6.98432	-11.76637	12.22864	12.03612	0.81045	1.23388	211.24353	190.16987	80.32903	0.31486	 	4.0932E30	 	4.74755E-31	 	-13100.18723	25.40785	 
120.0	1.0	0.0	7.85853	6.98299	-11.78314	12.20313	11.96124	0.80528	1.2418	211.53297	190.28999	80.44746	0.31473	 	1.13101E31	 	1.69659E-31	 	-13226.96442	25.35544	 
115.0	1.0	0.0	7.86002	6.98167	-11.79984	12.17762	11.88606	0.80007	1.24989	211.82178	190.40944	80.56566	0.31459	 	3.20808E31	 	5.90529E-32	 	-13353.4773	25.30257	 
110.0	1.0	0.0	7.8615	6.98036	-11.81647	12.1521	11.81058	0.79481	1.25816	212.10994	190.5282	80.68364	0.31445	 	9.35058E31	 	1.99994E-32	 	-13479.72347	25.24924	 
105.0	1.0	0.0	7.86298	6.97905	-11.83303	12.12659	11.73479	0.7895	1.26662	212.39746	190.64627	80.80139	0.31432	 	2.80362E32	 	6.58313E-33	 	-13605.70043	25.19539	 
100.0	1.0	0.0	7.86445	6.97774	-11.84952	12.10108	11.65867	0.78415	1.27526	212.68434	190.76367	80.91893	0.31418	 	8.657219999999999E32	 	2.10374E-33	 	-13731.40544	25.141	 
95.0	1.0	0.0	7.86592	6.97644	-11.86595	12.07558	11.5822	0.77875	1.2841	212.97058	190.88039	81.03624	0.31405	 	2.75638E33	 	6.51888E-34	 	-13856.83564	25.08604	 
90.0	1.0	0.0	7.86738	6.97514	-11.88231	12.05007	11.50538	0.77331	1.29315	213.25617	190.99644	81.15332	0.31391	 	9.06043E33	 	1.95625E-34	 	-13981.98797	25.03047	 
85.0	1.0	0.0	7.86883	6.97385	-11.89861	12.02457	11.42818	0.76781	1.3024	213.54113	191.11181	81.27018	0.31377	 	3.07885E34	 	5.67757E-35	 	-14106.85916	24.97424	 
80.0	1.0	0.0	7.87028	6.97257	-11.91483	11.99907	11.35059	0.76227	1.31188	213.82545	191.22651	81.38682	0.31364	 	1.0831099999999999E35	 	1.59138E-35	 	-14231.44574	24.91732	 
75.0	1.0	0.0	7.87173	6.97129	-11.93099	11.97356	11.27259	0.75667	1.32157	214.10912	191.34053	81.50323	0.3135	 	3.95045E35	 	4.30137E-36	 	-14355.74401	24.85965	 
70.0	1.0	0.0	7.87317	6.97002	-11.94708	11.94807	11.19416	0.75103	1.3315	214.39216	191.45389	81.61942	0.31336	 	1.49623E36	 	1.11937E-36	 	-14479.75002	24.8012	 
65.0	1.0	0.0	7.8746	6.96875	-11.96311	11.92257	11.11528	0.74534	1.34167	214.67455	191.56658	81.73539	0.31323	 	5.89457E36	 	2.79991E-37	 	-14603.45958	24.74191	 
60.0	1.0	0.0	7.87603	6.96749	-11.97907	11.89707	11.03593	0.7396	1.35208	214.95631	191.67861	81.85113	0.31309	 	2.4198E37	 	6.71965E-38	 	-14726.86816	24.68172	 
55.0	1.0	0.0	7.87745	6.96623	-11.99496	11.87158	10.95608	0.73381	1.36275	215.23742	191.78997	81.96665	0.31296	 	1.03705E38	 	1.5444E-38	 	-14849.97101	24.62057	 
50.0	1.0	0.0	7.87887	6.96498	-12.01078	11.84608	10.87571	0.72797	1.37369	215.5179	191.90067	82.08194	0.31282	 	4.6491599999999995E38	 	3.39247E-39	 	-14972.76297	24.55839	 
45.0	1.0	0.0	7.88028	6.96373	-12.02653	11.82059	10.7948	0.72208	1.38489	215.79773	192.0107	82.19701	0.31269	 	2.1849E39	 	7.10702E-40	 	-15095.2386	24.49513	 
40.0	1.0	0.0	7.88168	6.96249	-12.04222	11.7951	10.71331	0.71613	1.39639	216.07693	192.12008	82.31186	0.31255	 	1.07882E40	 	1.41674E-40	 	-15217.39201	24.43068	 
35.0	1.0	0.0	7.88308	6.96125	-12.05784	11.76961	10.63122	0.71014	1.40817	216.35548	192.2288	82.42648	0.31241	 	5.61013E40	 	2.68087E-41	 	-15339.21695	24.36499	 
30.0	1.0	0.0	7.88448	6.96002	-12.0734	11.74413	10.54849	0.7041	1.42026	216.6334	192.33686	82.54087	0.31228	 	3.0804600000000003E41	 	4.80317E-42	 	-15460.70669	24.29795	 
25.0	1.0	0.0	7.88587	6.95879	-12.08888	 	10.46509	0.698	1.43266	216.91067	192.44427	82.65504	0.31214	 	1.79088E42	 	8.12559E-43	 	-15581.85406	 	 
