T (C)	Fraction solid (wt)-TOTAL	Fraction liquid (wt)-LIQUID	Density (g/(cm)^3)-TOTAL	Molar volume (cm^3)-TOTAL	Volume change (%)-  	Average expansion coeff. (10e-6 1/K)-  	Thermal conductivity (W/(m*K))-TOTAL	Electrical resistivity (10e-6 Ohm*m)-TOTAL	Electrical conductivity (10e6 1/(Ohm*m))-TOTAL	Young's modulus (GPa)-TOTAL	Bulk modulus (GPa)-TOTAL	Shear modulus(GPa)-TOTAL	Poisson's ratio-TOTAL	Liquid viscosity (mPa s)-  	Total viscosity (mPa s)-  	Liquid diffusivity (10e-9 (m^2)/s)-  	Total diffusivity (10e-9 (m^2)/s)-  	Surface Tension (mN/m)-  	Enthalpy (J/mole)-TOTAL	Specific heat (J/(mole K))-TOTAL	Latent heat (J/mole)-TOTAL
1400.0	0.0	1.0	7.25278	7.9244	0.0	31.62877	28.75942	1.42535	0.70158	0.0	122.84354	0.0	0.5	7.01052	7.01052	1.16485	1.16485	1757.31381	45811.704	 	0.0
1395.0	0.0	1.0	7.25674	7.92007	-0.0546132	31.59398	28.67929	1.42506	0.70173	0.0	122.98862	0.0	0.5	7.08596	7.08596	1.14901	1.14901	1759.94934	45608.339	40.673	0.0
1390.0	0.0	1.0	7.2607	7.91576	-0.10907	31.55938	28.59916	1.42477	0.70187	0.0	123.13371	0.0	0.5	7.16266	7.16266	1.1333	1.1333	1762.61992	45405.439	40.58	0.0
1385.0	0.0	1.0	7.26465	7.91146	-0.16337	31.52495	28.51903	1.42448	0.70201	0.0	123.27879	0.0	0.5	7.24067	7.24067	1.11772	1.11772	1765.32609	45203.002	40.4874	0.0
1380.0	0.0	1.0	7.26859	7.90717	-0.21752	31.4907	28.43889	1.42418	0.70216	0.0	123.42388	0.0	0.5	7.32001	7.32001	1.10227	1.10227	1768.06841	45001.024	40.3956	0.0
1375.0	0.0	1.0	7.27253	7.90289	-0.27151	31.45663	28.35876	1.42389	0.7023	0.0	123.56896	0.0	0.5	7.4007	7.4007	1.08695	1.08695	1770.84738	44799.503	40.3042	0.0
1370.0	0.0	1.0	7.27645	7.89862	-0.32534	31.42274	28.27863	1.42359	0.70245	0.0	123.71405	0.0	0.5	7.48279	7.48279	1.07177	1.07177	1773.66353	44598.437	40.2132	0.0
1365.0	0.0	1.0	7.28038	7.89437	-0.37902	31.38904	28.1985	1.42329	0.7026	0.0	123.85913	0.0	0.5	7.56629	7.56629	1.05671	1.05671	1776.51735	44397.823	40.1228	0.0
1360.0	0.0	1.0	7.28429	7.89013	-0.43254	31.35553	28.11837	1.42299	0.70275	0.0	124.00422	0.0	0.5	7.65125	7.65125	1.04179	1.04179	1779.40933	44197.659	40.0328	0.0
1355.0	0.0	1.0	7.2882	7.8859	-0.48591	31.32221	28.03824	1.42269	0.70289	0.0	124.1493	0.0	0.5	7.73769	7.73769	1.027	1.027	1782.33992	43997.942	39.9434	0.0
1350.0	0.0	1.0	7.29209	7.88168	-0.53912	31.28907	27.95811	1.42238	0.70304	0.0	124.29439	0.0	0.5	7.82565	7.82565	1.01234	1.01234	1785.30959	43798.671	39.8542	0.0
1345.0	0.0	1.0	7.29599	7.87748	-0.59218	31.25613	27.87798	1.42208	0.7032	0.0	124.43948	0.0	0.5	7.91516	7.91516	0.99781	0.99781	1788.31875	43599.843	39.7656	0.0
1340.0	0.0	1.0	7.29987	7.87328	-0.64508	31.22339	27.79785	1.42177	0.70335	0.0	124.58456	0.0	0.5	8.00626	8.00626	0.9834	0.9834	1791.36782	43401.455	39.6776	0.0
1335.0	0.0	1.0	7.30375	7.8691	-0.69782	31.19085	27.71772	1.42146	0.7035	0.0	124.72965	0.0	0.5	8.09899	8.09899	0.96913	0.96913	1794.45718	43203.506	39.5898	0.0
1330.0	0.0	1.0	7.30762	7.86494	-0.75041	31.1585	27.63759	1.42115	0.70366	0.0	124.87473	0.0	0.5	8.19337	8.19337	0.95499	0.95499	1797.5872	43005.992	39.5028	0.0
1328.72	0.0	1.0	7.30861	7.86387	-0.76388	31.15023	27.61702	1.42107	0.70369	0.0	124.91197	0.0	0.5	8.21787	8.21787	0.95138	0.95138	1798.39718	42955.366	39.44801	0.0
1325.0	0.10606	0.89394	7.33877	7.83158	-1.17135	30.05818	27.92542	1.40212	0.71321	0.0119384	126.16514	0.00401643	0.48619	8.28947	13.4614	0.94097	0.57945	1797.18836	41310.32	442.61645	1498.591
1320.0	0.22832	0.77168	7.37402	7.79405	-1.64489	28.79631	28.28352	1.38003	0.72462	0.26248	127.62277	0.0892745	0.47005	8.38801	101.0185	0.92701	0.0769737	1795.67589	39399.293	382.2054	3212.968
1315.0	0.32954	0.67046	7.40376	7.76278	-2.0395	27.75524	28.58083	1.36139	0.73454	1.16217	128.8644	0.39896	0.45651	8.48929	426.58611	0.91308	0.0181707	1794.29079	37796.448	320.569	4619.594
1310.0	0.41404	0.58596	7.42908	7.73635	-2.37305	26.8851	28.82922	1.34541	0.74327	2.94711	129.9366	1.01972	0.44506	8.59327	1109.96436	0.89919	0.00696145	1793.03167	36438.01	271.6876	5782.24
1305.0	0.48513	0.51487	7.45082	7.71381	-2.65756	26.15256	29.03699	1.33157	0.751	5.64101	130.87648	1.96508	0.43531	8.69996	2211.65417	0.88536	0.00348271	1791.89526	35275.008	232.6004	6749.874
1300.0	0.54535	0.45465	7.46965	7.6944	-2.90252	25.53113	29.21	1.31949	0.75787	9.13127	131.71127	3.19955	0.42696	8.80956	3747.72152	0.87157	0.00204875	1790.87807	34269.499	201.1018	7560.436
1295.0	0.5967	0.4033	7.48609	7.67753	-3.11533	25.00022	29.35307	1.30888	0.76401	13.24738	132.46224	4.66533	0.41977	8.92208	5709.95755	0.85784	0.00134042	1789.97616	33391.838	175.5322	8243.571
1290.0	0.64072	0.35928	7.50055	7.66275	-3.3019	24.54328	29.47011	1.29953	0.76951	17.808	133.14543	6.29912	0.41353	9.03759	8079.22944	0.84418	9.44316E-4	1789.18548	32618.678	154.632	8822.624
1285.0	0.67867	0.32133	7.51338	7.64968	-3.46678	24.14756	29.56447	1.29123	0.77445	22.64624	133.77389	8.04144	0.4081	9.1562	10833.78621	0.83058	7.01965E-4	1788.50193	31931.495	137.4366	9316.115
1280.0	0.71157	0.28843	7.52482	7.63809	-3.61308	23.80451	29.63902	1.28385	0.7789	27.61994	134.35784	9.84078	0.40334	9.27799	13953.96313	0.81705	5.43254E-4	1787.92035	31315.487	123.2016	9738.845
1275.0	0.74019	0.25981	7.53511	7.62768	-3.74436	23.50395	29.69627	1.27725	0.78293	32.62111	134.90468	11.65743	0.39916	9.40303	17427.3437	0.80359	4.33579E-4	1787.43732	30758.751	111.3472	10102.714
1270.0	0.76523	0.23477	7.54442	7.61828	-3.863	23.23927	29.73839	1.27133	0.78658	37.56419	135.42067	13.45949	0.39545	9.53137	21245.59372	0.7902	3.54508E-4	1787.04879	30251.65	101.4202	10417.358
1265.0	0.78722	0.21278	7.55289	7.60977	-3.97045	23.00644	29.76722	1.26598	0.7899	42.38538	135.91127	15.22277	0.39217	9.66319	25406.23181	0.7769	2.95492E-4	1786.7498	29786.34	93.062	10690.618
1260.0	0.8066	0.1934	7.56064	7.60198	-4.06867	22.79988	29.78453	1.26113	0.79294	47.04955	136.38054	16.93355	0.38924	9.79848	29917.84762	0.76368	2.50116E-4	1786.53682	29356.395	85.989	10928.918
1255.0	0.82375	0.17625	7.56778	7.59481	-4.15917	22.61534	29.79161	1.25672	0.79572	51.52479	136.83114	18.57933	0.38662	9.93739	34788.10697	0.75055	2.14399E-4	1786.40668	28956.526	79.9738	11137.545
1250.0	0.83898	0.16102	7.5744	7.5882	-4.24258	22.45106	29.78974	1.25269	0.79829	55.79664	137.26643	20.15399	0.38426	10.07997	40034.45596	0.73751	1.85693E-4	1786.35445	28582.356	74.834	11320.873
1245.0	0.85255	0.14745	7.58056	7.58205	-4.32025	22.30317	29.77998	1.24898	0.80065	59.85912	137.6882	21.65469	0.38213	10.22637	45678.59144	0.72457	1.62214E-4	1786.37778	28230.246	70.422	11482.541
1240.0	0.86468	0.13532	7.58632	7.57628	-4.39308	22.16906	29.76329	1.24557	0.80285	63.71197	138.09816	23.08075	0.3802	10.37664	51747.51061	0.71172	1.42718E-4	1786.47388	27897.154	66.6184	11625.587
1235.0	0.87557	0.12443	7.59173	7.57087	-4.46125	22.04838	29.74041	1.24241	0.80489	67.35758	138.49817	24.43251	0.37844	10.53091	58271.46435	0.69898	1.26321E-4	1786.6382	27580.527	63.3254	11752.563
1230.0	0.88535	0.11465	7.59684	7.56577	-4.52563	21.93853	29.71205	1.23947	0.8068	70.80331	138.88916	25.71228	0.37684	10.68922	65287.71993	0.68635	1.12372E-4	1786.8687	27278.214	60.4626	11865.617
1225.0	0.89419	0.10581	7.60169	7.56096	-4.58639	21.83917	29.67882	1.23673	0.80858	74.05633	139.2726	26.92229	0.37537	10.85175	72836.48441	0.67382	1.00391E-4	1787.16131	26988.394	57.964	11966.569
1221.22	0.90028	0.0997208	7.60519	7.55747	-4.63043	21.76951	29.65061	1.23478	0.80986	76.38985	139.55806	27.79139	0.37434	10.97757	78925.45668	0.66441	9.24116E-5	1787.4222	26776.684	 	12035.565
1220.0	0.90262	0.0973774	7.60634	7.5563	-4.64519	21.74512	29.64321	1.23408	0.81032	77.29465	139.65912	28.1286	0.37395	11.0204	81134.84179	0.66129	8.9822E-5	1787.61414	26703.006	57.0776	12063.476
1215.0	0.91179	0.0882057	7.61096	7.55162	-4.70428	21.64939	29.61051	1.23131	0.81214	80.92424	140.0677	29.48263	0.37241	11.19872	90705.06372	0.64858	8.00759E-5	1788.43385	26406.388	59.3236	12172.0
1210.0	0.91994	0.0800551	7.61533	7.54718	-4.76025	21.56275	29.57274	1.22874	0.81384	84.30364	140.46449	30.74523	0.371	11.38035	100975.752	0.63609	7.16894E-5	1789.28067	26123.102	56.6572	12267.577
1205.0	0.92723	0.0727674	7.61949	7.54295	-4.81366	21.48353	29.53056	1.22635	0.81543	87.451	140.851	31.92278	0.36973	11.56538	112009.8773	0.6238	6.44093E-5	1790.15369	25851.281	54.3642	12352.07
1200.0	0.93377	0.0662347	7.62347	7.5389	-4.86472	21.41121	29.48448	1.22411	0.81692	90.38619	141.22879	33.02236	0.36856	11.7538	123882.8957	0.61172	5.80393E-5	1791.04978	25589.373	52.3816	12427.03
1195.0	0.93964	0.0603562	7.6273	7.535	-4.91393	21.34424	29.435	1.222	0.81833	93.12843	141.59871	34.05092	0.36749	11.94571	136675.6537	0.59985	5.24283E-5	1791.9687	25336.077	50.6592	12493.756
1194.79	0.93987	0.0601256	7.62745	7.53484	-4.91594	21.34161	29.43278	1.22192	0.81838	93.23838	141.61421	34.09218	0.36745	11.95397	137237.0949	0.59935	5.22063E-5	1792.00757	25325.554	 	12496.361
1190.0	0.94501	0.0549863	7.63129	7.53082	-4.96673	21.26505	29.36647	1.22068	0.81921	95.79262	142.01374	35.05116	0.36647	12.21466	150577.6584	0.58465	4.74258E-5	1793.49072	25072.149	52.7856	12571.491
1185.0	0.94988	0.0501232	7.63512	7.52679	-5.01762	21.1914	29.29697	1.2194	0.82008	98.29355	142.41885	35.99115	0.36552	12.4943	165599.1422	0.56961	4.29765E-5	1795.04359	24815.42	51.3458	12642.4
1182.48	0.95213	0.0478684	7.63699	7.52481	-5.04261	21.15619	29.26161	1.21876	0.82051	99.48492	142.61856	36.43931	0.36508	12.63821	173609.1194	0.56215	4.09228E-5	1795.8251	24689.171	 	12675.124
1182.48	0.95213	0.0478684	7.63699	7.52481	-5.04261	21.15619	29.26161	1.21876	0.82051	99.48492	142.61857	36.43931	0.36508	12.63821	173609.1194	0.56215	4.09228E-5	1795.8251	24689.171	 	12675.124
1180.0	0.96349	0.0365128	7.64278	7.51892	-5.11684	20.9594	29.23423	1.21783	0.82114	105.0622	143.26887	38.53565	0.36318	12.68893	188913.8826	0.55895	3.75434E-5	1796.18897	24357.563	91.5714	12914.809
1178.0	0.97031	0.0296883	7.64654	7.51509	-5.16528	20.83743	29.20992	1.21716	0.82158	108.5691	143.69213	39.85587	0.36202	12.72855	200224.5874	0.55644	3.53739E-5	1796.4983	24140.074	 	13058.33
1175.0	0.97815	0.0218504	7.65127	7.51027	-5.22603	20.69276	29.17082	1.21627	0.82218	112.76	144.22236	41.43572	0.36066	12.77668	216302.9511	0.5532	3.26767E-5	1796.64298	23864.733	98.566	13222.561
1170.0	0.98703	0.0129708	7.65751	7.50387	-5.30676	20.51744	29.10041	1.21501	0.82304	117.79828	144.9253	43.33826	0.35906	12.85903	241843.5905	0.54776	2.91248E-5	1797.07749	23495.004	73.9458	13407.58
1165.0	0.99279	0.00721189	7.65684	7.4965	-5.39982	20.29983	28.86152	1.22082	0.81912	121.68225	145.75904	44.80931	0.35778	12.9508	267088.2223	0.54199	2.62807E-5	1799.07938	22997.8473	99.43134	13526.411
1160.0	0.99696	0.00304037	7.66913	7.48846	-5.50125	20.05251	28.5947	1.22793	0.81438	124.98032	146.64422	46.07285	0.35633	13.02237	298593.5933	0.53714	2.3426E-5	1801.08062	22520.62422	95.44462	13613.031
1155.0	1.0	0.0	7.68016	7.48103	-5.595	19.82859	28.34144	1.23458	0.80999	128.17066	147.44008	47.29141	0.35512	 	332308.4023	 	2.09758E-5	 	22075.97119	88.93061	13675.946
1150.0	1.0	0.0	7.68552	7.47582	-5.66083	19.69622	28.10114	1.24077	0.80595	129.20792	148.0255	47.69507	0.35452	 	363755.6675	 	1.90953E-5	 	21742.64021	66.6662	 
1145.0	1.0	0.0	7.69077	7.47072	-5.72514	19.56777	27.87118	1.24662	0.80217	130.21015	148.58704	48.08542	0.35395	 	398467.8891	 	1.73706E-5	 	21399.70602	68.58684	 
1140.0	1.0	0.0	7.6959	7.46574	-5.78801	19.44305	27.65093	1.25212	0.79865	131.18	149.12719	48.46344	0.35339	 	436809.6165	 	1.579E-5	 	21063.9893	67.14334	 
1135.0	1.0	0.0	7.70092	7.46086	-5.8495	19.32189	27.4398	1.25729	0.79536	132.1196	149.6479	48.82992	0.35286	 	479188.5776	 	1.43426E-5	 	20735.16987	65.76389	 
1130.0	1.0	0.0	7.70585	7.4561	-5.90967	19.20414	27.23727	1.26214	0.79231	133.03082	150.15077	49.18555	0.35234	 	526060.8406	 	1.30183E-5	 	20412.94813	64.44435	 
1125.0	1.0	0.0	7.71068	7.45143	-5.96857	19.08964	27.04284	1.26668	0.78946	133.91533	150.63716	49.53096	0.35183	 	577936.9523	 	1.18076E-5	 	20097.04279	63.18107	 
1120.0	1.0	0.0	7.71541	7.44686	-6.02627	18.97826	26.85603	1.27093	0.78682	134.77462	151.10828	49.86671	0.35135	 	635388.8534	 	1.07015E-5	 	19787.18837	61.97088	 
1115.0	1.0	0.0	7.72005	7.44238	-6.08281	18.86986	26.67641	1.2749	0.78438	135.61009	151.5652	50.19331	0.35088	 	699057.4399	 	9.69193E-6	 	19483.13577	60.81052	 
1110.0	1.0	0.0	7.72461	7.43798	-6.13823	18.76432	26.50356	1.27859	0.78211	136.42302	152.00889	50.51125	0.35042	 	769661.6887	 	8.77114E-6	 	19184.64364	59.69842	 
1107.04	1.0	0.0	7.72728	7.43542	-6.17059	18.70304	26.40411	1.28065	0.78085	136.89489	152.26609	50.69587	0.35016	 	815125.4151	 	8.26418E-6	 	19010.19483	 	 
1105.0	1.0	0.0	7.72909	7.43368	-6.19254	18.6617	26.3371	1.28202	0.78002	137.21484	152.4406	50.82106	0.34998	 	848023.6269	 	7.93186E-6	 	18891.37286	58.65416	 
1100.0	1.0	0.0	7.73347	7.42946	-6.24576	18.56196	26.17664	1.2852	0.77809	137.9867	152.86122	51.12318	0.34955	 	935059.5559	 	7.16746E-6	 	18603.06996	57.66058	 
1095.0	1.0	0.0	7.73778	7.42532	-6.298	18.46472	26.02185	1.28814	0.77632	138.73936	153.27096	51.41789	0.34913	 	1031766.714	 	6.47201E-6	 	18319.71102	56.67179	 
1090.0	1.0	0.0	7.74202	7.42126	-6.3493	18.36989	25.8724	1.29084	0.77469	139.47382	153.67051	51.70559	0.34873	 	1139289.775	 	5.83978E-6	 	18041.09723	55.72276	 
1085.0	1.0	0.0	7.74619	7.41726	-6.39971	18.27735	25.72796	1.29333	0.7732	140.19102	154.06051	51.98661	0.34834	 	1258916.507	 	5.26547E-6	 	17767.03812	54.81182	 
1080.0	1.0	0.0	7.75029	7.41334	-6.44925	18.18703	25.58825	1.2956	0.77184	140.89188	154.44155	52.26132	0.34796	 	1392096.783	 	4.7442E-6	 	17497.35135	53.93736	 
1075.0	1.0	0.0	7.75433	7.40948	-6.49795	18.09883	25.45299	1.29767	0.77061	141.57724	154.81419	52.53004	0.34758	 	1540463.889	 	4.27143E-6	 	17231.86111	53.09805	 
1070.0	1.0	0.0	7.75831	7.40568	-6.54586	18.01267	25.3219	1.29955	0.76949	142.24792	155.17892	52.79307	0.34722	 	1705859.532	 	3.84298E-6	 	16970.39871	52.29248	 
1065.0	1.0	0.0	7.76222	7.40195	-6.59301	17.92846	25.19475	1.30125	0.76849	142.90469	155.53624	53.05071	0.34687	 	1890361.377	 	3.45499E-6	 	16712.80167	51.51941	 
1060.0	1.0	0.0	7.76608	7.39827	-6.63941	17.84612	25.07129	1.30277	0.76759	143.54828	155.88659	53.30324	0.34652	 	2096315.688	 	3.10391E-6	 	16458.91355	50.77763	 
1055.0	1.0	0.0	7.76988	7.39465	-6.68511	17.76556	24.95131	1.30413	0.7668	144.17938	156.23039	53.55093	0.34619	 	2326373.502	 	2.78647E-6	 	16208.58374	50.06596	 
1050.0	1.0	0.0	7.77363	7.39108	-6.73013	17.68673	24.83459	1.30532	0.76609	144.79866	156.56803	53.79403	0.34586	 	2583532.991	 	2.49966E-6	 	15961.66691	49.38337	 
1045.0	1.0	0.0	7.77733	7.38756	-6.77449	17.60954	24.72094	1.30637	0.76548	145.40675	156.89987	54.03278	0.34554	 	2871187.409	 	2.24073E-6	 	15718.02351	48.72868	 
1040.0	1.0	0.0	7.78098	7.3841	-6.81822	17.53392	24.61018	1.30727	0.76495	146.00424	157.22626	54.26742	0.34523	 	3193180.049	 	2.00714E-6	 	15477.51887	48.10093	 
1035.0	1.0	0.0	7.78459	7.38068	-6.86136	17.4598	24.50213	1.30804	0.7645	146.59168	157.5475	54.49816	0.34492	 	3553867.981	 	1.79657E-6	 	15240.02359	47.49906	 
1030.0	1.0	0.0	7.78814	7.37731	-6.90391	17.38712	24.39663	1.30867	0.76413	147.16963	157.86391	54.7252	0.34462	 	3958194.248	 	1.60688E-6	 	15005.41373	46.92197	 
1025.0	1.0	0.0	7.79166	7.37398	-6.9459	17.3158	24.29352	1.30918	0.76384	147.73858	158.17575	54.94875	0.34433	 	4411771.581	 	1.43615E-6	 	14773.56981	46.36878	 
1020.0	1.0	0.0	7.79513	7.3707	-6.98736	17.2458	24.19267	1.30958	0.76361	148.29902	158.48328	55.16898	0.34404	 	4920978.654	 	1.28258E-6	 	14544.37752	45.83846	 
1015.0	1.0	0.0	7.79857	7.36745	-7.02831	17.17705	24.09393	1.30986	0.76344	148.85138	158.78675	55.38608	0.34376	 	5493070.385	 	1.14456E-6	 	14317.72711	45.33008	 
1010.0	1.0	0.0	7.80196	7.36425	-7.06876	17.10949	23.99718	1.31004	0.76334	149.39611	159.08638	55.6002	0.34349	 	6136305.845	 	1.0206E-6	 	14093.51373	44.84268	 
1005.0	1.0	0.0	7.80532	7.36108	-7.10874	17.04306	23.90231	1.31011	0.76329	149.93361	159.38237	55.81151	0.34321	 	6860095.077	 	9.09365E-7	 	13871.63699	44.37535	 
1000.0	1.0	0.0	7.80864	7.35795	-7.14826	16.97771	23.8092	1.31009	0.76331	150.46424	159.67493	56.02016	0.34295	 	7675169.35	 	8.09615E-7	 	13652.00026	43.92735	 
995.0	1.0	0.0	7.81193	7.35485	-7.18734	16.9134	23.71774	1.30998	0.76337	150.98838	159.96422	56.22627	0.34269	 	8593777.228	 	7.20233E-7	 	13434.51179	43.49769	 
990.0	1.0	0.0	7.81518	7.35178	-7.22601	16.85006	23.62785	1.30978	0.76349	151.50635	160.25043	56.42999	0.34243	 	9629911.77	 	6.40205E-7	 	13219.08429	43.0855	 
985.0	1.0	0.0	7.81841	7.34875	-7.26426	16.78766	23.53943	1.30949	0.76366	152.01848	160.53371	56.63144	0.34217	 	1.079957382E7	 	5.68607E-7	 	13005.634	42.69006	 
980.0	1.0	0.0	7.8216	7.34575	-7.30213	16.72615	23.4524	1.30913	0.76387	152.52505	160.8142	56.83073	0.34192	 	1.212107639E7	 	5.04602E-7	 	12794.08121	42.31056	 
975.0	1.0	0.0	7.82477	7.34278	-7.33962	16.66548	23.36668	1.30869	0.76412	153.02635	161.09203	57.02797	0.34168	 	1.361539932E7	 	4.47428E-7	 	12584.34977	41.94629	 
970.0	1.0	0.0	7.8279	7.33984	-7.37674	16.60561	23.2822	1.30817	0.76442	153.52265	161.36733	57.22326	0.34144	 	1.530660013E7	 	3.96398E-7	 	12376.36772	41.59641	 
965.0	1.0	0.0	7.83101	7.33693	-7.41352	16.5465	23.19888	1.30759	0.76476	154.01418	161.64023	57.41671	0.3412	 	1.722229055E7	 	3.50888E-7	 	12170.06603	41.26034	 
960.0	1.0	0.0	7.8341	7.33404	-7.44996	16.48813	23.11666	1.30694	0.76514	154.50119	161.91082	57.6084	0.34096	 	1.939419539E7	 	3.10335E-7	 	11965.37898	40.93741	 
955.0	1.0	0.0	7.83715	7.33118	-7.48608	16.43043	23.03549	1.30623	0.76556	154.98388	162.1792	57.79841	0.34073	 	2.185879679E7	 	2.74228E-7	 	11762.24457	40.62688	 
950.0	1.0	0.0	7.84019	7.32834	-7.52188	16.37339	22.9553	1.30546	0.76601	155.46246	162.44547	57.98684	0.3405	 	2.465809284E7	 	2.42107E-7	 	11560.60314	40.32828	 
945.0	1.0	0.0	7.8432	7.32553	-7.55738	16.31698	22.87605	1.30463	0.7665	155.93712	162.70972	58.17374	0.34027	 	2.784047856E7	 	2.13556E-7	 	11360.39865	40.0409	 
940.0	1.0	0.0	7.84619	7.32274	-7.59259	16.26114	22.79768	1.30374	0.76703	156.40804	162.97202	58.3592	0.34005	 	3.146177773E7	 	1.88199E-7	 	11161.5771	39.76431	 
935.0	1.0	0.0	7.84915	7.31997	-7.62751	16.20587	22.72015	1.30279	0.76758	156.87539	163.23246	58.54328	0.33982	 	3.558644814E7	 	1.657E-7	 	10964.08783	39.49785	 
930.0	1.0	0.0	7.8521	7.31722	-7.66216	16.15112	22.64342	1.3018	0.76817	157.33933	163.49109	58.72604	0.3396	 	4.028899422E7	 	1.45754E-7	 	10767.88196	39.24117	 
925.0	1.0	0.0	7.85502	7.3145	-7.69655	16.09688	22.56744	1.30075	0.76879	157.80001	163.74798	58.90753	0.33939	 	4.565562859E7	 	1.28087E-7	 	10572.91356	38.99368	 
920.0	1.0	0.0	7.85793	7.31179	-7.73068	16.04311	22.49218	1.29966	0.76943	158.25756	164.0032	59.08783	0.33917	 	5.178620797E7	 	1.12452E-7	 	10379.13894	38.75492	 
915.0	1.0	0.0	7.86082	7.30911	-7.76456	15.98978	22.4176	1.29852	0.77011	158.71211	164.2568	59.26696	0.33896	 	5.879653181E7	 	9.86294E-8	 	10186.516	38.52459	 
910.0	1.0	0.0	7.86368	7.30644	-7.7982	15.93688	22.34368	1.29733	0.77081	159.1638	164.50884	59.445	0.33875	 	6.682101988E7	 	8.64198E-8	 	9995.0052	38.30216	 
905.0	1.0	0.0	7.86653	7.30379	-7.83161	15.88438	22.27037	1.2961	0.77154	159.61272	164.75935	59.62197	0.33854	 	7.601589093E7	 	7.56455E-8	 	9804.56879	38.08728	 
900.0	1.0	0.0	7.86937	7.30116	-7.86479	15.83226	22.19574	1.29494	0.77224	160.059	165.00838	59.79792	0.33833	 	8.656288876E7	 	6.61467E-8	 	9615.17078	37.8796	 
895.0	1.0	0.0	7.87218	7.29855	-7.89775	15.78049	22.12354	1.29363	0.77302	160.50273	165.25599	59.9729	0.33813	 	9.867370419E7	 	5.77808E-8	 	9426.77719	37.67872	 
890.0	1.0	0.0	7.87498	7.29596	-7.93049	15.72906	22.05189	1.29228	0.77383	160.94401	165.5022	60.14694	0.33792	 	1.125951895E8	 	5.042E-8	 	9239.35501	37.48444	 
885.0	1.0	0.0	7.87777	7.29338	-7.96303	15.67795	21.98074	1.29089	0.77466	161.38293	165.74705	60.32007	0.33772	 	1.286155248E8	 	4.39499E-8	 	9052.87337	37.29633	 
880.0	1.0	0.0	7.88054	7.29082	-7.99536	15.62713	21.91009	1.28946	0.77552	161.81957	165.99058	60.49233	0.33752	 	1.470715403E8	 	3.82687E-8	 	8867.30235	37.1142	 
875.0	1.0	0.0	7.88329	7.28827	-8.0275	15.57659	21.83991	1.28799	0.7764	162.25401	166.23282	60.66375	0.33732	 	1.683574044E8	 	3.32853E-8	 	8682.61359	36.93775	 
870.0	1.0	0.0	7.88603	7.28574	-8.05944	15.52632	21.77018	1.28649	0.77731	162.68632	166.4738	60.83436	0.33713	 	1.929349056E8	 	2.89187E-8	 	8498.78097	36.76652	 
865.0	1.0	0.0	7.88875	7.28322	-8.09119	15.47629	21.70088	1.28496	0.77824	163.11658	166.71355	61.00419	0.33693	 	2.21345766E8	 	2.50966E-8	 	8315.77916	36.60036	 
860.0	1.0	0.0	7.89146	7.28072	-8.12276	15.4265	21.63199	1.28338	0.77919	163.54486	166.9521	61.17326	0.33673	 	2.542262188E8	 	2.17547E-8	 	8133.58331	36.43917	 
855.0	1.0	0.0	7.89416	7.27823	-8.15415	15.37691	21.5635	1.28178	0.78016	163.9712	167.18947	61.3416	0.33654	 	2.923244271E8	 	1.8836E-8	 	7952.17035	36.28259	 
850.0	1.0	0.0	7.89684	7.27576	-8.18537	15.32753	21.4954	1.28014	0.78116	164.39569	167.42568	61.50924	0.33635	 	3.365213308E8	 	1.62897E-8	 	7771.51806	36.13046	 
845.0	1.0	0.0	7.89904	7.27374	-8.21089	15.30372	21.43155	1.27824	0.78233	164.75748	167.64597	61.65127	0.3362	 	3.832175302E8	 	1.4241E-8	 	7619.03128	30.49736	 
840.0	1.0	0.0	7.90123	7.27172	-8.23635	15.2799	21.3677	1.27633	0.7835	165.11865	167.86529	61.79311	0.33606	 	4.369030758E8	 	1.24353E-8	 	7463.65509	31.07524	 
835.0	1.0	0.0	7.90342	7.26971	-8.26174	15.25607	21.30384	1.2744	0.78468	165.47921	168.08363	61.93475	0.33592	 	4.98699191E8	 	1.08454E-8	 	7308.50308	31.0304	 
830.0	1.0	0.0	7.9056	7.2677	-8.28708	15.23225	21.23997	1.27247	0.78587	165.83916	168.301	62.07618	0.33577	 	5.699188729E8	 	9.44731E-9	 	7153.57466	30.98568	 
825.0	1.0	0.0	7.90778	7.2657	-8.31235	15.20841	21.17609	1.27052	0.78708	166.1985	168.5174	62.21742	0.33563	 	6.521017141E8	 	8.21927E-9	 	6998.86915	30.9411	 
820.0	1.0	0.0	7.90996	7.2637	-8.33756	15.18457	21.1122	1.26856	0.78829	166.55722	168.73283	62.35845	0.33548	 	7.470554122E8	 	7.1419E-9	 	6844.38589	30.89665	 
815.0	1.0	0.0	7.91213	7.26171	-8.3627	15.16073	21.04831	1.26659	0.78952	166.91532	168.9473	62.49928	0.33534	 	8.56905322E8	 	6.19787E-9	 	6690.1242	30.85234	 
810.0	1.0	0.0	7.91429	7.25972	-8.38779	15.13688	20.9844	1.26461	0.79075	167.27282	169.1608	62.63992	0.33519	 	9.841536927E8	 	5.37171E-9	 	6536.08339	30.80816	 
805.0	1.0	0.0	7.91645	7.25774	-8.41281	15.11303	20.92049	1.26262	0.792	167.6297	169.37335	62.78035	0.33505	 	1.131750586E9	 	4.6496E-9	 	6382.26274	30.76413	 
800.0	1.0	0.0	7.91861	7.25576	-8.43777	15.08917	20.85656	1.26062	0.79326	167.98596	169.58494	62.92058	0.3349	 	1.303178903E9	 	4.01923E-9	 	6228.66149	30.72025	 
795.0	1.0	0.0	7.92077	7.25379	-8.46267	15.06531	20.79263	1.2586	0.79453	168.34162	169.79557	63.06061	0.33476	 	1.502556479E9	 	3.46967E-9	 	6075.27891	30.67652	 
790.0	1.0	0.0	7.92292	7.25182	-8.4875	15.04145	20.72869	1.25658	0.79581	168.69666	170.00525	63.20044	0.33462	 	1.734758857E9	 	2.99118E-9	 	5922.1142	30.63294	 
785.0	1.0	0.0	7.92506	7.24986	-8.51227	15.01758	20.66473	1.25454	0.79711	169.05108	170.21399	63.34006	0.33447	 	2.005567155E9	 	2.57512E-9	 	5769.16655	30.58953	 
780.0	1.0	0.0	7.9272	7.2479	-8.53698	14.9937	20.60077	1.25249	0.79841	169.4049	170.42178	63.47949	0.33433	 	2.321846427E9	 	2.21383E-9	 	5616.43514	30.54628	 
775.0	1.0	0.0	7.92934	7.24594	-8.56163	14.96982	20.5368	1.25042	0.79973	169.7581	170.62863	63.61872	0.33418	 	2.691761153E9	 	1.90053E-9	 	5463.91909	30.50321	 
770.0	1.0	0.0	7.93147	7.244	-8.58622	14.94593	20.47281	1.24835	0.80106	170.11069	170.83453	63.75774	0.33404	 	3.125035995E9	 	1.62922E-9	 	5311.61752	30.46031	 
765.0	1.0	0.0	7.9336	7.24205	-8.61074	14.92204	20.40882	1.24626	0.8024	170.46266	171.0395	63.89656	0.3339	 	3.633271837E9	 	1.3946E-9	 	5159.5295	30.4176	 
760.0	1.0	0.0	7.93572	7.24011	-8.6352	14.89815	20.34481	1.24416	0.80376	170.81403	171.24354	64.03518	0.33375	 	4.230329456E9	 	1.192E-9	 	5007.65407	30.37509	 
755.0	1.0	0.0	7.93784	7.23818	-8.6596	14.87425	20.2808	1.24205	0.80512	171.16478	171.44664	64.1736	0.33361	 	4.932796077E9	 	1.0173E-9	 	4855.99024	30.33277	 
750.0	1.0	0.0	7.93996	7.23625	-8.68393	14.85035	20.21677	1.23992	0.8065	171.51492	171.64881	64.31182	0.33346	 	5.760553658E9	 	8.66886E-10	 	4704.53697	30.29065	 
745.0	1.0	0.0	7.94207	7.23433	-8.70821	14.82644	20.15274	1.23778	0.8079	171.86444	171.85005	64.44984	0.33332	 	6.737472282E9	 	7.37567E-10	 	4553.29321	30.24875	 
740.0	1.0	0.0	7.94418	7.23241	-8.73242	14.80253	20.08869	1.23563	0.8093	172.21336	172.05037	64.58766	0.33318	 	7.892257638E9	 	6.26555E-10	 	4402.25782	30.20708	 
735.0	1.0	0.0	7.94628	7.2305	-8.75657	14.77861	20.02463	1.23346	0.81072	172.56166	172.24977	64.72527	0.33303	 	9.259488682E9	 	5.31404E-10	 	4251.42964	30.16563	 
730.0	1.0	0.0	7.94838	7.22859	-8.78065	14.75468	19.96055	1.23129	0.81216	172.90935	172.44825	64.86269	0.33289	 	1.08809E10	 	4.49975E-10	 	4100.80747	30.12443	 
725.0	1.0	0.0	7.95047	7.22668	-8.80467	14.73076	19.89647	1.2291	0.81361	173.25643	172.64582	64.9999	0.33274	 	1.2806899999999998E10	 	3.80398E-10	 	3950.39003	30.08349	 
720.0	1.0	0.0	7.95256	7.22479	-8.82863	14.70683	19.83237	1.22689	0.81507	173.6029	172.84246	65.13691	0.3326	 	1.5098599999999998E10	 	3.21045E-10	 	3800.17601	30.0428	 
715.0	1.0	0.0	7.95465	7.22289	-8.85253	14.68289	19.76827	1.22467	0.81654	173.94875	173.0382	65.27372	0.33246	 	1.783E10	 	2.70494E-10	 	3650.16402	30.0024	 
710.0	1.0	0.0	7.95673	7.221	-8.87637	14.65895	19.70415	1.22244	0.81803	174.29399	173.23303	65.41032	0.33231	 	2.10912E10	 	2.27512E-10	 	3500.35261	29.96228	 
705.0	1.0	0.0	7.9588	7.21912	-8.90014	14.635	19.64001	1.2202	0.81954	174.63862	173.42695	65.54673	0.33217	 	2.4991799999999996E10	 	1.91027E-10	 	3350.74027	29.92247	 
700.0	1.0	0.0	7.96087	7.21724	-8.92385	14.61105	19.57587	1.21794	0.82106	174.98264	173.61997	65.68293	0.33203	 	2.9665499999999996E10	 	1.60109E-10	 	3201.32541	29.88297	 
695.0	1.0	0.0	7.96294	7.21537	-8.94749	14.58709	19.51171	1.21566	0.8226	175.32605	173.81209	65.81893	0.33188	 	3.52755E10	 	1.33954E-10	 	3052.10635	29.84381	 
690.0	1.0	0.0	7.965	7.2135	-8.97108	14.56313	19.44754	1.21338	0.82415	175.66885	174.0033	65.95473	0.33174	 	4.2022E10	 	1.11867E-10	 	2903.08134	29.805	 
685.0	1.0	0.0	7.96706	7.21163	-8.9946	14.53917	19.38335	1.21107	0.82571	176.01104	174.19362	66.09033	0.33159	 	5.015029999999999E10	 	9.32495E-11	 	2754.24855	29.76656	 
680.0	1.0	0.0	7.96912	7.20978	-9.01806	14.5152	19.31915	1.20876	0.8273	176.35261	174.38305	66.22573	0.33145	 	5.996199999999999E10	 	7.7584E-11	 	2605.60603	29.7285	 
675.0	1.0	0.0	7.97117	7.20792	-9.04145	14.49123	19.25494	1.20643	0.82889	176.69357	174.57159	66.36092	0.33131	 	7.18285E10	 	6.44269E-11	 	2457.15173	29.69086	 
670.0	1.0	0.0	7.97321	7.20607	-9.06478	14.46725	19.19071	1.20408	0.83051	177.03393	174.75923	66.49591	0.33116	 	8.62082E10	 	5.33972E-11	 	2308.8835	29.65365	 
665.0	1.0	0.0	7.97525	7.20423	-9.08805	14.44326	19.12647	1.20172	0.83214	177.37367	174.94599	66.6307	0.33102	 	1.03668E11	 	4.41686E-11	 	2160.79907	29.61688	 
660.0	1.0	0.0	7.97729	7.20239	-9.11126	14.41927	19.06221	1.19935	0.83379	177.7128	175.13187	66.76529	0.33088	 	1.24911E11	 	3.64617E-11	 	2012.9019	29.57943	 
655.0	1.0	0.0	7.97932	7.20056	-9.1344	14.39528	18.99794	1.19695	0.83545	178.05132	175.31686	66.89967	0.33073	 	1.50809E11	 	3.00384E-11	 	1865.22444	29.53549	 
650.0	1.0	0.0	7.98135	7.19873	-9.15749	14.37128	18.93366	1.19455	0.83714	178.38923	175.50098	67.03386	0.33059	 	1.82449E11	 	2.46954E-11	 	1717.80982	29.48292	 
645.0	1.0	0.0	7.98337	7.1969	-9.1805	14.34728	18.86936	1.19213	0.83884	178.72652	175.68422	67.16784	0.33045	 	2.21186E11	 	2.02602E-11	 	1570.65716	29.43053	 
640.0	1.0	0.0	7.98539	7.19508	-9.20346	14.32327	18.80504	1.18969	0.84055	179.06321	175.86658	67.30162	0.3303	 	2.68713E11	 	1.6586E-11	 	1423.76561	29.37831	 
635.0	1.0	0.0	7.9874	7.19327	-9.22635	14.29926	18.74071	1.18724	0.84229	179.39929	176.04807	67.43519	0.33016	 	3.27152E11	 	1.35486E-11	 	1277.13427	29.32627	 
630.0	1.0	0.0	7.98941	7.19146	-9.24918	14.27525	18.67636	1.18477	0.84405	179.73475	176.2287	67.56857	0.33002	 	3.99169E11	 	1.10431E-11	 	1130.76233	29.27439	 
625.0	1.0	0.0	7.99142	7.18966	-9.27195	14.25122	18.612	1.18228	0.84582	180.06961	176.40845	67.70174	0.32987	 	4.8812E11	 	8.98068E-12	 	984.64839	29.22279	 
620.0	1.0	0.0	7.99342	7.18786	-9.29465	14.2272	18.54761	1.17978	0.84761	180.40385	176.58734	67.83471	0.32973	 	5.98238E11	 	7.2868E-12	 	838.79036	29.17161	 
615.0	1.0	0.0	7.99541	7.18606	-9.31729	14.20317	18.48322	1.17727	0.84943	180.73749	176.76537	67.96747	0.32959	 	7.34881E11	 	5.8987E-12	 	693.18803	29.12047	 
610.0	1.0	0.0	7.99741	7.18427	-9.33987	14.17913	18.4188	1.17473	0.85126	181.07051	176.94253	68.10003	0.32945	 	9.04838E11	 	4.76376E-12	 	547.84056	29.06949	 
605.0	1.0	0.0	7.99939	7.18249	-9.36238	14.15509	18.35437	1.17218	0.85311	181.40293	177.11884	68.2324	0.3293	 	1.11675E12	 	3.83797E-12	 	402.74714	29.01868	 
600.0	1.0	0.0	8.00137	7.18071	-9.38483	14.13105	18.28992	1.16962	0.85498	181.73473	177.2943	68.36455	0.32916	 	1.3816E12	 	3.08455E-12	 	257.90692	28.96804	 
595.0	1.0	0.0	8.00335	7.17894	-9.40722	14.107	18.22545	1.16703	0.85688	182.06593	177.4689	68.49651	0.32902	 	1.71348E12	 	2.47288E-12	 	113.31909	28.91757	 
590.0	1.0	0.0	8.00532	7.17717	-9.42955	14.08294	18.16097	1.16443	0.85879	182.39651	177.64265	68.62826	0.32887	 	2.13037E12	 	1.9775E-12	 	-31.01718	28.86725	 
585.0	1.0	0.0	8.00729	7.1754	-9.45181	14.05888	18.09646	1.16181	0.86073	182.72648	177.81555	68.75981	0.32873	 	2.65543E12	 	1.5773E-12	 	-175.10271	28.81711	 
580.0	1.0	0.0	8.00926	7.17364	-9.47401	14.03482	18.03194	1.15917	0.86268	183.05585	177.9876	68.89115	0.32859	 	3.31846E12	 	1.2548E-12	 	-318.93833	28.76712	 
575.0	1.0	0.0	8.01121	7.17189	-9.49614	14.01075	17.9674	1.15652	0.86466	183.3846	178.15881	69.0223	0.32844	 	4.15795E12	 	9.95589E-13	 	-462.52483	28.7173	 
570.0	1.0	0.0	8.01317	7.17014	-9.51822	13.98668	17.90284	1.15385	0.86666	183.71274	178.32918	69.15324	0.3283	 	5.22376E12	 	7.87786E-13	 	-605.86303	28.66764	 
565.0	1.0	0.0	8.01512	7.1684	-9.54022	13.9626	17.83826	1.15116	0.86869	184.04028	178.49871	69.28397	0.32816	 	6.58066E12	 	6.2164E-13	 	-748.95377	28.61815	 
560.0	1.0	0.0	8.01706	7.16666	-9.56217	13.93852	17.77366	1.14845	0.87074	184.3672	178.6674	69.41451	0.32802	 	8.31304E12	 	4.89159E-13	 	-891.79783	28.56881	 
555.0	1.0	0.0	8.019	7.16492	-9.58405	13.91443	17.70903	1.14572	0.87281	184.69352	178.83525	69.54484	0.32787	 	1.05311E13	 	3.83813E-13	 	-1034.396	28.51964	 
550.0	1.0	0.0	8.02094	7.16319	-9.60587	13.89034	17.64439	1.14298	0.87491	185.01922	179.00227	69.67496	0.32773	 	1.33795E13	 	3.0028E-13	 	-1176.74912	28.47062	 
545.0	1.0	0.0	8.02287	7.16147	-9.62763	13.86624	17.57973	1.14022	0.87703	185.34432	179.16847	69.80489	0.32759	 	1.7048E13	 	2.34232E-13	 	-1318.85796	28.42177	 
540.0	1.0	0.0	8.0248	7.15975	-9.64932	13.84214	17.51504	1.13743	0.87917	185.66881	179.33383	69.93461	0.32745	 	2.17872E13	 	1.82161E-13	 	-1460.72332	28.37307	 
535.0	1.0	0.0	8.02672	7.15804	-9.67095	13.81804	17.45033	1.13463	0.88134	185.99268	179.49837	70.06412	0.3273	 	2.79286E13	 	1.41231E-13	 	-1602.346	28.32454	 
530.0	1.0	0.0	8.02863	7.15633	-9.69252	13.79393	17.3856	1.13181	0.88354	186.31595	179.66208	70.19344	0.32716	 	3.59119E13	 	1.09155E-13	 	-1743.72678	28.27615	 
525.0	1.0	0.0	8.03055	7.15462	-9.71402	13.76981	17.32085	1.12897	0.88577	186.63861	179.82497	70.32255	0.32702	 	4.63229E13	 	8.40961E-14	 	-1884.86644	28.22793	 
520.0	1.0	0.0	8.03245	7.15293	-9.73546	13.74569	17.25608	1.12611	0.88802	186.96066	179.98704	70.45145	0.32688	 	5.99442E13	 	6.45796E-14	 	-2025.76577	28.17987	 
515.0	1.0	0.0	8.03436	7.15123	-9.75683	13.72157	17.19128	1.12323	0.89029	187.2821	180.1483	70.58015	0.32673	 	7.78249E13	 	4.94284E-14	 	-2166.42555	28.13196	 
510.0	1.0	0.0	8.03626	7.14954	-9.77815	13.69744	17.12645	1.12032	0.8926	187.60293	180.30874	70.70865	0.32659	 	1.01377E14	 	3.77045E-14	 	-2306.84657	28.0842	 
505.0	1.0	0.0	8.03815	7.14786	-9.7994	13.6733	17.06161	1.1174	0.89493	187.92315	180.46836	70.83695	0.32645	 	1.3250499999999998E14	 	2.86627E-14	 	-2447.02959	28.0366	 
500.0	1.0	0.0	8.04004	7.14618	-9.82058	13.64917	16.99673	1.11446	0.8973	188.24276	180.62718	70.96504	0.32631	 	1.73793E14	 	2.17129E-14	 	-2586.97538	27.98916	 
495.0	1.0	0.0	8.04192	7.14451	-9.8417	13.62502	16.93184	1.1115	0.89969	188.56176	180.78518	71.09292	0.32616	 	2.28752E14	 	1.63896E-14	 	-2726.68469	27.94186	 
490.0	1.0	0.0	8.0438	7.14284	-9.86276	13.60087	16.86691	1.10851	0.90211	188.88016	180.94238	71.22061	0.32602	 	3.02177E14	 	1.23264E-14	 	-2866.15827	27.89472	 
485.0	1.0	0.0	8.04567	7.14117	-9.88376	13.57672	16.80196	1.10551	0.90456	189.19794	181.09877	71.34809	0.32588	 	4.00638E14	 	9.23612E-15	 	-3005.39689	27.84772	 
480.0	1.0	0.0	8.04754	7.13952	-9.90469	13.55256	16.73699	1.10248	0.90705	189.51512	181.25436	71.47536	0.32574	 	5.3317499999999994E14	 	6.89443E-15	 	-3144.40127	27.80088	 
475.0	1.0	0.0	8.04941	7.13786	-9.92556	13.5284	16.67198	1.09943	0.90956	189.83169	181.40915	71.60243	0.3256	 	7.12272E14	 	5.1266E-15	 	-3283.17218	27.75418	 
470.0	1.0	0.0	8.05127	7.13621	-9.94636	13.50423	16.60695	1.09636	0.91211	190.14764	181.56315	71.7293	0.32545	 	9.55245E14	 	3.79707E-15	 	-3421.71033	27.70763	 
465.0	1.0	0.0	8.05312	7.13457	-9.9671	13.48006	16.54189	1.09327	0.91469	190.46299	181.71634	71.85596	0.32531	 	1.28621E15	 	2.80105E-15	 	-3560.01646	27.66123	 
460.0	1.0	0.0	8.05497	7.13293	-9.98778	13.45589	16.47681	1.09015	0.91731	190.77773	181.86874	71.98242	0.32517	 	1.73888E15	 	2.05784E-15	 	-3698.0913	27.61497	 
455.0	1.0	0.0	8.05682	7.1313	-10.00839	13.43171	16.41169	1.08701	0.91995	191.09187	182.02035	72.10867	0.32503	 	2.36061E15	 	1.50551E-15	 	-3835.93556	27.56885	 
450.0	1.0	0.0	8.05866	7.12967	-10.02894	13.40752	16.34654	1.08385	0.92264	191.40539	182.17117	72.23472	0.32489	 	3.21823E15	 	1.09673E-15	 	-3973.54996	27.52288	 
445.0	1.0	0.0	8.06049	7.12805	-10.04943	13.38333	16.28136	1.08066	0.92536	191.7183	182.3212	72.36056	0.32474	 	4.4064E15	 	7.9546E-16	 	-4110.93522	27.47705	 
440.0	1.0	0.0	8.06232	7.12643	-10.06985	13.35913	16.21615	1.07745	0.92811	192.03061	182.47045	72.4862	0.3246	 	6.05987E15	 	5.74386E-16	 	-4248.09201	27.43136	 
435.0	1.0	0.0	8.06415	7.12481	-10.09021	13.33493	16.15091	1.07422	0.93091	192.34231	182.61891	72.61163	0.32446	 	8.37139E15	 	4.12871E-16	 	-4385.02105	27.38581	 
430.0	1.0	0.0	8.06597	7.12321	-10.11051	13.31073	16.08564	1.07097	0.93374	192.6534	182.76659	72.73686	0.32432	 	1.16179E16	 	2.95398E-16	 	-4521.72303	27.34039	 
425.0	1.0	0.0	8.06778	7.1216	-10.13074	13.28652	16.02034	1.06769	0.93661	192.96388	182.91348	72.86189	0.32418	 	1.61993E16	 	2.10349E-16	 	-4658.19853	27.2951	 
420.0	1.0	0.0	8.0696	7.12	-10.15091	13.26231	15.955	1.06438	0.93951	193.27375	183.05961	72.98671	0.32403	 	2.26959E16	 	1.49062E-16	 	-4794.44837	27.24997	 
415.0	1.0	0.0	8.0714	7.11841	-10.17101	13.23809	15.88962	1.06105	0.94246	193.58301	183.20495	73.11132	0.32389	 	3.19541E16	 	1.0511E-16	 	-4930.47288	27.2049	 
410.0	1.0	0.0	8.0732	7.11682	-10.19105	13.21387	15.82421	1.05769	0.94545	193.89167	183.34952	73.23573	0.32375	 	4.52148E16	 	7.37432E-17	 	-5066.27222	27.15987	 
405.0	1.0	0.0	8.075	7.11524	-10.21103	13.18964	15.75877	1.05431	0.94848	194.19971	183.49332	73.35994	0.32361	 	6.4307E16	 	5.147E-17	 	-5201.84657	27.11487	 
400.0	1.0	0.0	8.07679	7.11366	-10.23094	13.1654	15.69329	1.05091	0.95156	194.50715	183.63635	73.48394	0.32347	 	9.19408E16	 	3.57347E-17	 	-5337.19609	27.0699	 
395.0	1.0	0.0	8.07858	7.11209	-10.25079	13.14117	15.62777	1.04747	0.95468	194.81398	183.77861	73.60773	0.32333	 	1.32155E17	 	2.46762E-17	 	-5472.32094	27.02497	 
390.0	1.0	0.0	8.08036	7.11052	-10.27057	13.11692	15.56222	1.04401	0.95784	195.1202	183.9201	73.73132	0.32318	 	1.90999E17	 	1.6946E-17	 	-5607.22125	26.98006	 
385.0	1.0	0.0	8.08213	7.10896	-10.2903	13.09268	15.49662	1.04053	0.96105	195.42582	184.06083	73.85471	0.32304	 	2.77595E17	 	1.15718E-17	 	-5741.89717	26.93518	 
380.0	1.0	0.0	8.0839	7.1074	-10.30995	13.06843	15.43099	1.03702	0.96431	195.73082	184.2008	73.97789	0.3229	 	4.05768E17	 	7.85637E-18	 	-5876.34882	26.89033	 
375.0	1.0	0.0	8.08567	7.10585	-10.32955	13.04417	15.36531	1.03348	0.96761	196.03522	184.34001	74.10086	0.32276	 	5.96606E17	 	5.30243E-18	 	-6010.57632	26.8455	 
370.0	1.0	0.0	8.08743	7.1043	-10.34908	13.01991	15.2996	1.02991	0.97096	196.33901	184.47846	74.22363	0.32262	 	8.82471E17	 	3.55712E-18	 	-6144.57977	26.80069	 
365.0	1.0	0.0	8.08919	7.10276	-10.36854	12.99564	15.23384	1.02631	0.97436	196.64219	184.61615	74.34619	0.32248	 	1.31334E18	 	2.37155E-18	 	-6278.3593	26.7559	 
360.0	1.0	0.0	8.09094	7.10122	-10.38794	12.97137	15.16804	1.02269	0.97782	196.94476	184.75309	74.46855	0.32234	 	1.9669E18	 	1.57113E-18	 	-6411.91494	26.71113	 
355.0	1.0	0.0	8.09269	7.09969	-10.40728	12.9471	15.10219	1.01904	0.98132	197.24673	184.88927	74.5907	0.32219	 	2.96468E18	 	1.03412E-18	 	-6545.24682	26.66637	 
350.0	1.0	0.0	8.09443	7.09816	-10.42655	12.92282	15.0363	1.01535	0.98488	197.54808	185.02471	74.71265	0.32205	 	4.49815E18	 	6.76154E-19	 	-6678.35496	26.62163	 
345.0	1.0	0.0	8.09616	7.09664	-10.44576	12.89854	14.97037	1.01164	0.98849	197.84883	185.15939	74.83439	0.32191	 	6.87099E18	 	4.39098E-19	 	-6811.23944	26.5769	 
340.0	1.0	0.0	8.0979	7.09512	-10.46491	12.87425	14.90439	1.0079	0.99216	198.14897	185.29333	74.95592	0.32177	 	1.05683E19	 	2.83171E-19	 	-6943.90028	26.53217	 
335.0	1.0	0.0	8.09962	7.09361	-10.48399	12.84995	14.83835	1.00413	0.99588	198.44851	185.42653	75.07725	0.32163	 	1.63706E19	 	1.81314E-19	 	-7076.33752	26.48745	 
330.0	1.0	0.0	8.10134	7.0921	-10.50301	12.82565	14.77227	1.00033	0.99967	198.74743	185.55898	75.19837	0.32149	 	2.55433E19	 	1.15248E-19	 	-7208.55115	26.44273	 
325.0	1.0	0.0	8.10306	7.0906	-10.52196	12.80135	14.70614	0.9965	1.00351	199.04575	185.69069	75.31929	0.32135	 	4.01531E19	 	7.27073E-20	 	-7340.5412	26.39801	 
320.0	1.0	0.0	8.10477	7.0891	-10.54085	12.77704	14.63996	0.99264	1.00742	199.34346	185.82166	75.44	0.32121	 	6.36022E19	 	4.55176E-20	 	-7472.30763	26.35329	 
315.0	1.0	0.0	8.10648	7.08761	-10.55967	12.75273	14.57373	0.98874	1.01138	199.64056	185.95189	75.5605	0.32106	 	1.01536E20	 	2.82718E-20	 	-7603.8504	26.30856	 
310.0	1.0	0.0	8.10818	7.08612	-10.57843	12.72841	14.50744	0.98482	1.01542	199.93705	186.08139	75.6808	0.32092	 	1.63401E20	 	1.74185E-20	 	-7735.16948	26.26381	 
305.0	1.0	0.0	8.10987	7.08464	-10.59713	12.70409	14.4411	0.98086	1.01951	200.23294	186.21015	75.80089	0.32078	 	2.6513299999999997E20	 	1.0643E-20	 	-7866.26479	26.21906	 
300.0	1.0	0.0	8.11156	7.08317	-10.61576	12.67976	14.3747	0.97687	1.02368	200.52822	186.33818	75.92077	0.32064	 	4.3384899999999997E20	 	6.44788E-21	 	-7997.13626	26.17429	 
295.0	1.0	0.0	8.11325	7.0817	-10.63433	12.65543	14.30824	0.97284	1.02791	200.82289	186.46548	76.04045	0.3205	 	7.161069999999999E20	 	3.87233E-21	 	-8127.78377	26.1295	 
290.0	1.0	0.0	8.11493	7.08023	-10.65283	12.6311	14.24172	0.96879	1.03222	201.11695	186.59205	76.15992	0.32036	 	1.19257E21	 	2.30478E-21	 	-8258.20723	26.08469	 
285.0	1.0	0.0	8.1166	7.07877	-10.67127	12.60676	14.17514	0.96469	1.0366	201.41041	186.7179	76.27919	0.32022	 	2.0042600000000001E21	 	1.3592E-21	 	-8388.40646	26.03985	 
280.0	1.0	0.0	8.11827	7.07731	-10.68965	12.58241	14.1085	0.96057	1.04105	201.70325	186.84302	76.39825	0.32008	 	3.4002000000000003E21	 	7.94009E-22	 	-8518.38132	25.99497	 
275.0	1.0	0.0	8.11994	7.07586	-10.70796	12.55806	14.04179	0.95641	1.04558	201.99549	186.96742	76.5171	0.31994	 	5.82426E21	 	4.59352E-22	 	-8648.13162	25.95006	 
270.0	1.0	0.0	8.1216	7.07441	-10.72621	12.53371	13.97502	0.95221	1.05019	202.28713	187.09109	76.63574	0.3198	 	1.00758E22	 	2.63103E-22	 	-8777.65717	25.90511	 
265.0	1.0	0.0	8.12325	7.07297	-10.74439	12.50935	13.90819	0.94798	1.05488	202.57815	187.21405	76.75418	0.31966	 	1.76094E22	 	1.49158E-22	 	-8906.95771	25.86011	 
260.0	1.0	0.0	8.1249	7.07154	-10.76251	12.48498	13.84128	0.94371	1.05965	202.86857	187.33629	76.87241	0.31951	 	3.10996E22	 	8.36722E-23	 	-9036.03301	25.81506	 
255.0	1.0	0.0	8.12655	7.07011	-10.78056	12.46061	13.7743	0.93941	1.0645	203.15838	187.45781	76.99044	0.31937	 	5.55192E22	 	4.64302E-23	 	-9164.88278	25.76995	 
250.0	1.0	0.0	8.12818	7.06868	-10.79855	12.43624	13.70725	0.93507	1.06944	203.44758	187.57862	77.10825	0.31923	 	1.00217E23	 	2.54783E-23	 	-9293.50671	25.72479	 
245.0	1.0	0.0	8.12982	7.06726	-10.81647	12.41186	13.64013	0.93069	1.07448	203.73618	187.69872	77.22586	0.31909	 	1.8297499999999997E23	 	1.38214E-23	 	-9421.90447	25.67955	 
240.0	1.0	0.0	8.13145	7.06585	-10.83433	12.38748	13.57293	0.92627	1.0796	204.02416	187.81811	77.34327	0.31895	 	3.3801499999999996E23	 	7.40961E-24	 	-9550.07568	25.63424	 
235.0	1.0	0.0	8.13307	7.06444	-10.85213	12.36309	13.50564	0.92181	1.08482	204.31154	187.93678	77.46046	0.31881	 	6.32012E23	 	3.92422E-24	 	-9678.01994	25.58885	 
230.0	1.0	0.0	8.13469	7.06303	-10.86986	12.3387	13.43828	0.91732	1.09013	204.59832	188.05475	77.57745	0.31867	 	1.19651E24	 	2.05243E-24	 	-9805.73683	25.54338	 
225.0	1.0	0.0	8.1363	7.06163	-10.88753	12.3143	13.37084	0.91278	1.09555	204.88448	188.17202	77.69423	0.31853	 	2.29442E24	 	1.05968E-24	 	-9933.22588	25.49781	 
220.0	1.0	0.0	8.13791	7.06024	-10.90513	12.2899	13.30331	0.90821	1.10107	205.17004	188.28858	77.8108	0.31839	 	4.45823E24	 	5.39888E-25	 	-10060.48658	25.45214	 
215.0	1.0	0.0	8.13951	7.05885	-10.92267	12.26549	13.23569	0.90359	1.10669	205.45499	188.40444	77.92717	0.31825	 	8.78135E24	 	2.71318E-25	 	-10187.5184	25.40636	 
210.0	1.0	0.0	8.14111	7.05746	-10.94014	12.24108	13.16798	0.89894	1.11243	205.73933	188.5196	78.04333	0.31811	 	1.7541000000000001E25	 	1.34436E-25	 	-10314.32075	25.36047	 
205.0	1.0	0.0	8.1427	7.05608	-10.95755	12.21667	13.10018	0.89424	1.11827	206.02307	188.63406	78.15928	0.31797	 	3.55493E25	 	6.56477E-26	 	-10440.893	25.31445	 
200.0	1.0	0.0	8.14428	7.05471	-10.97489	12.19225	13.03228	0.8895	1.12423	206.3062	188.74782	78.27502	0.31783	 	7.31294E25	 	3.15786E-26	 	-10567.23449	25.2683	 
195.0	1.0	0.0	8.14587	7.05334	-10.99217	12.16782	12.96428	0.88471	1.13031	206.58872	188.86089	78.39056	0.31769	 	1.5277200000000002E26	 	1.49564E-26	 	-10693.34451	25.222	 
190.0	1.0	0.0	8.14744	7.05197	-11.00939	12.14339	12.89618	0.87989	1.13651	206.87064	188.97327	78.50588	0.31755	 	3.24269E26	 	6.97113E-27	 	-10819.22226	25.17555	 
185.0	1.0	0.0	8.14901	7.05062	-11.02654	12.11896	12.82798	0.87502	1.14284	207.15194	189.08495	78.621	0.31741	 	6.99681E26	 	3.19591E-27	 	-10944.86697	25.12894	 
180.0	1.0	0.0	8.15058	7.04926	-11.04362	12.09452	12.75966	0.8701	1.14929	207.43264	189.19594	78.73592	0.31727	 	1.5355599999999998E27	 	1.44033E-27	 	-11070.27773	25.08215	 
175.0	1.0	0.0	8.15214	7.04791	-11.06065	12.07007	12.69124	0.86514	1.15588	207.71273	189.30625	78.85062	0.31713	 	3.42964E27	 	6.37767E-28	 	-11195.45362	25.03518	 
170.0	1.0	0.0	8.15369	7.04657	-11.0776	12.04562	12.6227	0.86013	1.16261	207.99222	189.41586	78.96511	0.31699	 	7.800199999999999E27	 	2.77288E-28	 	-11320.39366	24.98801	 
165.0	1.0	0.0	8.15524	7.04523	-11.09449	12.02117	12.55404	0.85508	1.16948	208.2711	189.5248	79.0794	0.31685	 	1.80762E28	 	1.18305E-28	 	-11445.09677	24.94062	 
160.0	1.0	0.0	8.15678	7.0439	-11.11132	11.99671	12.48526	0.84998	1.1765	208.54937	189.63305	79.19348	0.31671	 	4.27107E28	 	4.9498E-29	 	-11569.56183	24.89301	 
155.0	1.0	0.0	8.15832	7.04257	-11.12808	11.97225	12.41635	0.84483	1.18367	208.82703	189.74061	79.30735	0.31657	 	1.0296500000000001E29	 	2.02953E-29	 	-11693.78765	24.84516	 
150.0	1.0	0.0	8.15986	7.04125	-11.14478	11.94778	12.34731	0.83963	1.191	209.10433	189.84772	79.4211	0.31643	 	2.5343700000000002E29	 	8.14913E-30	 	-11817.77294	24.79706	 
145.0	1.0	0.0	8.16138	7.03993	-11.16141	11.92331	12.27813	0.83438	1.19849	209.38078	189.95392	79.53456	0.31629	 	6.373930000000001E29	 	3.20193E-30	 	-11941.51635	24.74868	 
140.0	1.0	0.0	8.16291	7.03861	-11.17798	11.89883	12.20881	0.82909	1.20615	209.65661	190.05945	79.6478	0.31615	 	1.63923E30	 	1.23014E-30	 	-12065.01643	24.70002	 
135.0	1.0	0.0	8.16442	7.03731	-11.19448	11.87435	12.13935	0.82374	1.21397	209.93185	190.1643	79.76083	0.31601	 	4.3144099999999997E30	 	4.61726E-31	 	-12188.27165	24.65104	 
130.0	1.0	0.0	8.16593	7.036	-11.21092	11.84987	12.06974	0.81834	1.22198	210.20647	190.26848	79.87366	0.31587	 	1.16313E31	 	1.6917E-31	 	-12311.28037	24.60174	 
125.0	1.0	0.0	8.16744	7.03471	-11.22729	11.82537	11.99997	0.81289	1.23018	210.48049	190.37198	79.98628	0.31573	 	3.21481E31	 	6.04475E-32	 	-12434.04086	24.5521	 
120.0	1.0	0.0	8.16894	7.03341	-11.2436	11.80088	11.93004	0.80739	1.23856	210.7539	190.47482	80.09868	0.31559	 	9.118239999999999E31	 	2.10443E-32	 	-12556.55126	24.50208	 
115.0	1.0	0.0	8.17044	7.03213	-11.25985	11.77638	11.85994	0.80183	1.24714	211.0267	190.57698	80.21088	0.31545	 	2.65663E32	 	7.13107E-33	 	-12678.80961	24.45167	 
110.0	1.0	0.0	8.17193	7.03084	-11.27603	11.75187	11.78967	0.79622	1.25593	211.29889	190.67848	80.32287	0.31531	 	7.959269999999999E32	 	2.34954E-33	 	-12800.81382	24.40084	 
105.0	1.0	0.0	8.17341	7.02957	-11.29214	11.72736	11.71921	0.79055	1.26494	211.57048	190.77931	80.43465	0.31517	 	2.4548E33	 	7.51855E-34	 	-12922.56166	24.34957	 
100.0	1.0	0.0	8.17489	7.0283	-11.30819	11.70285	11.64857	0.78483	1.27416	211.84147	190.87948	80.54623	0.31503	 	7.803120000000001E33	 	2.334E-34	 	-13044.05078	24.29782	 
95.0	1.0	0.0	8.17636	7.02703	-11.32417	11.67833	11.57774	0.77905	1.28361	212.11184	190.97899	80.65759	0.31489	 	2.55955E34	 	7.02018E-35	 	-13165.27865	24.24557	 
90.0	1.0	0.0	8.17783	7.02577	-11.34009	11.65381	11.5067	0.77322	1.2933	212.38161	191.07783	80.76874	0.31475	 	8.67489E34	 	2.04319E-35	 	-13286.24258	24.19279	 
85.0	1.0	0.0	8.17929	7.02451	-11.35594	11.62928	11.43545	0.76732	1.30323	212.65077	191.17602	80.87969	0.31461	 	3.0420399999999997E35	 	5.74627E-36	 	-13406.93974	24.13943	 
80.0	1.0	0.0	8.18075	7.02326	-11.37173	11.60474	11.36398	0.76137	1.31343	212.91933	191.27355	80.99042	0.31447	 	1.1053399999999999E36	 	1.55937E-36	 	-13527.36708	24.08547	 
75.0	1.0	0.0	8.1822	7.02201	-11.38746	11.58021	11.29229	0.75535	1.32388	213.18727	191.37042	81.10095	0.31433	 	4.16795E36	 	4.0769E-37	 	-13647.52136	24.03086	 
70.0	1.0	0.0	8.18365	7.02077	-11.40312	11.55566	11.22035	0.74928	1.33462	213.45462	191.46664	81.21127	0.31419	 	1.6336099999999998E37	 	1.02524E-37	 	-13767.39913	23.97555	 
65.0	1.0	0.0	8.18509	7.01954	-11.41871	11.53111	11.14817	0.74314	1.34564	213.72135	191.5622	81.32137	0.31405	 	6.66675E37	 	2.47561E-38	 	-13886.99671	23.91952	 
60.0	1.0	0.0	8.18652	7.01831	-11.43424	11.50656	11.07572	0.73694	1.35696	213.98748	191.65711	81.43127	0.31391	 	2.8380199999999998E38	 	5.72943E-39	 	-14006.31017	23.86269	 
55.0	1.0	0.0	8.18795	7.01708	-11.4497	11.48201	11.00301	0.73068	1.36859	214.253	191.75137	81.54096	0.31378	 	1.2626600000000001E39	 	1.26845E-39	 	-14125.33532	23.80503	 
50.0	1.0	0.0	8.18938	7.01586	-11.4651	11.45745	10.93001	0.72435	1.38054	214.51791	191.84499	81.65044	0.31364	 	5.88327E39	 	2.68085E-40	 	-14244.06767	23.74647	 
45.0	1.0	0.0	8.1908	7.01465	-11.48043	11.43288	10.85672	0.71796	1.39284	214.78222	191.93795	81.7597	0.3135	 	2.87712E40	 	5.3971E-41	 	-14362.50245	23.68696	 
40.0	1.0	0.0	8.19221	7.01344	-11.4957	11.40831	10.78311	0.7115	1.40548	215.04592	192.03028	81.86876	0.31336	 	1.48017E41	 	1.03259E-41	 	-14480.63453	23.62642	 
35.0	1.0	0.0	8.19362	7.01223	-11.5109	11.38373	10.70918	0.70497	1.4185	215.30902	192.12195	81.97761	0.31322	 	8.0306E41	 	1.87284E-42	 	-14598.45844	23.56478	 
30.0	1.0	0.0	8.19502	7.01103	-11.52604	11.35915	10.6349	0.69838	1.43189	215.57151	192.21299	82.08625	0.31308	 	4.6069299999999994E42	 	3.21168E-43	 	-14715.96829	23.50197	 
25.0	1.0	0.0	8.19642	7.00984	-11.54111	 	10.56027	0.69171	1.44569	215.83339	192.30338	82.19468	0.31294	 	2.80235E43	 	5.19278E-44	 	-14833.1578	 	 
