T (C)	Fraction solid (wt)-TOTAL	Fraction liquid (wt)-LIQUID	Density (g/(cm)^3)-TOTAL	Molar volume (cm^3)-TOTAL	Volume change (%)-  	Average expansion coeff. (10e-6 1/K)-  	Thermal conductivity (W/(m*K))-TOTAL	Electrical resistivity (10e-6 Ohm*m)-TOTAL	Electrical conductivity (10e6 1/(Ohm*m))-TOTAL	Young's modulus (GPa)-TOTAL	Bulk modulus (GPa)-TOTAL	Shear modulus(GPa)-TOTAL	Poisson's ratio-TOTAL	Liquid viscosity (mPa s)-  	Total viscosity (mPa s)-  	Liquid diffusivity (10e-9 (m^2)/s)-  	Total diffusivity (10e-9 (m^2)/s)-  	Surface Tension (mN/m)-  	Enthalpy (J/mole)-TOTAL	Specific heat (J/(mole K))-TOTAL	Latent heat (J/mole)-TOTAL
1400.0	0.0	1.0	6.8251	7.91828	0.0	33.96635	29.94368	1.36898	0.73047	0.0	117.64797	0.0	0.5	6.04439	6.04439	1.35104	1.35104	1712.93483	37660.894	 	0.0
1395.0	0.0	1.0	6.82903	7.91371	-0.0576486	33.9304	29.86124	1.36865	0.73065	0.0	117.78203	0.0	0.5	6.10769	6.10769	1.33305	1.33305	1715.04106	37459.257	40.3274	0.0
1390.0	0.0	1.0	6.83296	7.90916	-0.11514	33.89464	29.7788	1.36833	0.73082	0.0	117.9161	0.0	0.5	6.17203	6.17203	1.3152	1.3152	1717.16506	37258.072	40.237	0.0
1385.0	0.0	1.0	6.83689	7.90462	-0.17246	33.85906	29.69636	1.368	0.73099	0.0	118.05016	0.0	0.5	6.23744	6.23744	1.29749	1.29749	1719.30698	37057.334	40.1476	0.0
1380.0	0.0	1.0	6.8408	7.9001	-0.22962	33.82368	29.61392	1.36767	0.73117	0.0	118.18423	0.0	0.5	6.30395	6.30395	1.27993	1.27993	1721.46699	36857.042	40.0584	0.0
1375.0	0.0	1.0	6.84471	7.89558	-0.28662	33.78849	29.53148	1.36734	0.73135	0.0	118.31829	0.0	0.5	6.37158	6.37158	1.26251	1.26251	1723.64521	36657.193	39.9698	0.0
1370.0	0.0	1.0	6.84862	7.89108	-0.34346	33.7535	29.44904	1.36701	0.73152	0.0	118.45236	0.0	0.5	6.44035	6.44035	1.24524	1.24524	1725.84178	36457.784	39.8818	0.0
1365.0	0.0	1.0	6.85252	7.88659	-0.40014	33.71871	29.3666	1.36668	0.7317	0.0	118.58642	0.0	0.5	6.51029	6.51029	1.22812	1.22812	1728.05681	36258.813	39.7942	0.0
1360.0	0.0	1.0	6.85641	7.88212	-0.45665	33.68412	29.28416	1.36634	0.73188	0.0	118.72049	0.0	0.5	6.58143	6.58143	1.21114	1.21114	1730.29039	36060.277	39.7072	0.0
1355.0	0.0	1.0	6.86029	7.87766	-0.513	33.64973	29.20172	1.366	0.73206	0.0	118.85455	0.0	0.5	6.65378	6.65378	1.1943	1.1943	1732.54262	35862.174	39.6206	0.0
1350.0	0.0	1.0	6.86417	7.87321	-0.56919	33.61554	29.11928	1.36566	0.73224	0.0	118.98862	0.0	0.5	6.72739	6.72739	1.1776	1.1776	1734.81355	35664.502	39.5344	0.0
1345.0	0.0	1.0	6.86804	7.86877	-0.62522	33.58156	29.03684	1.36532	0.73243	0.0	119.12268	0.0	0.5	6.80227	6.80227	1.16105	1.16105	1737.10325	35467.258	39.4488	0.0
1340.0	0.0	1.0	6.8719	7.86435	-0.68109	33.5478	28.9544	1.36498	0.73261	0.0	119.25675	0.0	0.5	6.87846	6.87846	1.14464	1.14464	1739.41176	35270.439	39.3638	0.0
1335.0	0.0	1.0	6.87576	7.85994	-0.73679	33.51424	28.87196	1.36463	0.7328	0.0	119.39081	0.0	0.5	6.95598	6.95598	1.12838	1.12838	1741.73909	35074.043	39.2792	0.0
1330.0	0.0	1.0	6.87961	7.85554	-0.79233	33.4809	28.78952	1.36429	0.73298	0.0	119.52488	0.0	0.5	7.03487	7.03487	1.11226	1.11226	1744.08526	34878.068	39.195	0.0
1325.0	0.0	1.0	6.88345	7.85115	-0.84771	33.44778	28.70708	1.36394	0.73317	0.0	119.65894	0.0	0.5	7.11516	7.11516	1.09628	1.09628	1746.45023	34682.511	39.1114	0.0
1323.17	0.0	1.0	6.88485	7.84955	-0.86795	33.43571	28.6769	1.36381	0.73324	0.0	119.70803	0.0	0.5	7.1449	7.1449	1.09046	1.09046	1747.32079	34611.02	39.05396	0.0
1320.0	0.0855712	0.91443	6.91183	7.81885	-1.25564	32.37979	28.92548	1.3494	0.74107	0.00442325	120.44069	0.00148472	0.48959	7.20081	9.03498	1.07985	0.86063	1745.8008	33382.967	387.46809	1104.404
1315.75	0.18615	0.81385	6.94394	7.7827	-1.71226	31.14192	29.21909	1.33228	0.75059	0.10138	121.35086	0.0343142	0.47721	7.27745	32.22581	1.06563	0.24065	1743.80478	31927.026	 	2394.895
1315.0	0.21423	0.78577	6.95195	7.77372	-1.82558	30.82625	29.30592	1.32771	0.75318	0.17857	121.65428	0.0605854	0.47369	7.29273	50.39029	1.06289	0.15383	1743.94599	31524.215	371.7504	2768.428
1310.0	0.38632	0.61368	7.00154	7.71868	-2.52067	28.89046	29.86235	1.29887	0.7699	1.95779	123.52008	0.67426	0.45179	7.39589	472.04709	1.04476	0.016369	1744.88009	29063.589	492.1252	5034.739
1305.0	0.51457	0.48543	7.03939	7.67717	-3.04491	27.44684	30.29299	1.27636	0.78348	6.35854	124.9998	2.21525	0.43518	7.50103	1551.11643	1.02687	0.00496582	1745.8083	27207.644	371.189	6696.778
1300.0	0.61204	0.38796	7.06888	7.64511	-3.44981	26.3476	30.62637	1.25846	0.79462	13.05328	126.21197	4.58866	0.42234	7.60844	3279.76316	1.00916	0.00234107	1748.25977	25773.2333	286.88214	7937.542
1295.0	0.68735	0.31265	7.09229	7.61983	-3.76914	25.49575	30.88342	1.24402	0.80384	21.19273	127.23227	7.50303	0.41228	7.71836	5526.32458	0.99163	0.00138496	1750.71676	24639.05575	226.83551	8878.233
1290.0	0.7463	0.2537	7.11118	7.59952	-4.02566	24.82589	31.07939	1.23224	0.81153	29.95792	128.11262	10.66662	0.40428	7.83097	8147.55242	0.97425	9.36397E-4	1753.17922	23723.07429	183.19629	9601.143
1285.0	0.79297	0.20703	7.12665	7.58292	-4.23526	24.29221	31.22638	1.22251	0.81799	38.73801	128.88844	13.85619	0.39786	7.94631	11027.67098	0.95704	6.89624E-4	1755.64734	22968.18863	150.97713	10163.368
1280.0	0.83033	0.16967	7.13952	7.56916	-4.40895	23.86301	31.33399	1.21441	0.82345	47.1465	129.5859	16.92699	0.39264	8.06475	14088.20962	0.93996	5.38077E-4	1758.11963	22334.0155	126.83463	10605.29
1275.0	0.86047	0.13953	7.15036	7.55757	-4.55532	23.51346	31.40973	1.20758	0.8281	54.96344	130.22215	19.79431	0.38836	8.18627	17278.63299	0.92303	4.37311E-4	1760.59761	21791.5026	108.50258	10955.956
1270.0	0.885	0.115	7.15962	7.54766	-4.68059	23.22552	31.45987	1.20176	0.83211	62.10099	130.81112	22.42204	0.38482	8.31119	20576.24666	0.90622	3.6604E-4	1763.08135	21319.43167	94.41419	11236.587
1265.0	0.90511	0.0948867	7.16763	7.53908	-4.78888	22.98726	31.48896	1.19676	0.83559	68.5308	131.36253	24.79655	0.38186	8.43962	23969.86716	0.88953	3.13199E-4	1765.56941	20902.08943	83.46845	11462.891
1260.0	0.92171	0.0782947	7.17465	7.53155	-4.88393	22.78786	31.50108	1.19241	0.83864	74.28801	131.88432	26.92827	0.37937	8.57176	27466.00794	0.87297	2.72443E-4	1768.06169	20527.69462	74.87896	11646.647
1255.0	0.93549	0.06451	7.18088	7.52485	-4.96865	22.61873	31.49916	1.18859	0.84133	79.41793	132.38152	28.8321	0.37725	8.70777	31074.02964	0.85654	2.40024E-4	1770.56166	20187.31595	68.07573	11796.783
1250.0	0.94701	0.0529923	7.18647	7.51883	-5.04459	22.47546	31.48562	1.18521	0.84373	83.98073	132.85913	30.52882	0.37543	8.84775	34811.2066	0.84023	2.13555E-4	1773.06427	19874.11018	62.64115	11920.141
1245.0	0.95668	0.0433158	7.19362	7.512	-5.1309	22.29871	31.31662	1.1877	0.84197	88.49336	133.58118	32.21515	0.37347	8.99198	38841.3742	0.82404	1.90769E-4	1775.57183	19478.52532	79.11697	12022.01
1240.0	0.96486	0.0351442	7.20334	7.50335	-5.24009	22.04893	30.94574	1.19797	0.83474	93.25861	134.66107	34.00723	0.37116	9.14068	43317.24076	0.80796	1.70494E-4	1778.08407	18949.33514	105.83804	12106.515
1235.0	0.97138	0.0286153	7.21226	7.495	-5.34564	21.80852	30.58006	1.20829	0.82761	97.47027	135.69995	35.59598	0.36912	9.30626	47993.1163	0.79096	1.53374E-4	1780.60187	18446.9027	100.48649	12177.872
1230.0	0.97698	0.0230199	7.22048	7.48689	-5.44806	21.57602	30.23053	1.21821	0.82088	101.34826	136.69115	37.06243	0.36726	9.48377	52977.70606	0.77359	1.38483E-4	1783.12194	17965.71414	96.23771	12240.703
1225.0	0.98179	0.0182114	7.22804	7.47906	-5.54683	21.35311	29.89955	1.2276	0.8146	104.90977	137.62837	38.41225	0.36558	9.66633	58299.99832	0.75645	1.25422E-4	1785.64678	17506.26193	91.89044	12293.697
1220.0	0.98594	0.0140559	7.235	7.47152	-5.64211	21.13944	29.58586	1.23648	0.80875	108.19055	138.51681	39.65825	0.36404	9.85438	63997.00912	0.73954	1.13876E-4	1788.17685	17066.07583	88.03722	12338.573
1215.0	0.98955	0.0104503	7.24142	7.46424	-5.73406	20.93462	29.28845	1.24485	0.80331	111.22035	139.36083	40.81115	0.36262	10.04785	70107.83214	0.72287	1.03602E-4	1790.71165	16643.08468	84.59823	12376.708
1210.0	0.99269	0.00730623	7.24734	7.45721	-5.82281	20.73831	29.00659	1.25272	0.79826	114.02684	140.16419	41.88098	0.36132	10.24714	76675.26108	0.70643	9.44097E-5	1793.25008	16235.53786	81.50936	12409.215
1205.0	0.99545	0.00455305	7.25282	7.45042	-5.90857	20.55	28.73945	1.2601	0.79359	116.63283	140.93013	42.87603	0.36012	10.45245	83744.63244	0.69022	8.61486E-5	1795.79388	15841.94329	78.71891	12436.999
1200.0	0.99787	0.00213408	7.2579	7.44386	-5.99145	20.36937	28.48485	1.26707	0.78923	119.05847	141.66149	43.80367	0.359	10.66424	91365.12159	0.67422	7.86961E-5	1798.34189	15461.01601	76.18546	12460.801
1195.0	1.0	0.0	7.26263	7.43751	-6.07165	20.19592	28.23604	1.27389	0.785	121.32347	142.36087	44.67114	0.35796	 	99591.52482	 	7.19507E-5	 	15091.64714	73.87377	12481.23
1190.0	1.0	0.0	7.26758	7.43245	-6.13558	20.07403	27.98428	1.28098	0.78066	122.48546	142.9849	45.12339	0.35723	 	107992.6804	 	6.61274E-5	 	14775.73831	63.18177	 
1185.0	1.0	0.0	7.27241	7.42751	-6.19796	19.95619	27.74367	1.28767	0.7766	123.60788	143.58447	45.56061	0.35652	 	117189.9923	 	6.07293E-5	 	14451.27765	64.89213	 
1180.0	1.0	0.0	7.27714	7.42268	-6.25888	19.84215	27.51346	1.29399	0.7728	124.69297	144.16129	45.98363	0.35584	 	127266.0728	 	5.57294E-5	 	14133.49852	63.55583	 
1175.0	1.0	0.0	7.28176	7.41797	-6.31841	19.7317	27.29297	1.29996	0.76926	125.74278	144.71687	46.3932	0.35519	 	138312.7775	 	5.1102E-5	 	13822.03767	62.29217	 
1170.0	1.0	0.0	7.28629	7.41336	-6.37662	19.62463	27.08156	1.30558	0.76594	126.75921	145.25263	46.79005	0.35455	 	150432.3094	 	4.68228E-5	 	13516.55767	61.096	 
1167.37	1.0	0.0	7.28864	7.41097	-6.4068	19.56951	26.97361	1.30841	0.76428	127.28205	145.52742	46.99429	0.35423	 	157288.9125	 	4.46999E-5	 	13357.86815	 	 
1167.15	1.0	0.0	7.28903	7.41057	-6.4119	19.5563	26.95967	1.30889	0.76401	127.33626	145.55357	47.01555	0.35419	 	157904.3807	 	4.45189E-5	 	13338.22689	 	 
1165.0	1.0	0.0	7.29093	7.40864	-6.43618	19.51217	26.8736	1.31113	0.7627	127.7552	145.77349	47.17925	0.35393	 	163771.8877	 	4.28599E-5	 	13210.12212	61.28711	 
1160.0	1.0	0.0	7.29527	7.40423	-6.49193	19.41146	26.67869	1.31611	0.75981	128.71017	146.27361	47.5526	0.35335	 	178401.3738	 	3.92085E-5	 	12915.44072	58.93628	 
1155.0	1.0	0.0	7.29954	7.3999	-6.54657	19.31359	26.49125	1.3208	0.75712	129.63669	146.75732	47.91504	0.35278	 	194486.5472	 	3.58402E-5	 	12625.899	57.90834	 
1150.0	1.0	0.0	7.30373	7.39566	-6.60015	19.21842	26.31082	1.3252	0.7546	130.53622	147.22562	48.26714	0.35223	 	212185.1754	 	3.27358E-5	 	12341.23765	56.93227	 
1145.0	1.0	0.0	7.30784	7.3915	-6.65273	19.12581	26.13697	1.32933	0.75226	131.41015	147.67944	48.60942	0.35169	 	231673.3673	 	2.98767E-5	 	12061.21467	56.0046	 
1140.0	1.0	0.0	7.31188	7.38741	-6.70435	19.03562	25.96928	1.3332	0.75008	132.2598	148.11965	48.94236	0.35118	 	253147.8506	 	2.72459E-5	 	11785.6038	55.12218	 
1135.0	1.0	0.0	7.31586	7.38339	-6.75507	18.94773	25.8074	1.33681	0.74805	133.08639	148.54705	49.26645	0.35068	 	276828.5377	 	2.4827E-5	 	11514.19321	54.28212	 
1130.0	1.0	0.0	7.31977	7.37945	-6.80491	18.86203	25.65097	1.34019	0.74616	133.89111	148.96241	49.5821	0.3502	 	302961.4231	 	2.26049E-5	 	11246.78435	53.48177	 
1125.0	1.0	0.0	7.32363	7.37556	-6.85394	18.7784	25.49967	1.34334	0.74441	134.67504	149.36642	49.88976	0.34973	 	331821.8609	 	2.05653E-5	 	10983.19079	52.71871	 
1120.0	1.0	0.0	7.32742	7.37175	-6.90217	18.69675	25.35321	1.34627	0.7428	135.43925	149.75975	50.18981	0.34927	 	363718.3143	 	1.86947E-5	 	10723.23719	51.99072	 
1115.0	1.0	0.0	7.33116	7.36799	-6.94965	18.61697	25.2113	1.34899	0.7413	136.18473	150.14302	50.48262	0.34883	 	398996.531	 	1.69806E-5	 	10466.75848	51.29574	 
1110.0	1.0	0.0	7.33484	7.36428	-6.99641	18.53898	25.07073	1.35166	0.73983	136.91242	150.51682	50.76857	0.3484	 	438044.4041	 	1.54112E-5	 	10213.59897	50.6319	 
1105.0	1.0	0.0	7.33848	7.36063	-7.04248	18.46269	24.9371	1.35399	0.73856	137.62323	150.88171	51.04799	0.34798	 	481297.3463	 	1.39756E-5	 	9963.61164	49.99747	 
1100.0	1.0	0.0	7.34207	7.35704	-7.08789	18.38802	24.80731	1.35614	0.73739	138.318	151.23819	51.32121	0.34757	 	529244.5316	 	1.26633E-5	 	9716.65744	49.39084	 
1095.0	1.0	0.0	7.34561	7.35349	-7.13267	18.31489	24.68113	1.35811	0.73632	138.99755	151.58677	51.58853	0.34717	 	582435.9111	 	1.1465E-5	 	9472.60474	48.81054	 
1090.0	1.0	0.0	7.3491	7.34999	-7.17685	18.24322	24.55837	1.35991	0.73534	139.66266	151.9279	51.85026	0.34679	 	641490.2652	 	1.03715E-5	 	9231.32872	48.2552	 
1085.0	1.0	0.0	7.35256	7.34654	-7.22045	18.17295	24.43885	1.36155	0.73446	140.31405	152.26202	52.10667	0.34641	 	707104.3385	 	9.37456E-6	 	8992.71092	47.72356	 
1080.0	1.0	0.0	7.35597	7.34313	-7.2635	18.10402	24.32237	1.36303	0.73366	140.95242	152.58954	52.35803	0.34604	 	780063.2935	 	8.46648E-6	 	8756.63882	47.21442	 
1075.0	1.0	0.0	7.35934	7.33977	-7.30602	18.03635	24.20879	1.36437	0.73294	141.57845	152.91085	52.60459	0.34569	 	861252.559	 	7.64002E-6	 	8523.0054	46.72668	 
1070.0	1.0	0.0	7.36268	7.33644	-7.34802	17.96989	24.09795	1.36556	0.7323	142.19276	153.2263	52.84661	0.34533	 	951671.5782	 	6.88849E-6	 	8291.70884	46.25931	 
1065.0	1.0	0.0	7.36598	7.33315	-7.38954	17.90458	23.98969	1.36662	0.73173	142.79595	153.53626	53.08431	0.34499	 	1052449.277	 	6.20569E-6	 	8062.65213	45.81134	 
1060.0	1.0	0.0	7.36925	7.3299	-7.43058	17.84036	23.88388	1.36754	0.73124	143.38861	153.84103	53.31791	0.34466	 	1164861.998	 	5.58588E-6	 	7835.74286	45.38185	 
1055.0	1.0	0.0	7.37248	7.32669	-7.47118	17.77718	23.7804	1.36834	0.73081	143.97128	154.14093	53.54762	0.34433	 	1290353.782	 	5.02372E-6	 	7610.89291	44.96999	 
1050.0	1.0	0.0	7.37568	7.32351	-7.51134	17.715	23.67913	1.36902	0.73045	144.54446	154.43625	53.77364	0.34401	 	1430560.089	 	4.51429E-6	 	7388.01825	44.57493	 
1045.0	1.0	0.0	7.37885	7.32036	-7.55108	17.65375	23.57994	1.36958	0.73015	145.10867	154.72726	53.99617	0.34369	 	1587334.442	 	4.05306E-6	 	7167.03868	44.19591	 
1040.0	1.0	0.0	7.38199	7.31725	-7.59043	17.5934	23.48274	1.37004	0.72991	145.66436	155.0142	54.21538	0.34339	 	1762779.559	 	3.63583E-6	 	6947.87769	43.8322	 
1035.0	1.0	0.0	7.38511	7.31416	-7.62939	17.53391	23.38742	1.37038	0.72972	146.21198	155.29734	54.43144	0.34308	 	1959282.875	 	3.25872E-6	 	6730.46226	43.48309	 
1030.0	1.0	0.0	7.38819	7.31111	-7.66797	17.47522	23.29388	1.37062	0.72959	146.75195	155.57688	54.64452	0.34279	 	2179557.366	 	2.91818E-6	 	6514.72266	43.14792	 
1025.0	1.0	0.0	7.39125	7.30808	-7.70621	17.41729	23.20205	1.37077	0.72952	147.28468	155.85304	54.85478	0.3425	 	2426689.074	 	2.61094E-6	 	6300.59234	42.82606	 
1020.0	1.0	0.0	7.39429	7.30508	-7.7441	17.3601	23.11183	1.37082	0.72949	147.81054	156.12604	55.06236	0.34221	 	2704191.23	 	2.33399E-6	 	6088.00775	42.51692	 
1015.0	1.0	0.0	7.3973	7.3021	-7.78166	17.3036	23.02315	1.37078	0.72951	148.32989	156.39604	55.26741	0.34193	 	3016067.398	 	2.08455E-6	 	5876.90827	42.2199	 
1010.0	1.0	0.0	7.40029	7.29916	-7.8189	17.24775	22.93593	1.37065	0.72958	148.84309	156.66324	55.47004	0.34165	 	3366883.901	 	1.8601E-6	 	5667.23599	41.93446	 
1005.0	1.0	0.0	7.40326	7.29623	-7.85583	17.19251	22.8501	1.37044	0.72969	149.35044	156.92779	55.67041	0.34138	 	3761854.052	 	1.65831E-6	 	5458.93565	41.66007	 
1000.0	1.0	0.0	7.4062	7.29333	-7.89247	17.13787	22.7656	1.37015	0.72985	149.85226	157.18986	55.86861	0.34111	 	4206935.516	 	1.47707E-6	 	5251.95448	41.39623	 
995.0	1.0	0.0	7.40913	7.29045	-7.92882	17.08378	22.68237	1.36977	0.73005	150.34885	157.4496	56.06476	0.34085	 	4708943.213	 	1.31442E-6	 	5046.24216	41.14247	 
990.0	1.0	0.0	7.41203	7.28759	-7.9649	17.03021	22.60034	1.36932	0.73029	150.84047	157.70713	56.25898	0.34059	 	5275679.773	 	1.16859E-6	 	4841.75063	40.89831	 
985.0	1.0	0.0	7.41492	7.28476	-8.00072	16.97713	22.51947	1.3688	0.73057	151.32739	157.96259	56.45137	0.34033	 	5916088.743	 	1.03797E-6	 	4638.43403	40.66332	 
980.0	1.0	0.0	7.41778	7.28194	-8.03627	16.92452	22.4397	1.36821	0.73088	151.80985	158.21611	56.64201	0.34008	 	6640430.7	 	9.21072E-7	 	4436.24861	40.43708	 
975.0	1.0	0.0	7.42063	7.27915	-8.07158	16.87234	22.36099	1.36755	0.73124	152.2881	158.46779	56.83101	0.33983	 	7460488.915	 	8.16556E-7	 	4235.1526	40.2192	 
970.0	1.0	0.0	7.42346	7.27637	-8.10665	16.82058	22.28328	1.36682	0.73163	152.76234	158.71775	57.01845	0.33959	 	8389810.985	 	7.23199E-7	 	4035.10615	40.00929	 
965.0	1.0	0.0	7.42628	7.27361	-8.14149	16.7692	22.20654	1.36602	0.73205	153.2328	158.96609	57.20441	0.33934	 	9443986.744	 	6.39889E-7	 	3836.07123	39.80698	 
960.0	1.0	0.0	7.42908	7.27087	-8.17611	16.71818	22.13073	1.36517	0.73251	153.69966	159.21289	57.38896	0.3391	 	1.064097728E7	 	5.65615E-7	 	3638.01154	39.61194	 
955.0	1.0	0.0	7.43186	7.26815	-8.2105	16.6675	22.0558	1.36425	0.733	154.16312	159.45825	57.57219	0.33887	 	1.200149612E7	 	4.99462E-7	 	3440.89243	39.42382	 
950.0	1.0	0.0	7.43463	7.26544	-8.24469	16.61714	21.98173	1.36328	0.73353	154.62335	159.70226	57.75417	0.33863	 	1.354945734E7	 	4.406E-7	 	3244.68084	39.24232	 
945.0	1.0	0.0	7.43739	7.26275	-8.27867	16.56707	21.90848	1.36224	0.73408	155.08052	159.94499	57.93495	0.3384	 	1.531250109E7	 	3.88277E-7	 	3049.34521	39.06713	 
940.0	1.0	0.0	7.44013	7.26007	-8.31246	16.51727	21.83601	1.36115	0.73467	155.53479	160.18651	58.1146	0.33817	 	1.732260768E7	 	3.41812E-7	 	2854.85538	38.89797	 
935.0	1.0	0.0	7.44285	7.25741	-8.34605	16.46773	21.76431	1.36001	0.73529	155.98632	160.42689	58.29318	0.33795	 	1.961682136E7	 	3.00593E-7	 	2661.18256	38.73456	 
930.0	1.0	0.0	7.44557	7.25477	-8.37946	16.41842	21.69333	1.35881	0.73594	156.43523	160.66621	58.47074	0.33772	 	2.22381006E7	 	2.64064E-7	 	2468.2993	38.57665	 
925.0	1.0	0.0	7.44827	7.25214	-8.41269	16.36933	21.62306	1.35756	0.73661	156.88167	160.90451	58.64734	0.3375	 	2.523632079E7	 	2.31724E-7	 	2276.17929	38.424	 
920.0	1.0	0.0	7.45096	7.24952	-8.44574	16.32043	21.55347	1.35626	0.73732	157.32576	161.14186	58.82303	0.33728	 	2.866945094E7	 	2.03125E-7	 	2084.79747	38.27637	 
915.0	1.0	0.0	7.45363	7.24692	-8.47862	16.27171	21.48453	1.35491	0.73805	157.76763	161.37831	58.99786	0.33706	 	3.260495093E7	 	1.77858E-7	 	1894.12985	38.13352	 
910.0	1.0	0.0	7.4563	7.24433	-8.51134	16.22316	21.41623	1.35351	0.73882	158.20738	161.61392	59.17186	0.33685	 	3.712141414E7	 	1.55561E-7	 	1704.15349	37.99527	 
905.0	1.0	0.0	7.45895	7.24175	-8.54389	16.17476	21.34854	1.35207	0.73961	158.64513	161.84872	59.34509	0.33663	 	4.231051957E7	 	1.35906E-7	 	1514.84646	37.8614	 
900.0	1.0	0.0	7.4616	7.23918	-8.57629	16.12648	21.28144	1.35057	0.74043	159.08097	162.08276	59.51758	0.33642	 	4.827933174E7	 	1.18598E-7	 	1326.18782	37.73173	 
895.0	1.0	0.0	7.46423	7.23663	-8.60853	16.07833	21.21492	1.34904	0.74127	159.515	162.31609	59.68937	0.33621	 	5.515304698E7	 	1.03375E-7	 	1138.1575	37.60606	 
890.0	1.0	0.0	7.46685	7.23409	-8.64062	16.03028	21.14896	1.34745	0.74214	159.94732	162.54874	59.86049	0.336	 	6.307823696E7	 	9.00001E-8	 	950.73627	37.48425	 
885.0	1.0	0.0	7.46946	7.23156	-8.67256	15.98231	21.08353	1.34582	0.74304	160.378	162.78075	60.03099	0.33579	 	7.222671709E7	 	7.82625E-8	 	763.90578	37.3661	 
880.0	1.0	0.0	7.47206	7.22904	-8.70436	15.93442	21.01864	1.34415	0.74397	160.80713	163.01215	60.20088	0.33559	 	8.280014947E7	 	6.79738E-8	 	577.64799	37.25156	 
875.0	1.0	0.0	7.47466	7.22654	-8.73602	15.8866	20.95425	1.34243	0.74492	161.23479	163.24298	60.37021	0.33538	 	9.503553389E7	 	5.89657E-8	 	391.94597	37.14041	 
870.0	1.0	0.0	7.47724	7.22404	-8.76755	15.83882	20.89036	1.34067	0.74589	161.66104	163.47327	60.539	0.33518	 	1.09211751E8	 	5.10882E-8	 	206.7843	37.03233	 
865.0	1.0	0.0	7.47981	7.22155	-8.79894	15.79109	20.82695	1.33887	0.7469	162.08595	163.70304	60.70727	0.33498	 	1.256574137E8	 	4.42077E-8	 	22.1476	36.92734	 
860.0	1.0	0.0	7.48238	7.21908	-8.8302	15.74337	20.76401	1.33703	0.74792	162.5096	163.93233	60.87506	0.33478	 	1.447602306E8	 	3.82054E-8	 	-161.97895	36.82531	 
855.0	1.0	0.0	7.48493	7.21661	-8.86133	15.69568	20.70152	1.33515	0.74898	162.93203	164.16115	61.04238	0.33458	 	1.669782556E8	 	3.29757E-8	 	-345.60951	36.72611	 
850.0	1.0	0.0	7.48748	7.21416	-8.89233	15.64799	20.63949	1.33323	0.75006	163.35332	164.38953	61.20926	0.33438	 	1.928533853E8	 	2.84248E-8	 	-528.75768	36.62963	 
845.0	1.0	0.0	7.4896	7.21212	-8.91813	15.62383	20.58092	1.33107	0.75127	163.7098	164.60691	61.34938	0.33424	 	2.190710506E8	 	2.49116E-8	 	-687.3474	31.71795	 
840.0	1.0	0.0	7.49172	7.21008	-8.94386	15.59968	20.52234	1.3289	0.7525	164.06573	164.82342	61.48932	0.3341	 	2.491380279E8	 	2.18072E-8	 	-848.96246	32.32301	 
835.0	1.0	0.0	7.49383	7.20804	-8.96954	15.57551	20.46375	1.32672	0.75374	164.42112	165.03906	61.62908	0.33396	 	2.836606491E8	 	1.90672E-8	 	-1010.3649	32.28049	 
830.0	1.0	0.0	7.49594	7.20602	-8.99515	15.55134	20.40516	1.32453	0.75499	164.77596	165.25383	61.76866	0.33382	 	3.233471627E8	 	1.66515E-8	 	-1171.55548	32.23812	 
825.0	1.0	0.0	7.49804	7.20399	-9.0207	15.52717	20.34656	1.32232	0.75625	165.13025	165.46773	61.90806	0.33367	 	3.690259332E8	 	1.45242E-8	 	-1332.53498	32.1959	 
820.0	1.0	0.0	7.50015	7.20198	-9.04619	15.50299	20.28795	1.3201	0.75752	165.48399	165.68077	62.04729	0.33353	 	4.2166708E8	 	1.26531E-8	 	-1493.3042	32.15384	 
815.0	1.0	0.0	7.50224	7.19996	-9.07161	15.4788	20.22933	1.31787	0.7588	165.83719	165.89295	62.18633	0.33339	 	4.824082423E8	 	1.10093E-8	 	-1653.864	32.11196	 
810.0	1.0	0.0	7.50434	7.19795	-9.09697	15.45461	20.17071	1.31563	0.76009	166.18984	166.10427	62.3252	0.33325	 	5.525852983E8	 	9.567E-9	 	-1814.21523	32.07025	 
805.0	1.0	0.0	7.50643	7.19595	-9.12227	15.43041	20.11208	1.31337	0.7614	166.54194	166.31474	62.46389	0.33311	 	6.337690459E8	 	8.303E-9	 	-1974.3588	32.02871	 
800.0	1.0	0.0	7.50851	7.19395	-9.14751	15.4062	20.05344	1.31111	0.76272	166.8935	166.52436	62.60241	0.33296	 	7.278090632E8	 	7.19664E-9	 	-2134.29566	31.98737	 
795.0	1.0	0.0	7.51059	7.19196	-9.17269	15.38199	19.9948	1.30882	0.76404	167.24451	166.73312	62.74074	0.33282	 	8.368862319E8	 	6.22949E-9	 	-2294.02679	31.94623	 
790.0	1.0	0.0	7.51267	7.18997	-9.1978	15.35777	19.93614	1.30653	0.76539	167.59497	166.94104	62.8789	0.33268	 	9.635757273E8	 	5.38512E-9	 	-2453.55321	31.90528	 
785.0	1.0	0.0	7.51474	7.18799	-9.22285	15.33355	19.87748	1.30422	0.76674	167.94489	167.14812	63.01688	0.33254	 	1.110922675E9	 	4.6489E-9	 	-2612.87598	31.86455	 
780.0	1.0	0.0	7.51681	7.18601	-9.24783	15.30932	19.81881	1.3019	0.76811	168.29426	167.35435	63.15468	0.3324	 	1.282533161E9	 	4.00782E-9	 	-2771.99623	31.82405	 
775.0	1.0	0.0	7.51888	7.18404	-9.27276	15.28508	19.76013	1.29957	0.76949	168.64309	167.55974	63.29231	0.33226	 	1.482683874E9	 	3.45034E-9	 	-2930.91511	31.78378	 
770.0	1.0	0.0	7.52094	7.18207	-9.29762	15.26084	19.70145	1.29722	0.77088	168.99137	167.7643	63.42976	0.33211	 	1.716454412E9	 	2.96621E-9	 	-3089.63384	31.74375	 
765.0	1.0	0.0	7.52299	7.1801	-9.32242	15.23659	19.64275	1.29486	0.77228	169.33911	167.96802	63.56703	0.33197	 	1.989887178E9	 	2.54635E-9	 	-3248.15369	31.70397	 
760.0	1.0	0.0	7.52505	7.17814	-9.34716	15.21234	19.58405	1.29249	0.7737	169.68631	168.17092	63.70412	0.33183	 	2.310180945E9	 	2.18275E-9	 	-3406.47599	31.66446	 
755.0	1.0	0.0	7.5271	7.17619	-9.37183	15.18808	19.52533	1.2901	0.77513	170.03296	168.37298	63.84104	0.33169	 	2.685925548E9	 	1.86831E-9	 	-3564.60214	31.62523	 
750.0	1.0	0.0	7.52914	7.17424	-9.39644	15.16382	19.46661	1.2877	0.77658	170.37907	168.57422	63.97777	0.33155	 	3.127386911E9	 	1.59678E-9	 	-3722.5336	31.58629	 
745.0	1.0	0.0	7.53118	7.1723	-9.42099	15.13954	19.40788	1.28529	0.77804	170.72463	168.77463	64.11433	0.33141	 	3.646853805E9	 	1.36264E-9	 	-3880.27191	31.54766	 
740.0	1.0	0.0	7.53322	7.17036	-9.44548	15.11527	19.34913	1.28286	0.77951	171.06965	168.97422	64.25072	0.33127	 	4.259060395E9	 	1.16104E-9	 	-4037.81869	31.50935	 
735.0	1.0	0.0	7.53525	7.16842	-9.4699	15.09098	19.29038	1.28041	0.781	171.41413	169.17299	64.38692	0.33113	 	4.981702053E9	 	9.87721E-10	 	-4195.17563	31.47139	 
730.0	1.0	0.0	7.53728	7.1665	-9.49426	15.06669	19.23162	1.27796	0.7825	171.75807	169.37095	64.52295	0.33098	 	5.836066109E9	 	8.38943E-10	 	-4352.34449	31.43377	 
725.0	1.0	0.0	7.5393	7.16457	-9.51856	15.0424	19.17285	1.27548	0.78402	172.10146	169.56809	64.6588	0.33084	 	6.847804525E9	 	7.11428E-10	 	-4509.32719	31.39654	 
720.0	1.0	0.0	7.54132	7.16265	-9.54279	15.0181	19.11407	1.273	0.78555	172.44432	169.76442	64.79447	0.3307	 	8.047882126E9	 	6.0231E-10	 	-4666.12568	31.3597	 
715.0	1.0	0.0	7.54334	7.16074	-9.56697	14.99379	19.05528	1.2705	0.78709	172.78663	169.95994	64.92997	0.33056	 	9.4737424E9	 	5.09082E-10	 	-4822.74205	31.32327	 
710.0	1.0	0.0	7.54535	7.15883	-9.59108	14.96948	18.99648	1.26798	0.78866	173.1284	170.15466	65.06529	0.33042	 	1.11707E10	 	4.29561E-10	 	-4979.17849	31.28729	 
705.0	1.0	0.0	7.54736	7.15693	-9.61512	14.94516	18.93766	1.26545	0.79023	173.46963	170.34857	65.20043	0.33028	 	1.3193899999999998E10	 	3.61841E-10	 	-5135.43734	31.25177	 
700.0	1.0	0.0	7.54936	7.15503	-9.63911	14.92083	18.87884	1.2629	0.79183	173.81031	170.54168	65.3354	0.33014	 	1.5610199999999998E10	 	3.04269E-10	 	-5291.52103	31.21674	 
695.0	1.0	0.0	7.55136	7.15313	-9.66303	14.8965	18.82	1.26034	0.79343	174.15046	170.73399	65.47018	0.33	 	1.85011E10	 	2.55406E-10	 	-5447.43216	31.18223	 
690.0	1.0	0.0	7.55335	7.15124	-9.68688	14.87216	18.76116	1.25777	0.79506	174.49007	170.9255	65.60479	0.32986	 	2.19661E10	 	2.14006E-10	 	-5603.17345	31.14826	 
685.0	1.0	0.0	7.55534	7.14936	-9.71068	14.84782	18.7023	1.25518	0.7967	174.82913	171.11622	65.73923	0.32972	 	2.6126899999999996E10	 	1.78992E-10	 	-5758.74782	31.11487	 
680.0	1.0	0.0	7.55733	7.14748	-9.73441	14.82347	18.64343	1.25257	0.79836	175.16766	171.30615	65.87348	0.32958	 	3.1132299999999996E10	 	1.4943E-10	 	-5914.15833	31.0821	 
675.0	1.0	0.0	7.55931	7.14561	-9.75808	14.79911	18.58455	1.24995	0.80003	175.50564	171.49529	66.00756	0.32944	 	3.71654E10	 	1.24516E-10	 	-6069.40821	31.04998	 
670.0	1.0	0.0	7.56129	7.14374	-9.78168	14.77475	18.52566	1.24731	0.80173	175.84309	171.68364	66.14146	0.3293	 	4.44509E10	 	1.03559E-10	 	-6224.50092	31.01854	 
665.0	1.0	0.0	7.56326	7.14187	-9.80522	14.75039	18.46675	1.24465	0.80344	176.18	171.8712	66.27519	0.32916	 	5.326619999999999E10	 	8.59621E-11	 	-6379.44012	30.98784	 
660.0	1.0	0.0	7.56523	7.14001	-9.8287	14.72601	18.40784	1.24198	0.80517	176.51636	172.05798	66.40874	0.32901	 	6.395359999999999E10	 	7.12153E-11	 	-6534.21942	30.95586	 
655.0	1.0	0.0	7.5672	7.13816	-9.85212	14.70163	18.34891	1.23929	0.80691	176.85219	172.24398	66.54211	0.32887	 	7.69367E10	 	5.88805E-11	 	-6688.78184	30.91248	 
650.0	1.0	0.0	7.56916	7.13631	-9.87547	14.67725	18.28996	1.23659	0.80868	177.18748	172.42921	66.6753	0.32873	 	9.2741E10	 	4.85833E-11	 	-6843.05174	30.85398	 
645.0	1.0	0.0	7.57112	7.13447	-9.89876	14.65286	18.23101	1.23387	0.81046	177.52224	172.61365	66.80832	0.32859	 	1.1202E11	 	4.00043E-11	 	-6997.03033	30.79572	 
640.0	1.0	0.0	7.57307	7.13263	-9.92199	14.62846	18.17204	1.23113	0.81226	177.85645	172.79733	66.94115	0.32845	 	1.35586E11	 	3.28711E-11	 	-7150.71881	30.7377	 
635.0	1.0	0.0	7.57502	7.13079	-9.94515	14.60405	18.11306	1.22838	0.81408	178.19013	172.98023	67.07382	0.32831	 	1.64455E11	 	2.69524E-11	 	-7304.11838	30.67991	 
630.0	1.0	0.0	7.57696	7.12896	-9.96825	14.57964	18.05406	1.22561	0.81592	178.52326	173.16236	67.2063	0.32817	 	1.99898E11	 	2.20515E-11	 	-7457.23023	30.62237	 
625.0	1.0	0.0	7.5789	7.12714	-9.99129	14.55523	17.99505	1.22282	0.81778	178.85586	173.34373	67.33861	0.32803	 	2.43508E11	 	1.8002E-11	 	-7610.05609	30.56517	 
620.0	1.0	0.0	7.58083	7.12532	-10.01426	14.53081	17.93602	1.22001	0.81966	179.18793	173.52433	67.47074	0.32789	 	2.97289E11	 	1.46633E-11	 	-7762.59845	30.50847	 
615.0	1.0	0.0	7.58276	7.12351	-10.03717	14.50638	17.87698	1.21719	0.82156	179.51945	173.70416	67.6027	0.32775	 	3.63764E11	 	1.19166E-11	 	-7914.85783	30.45187	 
610.0	1.0	0.0	7.58469	7.1217	-10.06002	14.48195	17.81793	1.21435	0.82349	179.85044	173.88324	67.73447	0.32761	 	4.46121E11	 	9.66204E-12	 	-8066.83538	30.39551	 
605.0	1.0	0.0	7.58661	7.11989	-10.0828	14.45751	17.75886	1.21149	0.82543	180.18089	174.06156	67.86607	0.32747	 	5.48397E11	 	7.81557E-12	 	-8218.53228	30.33938	 
600.0	1.0	0.0	7.58853	7.11809	-10.10552	14.43306	17.69977	1.20861	0.82739	180.51081	174.23912	67.9975	0.32733	 	6.75715E11	 	6.30684E-12	 	-8369.94969	30.28348	 
595.0	1.0	0.0	7.59044	7.1163	-10.12818	14.40861	17.64067	1.20572	0.82938	180.84018	174.41593	68.12874	0.32719	 	8.34597E11	 	5.07697E-12	 	-8521.08876	30.22781	 
590.0	1.0	0.0	7.59235	7.11451	-10.15077	14.38415	17.58155	1.2028	0.83139	181.16903	174.59199	68.25981	0.32705	 	1.03336E12	 	4.07681E-12	 	-8671.95066	30.17238	 
585.0	1.0	0.0	7.59426	7.11273	-10.1733	14.35969	17.52242	1.19987	0.83342	181.49733	174.7673	68.3907	0.32692	 	1.28265E12	 	3.26543E-12	 	-8822.53656	30.11718	 
580.0	1.0	0.0	7.59615	7.11095	-10.19577	14.33522	17.46327	1.19692	0.83548	181.8251	174.94186	68.52142	0.32678	 	1.59613E12	 	2.60883E-12	 	-8972.84759	30.06221	 
575.0	1.0	0.0	7.59805	7.10917	-10.21817	14.31074	17.40411	1.19395	0.83755	182.15233	175.11568	68.65195	0.32664	 	1.99133E12	 	2.07881E-12	 	-9122.88492	30.00747	 
570.0	1.0	0.0	7.59994	7.10741	-10.24051	14.28626	17.34492	1.19096	0.83966	182.47903	175.28875	68.78232	0.3265	 	2.49092E12	 	1.65208E-12	 	-9272.64968	29.95295	 
565.0	1.0	0.0	7.60183	7.10564	-10.26278	14.26178	17.28572	1.18796	0.84178	182.8052	175.46108	68.9125	0.32636	 	3.12418E12	 	1.3094E-12	 	-9422.14303	29.89867	 
560.0	1.0	0.0	7.60371	7.10388	-10.28499	14.23728	17.2265	1.18493	0.84393	183.13082	175.63268	69.04251	0.32622	 	3.9291E12	 	1.03494E-12	 	-9571.36613	29.84462	 
555.0	1.0	0.0	7.60559	7.10213	-10.30714	14.21278	17.16726	1.18188	0.84611	183.45592	175.80353	69.17234	0.32608	 	4.95509E12	 	8.15725E-13	 	-9720.32008	29.79079	 
550.0	1.0	0.0	7.60746	7.10038	-10.32923	14.18828	17.10801	1.17881	0.84831	183.78048	175.97365	69.30199	0.32594	 	6.26664E12	 	6.41108E-13	 	-9869.00606	29.7372	 
545.0	1.0	0.0	7.60933	7.09864	-10.35125	14.16377	17.04873	1.17573	0.85054	184.1045	176.14304	69.43146	0.3258	 	7.94812E12	 	5.02407E-13	 	-10017.42518	29.68382	 
540.0	1.0	0.0	7.61119	7.0969	-10.3732	14.13925	16.98944	1.17262	0.85279	184.42799	176.3117	69.56076	0.32566	 	1.01103E13	 	3.92549E-13	 	-10165.57859	29.63068	 
535.0	1.0	0.0	7.61305	7.09517	-10.3951	14.11472	16.93013	1.16949	0.85507	184.75094	176.47963	69.68988	0.32552	 	1.2899E13	 	3.0579E-13	 	-10313.46742	29.57776	 
530.0	1.0	0.0	7.61491	7.09344	-10.41693	14.09019	16.87079	1.16635	0.85738	185.07336	176.64683	69.81883	0.32538	 	1.65069E13	 	2.37475E-13	 	-10461.09277	29.52507	 
525.0	1.0	0.0	7.61676	7.09171	-10.43869	14.06566	16.81144	1.16318	0.85971	185.39525	176.81331	69.9476	0.32524	 	2.11893E13	 	1.83846E-13	 	-10608.45578	29.4726	 
520.0	1.0	0.0	7.6186	7.08999	-10.4604	14.04112	16.75206	1.15999	0.86208	185.7166	176.97907	70.07619	0.3251	 	2.72857E13	 	1.41875E-13	 	-10755.55759	29.42036	 
515.0	1.0	0.0	7.62045	7.08828	-10.48203	14.01657	16.69267	1.15678	0.86447	186.03742	177.14411	70.2046	0.32497	 	3.5249E13	 	1.09131E-13	 	-10902.39928	29.36834	 
510.0	1.0	0.0	7.62228	7.08657	-10.50361	13.99202	16.63325	1.15354	0.86689	186.3577	177.30842	70.33284	0.32483	 	4.56856E13	 	8.36667E-14	 	-11048.98199	29.31654	 
505.0	1.0	0.0	7.62412	7.08487	-10.52512	13.96746	16.57381	1.15029	0.86935	186.67746	177.47202	70.46089	0.32469	 	5.94099E13	 	6.3928E-14	 	-11195.30682	29.26497	 
500.0	1.0	0.0	7.62594	7.08317	-10.54657	13.94289	16.51435	1.14701	0.87183	186.99667	177.63491	70.58878	0.32455	 	7.752E13	 	4.86784E-14	 	-11341.37487	29.21361	 
495.0	1.0	0.0	7.62777	7.08148	-10.56795	13.91832	16.45486	1.14372	0.87434	187.31536	177.79709	70.71648	0.32441	 	1.01502E14	 	3.69368E-14	 	-11487.18725	29.16248	 
490.0	1.0	0.0	7.62959	7.07979	-10.58927	13.89374	16.39535	1.14039	0.87689	187.63351	177.95855	70.84401	0.32427	 	1.3337299999999998E14	 	2.79274E-14	 	-11632.74507	29.11156	 
485.0	1.0	0.0	7.6314	7.07811	-10.61052	13.86916	16.33582	1.13705	0.87947	187.95113	178.11931	70.97136	0.32413	 	1.75883E14	 	2.10387E-14	 	-11778.04939	29.06086	 
480.0	1.0	0.0	7.63321	7.07643	-10.63171	13.84457	16.27626	1.13369	0.88208	188.26822	178.27935	71.09853	0.324	 	2.32797E14	 	1.57903E-14	 	-11923.10132	29.01039	 
475.0	1.0	0.0	7.63501	7.07476	-10.65284	13.81997	16.21668	1.1303	0.88472	188.58477	178.4387	71.22553	0.32386	 	3.09284E14	 	1.18064E-14	 	-12067.90193	28.96012	 
470.0	1.0	0.0	7.63682	7.07309	-10.6739	13.79537	16.15707	1.12689	0.8874	188.90079	178.59734	71.35235	0.32372	 	4.12475E14	 	8.79357E-15	 	-12212.45233	28.91008	 
465.0	1.0	0.0	7.63861	7.07143	-10.6949	13.77077	16.09744	1.12345	0.89012	189.21628	178.75528	71.47899	0.32358	 	5.5224599999999994E14	 	6.52378E-15	 	-12356.75357	28.86025	 
460.0	1.0	0.0	7.6404	7.06977	-10.71584	13.74615	16.03778	1.11999	0.89286	189.53124	178.91252	71.60545	0.32344	 	7.42327E14	 	4.82041E-15	 	-12500.80673	28.81063	 
455.0	1.0	0.0	7.64219	7.06812	-10.73671	13.72153	15.97809	1.11651	0.89565	189.84567	179.06907	71.73174	0.3233	 	1.0019E15	 	3.54719E-15	 	-12644.61286	28.76123	 
450.0	1.0	0.0	7.64397	7.06647	-10.75752	13.69691	15.91838	1.113	0.89847	190.15956	179.22492	71.85785	0.32316	 	1.35785E15	 	2.59935E-15	 	-12788.17304	28.71204	 
445.0	1.0	0.0	7.64575	7.06483	-10.77826	13.67228	15.85864	1.10947	0.90133	190.47292	179.38007	71.98378	0.32303	 	1.84807E15	 	1.89664E-15	 	-12931.48832	28.66306	 
440.0	1.0	0.0	7.64752	7.06319	-10.79894	13.64764	15.79887	1.10591	0.90423	190.78575	179.53454	72.10953	0.32289	 	2.52616E15	 	1.37786E-15	 	-13074.55975	28.61428	 
435.0	1.0	0.0	7.64929	7.06156	-10.81955	13.62299	15.73907	1.10233	0.90717	191.09805	179.68832	72.23511	0.32275	 	3.46834E15	 	9.96528E-16	 	-13217.38836	28.56572	 
430.0	1.0	0.0	7.65105	7.05993	-10.8401	13.59834	15.67923	1.09873	0.91015	191.40982	179.8414	72.36051	0.32261	 	4.78344E15	 	7.17454E-16	 	-13359.9752	28.51737	 
425.0	1.0	0.0	7.65281	7.05831	-10.86059	13.57369	15.61937	1.09509	0.91316	191.72106	179.99381	72.48574	0.32247	 	6.62764E15	 	5.14134E-16	 	-13502.32114	28.46919	 
420.0	1.0	0.0	7.65456	7.05669	-10.88101	13.54903	15.55948	1.09144	0.91622	192.03176	180.14553	72.61078	0.32234	 	9.22615E15	 	3.66685E-16	 	-13644.42745	28.42126	 
415.0	1.0	0.0	7.65631	7.05508	-10.90137	13.52436	15.49955	1.08775	0.91933	192.34194	180.29656	72.73565	0.3222	 	1.29053E16	 	2.60256E-16	 	-13786.29455	28.37342	 
410.0	1.0	0.0	7.65806	7.05347	-10.92166	13.49969	15.4396	1.08404	0.92247	192.65158	180.44692	72.86034	0.32206	 	1.81406E16	 	1.83802E-16	 	-13927.92258	28.32561	 
405.0	1.0	0.0	7.65979	7.05187	-10.94189	13.47501	15.3796	1.08031	0.92566	192.9607	180.5966	72.98485	0.32192	 	2.5628E16	 	1.29151E-16	 	-14069.31171	28.27783	 
400.0	1.0	0.0	7.66153	7.05027	-10.96205	13.45032	15.31958	1.07654	0.9289	193.26928	180.7456	73.10919	0.32179	 	3.63921E16	 	9.02799E-17	 	-14210.46211	28.23008	 
395.0	1.0	0.0	7.66326	7.04868	-10.98215	13.42563	15.25952	1.07275	0.93218	193.57733	180.89393	73.23335	0.32165	 	5.19493E16	 	6.27742E-17	 	-14351.37392	28.18236	 
390.0	1.0	0.0	7.66498	7.04709	-11.00219	13.40093	15.19942	1.06893	0.93551	193.88486	181.04158	73.35733	0.32151	 	7.45559E16	 	4.34127E-17	 	-14492.04726	28.13467	 
385.0	1.0	0.0	7.66671	7.04551	-11.02216	13.37623	15.13929	1.06509	0.93889	194.19185	181.18856	73.48113	0.32137	 	1.07589E17	 	2.98568E-17	 	-14632.48227	28.087	 
380.0	1.0	0.0	7.66842	7.04394	-11.04207	13.35152	15.07911	1.06121	0.94232	194.49831	181.33488	73.60475	0.32123	 	1.56133E17	 	2.04176E-17	 	-14772.67908	28.03936	 
375.0	1.0	0.0	7.67013	7.04237	-11.06191	13.3268	15.0189	1.05731	0.94579	194.80424	181.48052	73.7282	0.3211	 	2.27884E17	 	1.38819E-17	 	-14912.63779	27.99174	 
370.0	1.0	0.0	7.67184	7.0408	-11.08169	13.30208	14.95865	1.05338	0.94932	195.10965	181.62551	73.85147	0.32096	 	3.34571E17	 	9.38232E-18	 	-15052.35851	27.94414	 
365.0	1.0	0.0	7.67354	7.03924	-11.1014	13.27735	14.89836	1.04942	0.95291	195.41452	181.76982	73.97456	0.32082	 	4.9417E17	 	6.3028E-18	 	-15191.84133	27.89657	 
360.0	1.0	0.0	7.67524	7.03768	-11.12105	13.25262	14.83803	1.04543	0.95654	195.71886	181.91348	74.09748	0.32069	 	7.3441E17	 	4.20779E-18	 	-15331.08633	27.849	 
355.0	1.0	0.0	7.67693	7.03613	-11.14063	13.22788	14.77766	1.04141	0.96023	196.02268	182.05647	74.22022	0.32055	 	1.09835E18	 	2.79132E-18	 	-15470.0936	27.80145	 
350.0	1.0	0.0	7.67861	7.03459	-11.16015	13.20314	14.71724	1.03737	0.96398	196.32596	182.1988	74.34277	0.32041	 	1.65328E18	 	1.83964E-18	 	-15608.86318	27.75392	 
345.0	1.0	0.0	7.6803	7.03305	-11.17961	13.17838	14.65678	1.03329	0.96778	196.62872	182.34048	74.46516	0.32027	 	2.50512E18	 	1.20435E-18	 	-15747.39513	27.70639	 
340.0	1.0	0.0	7.68197	7.03151	-11.199	13.15363	14.59627	1.02918	0.97165	196.93094	182.4815	74.58736	0.32014	 	3.82166E18	 	7.83072E-19	 	-15885.68948	27.65887	 
335.0	1.0	0.0	7.68364	7.02998	-11.21832	13.12886	14.53572	1.02504	0.97557	197.23264	182.62187	74.70939	0.32	 	5.87072E18	 	5.05599E-19	 	-16023.74627	27.61136	 
330.0	1.0	0.0	7.68531	7.02845	-11.23758	13.10409	14.47512	1.02087	0.97956	197.53381	182.76159	74.83123	0.31986	 	9.08285E18	 	3.24108E-19	 	-16161.56551	27.56385	 
325.0	1.0	0.0	7.68697	7.02693	-11.25678	13.07932	14.41447	1.01666	0.98361	197.83445	182.90065	74.9529	0.31973	 	1.41554E19	 	2.06241E-19	 	-16299.14721	27.51634	 
320.0	1.0	0.0	7.68863	7.02542	-11.27591	13.05454	14.35376	1.01243	0.98772	198.13456	183.03907	75.0744	0.31959	 	2.22264E19	 	1.30251E-19	 	-16436.49133	27.46883	 
315.0	1.0	0.0	7.69028	7.02391	-11.29498	13.02975	14.29301	1.00816	0.9919	198.43414	183.17684	75.19571	0.31945	 	3.51682E19	 	8.16253E-20	 	-16573.59787	27.42131	 
310.0	1.0	0.0	7.69193	7.02241	-11.31398	13.00496	14.2322	1.00386	0.99615	198.73319	183.31397	75.31685	0.31931	 	5.6085E19	 	5.07481E-20	 	-16710.46678	27.37378	 
305.0	1.0	0.0	7.69358	7.02091	-11.33292	12.98016	14.17134	0.99953	1.00047	199.03172	183.45045	75.4378	0.31918	 	9.01675E19	 	3.12952E-20	 	-16847.098	27.32624	 
300.0	1.0	0.0	7.69521	7.01941	-11.35179	12.95535	14.11043	0.99516	1.00486	199.32972	183.58629	75.55858	0.31904	 	1.4616799999999998E20	 	1.91383E-20	 	-16983.49146	27.27869	 
295.0	1.0	0.0	7.69685	7.01792	-11.3706	12.93054	14.04945	0.99076	1.00932	199.62718	183.72149	75.67919	0.3189	 	2.3897099999999997E20	 	1.16039E-20	 	-17119.64706	27.23112	 
290.0	1.0	0.0	7.69847	7.01644	-11.38934	12.90572	13.98842	0.98633	1.01386	199.92412	183.85605	75.79961	0.31877	 	3.9412099999999997E20	 	6.97399E-21	 	-17255.5647	27.18353	 
285.0	1.0	0.0	7.7001	7.01496	-11.40802	12.8809	13.92733	0.98186	1.01848	200.22054	183.98998	75.91985	0.31863	 	6.55853E20	 	4.15366E-21	 	-17391.24425	27.13591	 
280.0	1.0	0.0	7.70172	7.01349	-11.42663	12.85607	13.86617	0.97736	1.02317	200.51642	184.12327	76.03992	0.31849	 	1.1015E21	 	2.45102E-21	 	-17526.68557	27.08826	 
275.0	1.0	0.0	7.70333	7.01202	-11.44518	12.83123	13.80495	0.97282	1.02794	200.81178	184.25592	76.15981	0.31836	 	1.86753E21	 	1.43258E-21	 	-17661.88849	27.04058	 
270.0	1.0	0.0	7.70494	7.01055	-11.46366	12.80639	13.74367	0.96824	1.0328	201.10661	184.38795	76.27952	0.31822	 	3.19722E21	 	8.29152E-22	 	-17796.85281	26.99286	 
265.0	1.0	0.0	7.70654	7.00909	-11.48208	12.78154	13.68231	0.96363	1.03774	201.40091	184.51934	76.39905	0.31809	 	5.52862E21	 	4.75087E-22	 	-17931.57834	26.94511	 
260.0	1.0	0.0	7.70814	7.00764	-11.50043	12.75669	13.62089	0.95898	1.04277	201.69468	184.6501	76.51841	0.31795	 	9.65877E21	 	2.6941E-22	 	-18066.06483	26.8973	 
255.0	1.0	0.0	7.70973	7.00619	-11.51872	12.73183	13.5594	0.9543	1.04789	201.98793	184.78024	76.63758	0.31781	 	1.7053599999999999E22	 	1.51157E-22	 	-18200.31204	26.84944	 
250.0	1.0	0.0	7.71132	7.00475	-11.53695	12.70697	13.49783	0.94957	1.0531	202.28065	184.90975	76.75658	0.31768	 	3.0438799999999997E22	 	8.38851E-23	 	-18334.31967	26.80153	 
245.0	1.0	0.0	7.7129	7.00331	-11.5551	12.68209	13.43619	0.94481	1.05841	202.57284	185.03864	76.8754	0.31754	 	5.4940999999999994E22	 	4.60305E-23	 	-18468.08743	26.75355	 
240.0	1.0	0.0	7.71448	7.00188	-11.5732	12.65722	13.37446	0.94001	1.06381	202.86451	185.16691	76.99404	0.3174	 	1.00314E23	 	2.49671E-23	 	-18601.61496	26.70551	 
235.0	1.0	0.0	7.71605	7.00045	-11.59122	12.63233	13.31266	0.93518	1.06932	203.15564	185.29455	77.1125	0.31727	 	1.85343E23	 	1.33815E-23	 	-18734.90192	26.65739	 
230.0	1.0	0.0	7.71762	6.99903	-11.60919	12.60744	13.25078	0.9303	1.07492	203.44625	185.42157	77.23079	0.31713	 	3.4664599999999996E23	 	7.08431E-24	 	-18867.94788	26.60919	 
225.0	1.0	0.0	7.71918	6.99761	-11.62708	12.58255	13.18881	0.92538	1.08064	203.73634	185.54798	77.34889	0.317	 	6.565319999999999E23	 	3.70332E-24	 	-19000.75244	26.56091	 
220.0	1.0	0.0	7.72074	6.9962	-11.64492	12.55765	13.12675	0.92042	1.08646	204.02589	185.67377	77.46682	0.31686	 	1.25965E24	 	1.9108E-24	 	-19133.31513	26.51254	 
215.0	1.0	0.0	7.7223	6.99479	-11.66268	12.53274	13.0646	0.91543	1.09239	204.31492	185.79895	77.58457	0.31672	 	2.44929E24	 	9.72746E-25	 	-19265.63545	26.46406	 
210.0	1.0	0.0	7.72384	6.99339	-11.68038	12.50783	13.00235	0.91039	1.09843	204.60343	185.92351	77.70214	0.31659	 	4.82846E24	 	4.88382E-25	 	-19397.71286	26.41548	 
205.0	1.0	0.0	7.72539	6.992	-11.69802	12.48291	12.94001	0.90531	1.1046	204.8914	186.04746	77.81953	0.31645	 	9.65477E24	 	2.41718E-25	 	-19529.54678	26.36678	 
200.0	1.0	0.0	7.72692	6.9906	-11.71559	12.45798	12.87757	0.90018	1.11088	205.17885	186.17081	77.93674	0.31632	 	1.959E25	 	1.17883E-25	 	-19661.13661	26.31797	 
195.0	1.0	0.0	7.72846	6.98922	-11.7331	12.43305	12.81503	0.89502	1.1173	205.46578	186.29354	78.05377	0.31618	 	4.03545E25	 	5.66212E-26	 	-19792.48167	26.26901	 
190.0	1.0	0.0	7.72998	6.98784	-11.75054	12.40811	12.75238	0.88981	1.12384	205.75217	186.41567	78.17062	0.31605	 	8.44357E25	 	2.67721E-26	 	-19923.58128	26.21992	 
185.0	1.0	0.0	7.73151	6.98646	-11.76791	12.38317	12.68962	0.88456	1.13051	206.03804	186.53719	78.2873	0.31591	 	1.7953900000000002E26	 	1.24548E-26	 	-20054.43465	26.17067	 
180.0	1.0	0.0	7.73302	6.98509	-11.78522	12.35822	12.62674	0.87926	1.13732	206.32339	186.6581	78.4038	0.31577	 	3.8816900000000003E26	 	5.69781E-27	 	-20185.04099	26.12127	 
175.0	1.0	0.0	7.73453	6.98373	-11.80247	12.33326	12.56375	0.87392	1.14427	206.60821	186.77842	78.52011	0.31564	 	8.53799E26	 	2.56186E-27	 	-20315.39945	26.07169	 
170.0	1.0	0.0	7.73604	6.98237	-11.81964	12.3083	12.50064	0.86853	1.15137	206.8925	186.89813	78.63625	0.3155	 	1.9116799999999998E27	 	1.13142E-27	 	-20445.5091	26.02193	 
165.0	1.0	0.0	7.73754	6.98101	-11.83676	12.28333	12.4374	0.8631	1.15862	207.17627	187.01724	78.75221	0.31537	 	4.3597699999999996E27	 	4.90507E-28	 	-20575.36897	25.97197	 
160.0	1.0	0.0	7.73904	6.97966	-11.85381	12.25836	12.37402	0.85762	1.16602	207.45951	187.13576	78.86799	0.31523	 	1.0134000000000001E28	 	2.08615E-28	 	-20704.97801	25.92181	 
155.0	1.0	0.0	7.74053	6.97832	-11.87079	12.23338	12.31052	0.85209	1.17358	207.74222	187.25368	78.98359	0.3151	 	2.40243E28	 	8.69826E-29	 	-20834.33512	25.87142	 
150.0	1.0	0.0	7.74202	6.97698	-11.88771	12.20839	12.24687	0.84652	1.18131	208.02441	187.371	79.09901	0.31496	 	5.8127300000000005E28	 	3.55305E-29	 	-20963.43911	25.8208	 
145.0	1.0	0.0	7.7435	6.97564	-11.90456	12.1834	12.18308	0.84089	1.18921	208.30607	187.48773	79.21426	0.31483	 	1.4364400000000001E29	 	1.4208E-29	 	-21092.28873	25.76992	 
140.0	1.0	0.0	7.74497	6.97431	-11.92134	12.15841	12.11913	0.83522	1.19729	208.58721	187.60387	79.32932	0.31469	 	3.6283100000000006E29	 	5.55764E-30	 	-21220.88264	25.71878	 
135.0	1.0	0.0	7.74644	6.97299	-11.93806	12.1334	12.05503	0.8295	1.20554	208.86782	187.71942	79.4442	0.31456	 	9.37519E29	 	2.12484E-30	 	-21349.21942	25.66736	 
130.0	1.0	0.0	7.74791	6.97167	-11.95472	12.10839	11.99076	0.82373	1.21399	209.14791	187.83438	79.55891	0.31442	 	2.48018E30	 	7.9336E-31	 	-21477.29755	25.61563	 
125.0	1.0	0.0	7.74937	6.97036	-11.97131	12.08338	11.92633	0.81791	1.22263	209.42747	187.94875	79.67343	0.31429	 	6.72353E30	 	2.89025E-31	 	-21605.11544	25.56358	 
120.0	1.0	0.0	7.75082	6.96905	-11.98783	12.05836	11.86172	0.81204	1.23147	209.70651	188.06253	79.78778	0.31415	 	1.8695099999999999E31	 	1.0264E-31	 	-21732.67136	25.51118	 
115.0	1.0	0.0	7.75227	6.96775	-12.00429	12.03333	11.79692	0.80611	1.24052	209.98502	188.17573	79.90195	0.31402	 	5.33706E31	 	3.54964E-32	 	-21859.9635	25.45843	 
110.0	1.0	0.0	7.75372	6.96645	-12.02068	12.00829	11.73194	0.80014	1.24978	210.263	188.28835	80.01593	0.31388	 	1.5659E32	 	1.19424E-32	 	-21986.98992	25.40528	 
105.0	1.0	0.0	7.75516	6.96515	-12.037	11.98325	11.66676	0.79411	1.25927	210.54046	188.40038	80.12974	0.31375	 	4.72705E32	 	3.90445E-33	 	-22113.74855	25.35173	 
100.0	1.0	0.0	7.75659	6.96387	-12.05326	11.95821	11.60137	0.78803	1.26899	210.8174	188.51184	80.24337	0.31361	 	1.46986E33	 	1.23907E-33	 	-22240.23721	25.29773	 
95.0	1.0	0.0	7.75802	6.96258	-12.06946	11.93316	11.53576	0.78189	1.27896	211.09381	188.62271	80.35682	0.31348	 	4.71348E33	 	3.81215E-34	 	-22366.45358	25.24327	 
90.0	1.0	0.0	7.75944	6.96131	-12.08559	11.9081	11.46993	0.7757	1.28917	211.36969	188.73301	80.47008	0.31334	 	1.56079E34	 	1.13561E-34	 	-22492.39515	25.18831	 
85.0	1.0	0.0	7.76086	6.96004	-12.10165	11.88304	11.40386	0.76945	1.29963	211.64505	188.84272	80.58317	0.31321	 	5.34398E34	 	3.27105E-35	 	-22618.0593	25.13283	 
80.0	1.0	0.0	7.76227	6.95877	-12.11765	11.85797	11.33755	0.76314	1.31037	211.91989	188.95187	80.69608	0.31307	 	1.89462E35	 	9.09754E-36	 	-22743.44319	25.07678	 
75.0	1.0	0.0	7.76368	6.95751	-12.13358	11.83289	11.27098	0.75678	1.32138	212.1942	189.06044	80.80881	0.31294	 	6.96574E35	 	2.43942E-36	 	-22868.54383	25.02013	 
70.0	1.0	0.0	7.76508	6.95625	-12.14944	11.80781	11.20414	0.75036	1.33269	212.46798	189.16844	80.92136	0.31281	 	2.66005E36	 	6.29623E-37	 	-22993.35802	24.96284	 
65.0	1.0	0.0	7.76648	6.955	-12.16524	11.78272	11.13702	0.74389	1.34429	212.74124	189.27586	81.03373	0.31267	 	1.0568699999999999E37	 	1.56161E-37	 	-23117.88235	24.90487	 
60.0	1.0	0.0	7.76787	6.95375	-12.18097	11.75763	11.06961	0.73735	1.35621	213.01398	189.38272	81.14592	0.31254	 	4.37662E37	 	3.71525E-38	 	-23242.11317	24.84616	 
55.0	1.0	0.0	7.76926	6.95251	-12.19664	11.73253	11.00189	0.73075	1.36845	213.28619	189.48901	81.25793	0.3124	 	1.89261E38	 	8.4625E-39	 	-23366.0466	24.78669	 
50.0	1.0	0.0	7.77064	6.95128	-12.21224	11.70742	10.93384	0.7241	1.38103	213.55788	189.59473	81.36976	0.31227	 	8.5637E38	 	1.84175E-39	 	-23489.67848	24.72638	 
45.0	1.0	0.0	7.77201	6.95005	-12.22778	11.68231	10.86545	0.71738	1.39396	213.82904	189.69989	81.48141	0.31213	 	4.0632100000000005E39	 	3.82164E-40	 	-23613.00436	24.66518	 
40.0	1.0	0.0	7.77338	6.94882	-12.24325	11.65719	10.79671	0.7106	1.40726	214.09968	189.80448	81.59288	0.312	 	2.02614E40	 	7.54343E-41	 	-23736.0195	24.60303	 
35.0	1.0	0.0	7.77475	6.9476	-12.25865	11.63207	10.72759	0.70376	1.42093	214.36979	189.90851	81.70417	0.31187	 	1.0644300000000001E41	 	1.41297E-41	 	-23858.71883	24.53987	 
30.0	1.0	0.0	7.77611	6.94639	-12.27399	11.60695	10.65807	0.69686	1.43501	214.63938	190.01198	81.81528	0.31173	 	5.90646E41	 	2.50505E-42	 	-23981.09689	24.47561	 
25.0	1.0	0.0	7.77746	6.94518	-12.28926	 	10.58814	0.68989	1.4495	214.90845	190.11489	81.9262	0.3116	 	3.4713599999999996E42	 	4.192E-43	 	-24103.14784	 	 
