T (C)	Fraction solid (wt)-TOTAL	Fraction liquid (wt)-LIQUID	Density (g/(cm)^3)-TOTAL	Molar volume (cm^3)-TOTAL	Volume change (%)-  	Average expansion coeff. (10e-6 1/K)-  	Thermal conductivity (W/(m*K))-TOTAL	Electrical resistivity (10e-6 Ohm*m)-TOTAL	Electrical conductivity (10e6 1/(Ohm*m))-TOTAL	Young's modulus (GPa)-TOTAL	Bulk modulus (GPa)-TOTAL	Shear modulus(GPa)-TOTAL	Poisson's ratio-TOTAL	Liquid viscosity (mPa s)-  	Total viscosity (mPa s)-  	Liquid diffusivity (10e-9 (m^2)/s)-  	Total diffusivity (10e-9 (m^2)/s)-  	Surface Tension (mN/m)-  	Enthalpy (J/mole)-TOTAL	Specific heat (J/(mole K))-TOTAL	Latent heat (J/mole)-TOTAL
1400.0	0.0	1.0	7.40004	8.02795	0.0	34.22308	30.15357	1.35945	0.73559	0.0	123.09255	0.0	0.5	7.15443	7.15443	1.14142	1.14142	1838.50902	42720.39	 	0.0
1395.0	0.0	1.0	7.40429	8.02333	-0.0574698	34.18841	30.0702	1.35914	0.73576	0.0	123.2309	0.0	0.5	7.23192	7.23192	1.12582	1.12582	1842.59749	42521.782	39.7216	0.0
1390.0	0.0	1.0	7.40854	8.01873	-0.11478	34.15394	29.98683	1.35884	0.73592	0.0	123.36925	0.0	0.5	7.31073	7.31073	1.11034	1.11034	1846.71684	42323.604	39.6356	0.0
1385.0	0.0	1.0	7.41278	8.01415	-0.17193	34.11966	29.90346	1.35853	0.73609	0.0	123.5076	0.0	0.5	7.39087	7.39087	1.095	1.095	1850.86674	42125.853	39.5502	0.0
1380.0	0.0	1.0	7.41702	8.00957	-0.22891	34.08558	29.82008	1.35822	0.73626	0.0	123.64595	0.0	0.5	7.47239	7.47239	1.07979	1.07979	1855.04674	41928.526	39.4654	0.0
1375.0	0.0	1.0	7.42124	8.00501	-0.28574	34.0517	29.73671	1.35791	0.73643	0.0	123.7843	0.0	0.5	7.55531	7.55531	1.06471	1.06471	1859.25638	41731.621	39.381	0.0
1370.0	0.0	1.0	7.42546	8.00046	-0.34241	34.01803	29.65334	1.35759	0.7366	0.0	123.92265	0.0	0.5	7.63966	7.63966	1.04976	1.04976	1863.49521	41535.135	39.2972	0.0
1365.0	0.0	1.0	7.42967	7.99592	-0.39891	33.98455	29.56997	1.35728	0.73677	0.0	124.061	0.0	0.5	7.72547	7.72547	1.03494	1.03494	1867.76274	41339.064	39.2142	0.0
1360.0	0.0	1.0	7.43388	7.9914	-0.45526	33.95129	29.48659	1.35696	0.73694	0.0	124.19935	0.0	0.5	7.81279	7.81279	1.02025	1.02025	1872.05849	41143.407	39.1314	0.0
1355.0	0.0	1.0	7.43808	7.98689	-0.51144	33.91824	29.40322	1.35664	0.73711	0.0	124.3377	0.0	0.5	7.90163	7.90163	1.00569	1.00569	1876.38194	40948.162	39.049	0.0
1350.0	0.0	1.0	7.44227	7.98239	-0.56747	33.88539	29.31985	1.35632	0.73729	0.0	124.47605	0.0	0.5	7.99205	7.99205	0.99126	0.99126	1880.7326	40753.324	38.9676	0.0
1348.88	0.0	1.0	7.44321	7.98139	-0.57998	33.87807	29.30119	1.35625	0.73733	0.0	124.50702	0.0	0.5	8.0125	8.0125	0.98805	0.98805	1881.71001	40709.771	38.91858	0.0
1345.0	0.11698	0.88302	7.48331	7.93865	-1.11233	32.4436	29.66122	1.33658	0.74818	0.018572	127.90394	0.0062505	0.48564	8.08348	11.86475	0.97703	0.66565	1881.55867	38834.963	483.08339	1723.929
1340.0	0.24458	0.75542	7.52792	7.89161	-1.69825	30.87205	30.05962	1.31479	0.76058	0.36467	131.6473	0.12406	0.46973	8.17734	59.90504	0.96283	0.13143	1881.22547	36773.452	412.3022	3591.411
1335.0	0.34932	0.65068	7.5653	7.85261	-2.18408	29.57916	30.39061	1.29644	0.77134	1.55318	134.766	0.53321	0.45646	8.27374	224.88347	0.94866	0.0349024	1880.76126	35059.638	342.7628	5111.597
1330.0	0.43611	0.56389	7.59696	7.8199	-2.59153	28.50482	30.6667	1.28078	0.78078	3.84891	137.39052	1.33152	0.4453	8.37285	554.05615	0.93452	0.0141224	1880.17257	33618.936	288.1404	6359.069
1325.0	0.50863	0.49137	7.62405	7.7921	-2.93785	27.60111	30.89702	1.26726	0.7891	7.24507	139.62052	2.52291	0.43586	8.47486	1063.33558	0.92039	0.00733557	1879.47013	32394.713	244.8446	7390.458
1320.0	0.5697	0.4303	7.64735	7.76839	-3.23324	26.83999	31.08825	1.25553	0.79648	11.57497	141.53369	4.05341	0.4278	8.57972	1748.80489	0.9063	0.00444633	1878.6549	31343.537	210.2352	8249.194
1315.0	0.62146	0.37854	7.66761	7.74781	-3.48951	26.18835	31.24577	1.24528	0.80303	16.61055	143.18766	5.84512	0.42089	8.68765	2596.94854	0.89223	0.0029848	1877.7419	30431.791	182.3492	8968.89
1310.0	0.66562	0.33438	7.68535	7.7299	-3.71259	25.6299	31.37417	1.23628	0.80888	22.12116	144.63094	7.8171	0.41492	8.79872	3591.85498	0.87819	0.00215125	1876.73407	29633.23	159.7122	9575.789
1305.0	0.70352	0.29648	7.70097	7.7142	-3.90826	25.1485	31.47713	1.22834	0.81411	27.9012	145.89967	9.89587	0.40974	8.91311	4718.28771	0.86418	0.00163249	1875.63845	28927.197	141.2066	10090.548
1300.0	0.73621	0.26379	7.71483	7.70029	-4.08149	24.73032	31.55802	1.22131	0.81879	33.78382	147.02312	12.02087	0.40522	9.031	5963.68188	0.8502	0.00128749	1874.46451	28297.306	125.9782	10529.547
1295.0	0.76454	0.23546	7.72719	7.68789	-4.23587	24.36526	31.61971	1.21505	0.82301	39.63922	148.02491	14.14427	0.40125	9.15236	7318.68885	0.83626	0.00104578	1873.22026	27730.47	113.3672	10905.873
1290.0	0.78922	0.21078	7.73831	7.6768	-4.37411	24.0459	31.66481	1.20946	0.82682	45.37777	148.92589	16.23247	0.39775	9.2775	8778.18027	0.82235	8.69126E-4	1871.9103	27216.159	102.8622	11230.054
1285.0	0.81081	0.18919	7.74837	7.66674	-4.49937	23.76316	31.69541	1.20442	0.83027	50.93251	149.74029	18.26007	0.39464	9.40663	10338.90455	0.80847	7.35566E-4	1870.55048	26745.851	94.0616	11510.608
1283.95	0.81489	0.18511	7.75033	7.66477	-4.52388	23.70893	31.69956	1.20345	0.83094	52.04171	149.89867	18.66567	0.39405	9.43412	10674.5313	0.80557	7.11958E-4	1870.27358	26653.447	 	11563.21
1280.0	0.83555	0.16445	7.75897	7.65607	-4.6323	23.45491	31.74087	1.19884	0.83414	57.92519	150.67813	20.82049	0.39106	9.54714	12324.37574	0.79401	6.15085E-4	1872.89354	26227.265	103.7172	11839.815
1275.0	0.85817	0.14183	7.76878	7.64616	-4.75569	23.17325	31.77673	1.19363	0.83778	64.97232	151.55614	23.40922	0.38775	9.69283	14504.09256	0.77956	5.20966E-4	1876.13617	25739.184	97.6162	12138.887
1270.0	0.87725	0.12275	7.77746	7.63736	-4.86533	22.93133	31.79547	1.18907	0.84099	71.46108	152.3272	25.79989	0.38491	9.84143	16769.22273	0.76531	4.4914E-4	1879.30518	25301.548	87.5272	12387.887
1265.0	0.89347	0.10653	7.78522	7.62947	-4.9637	22.72203	31.79999	1.18505	0.84384	77.39826	153.01144	27.99304	0.38246	9.99283	19123.66422	0.75127	3.92567E-4	1882.40744	24904.431	79.4234	12596.735
1262.02	0.90182	0.09818	7.78942	7.62518	-5.01705	22.61267	31.79602	1.18291	0.84538	80.62656	153.38089	29.18779	0.38117	10.08443	20559.89223	0.74301	3.64438E-4	1884.22384	24686.017	 	12703.219
1260.0	0.90806	0.0919359	7.79265	7.62209	-5.05554	22.53113	31.79591	1.18135	0.84649	83.03948	153.64664	30.08177	0.38023	10.1057	21626.47899	0.74047	3.46008E-4	1883.63743	24527.094	75.4674	12786.169
1255.0	0.92201	0.0779884	7.80016	7.61489	-5.14523	22.34537	31.78779	1.1778	0.84904	88.68364	154.25269	32.17616	0.3781	10.16419	24352.26876	0.7338	3.06276E-4	1882.28445	24155.56	74.3068	12970.164
1250.0	0.93365	0.0663538	7.80691	7.60841	-5.22599	22.18577	31.76807	1.17468	0.8513	93.67683	154.78785	34.03285	0.37627	10.23041	27165.49683	0.72667	2.7366E-4	1881.01434	23816.978	67.7164	13121.568
1245.0	0.94344	0.056559	7.81305	7.60251	-5.2995	22.04751	31.7387	1.1719	0.85331	98.1078	155.26782	35.68354	0.37469	10.30422	30086.89575	0.71909	2.46277E-4	1879.82218	23504.463	62.503	13247.264
1240.0	0.95176	0.0482436	7.81869	7.59708	-5.36715	21.92644	31.70139	1.16942	0.85513	102.05377	155.70416	37.15602	0.37331	10.38537	33137.91028	0.71113	2.22866E-4	1878.70459	23212.804	58.3318	13352.462
1238.69	0.95367	0.0463306	7.82008	7.59573	-5.38388	21.89768	31.69013	1.16882	0.85556	102.99057	155.81137	37.50598	0.37299	10.40766	33955.29063	0.70899	2.17313E-4	1878.41546	23140.042	 	13376.4
1235.0	0.96257	0.0374255	7.82531	7.59027	-5.45196	21.75041	31.69983	1.16561	0.85792	106.64597	156.24988	38.87829	0.37154	10.55232	36898.0522	0.69756	1.99493E-4	1875.31487	22878.609	66.839	13500.551
1230.0	0.97225	0.0277536	7.83132	7.58388	-5.53159	21.5893	31.69373	1.16197	0.86061	110.82303	156.7612	40.44901	0.36991	10.7579	40924.2592	0.68196	1.7927E-4	1871.50614	22560.21	63.6798	13633.197
1225.0	0.97972	0.0202831	7.83635	7.57839	-5.5999	21.46274	31.67056	1.15895	0.86285	114.31003	157.19931	41.76167	0.3686	10.97346	45023.38612	0.66634	1.62407E-4	1868.0736	22274.39	57.164	13733.615
1220.0	0.98561	0.0143929	7.84069	7.57356	-5.66008	21.36096	31.63549	1.15637	0.86478	117.47722	157.58533	42.95275	0.36752	11.19872	49255.07058	0.65076	1.47958E-4	1864.97438	22011.859	52.5062	13811.092
1215.0	0.99033	0.00966586	7.84451	7.56921	-5.71431	21.27737	31.59208	1.15408	0.86649	120.74615	157.93312	44.17753	0.3666	11.43384	53670.1055	0.63525	1.35332E-4	1862.17179	21766.415	49.0888	13871.83
1210.0	0.99419	0.00581292	7.84794	7.56521	-5.76411	21.20728	31.54048	1.15208	0.86799	124.21494	158.25257	45.4729	0.36581	11.67851	58314.66039	0.61985	1.24135E-4	1859.63021	21533.797	46.5236	13920.088
1206.4	0.99651	0.00349258	7.85022	7.56251	-5.79774	21.16363	31.50061	1.15074	0.86901	126.40487	158.46817	46.29162	0.36531	11.86062	61817.72425	0.60885	1.16816E-4	1857.93788	21372.904	 	13948.445
1206.4	0.99651	0.00349258	7.85022	7.56251	-5.79774	21.16363	31.50061	1.15074	0.86901	126.40488	158.46818	46.29162	0.36531	11.86056	61817.8269	0.60885	1.16816E-4	1857.93783	21372.899	 	13948.446
1205.0	0.99732	0.00268018	7.85108	7.56149	-5.81045	21.14775	31.48428	1.15025	0.86938	127.10806	158.54905	46.55535	0.36513	11.93094	63218.32273	0.60469	1.1412E-4	1857.3285	21311.549	44.4496	13958.318
1200.0	1.0	0.0	7.85402	7.55794	-5.85464	21.09469	31.42525	1.14851	0.87069	129.11955	158.82973	47.31354	0.36451	 	68449.98618	 	1.05041E-4	 	21095.807	43.1484	13990.382
1195.0	1.0	0.0	7.8566	7.55544	-5.88575	21.08371	31.34114	1.14768	0.87132	129.50039	159.0343	47.46091	0.36428	 	73416.40539	 	9.76032E-5	 	20889.51965	41.25747	 
1190.0	1.0	0.0	7.85916	7.55298	-5.91642	21.07406	31.25704	1.14685	0.87195	129.88055	159.2392	47.60803	0.36406	 	78779.19918	 	9.06492E-5	 	20713.6454	35.17485	 
1185.0	1.0	0.0	7.86172	7.55052	-5.94703	21.0645	31.17294	1.14602	0.87259	130.25981	159.44264	47.75486	0.36384	 	84574.60696	 	8.4149E-5	 	20538.00533	35.12801	 
1180.0	1.0	0.0	7.86427	7.54807	-5.97759	21.05504	31.08883	1.14518	0.87323	130.63818	159.6446	47.9014	0.36362	 	90840.71514	 	7.80758E-5	 	20362.59913	35.08124	 
1178.74	1.0	0.0	7.86492	7.54745	-5.98531	21.05265	31.06756	1.14496	0.87339	130.73373	159.69544	47.93841	0.36356	 	92504.92909	 	7.66045E-5	 	20318.27715	 	 
1177.77	1.0	0.0	7.86541	7.54698	-5.99118	21.05096	31.05131	1.1448	0.87352	130.80685	159.73446	47.96673	0.36352	 	93800.32761	 	7.54963E-5	 	20284.35726	 	 
1176.96	1.0	0.0	7.8665	7.54593	-6.0042	21.02282	30.98395	1.14665	0.87211	130.95416	159.70588	48.02703	0.36334	 	95104.26976	 	7.44195E-5	 	20225.65035	 	 
1176.95	1.0	0.0	7.8665	7.54593	-6.00426	21.02264	30.98368	1.14665	0.8721	130.95465	159.70569	48.02723	0.36334	 	95108.30002	 	7.44162E-5	 	20225.41795	 	 
1175.0	1.0	0.0	7.8691	7.54344	-6.03532	20.95562	30.83153	1.15076	0.86899	131.3034	159.63651	48.17009	0.36291	 	98326.95383	 	7.18832E-5	 	20084.97084	55.52566	 
1170.0	1.0	0.0	7.87564	7.53718	-6.11329	20.78809	30.46034	1.16076	0.8615	132.16104	159.45694	48.52214	0.36186	 	107119.8014	 	6.57549E-5	 	19731.2133	70.75151	 
1165.0	1.0	0.0	7.88201	7.53109	-6.18917	20.62609	30.10992	1.1702	0.85455	132.97269	159.27616	48.85622	0.36086	 	116779.2842	 	6.0107E-5	 	19385.29466	69.18373	 
1160.0	1.0	0.0	7.88822	7.52515	-6.26306	20.46933	29.77504	1.17925	0.848	133.7429	159.09658	49.17404	0.35989	 	127398.241	 	5.49054E-5	 	19046.82863	67.69321	 
1155.0	1.0	0.0	7.89428	7.51937	-6.33505	20.31756	29.45449	1.18792	0.84181	134.47566	158.91999	49.47708	0.35897	 	139080.1841	 	5.01182E-5	 	18715.44839	66.27605	 
1150.0	1.0	0.0	7.9002	7.51374	-6.40524	20.17051	29.14745	1.19623	0.83596	135.17441	158.74772	49.76664	0.35808	 	151940.6201	 	4.57155E-5	 	18390.80593	64.92849	 
1145.0	1.0	0.0	7.90599	7.50824	-6.47373	20.02797	28.85316	1.20419	0.83043	135.84218	158.58076	50.04386	0.35723	 	166108.5161	 	4.16694E-5	 	18072.57132	63.64692	 
1140.0	1.0	0.0	7.91165	7.50287	-6.54058	19.88969	28.57091	1.2118	0.82522	136.48165	158.41979	50.30975	0.35641	 	181727.9943	 	3.79536E-5	 	17760.43189	62.42789	 
1135.0	1.0	0.0	7.91718	7.49763	-6.6059	19.75546	28.3	1.21907	0.8203	137.09521	158.26532	50.56523	0.35563	 	198960.2105	 	3.45437E-5	 	17454.09151	61.26808	 
1130.0	1.0	0.0	7.92259	7.49251	-6.66974	19.62508	28.0398	1.22601	0.81565	137.68497	158.11768	50.81111	0.35487	 	217985.5189	 	3.14169E-5	 	17153.26977	60.16435	 
1125.0	1.0	0.0	7.9279	7.48749	-6.73218	19.49836	27.78968	1.23264	0.81127	138.25285	157.97707	51.04812	0.35414	 	239005.8978	 	2.85517E-5	 	16857.70119	59.11372	 
1120.0	1.0	0.0	7.9331	7.48259	-6.79329	19.3751	27.54905	1.23896	0.80713	138.80056	157.84362	51.27692	0.35344	 	262247.7337	 	2.59282E-5	 	16567.13445	58.11335	 
1115.0	1.0	0.0	7.93819	7.47778	-6.85313	19.25515	27.31737	1.24498	0.80322	139.32968	157.71736	51.49813	0.35276	 	287964.9138	 	2.35279E-5	 	16281.33168	57.16055	 
1110.0	1.0	0.0	7.94319	7.47308	-6.91176	19.13832	27.09413	1.25072	0.79954	139.84163	157.59829	51.7123	0.35211	 	316442.469	 	2.13335E-5	 	16000.06772	56.25279	 
1105.0	1.0	0.0	7.9481	7.46846	-6.96924	19.02447	26.87883	1.25618	0.79606	140.33769	157.48635	51.91994	0.35148	 	348000.571	 	1.93287E-5	 	15723.12941	55.38766	 
1100.0	1.0	0.0	7.95292	7.46394	-7.02562	18.91345	26.67101	1.26138	0.79278	140.79689	157.35668	52.1133	0.35087	 	382999.2007	 	1.74987E-5	 	15450.31497	54.56289	 
1095.0	1.0	0.0	7.95766	7.45949	-7.08096	18.80511	26.47025	1.26632	0.78969	141.26493	157.25914	52.30933	0.35028	 	421843.3516	 	1.58296E-5	 	15181.43336	53.77632	 
1090.0	1.0	0.0	7.96231	7.45513	-7.13529	18.69932	26.27614	1.27101	0.78678	141.7204	157.16846	52.50012	0.34971	 	464989.1292	 	1.43083E-5	 	14916.30365	53.02594	 
1085.0	1.0	0.0	7.96689	7.45085	-7.18868	18.59596	26.0883	1.27546	0.78403	142.16422	157.0845	52.68605	0.34916	 	512950.5465	 	1.29229E-5	 	14654.75453	52.30982	 
1080.0	1.0	0.0	7.9714	7.44663	-7.24115	18.4949	25.90639	1.27969	0.78144	142.59724	157.00711	52.86745	0.34863	 	566307.3587	 	1.16622E-5	 	14396.62368	51.62617	 
1075.0	1.0	0.0	7.97584	7.44249	-7.29275	18.39603	25.73006	1.2837	0.779	143.02025	156.93615	53.04464	0.34811	 	625714.0418	 	1.0516E-5	 	14141.75732	50.97327	 
1070.0	1.0	0.0	7.98021	7.43841	-7.34352	18.29924	25.55901	1.2875	0.7767	143.43398	156.87148	53.21792	0.34761	 	691910.0339	 	9.47462E-6	 	13890.00971	50.34952	 
1065.0	1.0	0.0	7.98451	7.4344	-7.3935	18.20442	25.39294	1.29109	0.77454	143.83911	156.81294	53.38754	0.34712	 	765731.5166	 	8.52933E-6	 	13641.24273	49.7534	 
1060.0	1.0	0.0	7.98876	7.43045	-7.44271	18.11149	25.23159	1.2945	0.7725	144.23627	156.7604	53.55377	0.34665	 	848124.7732	 	7.67195E-6	 	13395.32541	49.18346	 
1055.0	1.0	0.0	7.99294	7.42656	-7.4912	18.02034	25.0747	1.29771	0.77059	144.62604	156.7137	53.71685	0.34619	 	940161.826	 	6.89495E-6	 	13152.13354	48.63837	 
1050.0	1.0	0.0	7.99708	7.42272	-7.53899	17.93088	24.92203	1.30074	0.76879	145.00897	156.67271	53.877	0.34574	 	1043057.967	 	6.19138E-6	 	12911.54931	48.11685	 
1045.0	1.0	0.0	8.00115	7.41894	-7.58612	17.84304	24.77336	1.3036	0.7671	145.38558	156.63728	54.03441	0.34531	 	1158192.374	 	5.55483E-6	 	12673.46094	47.61767	 
1040.0	1.0	0.0	8.00518	7.41521	-7.6326	17.75673	24.62848	1.3063	0.76552	145.75633	156.60728	54.18929	0.34488	 	1287131.439	 	4.97941E-6	 	12437.76232	47.13972	 
1035.0	1.0	0.0	8.00916	7.41152	-7.67847	17.67187	24.48719	1.30883	0.76404	146.12167	156.58258	54.34182	0.34447	 	1431655.901	 	4.4597E-6	 	12204.35275	46.68192	 
1030.0	1.0	0.0	8.01309	7.40789	-7.72375	17.5884	24.34931	1.31121	0.76265	146.48201	156.56305	54.49216	0.34406	 	1593792.059	 	3.9907E-6	 	11973.13657	46.24324	 
1025.0	1.0	0.0	8.01697	7.4043	-7.76847	17.50624	24.21467	1.31345	0.76136	146.83773	156.54857	54.64048	0.34367	 	1775847.756	 	3.56784E-6	 	11744.02301	45.82271	 
1020.0	1.0	0.0	8.02082	7.40075	-7.81265	17.42533	24.08311	1.31553	0.76015	147.1892	156.53901	54.78691	0.34329	 	1980454.021	 	3.18692E-6	 	11516.92589	45.41942	 
1015.0	1.0	0.0	8.02462	7.39725	-7.8563	17.3456	23.95448	1.31749	0.75902	147.53676	156.53426	54.93161	0.34291	 	2210613.06	 	2.84407E-6	 	11291.76298	45.03258	 
1010.0	1.0	0.0	8.02838	7.39378	-7.89946	17.26699	23.82863	1.3193	0.75798	147.88073	156.53421	55.07469	0.34255	 	2469754.194	 	2.53577E-6	 	11068.45629	44.66134	 
1005.0	1.0	0.0	8.0321	7.39036	-7.94213	17.18945	23.70544	1.32099	0.75701	148.22138	156.53874	55.21629	0.34219	 	2761798.204	 	2.25879E-6	 	10846.93162	44.30493	 
1000.0	1.0	0.0	8.03578	7.38697	-7.98434	17.11292	23.57946	1.32285	0.75594	148.55902	156.54776	55.35652	0.34184	 	3091232.345	 	2.01018E-6	 	10627.1184	43.96264	 
995.0	1.0	0.0	8.03943	7.38362	-8.0261	17.03735	23.46112	1.3243	0.75511	148.89388	156.56116	55.49548	0.3415	 	3463197.342	 	1.78723E-6	 	10408.94946	43.63379	 
990.0	1.0	0.0	8.04304	7.3803	-8.06744	16.96269	23.34509	1.32564	0.75435	149.22623	156.57884	55.63328	0.34116	 	3883588.487	 	1.58748E-6	 	10192.36087	43.31772	 
985.0	1.0	0.0	8.04663	7.37701	-8.10836	16.88889	23.23127	1.32686	0.75366	149.55628	156.60071	55.77001	0.34083	 	4359173.096	 	1.40869E-6	 	9977.29174	43.01383	 
980.0	1.0	0.0	8.05018	7.37376	-8.14888	16.8159	23.11957	1.32797	0.75303	149.88425	156.62667	55.90577	0.34051	 	4897728.095	 	1.24881E-6	 	9763.68405	42.72154	 
975.0	1.0	0.0	8.0537	7.37054	-8.18902	16.74369	23.00989	1.32898	0.75246	150.21034	156.65664	56.04062	0.34019	 	5508199.64	 	1.10597E-6	 	9551.48252	42.44031	 
970.0	1.0	0.0	8.05719	7.36735	-8.22879	16.6722	22.90214	1.32988	0.75195	150.53474	156.69054	56.17467	0.33988	 	6200889.568	 	9.7849E-7	 	9340.63445	42.16961	 
965.0	1.0	0.0	8.06065	7.36418	-8.2682	16.6014	22.79625	1.33069	0.75149	150.85763	156.72828	56.30797	0.33958	 	6987674.149	 	8.64823E-7	 	9131.08956	41.90898	 
960.0	1.0	0.0	8.06408	7.36105	-8.30727	16.53124	22.69213	1.33139	0.75109	151.17917	156.76979	56.4406	0.33928	 	7882259.39	 	7.63575E-7	 	8922.79988	41.65794	 
955.0	1.0	0.0	8.06749	7.35794	-8.346	16.4617	22.58973	1.33201	0.75075	151.49953	156.81497	56.57262	0.33898	 	8900480.012	 	6.7348E-7	 	8715.71965	41.41605	 
950.0	1.0	0.0	8.07087	7.35485	-8.38441	16.39274	22.48897	1.33253	0.75045	151.81884	156.86378	56.7041	0.33869	 	1.006065073E7	 	5.9339E-7	 	8509.80514	41.1829	 
945.0	1.0	0.0	8.07423	7.35179	-8.4225	16.32431	22.38979	1.33296	0.75021	152.13725	156.91612	56.8351	0.33841	 	1.138397826E7	 	5.22268E-7	 	8305.01458	40.95811	 
940.0	1.0	0.0	8.07756	7.34876	-8.4603	16.25639	22.29213	1.3333	0.75002	152.45488	156.97194	56.96567	0.33813	 	1.289504613E7	 	4.59175E-7	 	8101.30808	40.7413	 
935.0	1.0	0.0	8.08087	7.34575	-8.4978	16.18895	22.19593	1.33356	0.74987	152.77186	157.03117	57.09587	0.33785	 	1.462238427E7	 	4.03264E-7	 	7898.64746	40.53212	 
930.0	1.0	0.0	8.08416	7.34276	-8.53502	16.12195	22.10114	1.33374	0.74977	153.08831	157.09373	57.22573	0.33758	 	1.659914298E7	 	3.5377E-7	 	7696.99622	40.33025	 
925.0	1.0	0.0	8.08743	7.3398	-8.57196	16.05537	22.00771	1.33384	0.74972	153.40433	157.15959	57.35531	0.33732	 	1.886388387E7	 	3.10004E-7	 	7496.31944	40.13536	 
920.0	1.0	0.0	8.09067	7.33685	-8.60864	15.98917	21.9156	1.33385	0.74971	153.72003	157.22866	57.48466	0.33705	 	2.146151878E7	 	2.71345E-7	 	7296.5837	39.94715	 
915.0	1.0	0.0	8.0939	7.33393	-8.64506	15.92334	21.82475	1.33379	0.74974	154.0355	157.30089	57.61381	0.33679	 	2.444441775E7	 	2.37235E-7	 	7097.75694	39.76535	 
910.0	1.0	0.0	8.09711	7.33102	-8.68123	15.85783	21.73514	1.33365	0.74982	154.35083	157.37624	57.74281	0.33654	 	2.787372018E7	 	2.07172E-7	 	6899.8085	39.58969	 
905.0	1.0	0.0	8.10029	7.32814	-8.71716	15.79263	21.64672	1.33344	0.74994	154.66611	157.45463	57.87168	0.33629	 	3.182089362E7	 	1.80707E-7	 	6702.70895	39.41991	 
900.0	1.0	0.0	8.10346	7.32527	-8.75285	15.72771	21.55944	1.33316	0.7501	154.98142	157.53603	58.00046	0.33604	 	3.636958185E7	 	1.57435E-7	 	6506.43009	39.25577	 
895.0	1.0	0.0	8.10661	7.32243	-8.78832	15.66304	21.47329	1.3328	0.7503	155.29683	157.62038	58.1292	0.33579	 	4.161779906E7	 	1.36995E-7	 	6310.94485	39.09705	 
890.0	1.0	0.0	8.10975	7.3196	-8.82356	15.59861	21.38821	1.33238	0.75054	155.61242	157.70763	58.25791	0.33555	 	4.76805487E7	 	1.19064E-7	 	6116.22726	38.94352	 
885.0	1.0	0.0	8.11286	7.31679	-8.85858	15.53439	21.30419	1.33188	0.75082	155.92825	157.79773	58.38663	0.33531	 	5.469294346E7	 	1.03352E-7	 	5922.25239	38.79497	 
880.0	1.0	0.0	8.11596	7.31399	-8.89339	15.47035	21.22119	1.33132	0.75113	156.24438	157.89063	58.51538	0.33507	 	6.281391884E7	 	8.96018E-8	 	5728.99614	38.65125	 
875.0	1.0	0.0	8.11905	7.31121	-8.928	15.40648	21.13919	1.33069	0.75149	156.56088	157.9863	58.64419	0.33484	 	7.223069073E7	 	7.75825E-8	 	5536.43543	38.51214	 
870.0	1.0	0.0	8.12211	7.30845	-8.96241	15.34275	21.05815	1.32999	0.75188	156.87779	158.08468	58.77308	0.33461	 	8.316406681E7	 	6.70894E-8	 	5344.54843	38.3774	 
865.0	1.0	0.0	8.12517	7.3057	-8.99662	15.27914	20.97806	1.32923	0.75232	157.19518	158.18574	58.90209	0.33438	 	9.587483616E7	 	5.79404E-8	 	5153.31387	38.24691	 
860.0	1.0	0.0	8.12821	7.30297	-9.03064	15.21564	20.89888	1.3284	0.75278	157.51308	158.28942	59.03121	0.33415	 	1.106714199E8	 	4.99734E-8	 	4962.71131	38.12051	 
855.0	1.0	0.0	8.13123	7.30026	-9.06448	15.15223	20.82061	1.32752	0.75329	157.83155	158.3957	59.16049	0.33393	 	1.279190631E8	 	4.30446E-8	 	4772.7211	37.99804	 
850.0	1.0	0.0	8.13424	7.29755	-9.09814	15.08888	20.7432	1.32656	0.75383	158.15062	158.50452	59.28993	0.33371	 	1.480509122E8	 	3.70266E-8	 	4583.3243	37.87936	 
845.0	1.0	0.0	8.13649	7.29554	-9.12328	15.06426	20.68194	1.32457	0.75496	158.47703	158.69985	59.41846	0.33357	 	1.679827E8	 	3.24879E-8	 	4425.95409	31.47404	 
840.0	1.0	0.0	8.13874	7.29352	-9.14835	15.03963	20.62066	1.32257	0.75611	158.80291	158.8944	59.54681	0.33343	 	1.908142499E8	 	2.84728E-8	 	4265.57462	32.07589	 
835.0	1.0	0.0	8.14098	7.29152	-9.17336	15.01501	20.55937	1.32055	0.75726	159.12828	159.08817	59.67499	0.33329	 	2.169983835E8	 	2.49246E-8	 	4105.39884	32.03516	 
830.0	1.0	0.0	8.14322	7.28951	-9.19831	14.99039	20.49806	1.31852	0.75842	159.45313	159.28117	59.80299	0.33315	 	2.4706341E8	 	2.17928E-8	 	3945.42592	31.99458	 
825.0	1.0	0.0	8.14545	7.28752	-9.22319	14.96577	20.43675	1.31649	0.7596	159.77746	159.4734	59.93083	0.33302	 	2.816264996E8	 	1.90316E-8	 	3785.65504	31.95418	 
820.0	1.0	0.0	8.14768	7.28552	-9.24801	14.94115	20.37542	1.31444	0.76078	160.10127	159.66486	60.0585	0.33288	 	3.214095657E8	 	1.66E-8	 	3626.08533	31.91394	 
815.0	1.0	0.0	8.1499	7.28354	-9.27276	14.91653	20.31408	1.31237	0.76198	160.42456	159.85555	60.18599	0.33274	 	3.672581517E8	 	1.44612E-8	 	3466.71589	31.87389	 
810.0	1.0	0.0	8.15212	7.28155	-9.29745	14.89191	20.25272	1.3103	0.76318	160.74733	160.04548	60.31331	0.3326	 	4.201639228E8	 	1.25822E-8	 	3307.54579	31.83402	 
805.0	1.0	0.0	8.15433	7.27958	-9.32207	14.86729	20.19135	1.30822	0.7644	161.06958	160.23465	60.44046	0.33246	 	4.812914887E8	 	1.09335E-8	 	3148.57407	31.79434	 
800.0	1.0	0.0	8.15654	7.27761	-9.34663	14.84267	20.12997	1.30612	0.76563	161.39131	160.42305	60.56744	0.33233	 	5.520104366E8	 	9.48855E-9	 	2989.79972	31.75487	 
795.0	1.0	0.0	8.15874	7.27564	-9.37113	14.81805	20.06857	1.30401	0.76686	161.71252	160.61069	60.69424	0.33219	 	6.339336423E8	 	8.22385E-9	 	2831.22169	31.71561	 
790.0	1.0	0.0	8.16094	7.27368	-9.39555	14.79343	20.00716	1.30189	0.76811	162.03321	160.79758	60.82087	0.33205	 	7.289631582E8	 	7.11829E-9	 	2672.83888	31.67656	 
785.0	1.0	0.0	8.16314	7.27172	-9.41992	14.76881	19.94574	1.29976	0.76937	162.35338	160.98372	60.94734	0.33192	 	8.393452571E8	 	6.15309E-9	 	2514.65015	31.63775	 
780.0	1.0	0.0	8.16533	7.26977	-9.44422	14.74419	19.8843	1.29762	0.77064	162.67303	161.1691	61.07362	0.33178	 	9.6773656E8	 	5.31153E-9	 	2356.65433	31.59916	 
775.0	1.0	0.0	8.16751	7.26783	-9.46845	14.71957	19.82284	1.29546	0.77193	162.99216	161.35373	61.19974	0.33164	 	1.1172836E9	 	4.57875E-9	 	2198.85014	31.56084	 
770.0	1.0	0.0	8.1697	7.26589	-9.49262	14.69495	19.76137	1.29329	0.77322	163.31077	161.53761	61.32568	0.3315	 	1.291718703E9	 	3.94154E-9	 	2041.23631	31.52277	 
765.0	1.0	0.0	8.17187	7.26395	-9.51673	14.67033	19.69989	1.29111	0.77453	163.62886	161.72074	61.45146	0.33137	 	1.495475713E9	 	3.38819E-9	 	1883.81147	31.48497	 
760.0	1.0	0.0	8.17404	7.26202	-9.54077	14.64572	19.63839	1.28891	0.77585	163.94644	161.90314	61.57706	0.33123	 	1.733829884E9	 	2.90833E-9	 	1726.57418	31.44746	 
755.0	1.0	0.0	8.17621	7.2601	-9.56474	14.6211	19.57687	1.28671	0.77718	164.26349	162.08479	61.70248	0.33109	 	2.01306728E9	 	2.49279E-9	 	1569.52296	31.41024	 
750.0	1.0	0.0	8.17837	7.25818	-9.58865	14.59648	19.51534	1.28449	0.77852	164.58002	162.26569	61.82774	0.33096	 	2.340690221E9	 	2.13345E-9	 	1412.65623	31.37335	 
745.0	1.0	0.0	8.18053	7.25626	-9.6125	14.57186	19.45379	1.28225	0.77988	164.89603	162.44586	61.95282	0.33082	 	2.725666862E9	 	1.82316E-9	 	1255.97236	31.33677	 
740.0	1.0	0.0	8.18268	7.25435	-9.63628	14.54724	19.39222	1.28001	0.78125	165.21152	162.6253	62.07772	0.33068	 	3.178734919E9	 	1.55563E-9	 	1099.46962	31.30055	 
735.0	1.0	0.0	8.18483	7.25245	-9.66	14.52262	19.33064	1.27775	0.78263	165.5265	162.804	62.20246	0.33055	 	3.712771896E9	 	1.3253E-9	 	943.14617	31.26469	 
730.0	1.0	0.0	8.18698	7.25055	-9.68365	14.49801	19.26904	1.27547	0.78402	165.84095	162.98197	62.32702	0.33041	 	4.343247167E9	 	1.1273E-9	 	787.00012	31.22921	 
725.0	1.0	0.0	8.18911	7.24866	-9.70723	14.47339	19.20742	1.27319	0.78543	166.15488	163.1592	62.45141	0.33027	 	5.088774982E9	 	9.57347E-10	 	631.02945	31.19413	 
720.0	1.0	0.0	8.19125	7.24677	-9.73076	14.44877	19.14579	1.27089	0.78685	166.4683	163.33571	62.57563	0.33014	 	5.971792128E9	 	8.11702E-10	 	475.23204	31.15948	 
715.0	1.0	0.0	8.19338	7.24489	-9.75421	14.42416	19.08413	1.26858	0.78829	166.78119	163.51149	62.69967	0.33	 	7.019389866E9	 	6.87085E-10	 	319.60565	31.12528	 
710.0	1.0	0.0	8.1955	7.24301	-9.77761	14.39954	19.02246	1.26625	0.78973	167.09356	163.68655	62.82354	0.32986	 	8.264337109E9	 	5.80629E-10	 	164.14794	31.09154	 
705.0	1.0	0.0	8.19762	7.24113	-9.80093	14.37492	18.96077	1.26391	0.7912	167.40542	163.86089	62.94724	0.32973	 	9.746341177E9	 	4.89836E-10	 	8.85639	31.05831	 
700.0	1.0	0.0	8.19974	7.23927	-9.8242	14.35031	18.89906	1.26155	0.79267	167.71675	164.0345	63.07076	0.32959	 	1.15136E10	 	4.1253E-10	 	-146.2716	31.0256	 
695.0	1.0	0.0	8.20185	7.2374	-9.8474	14.32569	18.83734	1.25918	0.79417	168.02756	164.2074	63.19411	0.32946	 	1.3624699999999998E10	 	3.46817E-10	 	-301.23882	30.99344	 
690.0	1.0	0.0	8.20395	7.23555	-9.87053	14.30107	18.77559	1.2568	0.79567	168.33786	164.37958	63.31728	0.32932	 	1.6151199999999998E10	 	2.91055E-10	 	-456.04821	30.96188	 
685.0	1.0	0.0	8.20605	7.2337	-9.8936	14.27646	18.71382	1.2544	0.79719	168.64763	164.55104	63.44028	0.32918	 	1.91802E10	 	2.43819E-10	 	-610.70288	30.93093	 
680.0	1.0	0.0	8.20815	7.23185	-9.9166	14.25184	18.65204	1.25199	0.79873	168.95689	164.7218	63.56311	0.32905	 	2.28183E10	 	2.03876E-10	 	-765.20611	30.90065	 
675.0	1.0	0.0	8.21024	7.23001	-9.93954	14.22723	18.59023	1.24956	0.80028	169.26562	164.89184	63.68577	0.32891	 	2.7196199999999996E10	 	1.70159E-10	 	-919.56141	30.87106	 
670.0	1.0	0.0	8.21232	7.22817	-9.96242	14.20261	18.5284	1.24712	0.80185	169.57384	165.06117	63.80825	0.32878	 	3.2474499999999996E10	 	1.4175E-10	 	-1073.77247	30.84221	 
665.0	1.0	0.0	8.2144	7.22634	-9.98523	14.178	18.46655	1.24467	0.80343	169.88153	165.22979	63.93055	0.32864	 	3.88507E10	 	1.17858E-10	 	-1227.84319	30.81415	 
660.0	1.0	0.0	8.21648	7.22451	-10.00797	14.15338	18.40468	1.24219	0.80503	170.1887	165.39771	64.05269	0.32851	 	4.65681E10	 	9.78025E-11	 	-1381.76674	30.78471	 
655.0	1.0	0.0	8.21855	7.22269	-10.03065	14.12877	18.34279	1.23971	0.80664	170.49536	165.56493	64.17465	0.32837	 	5.592759999999999E10	 	8.09989E-11	 	-1535.48171	30.74299	 
650.0	1.0	0.0	8.22062	7.22088	-10.05327	14.10415	18.28087	1.2372	0.80827	170.80149	165.73144	64.29643	0.32823	 	6.730149999999999E10	 	6.69474E-11	 	-1688.90669	30.68499	 
645.0	1.0	0.0	8.22268	7.21907	-10.07582	14.07954	18.21893	1.23469	0.80992	171.10711	165.89726	64.41804	0.3281	 	8.11521E10	 	5.52205E-11	 	-1842.04294	30.62725	 
640.0	1.0	0.0	8.22474	7.21726	-10.09831	14.05492	18.15697	1.23215	0.81159	171.4122	166.06237	64.53948	0.32796	 	9.805389999999998E10	 	4.54532E-11	 	-1994.89174	30.56976	 
635.0	1.0	0.0	8.22679	7.21546	-10.12073	14.03031	18.09499	1.2296	0.81327	171.71678	166.22679	64.66074	0.32783	 	1.18723E11	 	3.73345E-11	 	-2147.4544	30.51253	 
630.0	1.0	0.0	8.22883	7.21367	-10.14308	14.00569	18.03298	1.22704	0.81497	172.02083	166.39052	64.78182	0.32769	 	1.44053E11	 	3.06001E-11	 	-2299.73218	30.45556	 
625.0	1.0	0.0	8.23088	7.21188	-10.16538	13.98108	17.97095	1.22446	0.81669	172.32437	166.55355	64.90274	0.32756	 	1.75165E11	 	2.50258E-11	 	-2451.72653	30.39887	 
620.0	1.0	0.0	8.23291	7.21009	-10.1876	13.95647	17.90889	1.22186	0.81842	172.62738	166.71589	65.02347	0.32742	 	2.13464E11	 	2.04215E-11	 	-2603.43922	30.34254	 
615.0	1.0	0.0	8.23495	7.20831	-10.20977	13.93185	17.84681	1.21925	0.82018	172.92988	166.87755	65.14404	0.32729	 	2.60715E11	 	1.66267E-11	 	-2754.87127	30.28641	 
610.0	1.0	0.0	8.23697	7.20654	-10.23186	13.90724	17.78471	1.21662	0.82195	173.23185	167.03851	65.26442	0.32715	 	3.19148E11	 	1.35061E-11	 	-2906.02393	30.23053	 
605.0	1.0	0.0	8.239	7.20477	-10.2539	13.88263	17.72257	1.21397	0.82374	173.53331	167.1988	65.38464	0.32702	 	3.91577E11	 	1.09456E-11	 	-3056.89846	30.17491	 
600.0	1.0	0.0	8.24101	7.20301	-10.27587	13.85801	17.66041	1.21131	0.82555	173.83424	167.35839	65.50467	0.32688	 	4.81571E11	 	8.84943E-12	 	-3207.49614	30.11954	 
595.0	1.0	0.0	8.24302	7.20125	-10.29777	13.8334	17.59823	1.20863	0.82739	174.13466	167.51731	65.62454	0.32675	 	5.93661E11	 	7.13745E-12	 	-3357.8182	30.06441	 
590.0	1.0	0.0	8.24503	7.1995	-10.31961	13.80879	17.53602	1.20593	0.82924	174.43455	167.67554	65.74423	0.32661	 	7.33616E11	 	5.74254E-12	 	-3507.86592	30.00954	 
585.0	1.0	0.0	8.24703	7.19775	-10.34138	13.78418	17.47377	1.20321	0.83111	174.73393	167.8331	65.86374	0.32648	 	9.08806E11	 	4.60871E-12	 	-3657.64053	29.95492	 
580.0	1.0	0.0	8.24903	7.196	-10.36309	13.75956	17.41151	1.20048	0.833	175.03278	167.98998	65.98308	0.32635	 	1.12866E12	 	3.68934E-12	 	-3807.14328	29.90055	 
575.0	1.0	0.0	8.25102	7.19427	-10.38474	13.73495	17.34921	1.19773	0.83491	175.33111	168.14619	66.10224	0.32621	 	1.40529E12	 	2.94574E-12	 	-3956.37543	29.84643	 
570.0	1.0	0.0	8.25301	7.19253	-10.40632	13.71034	17.28688	1.19496	0.83685	175.62893	168.30172	66.22122	0.32608	 	1.75427E12	 	2.34583E-12	 	-4105.33821	29.79256	 
565.0	1.0	0.0	8.25499	7.19081	-10.42783	13.68573	17.22452	1.19218	0.8388	175.92622	168.45658	66.34004	0.32594	 	2.19571E12	 	1.86309E-12	 	-4254.03286	29.73893	 
560.0	1.0	0.0	8.25697	7.18909	-10.44928	13.66112	17.16213	1.18937	0.84078	176.22299	168.61078	66.45867	0.32581	 	2.75566E12	 	1.47565E-12	 	-4402.46063	29.68555	 
555.0	1.0	0.0	8.25894	7.18737	-10.47067	13.63651	17.09971	1.18655	0.84278	176.51925	168.7643	66.57713	0.32567	 	3.4679E12	 	1.16555E-12	 	-4550.62274	29.63242	 
550.0	1.0	0.0	8.26091	7.18566	-10.49199	13.61189	17.03726	1.18371	0.8448	176.81498	168.91716	66.69542	0.32554	 	4.37644E12	 	9.18005E-13	 	-4698.52044	29.57954	 
545.0	1.0	0.0	8.26287	7.18395	-10.51325	13.58728	16.97478	1.18085	0.84685	177.11019	169.06935	66.81352	0.32541	 	5.53872E12	 	7.20958E-13	 	-4846.15493	29.5269	 
540.0	1.0	0.0	8.26483	7.18225	-10.53444	13.56267	16.91227	1.17797	0.84892	177.40488	169.22088	66.93146	0.32527	 	7.03003E12	 	5.64547E-13	 	-4993.52746	29.47451	 
535.0	1.0	0.0	8.26678	7.18055	-10.55556	13.53806	16.84972	1.17507	0.85101	177.69906	169.37175	67.04921	0.32514	 	8.94922E12	 	4.40751E-13	 	-5140.63924	29.42236	 
530.0	1.0	0.0	8.26873	7.17886	-10.57663	13.51345	16.78713	1.17216	0.85313	177.99271	169.52196	67.16679	0.32501	 	1.14267E13	 	3.43055E-13	 	-5287.49149	29.37045	 
525.0	1.0	0.0	8.27067	7.17718	-10.59762	13.48884	16.72452	1.16922	0.85527	178.28584	169.67151	67.2842	0.32487	 	1.46347E13	 	2.66188E-13	 	-5434.08544	29.31879	 
520.0	1.0	0.0	8.27261	7.1755	-10.61856	13.46423	16.66186	1.16627	0.85744	178.57845	169.82041	67.40142	0.32474	 	1.88019E13	 	2.05893E-13	 	-5580.42228	29.26737	 
515.0	1.0	0.0	8.27454	7.17382	-10.63942	13.43962	16.59917	1.16329	0.85963	178.87054	169.96865	67.51848	0.3246	 	2.42326E13	 	1.58743E-13	 	-5726.50323	29.21619	 
510.0	1.0	0.0	8.27647	7.17215	-10.66023	13.41501	16.53645	1.1603	0.86185	179.16211	170.11624	67.63535	0.32447	 	3.13333E13	 	1.2199E-13	 	-5872.32949	29.16525	 
505.0	1.0	0.0	8.27839	7.17049	-10.68097	13.3904	16.47369	1.15728	0.86409	179.45316	170.26318	67.75205	0.32434	 	4.06487E13	 	9.34337E-14	 	-6017.90226	29.11456	 
500.0	1.0	0.0	8.28031	7.16883	-10.70164	13.36579	16.41088	1.15424	0.86637	179.74369	170.40946	67.86857	0.3242	 	5.29114E13	 	7.13184E-14	 	-6163.22274	29.0641	 
495.0	1.0	0.0	8.28222	7.16717	-10.72225	13.34118	16.34804	1.15119	0.86867	180.0337	170.5551	67.98492	0.32407	 	6.91102E13	 	5.42489E-14	 	-6308.29212	29.01388	 
490.0	1.0	0.0	8.28412	7.16552	-10.74279	13.31658	16.28516	1.14811	0.871	180.32318	170.7001	68.10109	0.32394	 	9.05847E13	 	4.11189E-14	 	-6453.11159	28.96389	 
485.0	1.0	0.0	8.28602	7.16388	-10.76327	13.29197	16.22224	1.14501	0.87335	180.61215	170.84445	68.21708	0.3238	 	1.19157E14	 	3.10544E-14	 	-6597.68232	28.91415	 
480.0	1.0	0.0	8.28792	7.16224	-10.78369	13.26736	16.15928	1.14189	0.87574	180.9006	170.98815	68.33289	0.32367	 	1.57312E14	 	2.33672E-14	 	-6742.00552	28.86464	 
475.0	1.0	0.0	8.28981	7.16061	-10.80404	13.24275	16.09628	1.13875	0.87815	181.18852	171.13121	68.44853	0.32354	 	2.08458E14	 	1.75169E-14	 	-6886.08233	28.81536	 
470.0	1.0	0.0	8.2917	7.15898	-10.82433	13.21814	16.03323	1.13559	0.8806	181.47593	171.27364	68.56399	0.32341	 	2.7728099999999997E14	 	1.30811E-14	 	-7029.91395	28.76632	 
465.0	1.0	0.0	8.29358	7.15735	-10.84455	13.19353	15.97014	1.13241	0.88308	181.76281	171.41542	68.67928	0.32327	 	3.70254E14	 	9.73041E-15	 	-7173.50151	28.71751	 
460.0	1.0	0.0	8.29545	7.15574	-10.8647	13.16893	15.907	1.1292	0.88558	182.04918	171.55657	68.79439	0.32314	 	4.96356E14	 	7.20919E-15	 	-7316.8462	28.66894	 
455.0	1.0	0.0	8.29732	7.15412	-10.88479	13.14432	15.84382	1.12597	0.88812	182.33502	171.69709	68.90931	0.32301	 	6.68089E14	 	5.31953E-15	 	-7459.94915	28.62059	 
450.0	1.0	0.0	8.29919	7.15252	-10.90482	13.11971	15.78059	1.12272	0.89069	182.62034	171.83697	69.02407	0.32287	 	9.02942E14	 	3.90891E-15	 	-7602.81153	28.57248	 
445.0	1.0	0.0	8.30105	7.15091	-10.92478	13.0951	15.71732	1.11945	0.8933	182.90515	171.97621	69.13864	0.32274	 	1.22548E15	 	2.86019E-15	 	-7745.43447	28.52459	 
440.0	1.0	0.0	8.3029	7.14932	-10.94468	13.0705	15.65399	1.11615	0.89594	183.18943	172.11483	69.25304	0.32261	 	1.67038E15	 	2.08379E-15	 	-7887.8191	28.47693	 
435.0	1.0	0.0	8.30475	7.14772	-10.96451	13.04589	15.59062	1.11283	0.89861	183.47319	172.25282	69.36726	0.32248	 	2.28676E15	 	1.51144E-15	 	-8029.96657	28.42949	 
430.0	1.0	0.0	8.3066	7.14614	-10.98428	13.02128	15.52719	1.10948	0.90132	183.75643	172.39018	69.4813	0.32234	 	3.14462E15	 	1.09136E-15	 	-8171.87799	28.38228	 
425.0	1.0	0.0	8.30844	7.14455	-11.00398	12.99668	15.46371	1.10612	0.90406	184.03914	172.52692	69.59517	0.32221	 	4.34406E15	 	7.84403E-16	 	-8313.55432	28.33527	 
420.0	1.0	0.0	8.31027	7.14298	-11.02362	12.97207	15.40018	1.10273	0.90684	184.32134	172.66303	69.70885	0.32208	 	6.02905E15	 	5.61132E-16	 	-8454.99692	28.28852	 
415.0	1.0	0.0	8.3121	7.14141	-11.0432	12.94746	15.3366	1.09931	0.90966	184.60302	172.79851	69.82236	0.32195	 	8.40757E15	 	3.99484E-16	 	-8596.20626	28.24187	 
410.0	1.0	0.0	8.31392	7.13984	-11.0627	12.92286	15.27296	1.09587	0.91252	184.88417	172.93338	69.93569	0.32182	 	1.17816E16	 	2.83007E-16	 	-8737.1825	28.19525	 
405.0	1.0	0.0	8.31574	7.13828	-11.08215	12.89825	15.20926	1.09241	0.91541	185.16481	173.06763	70.04884	0.32168	 	1.6592100000000002E16	 	1.99485E-16	 	-8877.92584	28.14867	 
400.0	1.0	0.0	8.31755	7.13672	-11.10153	12.87364	15.14551	1.08892	0.91834	185.44492	173.20125	70.16182	0.32155	 	2.34859E16	 	1.39891E-16	 	-9018.43644	28.10212	 
395.0	1.0	0.0	8.31936	7.13517	-11.12084	12.84904	15.08169	1.0854	0.92132	185.72451	173.33427	70.27461	0.32142	 	3.3417300000000004E16	 	9.75865E-17	 	-9158.71448	28.05561	 
390.0	1.0	0.0	8.32116	7.13363	-11.14009	12.82443	15.01782	1.08186	0.92433	186.00359	173.46666	70.38723	0.32129	 	4.78018E16	 	6.77102E-17	 	-9298.76012	28.00913	 
385.0	1.0	0.0	8.32296	7.13209	-11.15928	12.79983	14.95388	1.07829	0.92739	186.28214	173.59844	70.49967	0.32116	 	6.8751200000000008E16	 	4.67231E-17	 	-9438.57348	27.96267	 
380.0	1.0	0.0	8.32475	7.13055	-11.1784	12.77522	14.88988	1.0747	0.93049	186.56017	173.72961	70.61193	0.32102	 	9.94334E16	 	3.20603E-17	 	-9578.15473	27.91625	 
375.0	1.0	0.0	8.32654	7.12902	-11.19746	12.75062	14.82581	1.07108	0.93363	186.83767	173.86017	70.72401	0.32089	 	1.4463E17	 	2.18728E-17	 	-9717.50399	27.86985	 
370.0	1.0	0.0	8.32832	7.1275	-11.21645	12.72601	14.76168	1.06744	0.93682	187.11466	173.99012	70.83592	0.32076	 	2.11598E17	 	1.4835E-17	 	-9856.62139	27.82348	 
365.0	1.0	0.0	8.33009	7.12598	-11.23538	12.70141	14.69748	1.06377	0.94006	187.39113	174.11946	70.94764	0.32063	 	3.11427E17	 	1.00012E-17	 	-9995.50702	27.77713	 
360.0	1.0	0.0	8.33187	7.12446	-11.25424	12.67681	14.63321	1.06007	0.94334	187.66707	174.2482	71.05919	0.3205	 	4.6116E17	 	6.70103E-18	 	-10134.161	27.7308	 
355.0	1.0	0.0	8.33363	7.12296	-11.27303	12.6522	14.56887	1.05634	0.94667	187.94249	174.37633	71.17055	0.32037	 	6.87165E17	 	4.46158E-18	 	-10272.58341	27.68448	 
350.0	1.0	0.0	8.33539	7.12145	-11.29177	12.6276	14.50445	1.05259	0.95004	188.21739	174.50385	71.28174	0.32024	 	1.03051E18	 	2.95141E-18	 	-10410.77432	27.63818	 
345.0	1.0	0.0	8.33714	7.11995	-11.31044	12.60299	14.43996	1.0488	0.95347	188.49177	174.63077	71.39275	0.3201	 	1.55556E18	 	1.93952E-18	 	-10548.73381	27.5919	 
340.0	1.0	0.0	8.33889	7.11846	-11.32904	12.57839	14.3754	1.04499	0.95695	188.76563	174.7571	71.50358	0.31997	 	2.36396E18	 	1.26594E-18	 	-10686.46193	27.54562	 
335.0	1.0	0.0	8.34064	7.11697	-11.34758	12.55379	14.31075	1.04115	0.96047	189.03897	174.88282	71.61423	0.31984	 	3.61727E18	 	8.20571E-19	 	-10823.95872	27.49936	 
330.0	1.0	0.0	8.34238	7.11549	-11.36605	12.52918	14.24603	1.03728	0.96406	189.31179	175.00795	71.7247	0.31971	 	5.57424E18	 	5.28113E-19	 	-10961.22421	27.4531	 
325.0	1.0	0.0	8.34411	7.11401	-11.38446	12.50458	14.18122	1.03339	0.96769	189.58408	175.13247	71.83499	0.31958	 	8.65226E18	 	3.37417E-19	 	-11098.25842	27.40684	 
320.0	1.0	0.0	8.34584	7.11254	-11.4028	12.47998	14.11633	1.02946	0.97138	189.85585	175.25641	71.9451	0.31945	 	1.35299E19	 	2.13973E-19	 	-11235.06134	27.36058	 
315.0	1.0	0.0	8.34756	7.11107	-11.42108	12.45538	14.05135	1.0255	0.97513	190.1271	175.37975	72.05504	0.31932	 	2.13186E19	 	1.34653E-19	 	-11371.63296	27.31432	 
310.0	1.0	0.0	8.34928	7.10961	-11.4393	12.43077	13.98628	1.02151	0.97894	190.39783	175.5025	72.16479	0.31919	 	3.38539E19	 	8.40734E-20	 	-11507.97324	27.26806	 
305.0	1.0	0.0	8.35099	7.10815	-11.45745	12.40617	13.92111	1.0175	0.98281	190.66804	175.62465	72.27436	0.31906	 	5.41918E19	 	5.20708E-20	 	-11644.08214	27.22178	 
300.0	1.0	0.0	8.35269	7.1067	-11.47554	12.38157	13.85586	1.01345	0.98673	190.93773	175.74622	72.38375	0.31893	 	8.74628E19	 	3.19839E-20	 	-11779.9596	27.17549	 
295.0	1.0	0.0	8.35439	7.10525	-11.49356	12.35697	13.79051	1.00937	0.99072	191.20689	175.8672	72.49297	0.3188	 	1.4235499999999998E20	 	1.94795E-20	 	-11915.60554	27.12919	 
290.0	1.0	0.0	8.35609	7.10381	-11.51151	12.33236	13.72506	1.00525	0.99477	191.47553	175.98759	72.602	0.31867	 	2.3370999999999997E20	 	1.17607E-20	 	-12051.01985	27.08286	 
285.0	1.0	0.0	8.35778	7.10237	-11.52941	12.30776	13.6595	1.00111	0.99889	191.74366	176.1074	72.71085	0.31854	 	3.8711499999999997E20	 	7.03716E-21	 	-12186.20242	27.03651	 
280.0	1.0	0.0	8.35946	7.10094	-11.54723	12.28316	13.59385	0.99693	1.00307	192.01125	176.22662	72.81953	0.3184	 	6.470909999999999E20	 	4.17219E-21	 	-12321.1531	26.99014	 
275.0	1.0	0.0	8.36114	7.09952	-11.56499	12.25856	13.52808	0.99273	1.00733	192.27833	176.34526	72.92802	0.31827	 	1.09184E21	 	2.45034E-21	 	-12455.87174	26.94373	 
270.0	1.0	0.0	8.36282	7.0981	-11.58269	12.23396	13.4622	0.98848	1.01165	192.54489	176.46332	73.03633	0.31814	 	1.86011E21	 	1.42517E-21	 	-12590.35815	26.89728	 
265.0	1.0	0.0	8.36448	7.09668	-11.60033	12.20936	13.39621	0.98421	1.01604	192.81092	176.5808	73.14446	0.31801	 	3.20049E21	 	8.20679E-22	 	-12724.61212	26.85079	 
260.0	1.0	0.0	8.36615	7.09527	-11.61789	12.18476	13.33011	0.9799	1.02051	193.07643	176.6977	73.25242	0.31788	 	5.56308E21	 	4.67758E-22	 	-12858.63345	26.80426	 
255.0	1.0	0.0	8.3678	7.09386	-11.6354	12.16016	13.26388	0.97556	1.02506	193.34142	176.81402	73.36019	0.31775	 	9.77146E21	 	2.63806E-22	 	-12992.42185	26.75768	 
250.0	1.0	0.0	8.36946	7.09246	-11.65284	12.13556	13.19753	0.97118	1.02968	193.60589	176.92976	73.46778	0.31762	 	1.73492E22	 	1.47175E-22	 	-13125.97705	26.71104	 
245.0	1.0	0.0	8.3711	7.09107	-11.67021	12.11096	13.13105	0.96677	1.03437	193.86983	177.04494	73.57519	0.31749	 	3.1146699999999997E22	 	8.1195E-23	 	-13259.29873	26.66434	 
240.0	1.0	0.0	8.37274	7.08968	-11.68752	12.08636	13.06444	0.96232	1.03916	194.13326	177.15953	73.68241	0.31736	 	5.65585E22	 	4.42826E-23	 	-13392.38658	26.61757	 
235.0	1.0	0.0	8.37438	7.0883	-11.70476	12.06176	12.9977	0.95784	1.04402	194.39616	177.27356	73.78946	0.31724	 	1.03916E23	 	2.3867E-23	 	-13525.24021	26.57073	 
230.0	1.0	0.0	8.37601	7.08692	-11.72194	12.03716	12.93081	0.95332	1.04897	194.65854	177.38701	73.89633	0.31711	 	1.9324799999999997E23	 	1.27078E-23	 	-13657.85921	26.5238	 
225.0	1.0	0.0	8.37763	7.08554	-11.73906	12.01256	12.86378	0.94876	1.054	194.92039	177.4999	74.00301	0.31698	 	3.6388E23	 	6.68173E-24	 	-13790.24317	26.47679	 
220.0	1.0	0.0	8.37925	7.08417	-11.75611	11.98796	12.79661	0.94417	1.05913	195.18173	177.61222	74.10952	0.31685	 	6.94023E23	 	3.4681E-24	 	-13922.39162	26.42969	 
215.0	1.0	0.0	8.38086	7.08281	-11.7731	11.96336	12.72928	0.93954	1.06435	195.44254	177.72397	74.21584	0.31672	 	1.34133E24	 	1.77626E-24	 	-14054.30403	26.38248	 
210.0	1.0	0.0	8.38247	7.08145	-11.79002	11.93876	12.66179	0.93487	1.06966	195.70283	177.83515	74.32198	0.31659	 	2.62795E24	 	8.97328E-25	 	-14185.97987	26.33517	 
205.0	1.0	0.0	8.38407	7.0801	-11.80688	11.91416	12.59414	0.93017	1.07507	195.96259	177.94578	74.42794	0.31646	 	5.22167E24	 	4.46932E-25	 	-14317.41855	26.28774	 
200.0	1.0	0.0	8.38567	7.07875	-11.82367	11.88956	12.52632	0.92543	1.08058	196.22184	178.05583	74.53372	0.31633	 	1.0527E25	 	2.19372E-25	 	-14448.61943	26.24018	 
195.0	1.0	0.0	8.38726	7.07741	-11.84039	11.86496	12.45833	0.92064	1.0862	196.48056	178.16533	74.63932	0.3162	 	2.15428E25	 	1.06064E-25	 	-14579.58186	26.19249	 
190.0	1.0	0.0	8.38885	7.07607	-11.85706	11.84037	12.39016	0.91582	1.09192	196.73876	178.27427	74.74473	0.31607	 	4.47729E25	 	5.04886E-26	 	-14710.30509	26.14465	 
185.0	1.0	0.0	8.39043	7.07474	-11.87366	11.81577	12.3218	0.91096	1.09774	196.99644	178.38264	74.84997	0.31594	 	9.455030000000001E25	 	2.365E-26	 	-14840.78837	26.09665	 
180.0	1.0	0.0	8.392	7.07341	-11.89019	11.79117	12.25325	0.90606	1.10368	197.25359	178.49046	74.95502	0.31581	 	2.0299000000000002E26	 	1.08957E-26	 	-14971.03085	26.0485	 
175.0	1.0	0.0	8.39357	7.07209	-11.90666	11.76657	12.1845	0.90112	1.10973	197.51022	178.59772	75.05989	0.31568	 	4.43293E26	 	4.93422E-27	 	-15101.03166	26.00016	 
170.0	1.0	0.0	8.39513	7.07077	-11.92306	11.74198	12.11555	0.89614	1.1159	197.76633	178.70443	75.16457	0.31556	 	9.852860000000001E26	 	2.19521E-27	 	-15230.78985	25.95164	 
165.0	1.0	0.0	8.39669	7.06946	-11.9394	11.71738	12.04639	0.89111	1.12219	198.02192	178.81058	75.26908	0.31543	 	2.23023E27	 	9.5887E-28	 	-15360.30442	25.90291	 
160.0	1.0	0.0	8.39824	7.06815	-11.95568	11.69278	11.977	0.88605	1.12861	198.27698	178.91618	75.3734	0.3153	 	5.14432E27	 	4.10957E-28	 	-15489.5743	25.85398	 
155.0	1.0	0.0	8.39979	7.06685	-11.97189	11.66818	11.90739	0.88094	1.13515	198.53152	179.02123	75.47754	0.31517	 	1.21E28	 	1.72702E-28	 	-15618.59833	25.80481	 
150.0	1.0	0.0	8.40133	7.06556	-11.98803	11.64359	11.83754	0.87579	1.14183	198.78554	179.12573	75.5815	0.31504	 	2.90415E28	 	7.11151E-29	 	-15747.37532	25.7554	 
145.0	1.0	0.0	8.40287	7.06426	-12.00411	11.61899	11.76744	0.87059	1.14864	199.03904	179.22968	75.68528	0.31491	 	7.11782E28	 	2.86729E-29	 	-15875.90396	25.70573	 
140.0	1.0	0.0	8.4044	7.06298	-12.02013	11.59439	11.69709	0.86536	1.15559	199.29201	179.33308	75.78887	0.31478	 	1.78278E29	 	1.13109E-29	 	-16004.18287	25.65578	 
135.0	1.0	0.0	8.40592	7.0617	-12.03608	11.5698	11.62648	0.86008	1.16269	199.54446	179.43593	75.89228	0.31466	 	4.56688E29	 	4.36202E-30	 	-16132.21057	25.60554	 
130.0	1.0	0.0	8.40744	7.06042	-12.05197	11.5452	11.55559	0.85475	1.16993	199.79638	179.53824	75.99551	0.31453	 	1.1974899999999999E30	 	1.64316E-30	 	-16259.98553	25.55499	 
125.0	1.0	0.0	8.40895	7.05915	-12.06779	11.52061	11.48441	0.84938	1.17732	200.04779	179.64	76.09856	0.3144	 	3.21694E30	 	6.04075E-31	 	-16387.50605	25.50411	 
120.0	1.0	0.0	8.41046	7.05789	-12.08355	11.49601	11.41294	0.84397	1.18488	200.29867	179.74122	76.20142	0.31427	 	8.861919999999999E30	 	2.16529E-31	 	-16514.7704	25.45287	 
115.0	1.0	0.0	8.41196	7.05663	-12.09924	11.47141	11.34116	0.83851	1.19259	200.54902	179.8419	76.3041	0.31414	 	2.50583E31	 	7.56023E-32	 	-16641.77667	25.40125	 
110.0	1.0	0.0	8.41346	7.05537	-12.11487	11.44682	11.26906	0.833	1.20047	200.79886	179.94203	76.40659	0.31402	 	7.28042E31	 	2.56861E-32	 	-16768.52286	25.34924	 
105.0	1.0	0.0	8.41495	7.05412	-12.13043	11.42222	11.19662	0.82745	1.20853	201.04817	180.04163	76.50891	0.31389	 	2.17576E32	 	8.48281E-33	 	-16895.00684	25.2968	 
100.0	1.0	0.0	8.41643	7.05288	-12.14593	11.39763	11.12384	0.82185	1.21676	201.29696	180.14069	76.61104	0.31376	 	6.69588E32	 	2.71996E-33	 	-17021.22636	25.2439	 
95.0	1.0	0.0	8.41791	7.05164	-12.16136	11.37303	11.05068	0.81621	1.22518	201.54522	180.23921	76.71298	0.31363	 	2.1245400000000001E33	 	8.4576E-34	 	-17147.17897	25.19052	 
90.0	1.0	0.0	8.41938	7.05041	-12.17673	11.34844	10.97715	0.81052	1.23378	201.79296	180.3372	76.81475	0.3135	 	6.958730000000001E33	 	2.54708E-34	 	-17272.86213	25.13663	 
85.0	1.0	0.0	8.42085	7.04918	-12.19204	11.32385	10.90323	0.80478	1.24258	202.04018	180.43465	76.91633	0.31338	 	2.35604E34	 	7.41941E-35	 	-17398.27308	25.08219	 
80.0	1.0	0.0	8.42231	7.04795	-12.20728	11.29925	10.82889	0.79899	1.25158	202.28687	180.53157	77.01772	0.31325	 	8.257200000000001E34	 	2.08744E-35	 	-17523.40891	25.02716	 
75.0	1.0	0.0	8.42377	7.04674	-12.22245	11.27466	10.75411	0.79315	1.26079	202.53304	180.62795	77.11894	0.31312	 	3.0000399999999997E35	 	5.66404E-36	 	-17648.2665	24.97152	 
70.0	1.0	0.0	8.42522	7.04552	-12.23756	11.25006	10.67888	0.78727	1.27021	202.77869	180.72381	77.21996	0.31299	 	1.13175E36	 	1.47986E-36	 	-17772.84255	24.91521	 
65.0	1.0	0.0	8.42666	7.04432	-12.25261	11.22547	10.60318	0.78134	1.27985	203.02381	180.81913	77.32081	0.31287	 	4.4404199999999996E36	 	3.71682E-37	 	-17897.13351	24.85819	 
60.0	1.0	0.0	8.4281	7.04311	-12.26759	11.20088	10.52697	0.77536	1.28973	203.26841	180.91392	77.42147	0.31274	 	1.81518E37	 	8.95793E-38	 	-18021.13559	24.80042	 
55.0	1.0	0.0	8.42954	7.04192	-12.28251	11.17628	10.45025	0.76933	1.29983	203.51249	181.00819	77.52195	0.31261	 	7.745479999999999E37	 	2.06781E-38	 	-18144.84477	24.74184	 
50.0	1.0	0.0	8.43096	7.04072	-12.29736	11.15169	10.37298	0.76325	1.31019	203.75604	181.10193	77.62224	0.31248	 	3.45682E38	 	4.56261E-39	 	-18268.25674	24.68239	 
45.0	1.0	0.0	8.43239	7.03954	-12.31215	11.1271	10.29513	0.75712	1.32079	203.99907	181.19514	77.72235	0.31236	 	1.61706E39	 	9.6027E-40	 	-18391.3669	24.62203	 
40.0	1.0	0.0	8.4338	7.03835	-12.32687	11.1025	10.21667	0.75095	1.33165	204.24158	181.28783	77.82227	0.31223	 	7.94639E39	 	1.9234E-40	 	-18514.17031	24.56068	 
35.0	1.0	0.0	8.43521	7.03718	-12.34153	11.07791	10.13757	0.74472	1.34278	204.48356	181.38	77.92202	0.3121	 	4.112E40	 	3.65759E-41	 	-18636.66169	24.49828	 
30.0	1.0	0.0	8.43662	7.03601	-12.35612	11.05331	10.05781	0.73845	1.35419	204.72502	181.47164	78.02157	0.31198	 	2.24639E41	 	6.58656E-42	 	-18758.83538	24.43474	 
25.0	1.0	0.0	8.43801	7.03484	-12.37065	 	9.97733	0.73213	1.36588	204.96596	181.56277	78.12094	0.31185	 	1.2991299999999999E42	 	1.12013E-42	 	-18880.68536	 	 
