T (C)	Fraction solid (wt)-TOTAL	Fraction liquid (wt)-LIQUID	Density (g/(cm)^3)-TOTAL	Molar volume (cm^3)-TOTAL	Volume change (%)-  	Average expansion coeff. (10e-6 1/K)-  	Thermal conductivity (W/(m*K))-TOTAL	Electrical resistivity (10e-6 Ohm*m)-TOTAL	Electrical conductivity (10e6 1/(Ohm*m))-TOTAL	Young's modulus (GPa)-TOTAL	Bulk modulus (GPa)-TOTAL	Shear modulus(GPa)-TOTAL	Poisson's ratio-TOTAL	Liquid viscosity (mPa s)-  	Total viscosity (mPa s)-  	Liquid diffusivity (10e-9 (m^2)/s)-  	Total diffusivity (10e-9 (m^2)/s)-  	Surface Tension (mN/m)-  	Enthalpy (J/mole)-TOTAL	Specific heat (J/(mole K))-TOTAL	Latent heat (J/mole)-TOTAL
1400.0	0.0	1.0	7.15727	7.92611	0.0	33.03966	29.22803	1.4025	0.71301	0.0	122.6584	0.0	0.5	6.85283	6.85283	1.19166	1.19166	1788.62568	46297.176	 	0.0
1395.0	0.0	1.0	7.16133	7.92162	-0.056695	33.0035	29.1501	1.40204	0.71325	0.0	122.80408	0.0	0.5	6.92629	6.92629	1.1755	1.1755	1791.64956	46095.28	40.3792	0.0
1390.0	0.0	1.0	7.16538	7.91714	-0.11323	32.96752	29.07217	1.40159	0.71348	0.0	122.94976	0.0	0.5	7.00099	7.00099	1.15947	1.15947	1794.69454	45893.837	40.2886	0.0
1385.0	0.0	1.0	7.16943	7.91267	-0.1696	32.93173	28.99424	1.40113	0.71371	0.0	123.09545	0.0	0.5	7.07695	7.07695	1.14357	1.14357	1797.76042	45692.842	40.199	0.0
1380.0	0.0	1.0	7.17347	7.90822	-0.22581	32.89612	28.91631	1.40067	0.71394	0.0	123.24113	0.0	0.5	7.1542	7.1542	1.12782	1.12782	1800.847	45492.294	40.1096	0.0
1375.0	0.0	1.0	7.1775	7.90377	-0.28186	32.8607	28.83838	1.40021	0.71418	0.0	123.38681	0.0	0.5	7.23277	7.23277	1.11219	1.11219	1803.95404	45292.189	40.021	0.0
1370.0	0.0	1.0	7.18152	7.89934	-0.33775	32.82547	28.76045	1.39974	0.71442	0.0	123.53249	0.0	0.5	7.31269	7.31269	1.0967	1.0967	1807.0813	45092.525	39.9328	0.0
1365.0	0.0	1.0	7.18554	7.89493	-0.39348	32.79044	28.68253	1.39927	0.71466	0.0	123.67817	0.0	0.5	7.39399	7.39399	1.08134	1.08134	1810.22854	44893.3	39.845	0.0
1360.0	0.0	1.0	7.18955	7.89052	-0.44904	32.7556	28.6046	1.3988	0.7149	0.0	123.82386	0.0	0.5	7.4767	7.4767	1.06611	1.06611	1813.3955	44694.511	39.7578	0.0
1355.0	0.0	1.0	7.19356	7.88613	-0.50445	32.72096	28.52667	1.39833	0.71514	0.0	123.96954	0.0	0.5	7.56085	7.56085	1.05102	1.05102	1816.58192	44496.155	39.6712	0.0
1350.0	0.0	1.0	7.19755	7.88175	-0.55969	32.68652	28.44874	1.39785	0.71538	0.0	124.11522	0.0	0.5	7.64648	7.64648	1.03606	1.03606	1819.78753	44298.23	39.585	0.0
1346.51	0.0	1.0	7.20033	7.87871	-0.59811	32.66262	28.39441	1.39752	0.71555	0.0	124.21679	0.0	0.5	7.70707	7.70707	1.0257	1.0257	1822.03372	44160.49	39.51177	0.0
1345.0	0.0460001	0.954	7.21423	7.86347	-0.79041	32.1483	28.52909	1.38962	0.71962	4.02431E-4	124.66138	1.34672E-4	0.49412	7.73728	8.30634	1.02074	0.95081	1821.77811	43409.13	496.29116	691.603
1340.0	0.18267	0.81733	7.25608	7.81821	-1.36132	30.62614	28.93412	1.36594	0.7321	0.10288	126.00547	0.0348406	0.47646	7.83916	31.83221	1.00437	0.24734	1820.94286	41167.605	448.305	2736.056
1335.0	0.2931	0.7069	7.29069	7.78105	-1.83019	29.38738	29.26101	1.34649	0.74267	0.69757	127.15001	0.23857	0.46198	7.94359	164.2865	0.98809	0.0477762	1820.14368	39330.765	367.368	4376.249
1330.0	0.38354	0.61646	7.31974	7.75021	-2.21932	28.37055	29.52738	1.3302	0.75177	2.08519	128.14614	0.71905	0.44997	8.05079	485.07632	0.9719	0.0161306	1819.38061	37802.414	305.6702	5708.373
1325.0	0.4585	0.5415	7.34442	7.72411	-2.54859	27.52034	29.74544	1.31633	0.75969	4.33085	129.02711	1.50388	0.43989	8.16068	1031.74905	0.95582	0.00756015	1818.65704	36512.598	257.9632	6802.382
1320.0	0.52129	0.47871	7.36563	7.70184	-2.82955	26.80483	29.92385	1.30438	0.76665	7.34584	129.82048	2.56605	0.43135	8.27342	1811.68916	0.93985	0.004292	1817.97161	35409.634	220.5928	7709.954
1315.0	0.57443	0.42557	7.38407	7.68262	-3.072	26.19686	30.06906	1.29401	0.77279	10.97329	130.54483	3.85282	0.42406	8.38913	2816.33459	0.92398	0.00275229	1817.32403	34454.793	190.9682	8469.817
1310.0	0.61977	0.38023	7.40026	7.66577	-3.2847	25.67185	30.18628	1.28493	0.77825	15.04679	131.21265	5.3065	0.41777	8.50784	4031.8544	0.90822	0.00191648	1816.71573	33618.66	167.2266	9111.383
1305.0	0.65874	0.34126	7.41459	7.65093	-3.47186	25.21831	30.27969	1.27692	0.78314	19.41335	131.83571	6.87292	0.41231	8.62956	5444.30679	0.89258	0.00141479	1816.14307	32878.628	148.0064	9657.258
1300.0	0.69251	0.30749	7.4274	7.63771	-3.6387	24.82155	30.3527	1.26981	0.78752	23.94464	132.42196	8.50592	0.40753	8.75452	7041.65851	0.87705	0.00109039	1815.60677	32217.12	132.3016	10125.015
1295.0	0.72194	0.27806	7.43894	7.62582	-3.78862	24.47215	30.40825	1.26346	0.79148	28.54142	132.97754	10.16925	0.40332	8.88278	8816.09405	0.86164	8.68157E-4	1815.10517	31620.33	119.358	10528.458
1290.0	0.74775	0.25225	7.44939	7.61505	-3.92458	24.1618	30.44864	1.25776	0.79506	33.12585	133.50703	11.83412	0.39959	9.01439	10762.6379	0.84635	7.08873E-4	1814.63816	31077.311	108.6038	10878.534
1285.0	0.7705	0.2295	7.45894	7.60526	-4.04806	23.88651	30.47605	1.25261	0.79833	37.64484	134.01581	13.4805	0.39627	9.14959	12881.55784	0.83118	5.90374E-4	1814.20158	30579.299	99.6024	11184.002
1280.0	0.79066	0.20934	7.4677	7.59628	-4.16141	23.63956	30.4921	1.24794	0.80132	42.05632	134.50561	15.09238	0.3933	9.28827	15174.17534	0.81614	4.99568E-4	1813.79639	30119.225	92.0148	11451.93
1275.0	0.80861	0.19139	7.47582	7.58796	-4.26632	23.41623	30.4983	1.24367	0.80408	46.33569	134.97964	16.66011	0.39062	9.43086	17646.21686	0.80121	4.28201E-4	1813.42247	29691.337	85.5776	11688.067
1270.0	0.82467	0.17533	7.48334	7.58026	-4.36353	23.21454	30.49591	1.23975	0.80662	50.46704	135.43982	18.17723	0.38819	9.57713	20306.44091	0.78643	3.70904E-4	1813.07665	29290.924	80.0826	11897.122
1265.0	0.83908	0.16092	7.49038	7.57306	-4.45436	23.0307	30.48598	1.23613	0.80898	54.44194	135.88823	19.64007	0.38599	9.72763	23165.67428	0.77175	3.24071E-4	1812.75962	28914.101	75.3646	12082.979
1260.0	0.85208	0.14792	7.49697	7.56632	-4.53936	22.86326	30.46937	1.23278	0.81117	58.25419	136.32581	21.04585	0.38398	9.8821	26236.17775	0.75722	2.85214E-4	1812.469	28557.64	71.2922	12248.863
1255.0	0.86384	0.13616	7.50318	7.55996	-4.61953	22.70934	30.44692	1.22967	0.81323	61.90702	136.75405	22.39533	0.38214	10.04098	29534.44135	0.74281	2.52536E-4	1812.206	28218.848	67.7584	12397.465
1250.95	0.87253	0.12747	7.50796	7.55508	-4.68117	22.59398	30.42465	1.22731	0.81479	64.74005	137.09495	23.44358	0.38076	10.17317	32382.35183	0.73121	2.29716E-4	1812.01439	27956.005	 	12506.369
1250.0	0.87508	0.12492	7.50915	7.55385	-4.69668	22.56348	30.42158	1.22667	0.81522	65.57951	137.18573	23.75443	0.38036	10.20706	33162.44985	0.72833	2.24173E-4	1812.32993	27886.807	66.4082	12539.7
1245.0	0.88791	0.11209	7.5153	7.54746	-4.77728	22.40571	30.40273	1.2234	0.81739	69.955	137.65596	25.37665	0.37833	10.38921	37494.89597	0.71321	1.97619E-4	1813.99221	27530.455	71.2704	12706.63
1240.0	0.89924	0.10076	7.52103	7.54149	-4.85255	22.26326	30.37712	1.2204	0.8194	74.04555	138.10871	26.89607	0.37651	10.57569	42107.49288	0.69833	1.75392E-4	1815.62423	27195.516	66.9878	12852.526
1235.0	0.90932	0.0906788	7.5264	7.53588	-4.92341	22.13345	30.34565	1.21763	0.82127	77.86726	138.54613	28.31807	0.37487	10.76676	47023.2762	0.68367	1.56537E-4	1817.22826	26878.65	63.3732	12980.728
1230.0	0.91832	0.0816824	7.53149	7.53056	-4.99053	22.01431	30.30927	1.21505	0.82301	81.44859	138.97103	29.65271	0.37338	10.96263	52276.88718	0.66923	1.40339E-4	1818.80271	26577.152	60.2996	13093.939
1225.0	0.92639	0.0736063	7.53632	7.52551	-5.05427	21.90485	30.26852	1.21264	0.82465	84.80371	139.38475	30.90487	0.37201	11.16338	57897.14994	0.65501	1.26295E-4	1820.34588	26288.811	57.6682	13194.367
1220.0	0.93367	0.0663295	7.54092	7.52067	-5.11526	21.80321	30.224	1.21037	0.82619	87.95413	139.78869	32.08222	0.37076	11.36951	63920.73685	0.64099	1.14011E-4	1821.85908	26011.809	55.4004	13283.828
1215.0	0.94025	0.0597473	7.54533	7.51603	-5.17382	21.70842	30.17617	1.20823	0.82766	90.91641	140.184	33.19067	0.36961	11.58103	70386.1887	0.62717	1.03192E-4	1823.34151	25744.638	53.4342	13363.829
1210.0	0.94623	0.0537701	7.54957	7.51156	-5.23021	21.61977	30.12544	1.2062	0.82905	93.70719	140.57178	34.23618	0.36854	11.79825	77336.36212	0.61356	9.36026E-5	1824.791	25486.039	51.7198	13435.625
1205.0	0.95168	0.0483238	7.55366	7.50725	-5.2846	21.53682	30.07214	1.20426	0.83039	96.34075	140.95272	35.22388	0.36755	12.02142	84816.7371	0.60014	8.50597E-5	1826.20536	25234.957	50.2164	13500.271
1200.0	0.95665	0.0433468	7.55761	7.50307	-5.33733	21.45849	30.01657	1.20241	0.83166	98.83046	141.3275	36.15864	0.36662	12.25071	92877.97605	0.58691	7.74143E-5	1827.58535	24990.499	48.8916	13558.656
1195.0	0.96121	0.0387855	7.56144	7.49901	-5.38856	21.38433	29.95896	1.20063	0.83289	101.18919	141.69657	37.04511	0.36576	12.4866	101575.0751	0.57387	7.05456E-5	1828.93046	24751.909	47.718	13611.537
1190.0	0.96541	0.0345928	7.56516	7.49506	-5.43841	21.31404	29.89955	1.19892	0.83408	103.42718	142.06058	37.88702	0.36494	12.72924	110968.0035	0.56101	6.43543E-5	1830.23783	24518.535	46.6748	13659.563
1185.0	0.96927	0.0307295	7.56879	7.4912	-5.48706	21.24705	29.83851	1.19727	0.83524	105.55442	142.4198	38.68801	0.36417	12.9791	121122.2617	0.54833	5.87577E-5	1831.50796	24289.834	45.7402	13703.274
1180.0	0.97284	0.0271632	7.57233	7.48743	-5.53461	21.18311	29.77603	1.19567	0.83635	107.58017	142.77472	39.45147	0.36345	13.23627	132110.1822	0.53584	5.3686E-5	1832.73873	24065.324	44.902	13743.15
1175.0	0.97614	0.023862	7.57578	7.48375	-5.58112	21.12203	29.7122	1.19411	0.83744	109.51126	143.12539	40.17987	0.36276	13.50138	144008.4063	0.52351	4.90809E-5	1833.93008	23844.593	44.1462	13779.603
1170.0	0.9792	0.0208017	7.57917	7.48013	-5.62675	21.0633	29.6472	1.1926	0.83851	111.35608	143.47228	40.87633	0.36211	13.7747	156904.7637	0.51135	4.48913E-5	1835.08245	23627.283	43.462	13812.987
1165.0	0.98204	0.017959	7.58249	7.47658	-5.67154	21.00689	29.58111	1.19112	0.83955	113.12013	143.81546	41.54283	0.36149	14.05663	170891.9712	0.49936	4.10742E-5	1836.19454	23413.082	42.8402	13843.613
1160.0	0.98469	0.0153147	7.58574	7.47309	-5.71552	20.95264	29.51402	1.18968	0.84056	114.80917	144.15512	42.1815	0.36089	14.34756	186073.2931	0.48753	3.75919E-5	1837.26578	23201.718	42.2728	13871.751
1155.0	0.98715	0.0128519	7.58894	7.46966	-5.75885	20.90013	29.44604	1.18826	0.84156	116.42932	144.49165	42.79459	0.36033	14.64801	202564.0444	0.47586	3.44111E-5	1838.29697	22992.951	41.7534	13897.639
1150.0	0.98945	0.0105547	7.5904	7.46557	-5.81047	20.81924	29.28956	1.19043	0.84003	118.15679	144.87359	43.45187	0.35963	14.95842	220486.2108	0.46436	3.15033E-5	1841.20001	22704.75816	57.63857	13921.485
1145.0	0.99158	0.00841566	7.59732	7.45974	-5.88397	20.6636	29.01233	1.19758	0.83502	120.2657	145.28354	44.26543	0.35846	15.27182	243940.3926	0.45323	2.83743E-5	1844.11297	22336.31111	73.68941	13943.805
1140.0	0.99384	0.00615515	7.60415	7.45362	-5.96123	20.49383	28.75022	1.20424	0.8304	122.43636	145.7065	45.10247	0.35731	15.56206	270102.0075	0.44321	2.55357E-5	1847.01582	21969.89529	73.28316	13970.983
1135.0	0.99623	0.00377404	7.61086	7.44723	-6.04187	20.31097	28.50138	1.21046	0.82613	124.67272	146.14099	45.96455	0.35618	15.84153	299301.786	0.43385	2.29629E-5	1849.91206	21606.56704	72.66565	14001.682
1130.0	0.99847	0.00153174	7.61731	7.44074	-6.12373	20.12229	28.26421	1.21628	0.82218	126.83377	146.57249	46.79839	0.35511	16.13407	331588.7736	0.42447	2.06534E-5	1852.81863	21251.98425	70.91656	14029.976
1125.0	1.0	0.0	7.623	7.43471	-6.19983	19.95172	28.03486	1.22186	0.81842	128.59066	146.97455	47.47915	0.35418	 	366344.0689	 	1.86274E-5	 	20877.09246	74.97836	 
1120.0	1.0	0.0	7.62789	7.42995	-6.2599	19.83501	27.8066	1.22748	0.81467	129.47187	147.31343	47.82788	0.35352	 	402621.0507	 	1.68884E-5	 	20566.48209	62.12207	 
1115.0	1.0	0.0	7.63268	7.42528	-6.31878	19.72142	27.58755	1.23279	0.81117	130.32463	147.64082	48.16559	0.35288	 	442794.4779	 	1.5301E-5	 	20261.3757	61.02128	 
1112.2	1.0	0.0	7.63533	7.42271	-6.35121	19.65919	27.4688	1.23562	0.80931	130.79005	147.8194	48.35001	0.35253	 	467139.6687	 	1.44744E-5	 	20092.96242	 	 
1110.0	1.0	0.0	7.63738	7.42071	-6.37641	19.61113	27.37717	1.23779	0.80789	131.15104	147.95836	48.49307	0.35227	 	487326.6381	 	1.38527E-5	 	19961.33658	60.00782	 
1105.0	1.0	0.0	7.64199	7.41624	-6.43284	19.50402	27.17497	1.24249	0.80483	131.95274	148.26702	48.81093	0.35167	 	536727.2226	 	1.25323E-5	 	19666.11871	59.04357	 
1100.0	1.0	0.0	7.64651	7.41185	-6.48823	19.39958	26.98046	1.24691	0.80198	132.73076	148.56679	49.11957	0.3511	 	591547.3736	 	1.13296E-5	 	19375.77764	58.06821	 
1095.0	1.0	0.0	7.65096	7.40754	-6.54262	19.29768	26.7932	1.25105	0.79933	133.4865	148.85839	49.41952	0.35054	 	652423.9287	 	1.02351E-5	 	19090.10319	57.13489	 
1090.0	1.0	0.0	7.65534	7.4033	-6.59606	19.19821	26.61276	1.25493	0.79686	134.22125	149.14245	49.71129	0.35001	 	720073.4591	 	9.23961E-6	 	18808.89329	56.24198	 
1085.0	1.0	0.0	7.65965	7.39914	-6.6486	19.10105	26.43872	1.25856	0.79456	134.93624	149.41956	49.99533	0.34949	 	795302.806	 	8.33493E-6	 	18531.95379	55.3879	 
1080.0	1.0	0.0	7.66389	7.39504	-6.70026	19.00609	26.2707	1.26195	0.79243	135.63261	149.69024	50.27209	0.34899	 	879021.2936	 	7.51334E-6	 	18259.09822	54.57111	 
1075.0	1.0	0.0	7.66807	7.39101	-6.7511	18.91322	26.10833	1.2651	0.79045	136.31142	149.95494	50.54197	0.3485	 	972254.428	 	6.76776E-6	 	17990.14761	53.79012	 
1070.0	1.0	0.0	7.67219	7.38705	-6.80114	18.82234	25.95129	1.26804	0.78862	136.97367	150.21411	50.80535	0.34802	 	1076159.877	 	6.09164E-6	 	17724.93033	53.04346	 
1065.0	1.0	0.0	7.67625	7.38314	-6.85042	18.73334	25.79924	1.27076	0.78693	137.62031	150.46813	51.06261	0.34756	 	1192045.38	 	5.47897E-6	 	17463.28187	52.32969	 
1060.0	1.0	0.0	7.68025	7.37929	-6.89898	18.64614	25.65189	1.27329	0.78537	138.2522	150.71735	51.31408	0.34712	 	1321389.6	 	4.92419E-6	 	17205.04468	51.64744	 
1055.0	1.0	0.0	7.6842	7.3755	-6.94685	18.56064	25.50895	1.27562	0.78393	138.87019	150.96211	51.56008	0.34668	 	1465865.86	 	4.42221E-6	 	16950.06804	50.99533	 
1050.0	1.0	0.0	7.6881	7.37176	-6.99405	18.47675	25.37017	1.27777	0.78261	139.47504	151.2027	51.80092	0.34626	 	1627369.263	 	3.96835E-6	 	16698.20783	50.37204	 
1045.0	1.0	0.0	7.69195	7.36807	-7.04062	18.39439	25.23528	1.27974	0.78141	140.0675	151.4394	52.03687	0.34585	 	1808048.168	 	3.55829E-6	 	16449.32637	49.77629	 
1040.0	1.0	0.0	7.69576	7.36442	-7.08658	18.31349	25.10406	1.28155	0.7803	140.64824	151.67246	52.26821	0.34545	 	2010340.01	 	3.1881E-6	 	16203.29223	49.20683	 
1035.0	1.0	0.0	7.69952	7.36083	-7.13197	18.23395	24.9763	1.2832	0.7793	141.21792	151.90212	52.49518	0.34506	 	2237012.661	 	2.85414E-6	 	15959.98002	48.66244	 
1030.0	1.0	0.0	7.70324	7.35727	-7.1768	18.15572	24.85179	1.2847	0.77839	141.77713	152.1286	52.71803	0.34467	 	2491212.23	 	2.55312E-6	 	15719.27024	48.14196	 
1025.0	1.0	0.0	7.70691	7.35376	-7.22109	18.07872	24.73034	1.28606	0.77757	142.32645	152.3521	52.93697	0.3443	 	2776517.663	 	2.28198E-6	 	15481.04902	47.64424	 
1020.0	1.0	0.0	7.71055	7.35029	-7.26488	18.00288	24.61177	1.28728	0.77683	142.86641	152.57279	53.15223	0.34394	 	3097004.414	 	2.03795E-6	 	15245.20796	47.16821	 
1015.0	1.0	0.0	7.71415	7.34686	-7.30818	17.92814	24.49592	1.28836	0.77618	143.39753	152.79086	53.36398	0.34358	 	3457317.57	 	1.8185E-6	 	15011.64388	46.71281	 
1010.0	1.0	0.0	7.71772	7.34346	-7.35101	17.85444	24.38264	1.28933	0.7756	143.92026	153.00647	53.57243	0.34323	 	3862756.069	 	1.62131E-6	 	14780.25868	46.27704	 
1005.0	1.0	0.0	7.72125	7.3401	-7.3934	17.78172	24.27179	1.29017	0.77509	144.43506	153.21976	53.77774	0.34289	 	4319371.034	 	1.44427E-6	 	14550.95905	45.85993	 
1000.0	1.0	0.0	7.72475	7.33678	-7.43535	17.70993	24.16322	1.2909	0.77466	144.94235	153.43087	53.98008	0.34255	 	4834078.827	 	1.28544E-6	 	14323.6563	45.46055	 
995.0	1.0	0.0	7.72822	7.33349	-7.47689	17.63901	24.05681	1.29151	0.77429	145.44252	153.63993	54.1796	0.34223	 	5414792.721	 	1.14308E-6	 	14098.26616	45.07803	 
990.0	1.0	0.0	7.73166	7.33023	-7.51804	17.56891	23.95245	1.29203	0.77398	145.93593	153.84706	54.37646	0.3419	 	6070575.288	 	1.01557E-6	 	13874.70861	44.71151	 
985.0	1.0	0.0	7.73507	7.32699	-7.5588	17.49958	23.85003	1.29244	0.77373	146.42295	154.05238	54.57078	0.34159	 	6811815.587	 	9.0148E-7	 	13652.90759	44.3602	 
980.0	1.0	0.0	7.73845	7.32379	-7.5992	17.43098	23.74945	1.29275	0.77354	146.90388	154.25599	54.7627	0.34128	 	7650436.109	 	7.99473E-7	 	13432.79088	44.02334	 
975.0	1.0	0.0	7.74181	7.32062	-7.63924	17.36307	23.65061	1.29298	0.77341	147.37906	154.45799	54.95233	0.34097	 	8600131.865	 	7.08351E-7	 	13214.28993	43.70019	 
970.0	1.0	0.0	7.74513	7.31747	-7.67895	17.2958	23.55343	1.29311	0.77333	147.84875	154.65847	55.1398	0.34067	 	9676650.991	 	6.27025E-7	 	12997.3396	43.39006	 
965.0	1.0	0.0	7.74844	7.31435	-7.71833	17.22913	23.45782	1.29316	0.7733	148.31325	154.85752	55.32521	0.34038	 	1.089812158E7	 	5.54509E-7	 	12781.87807	43.09231	 
960.0	1.0	0.0	7.75172	7.31125	-7.75739	17.16302	23.3637	1.29312	0.77332	148.77281	155.05523	55.50867	0.34009	 	1.228543264E7	 	4.89905E-7	 	12567.8466	42.80629	 
955.0	1.0	0.0	7.75498	7.30818	-7.79615	17.09745	23.27101	1.29301	0.77339	149.22766	155.25166	55.69026	0.3398	 	1.386268057E7	 	4.32405E-7	 	12355.18943	42.53144	 
950.0	1.0	0.0	7.75822	7.30513	-7.83461	17.03236	23.17968	1.29282	0.7735	149.67805	155.44689	55.87009	0.33952	 	1.565769192E7	 	3.81275E-7	 	12143.85357	42.26717	 
945.0	1.0	0.0	7.76143	7.30211	-7.87279	16.96774	23.08964	1.29256	0.77366	150.12418	155.641	56.04823	0.33924	 	1.770263702E7	 	3.35853E-7	 	11933.7887	42.01297	 
940.0	1.0	0.0	7.76463	7.2991	-7.9107	16.90355	23.00084	1.29222	0.77386	150.56627	155.83405	56.22478	0.33897	 	2.003474535E7	 	2.95541E-7	 	11724.94701	41.76834	 
935.0	1.0	0.0	7.7678	7.29612	-7.94834	16.83976	22.91322	1.29182	0.7741	151.00451	156.0261	56.39979	0.3387	 	2.269715468E7	 	2.59798E-7	 	11517.28306	41.53279	 
930.0	1.0	0.0	7.77096	7.29316	-7.98572	16.77633	22.82673	1.29134	0.77439	151.43908	156.2172	56.57336	0.33843	 	2.573990156E7	 	2.28139E-7	 	11310.75368	41.30588	 
925.0	1.0	0.0	7.77409	7.29021	-8.02286	16.71325	22.74132	1.29081	0.77471	151.87016	156.40743	56.74554	0.33817	 	2.922109015E7	 	2.00125E-7	 	11105.31779	41.08718	 
920.0	1.0	0.0	7.77721	7.28729	-8.05975	16.65049	22.65695	1.29021	0.77507	152.29791	156.59683	56.91641	0.33791	 	3.32082751E7	 	1.75362E-7	 	10900.93639	40.87628	 
915.0	1.0	0.0	7.78032	7.28438	-8.09641	16.58802	22.57358	1.28955	0.77547	152.72249	156.78545	57.08601	0.33765	 	3.778008752E7	 	1.53495E-7	 	10697.57232	40.67281	 
910.0	1.0	0.0	7.7834	7.2815	-8.13284	16.52581	22.49117	1.28882	0.7759	153.14404	156.97335	57.25443	0.3374	 	4.30281588E7	 	1.34207E-7	 	10495.19031	40.4764	 
905.0	1.0	0.0	7.78647	7.27863	-8.16906	16.46385	22.40968	1.28804	0.77637	153.56271	157.16057	57.4217	0.33715	 	4.905940118E7	 	1.1721E-7	 	10293.75674	40.28671	 
900.0	1.0	0.0	7.78952	7.27577	-8.20505	16.40211	22.32908	1.28721	0.77688	153.97863	157.34716	57.58788	0.3369	 	5.599870021E7	 	1.0225E-7	 	10093.23964	40.10342	 
895.0	1.0	0.0	7.79256	7.27294	-8.24084	16.34057	22.24933	1.28632	0.77741	154.39192	157.53316	57.75302	0.33666	 	6.399212314E7	 	8.90961E-8	 	9893.6086	39.92621	 
890.0	1.0	0.0	7.79559	7.27012	-8.27642	16.27922	22.1704	1.28537	0.77799	154.80272	157.71862	57.91717	0.33641	 	7.321071688E7	 	7.75439E-8	 	9694.83463	39.75479	 
885.0	1.0	0.0	7.79859	7.26731	-8.31181	16.21802	22.09228	1.28437	0.77859	155.21113	157.90358	58.08038	0.33618	 	8.38550272E7	 	6.74097E-8	 	9496.89016	39.58889	 
880.0	1.0	0.0	7.80159	7.26452	-8.347	16.15697	22.01492	1.28332	0.77923	155.61727	158.08807	58.24269	0.33594	 	9.616049157E7	 	5.85296E-8	 	9299.74878	39.42828	 
875.0	1.0	0.0	7.80457	7.26175	-8.382	16.09604	21.93831	1.28222	0.7799	156.02124	158.27214	58.40414	0.3357	 	1.10403858E8	 	5.07576E-8	 	9103.38539	39.27268	 
870.0	1.0	0.0	7.80754	7.25899	-8.41682	16.03522	21.86241	1.28107	0.7806	156.42313	158.45583	58.56477	0.33547	 	1.269108468E8	 	4.39634E-8	 	8907.77648	39.12178	 
865.0	1.0	0.0	7.81049	7.25624	-8.45145	15.97449	21.78722	1.27986	0.78133	156.82306	158.63917	58.72461	0.33524	 	1.460653329E8	 	3.80311E-8	 	8712.89941	38.97542	 
860.0	1.0	0.0	7.81343	7.25351	-8.48591	15.91384	21.71271	1.27861	0.7821	157.2211	158.82219	58.88371	0.33501	 	1.683203051E8	 	3.28577E-8	 	8518.73254	38.83337	 
855.0	1.0	0.0	7.81636	7.25079	-8.5202	15.85324	21.63885	1.27732	0.78289	157.61734	159.00494	59.0421	0.33479	 	1.942110302E8	 	2.83517E-8	 	8325.25532	38.69545	 
850.0	1.0	0.0	7.81928	7.24809	-8.55431	15.7927	21.56564	1.27597	0.78372	158.01187	159.18745	59.1998	0.33456	 	2.243708525E8	 	2.44319E-8	 	8132.44813	38.56144	 
845.0	1.0	0.0	7.82154	7.24599	-8.5808	15.76666	21.50086	1.27412	0.78486	158.37364	159.41796	59.34152	0.33443	 	2.550391652E8	 	2.13983E-8	 	7972.28852	32.03192	 
840.0	1.0	0.0	7.8238	7.2439	-8.60721	15.74062	21.43607	1.27226	0.78601	158.73482	159.64755	59.48305	0.33429	 	2.9023325E8	 	1.87195E-8	 	7809.08923	32.63986	 
835.0	1.0	0.0	7.82606	7.24181	-8.63356	15.71458	21.37128	1.27038	0.78717	159.09542	159.87622	59.62438	0.33415	 	3.306694435E8	 	1.63565E-8	 	7646.12033	32.59378	 
830.0	1.0	0.0	7.82831	7.23973	-8.65984	15.68854	21.30648	1.2685	0.78834	159.45543	160.10397	59.76553	0.33401	 	3.771850453E8	 	1.42747E-8	 	7483.38102	32.54786	 
825.0	1.0	0.0	7.83056	7.23765	-8.68605	15.6625	21.24167	1.2666	0.78952	159.81486	160.33082	59.90648	0.33387	 	4.307600133E8	 	1.24427E-8	 	7320.87047	32.50211	 
820.0	1.0	0.0	7.8328	7.23558	-8.71219	15.63646	21.17684	1.26469	0.79071	160.17371	160.55675	60.04724	0.33373	 	4.925427783E8	 	1.08323E-8	 	7158.58784	32.45653	 
815.0	1.0	0.0	7.83504	7.23351	-8.73826	15.61042	21.11201	1.26277	0.79191	160.53198	160.78177	60.1878	0.33359	 	5.638810002E8	 	9.41864E-9	 	6996.53224	32.41112	 
810.0	1.0	0.0	7.83727	7.23145	-8.76427	15.58438	21.04717	1.26084	0.79312	160.88966	161.00589	60.32818	0.33345	 	6.463582651E8	 	8.17903E-9	 	6834.70277	32.36589	 
805.0	1.0	0.0	7.8395	7.22939	-8.7902	15.55834	20.98232	1.2589	0.79434	161.24675	161.2291	60.46836	0.33332	 	7.41837933E8	 	7.09344E-9	 	6673.09852	32.32085	 
800.0	1.0	0.0	7.84172	7.22734	-8.81607	15.5323	20.91745	1.25695	0.79558	161.60327	161.45142	60.60835	0.33318	 	8.525156059E8	 	6.14391E-9	 	6511.71851	32.276	 
795.0	1.0	0.0	7.84394	7.2253	-8.84187	15.50626	20.85258	1.25498	0.79682	161.9592	161.67284	60.74815	0.33304	 	9.809820027E8	 	5.31444E-9	 	6350.56174	32.23135	 
790.0	1.0	0.0	7.84616	7.22326	-8.8676	15.48022	20.7877	1.25301	0.79808	162.31455	161.89336	60.88776	0.3329	 	1.130298419E9	 	4.5908E-9	 	6189.6272	32.18691	 
785.0	1.0	0.0	7.84837	7.22122	-8.89326	15.45418	20.7228	1.25102	0.79935	162.66932	162.11299	61.02717	0.33276	 	1.304087423E9	 	3.96029E-9	 	6028.91383	32.14267	 
780.0	1.0	0.0	7.85057	7.2192	-8.91885	15.42814	20.6579	1.24902	0.80063	163.02351	162.33174	61.1664	0.33262	 	1.50664204E9	 	3.41167E-9	 	5868.42052	32.09866	 
775.0	1.0	0.0	7.85277	7.21717	-8.94437	15.4021	20.59298	1.24701	0.80192	163.37712	162.54959	61.30543	0.33248	 	1.743057386E9	 	2.93493E-9	 	5708.14614	32.05488	 
770.0	1.0	0.0	7.85497	7.21516	-8.96983	15.37605	20.52805	1.24499	0.80322	163.73014	162.76657	61.44427	0.33235	 	2.019389626E9	 	2.52124E-9	 	5548.0895	32.01133	 
765.0	1.0	0.0	7.85716	7.21314	-8.99521	15.35001	20.46311	1.24295	0.80454	164.08258	162.98266	61.58292	0.33221	 	2.342848228E9	 	2.16273E-9	 	5388.24937	31.96803	 
760.0	1.0	0.0	7.85934	7.21114	-9.02053	15.32397	20.39816	1.2409	0.80586	164.43445	163.19787	61.72138	0.33207	 	2.722028869E9	 	1.8525E-9	 	5228.62447	31.92498	 
755.0	1.0	0.0	7.86153	7.20914	-9.04578	15.29792	20.3332	1.23884	0.8072	164.78573	163.41221	61.85964	0.33193	 	3.167196049E9	 	1.58441E-9	 	5069.21349	31.8822	 
750.0	1.0	0.0	7.8637	7.20714	-9.07096	15.27188	20.26822	1.23677	0.80856	165.13643	163.62567	61.99771	0.33179	 	3.69062658E9	 	1.35309E-9	 	4910.01501	31.8397	 
745.0	1.0	0.0	7.86588	7.20515	-9.09607	15.24584	20.20323	1.23469	0.80992	165.48655	163.83827	62.13559	0.33166	 	4.307027788E9	 	1.15377E-9	 	4751.02761	31.79748	 
740.0	1.0	0.0	7.86804	7.20316	-9.12111	15.21979	20.13823	1.23259	0.8113	165.83609	164.04999	62.27328	0.33152	 	5.03404753E9	 	9.82298E-10	 	4592.24976	31.75557	 
735.0	1.0	0.0	7.87021	7.20118	-9.14609	15.19375	20.07321	1.23048	0.81269	166.18505	164.26085	62.41078	0.33138	 	5.892897267E9	 	8.34993E-10	 	4433.67991	31.71397	 
730.0	1.0	0.0	7.87236	7.19921	-9.17099	15.1677	20.00819	1.22836	0.8141	166.53343	164.47084	62.54809	0.33124	 	6.909114589E9	 	7.08647E-10	 	4275.31638	31.6727	 
725.0	1.0	0.0	7.87452	7.19724	-9.19583	15.14166	19.94315	1.22622	0.81551	166.88123	164.67998	62.6852	0.33111	 	8.113498068E9	 	6.00447E-10	 	4117.15747	31.63178	 
720.0	1.0	0.0	7.87667	7.19528	-9.22059	15.11561	19.87809	1.22407	0.81695	167.22845	164.88825	62.82212	0.33097	 	9.543255456E9	 	5.07931E-10	 	3959.20136	31.59122	 
715.0	1.0	0.0	7.87881	7.19332	-9.24529	15.08957	19.81302	1.22191	0.81839	167.5751	165.09567	62.95885	0.33083	 	1.12434E10	 	4.28955E-10	 	3801.44615	31.55104	 
710.0	1.0	0.0	7.88095	7.19137	-9.26992	15.06352	19.74794	1.21973	0.81985	167.92116	165.30224	63.09539	0.33069	 	1.3268599999999998E10	 	3.61645E-10	 	3643.88988	31.51126	 
705.0	1.0	0.0	7.88308	7.18942	-9.29448	15.03747	19.68284	1.21754	0.82133	168.26665	165.50795	63.23174	0.33056	 	1.5684999999999998E10	 	3.04373E-10	 	3486.53043	31.47189	 
700.0	1.0	0.0	7.88521	7.18748	-9.31898	15.01143	19.61773	1.21534	0.82282	168.61155	165.71282	63.36789	0.33042	 	1.85735E10	 	2.55725E-10	 	3329.36562	31.43296	 
695.0	1.0	0.0	7.88734	7.18555	-9.3434	14.98538	19.5526	1.21312	0.82432	168.95588	165.91684	63.50385	0.33028	 	2.20323E10	 	2.14472E-10	 	3172.39314	31.3945	 
690.0	1.0	0.0	7.88945	7.18361	-9.36776	14.95933	19.48746	1.21089	0.82584	169.29963	166.12002	63.63962	0.33014	 	2.6181599999999996E10	 	1.7955E-10	 	3015.61054	31.35652	 
685.0	1.0	0.0	7.89157	7.18169	-9.39204	14.93329	19.4223	1.20865	0.82737	169.6428	166.32235	63.7752	0.33001	 	3.1168399999999996E10	 	1.5004E-10	 	2859.0153	31.31905	 
680.0	1.0	0.0	7.89368	7.17977	-9.41626	14.90724	19.35712	1.20639	0.82892	169.9854	166.52385	63.91059	0.32987	 	3.71729E10	 	1.25147E-10	 	2702.60468	31.28212	 
675.0	1.0	0.0	7.89578	7.17786	-9.44041	14.88119	19.29193	1.20411	0.83049	170.32741	166.72451	64.04578	0.32973	 	4.44167E10	 	1.04188E-10	 	2546.37585	31.24577	 
670.0	1.0	0.0	7.89788	7.17595	-9.46449	14.85514	19.22672	1.20183	0.83207	170.66885	166.92433	64.18078	0.32959	 	5.317239999999999E10	 	8.65728E-11	 	2390.32578	31.21001	 
665.0	1.0	0.0	7.89998	7.17404	-9.4885	14.82909	19.1615	1.19952	0.83366	171.00971	167.12333	64.3156	0.32946	 	6.377619999999999E10	 	7.1796E-11	 	2234.4513	31.17489	 
660.0	1.0	0.0	7.90207	7.17215	-9.51244	14.80304	19.09626	1.19721	0.83528	171.34999	167.32149	64.45021	0.32932	 	7.66438E10	 	5.94239E-11	 	2078.75749	31.13876	 
655.0	1.0	0.0	7.90416	7.17025	-9.53632	14.77699	19.031	1.19488	0.83691	171.6897	167.51883	64.58464	0.32918	 	9.22903E10	 	4.9085E-11	 	1923.29116	31.09327	 
650.0	1.0	0.0	7.90624	7.16837	-9.56012	14.75095	18.96573	1.19253	0.83855	172.02883	167.71534	64.71888	0.32905	 	1.11355E11	 	4.04623E-11	 	1768.11446	31.03534	 
645.0	1.0	0.0	7.90831	7.16649	-9.58386	14.7249	18.90043	1.19017	0.84022	172.36738	167.91103	64.85292	0.32891	 	1.34632E11	 	3.32852E-11	 	1613.22625	30.97764	 
640.0	1.0	0.0	7.91038	7.16461	-9.60753	14.69885	18.83512	1.18779	0.8419	172.70536	168.1059	64.98677	0.32877	 	1.63115E11	 	2.73235E-11	 	1458.62534	30.92018	 
635.0	1.0	0.0	7.91245	7.16274	-9.63113	14.67279	18.76979	1.1854	0.8436	173.04276	168.29995	65.12043	0.32864	 	1.98041E11	 	2.23815E-11	 	1304.31061	30.86295	 
630.0	1.0	0.0	7.91451	7.16087	-9.65466	14.64674	18.70444	1.18299	0.84532	173.37958	168.49319	65.25389	0.3285	 	2.40962E11	 	1.82935E-11	 	1150.28086	30.80595	 
625.0	1.0	0.0	7.91656	7.15902	-9.67812	14.62069	18.63907	1.18057	0.84705	173.71583	168.68561	65.38717	0.32836	 	2.93827E11	 	1.49191E-11	 	996.53478	30.74922	 
620.0	1.0	0.0	7.91862	7.15716	-9.70151	14.59464	18.57368	1.17813	0.8488	174.0515	168.87722	65.52025	0.32823	 	3.59087E11	 	1.21398E-11	 	843.07067	30.69282	 
615.0	1.0	0.0	7.92066	7.15531	-9.72484	14.56859	18.50827	1.17567	0.85058	174.38659	169.06803	65.65314	0.32809	 	4.39833E11	 	9.85566E-12	 	689.88766	30.6366	 
610.0	1.0	0.0	7.9227	7.15347	-9.74809	14.54254	18.44284	1.1732	0.85237	174.72111	169.25802	65.78584	0.32795	 	5.39974E11	 	7.98267E-12	 	536.98462	30.58061	 
605.0	1.0	0.0	7.92474	7.15163	-9.77128	14.51649	18.37739	1.17071	0.85418	175.05505	169.44722	65.91834	0.32782	 	6.64466E11	 	6.45034E-12	 	384.36041	30.52484	 
600.0	1.0	0.0	7.92677	7.1498	-9.7944	14.49043	18.31192	1.16821	0.85601	175.38842	169.63561	66.05065	0.32768	 	8.19606E11	 	5.19961E-12	 	232.01389	30.4693	 
595.0	1.0	0.0	7.9288	7.14797	-9.81745	14.46438	18.24643	1.16569	0.85786	175.72121	169.8232	66.18277	0.32754	 	1.01341E12	 	4.18114E-12	 	79.94395	30.41399	 
590.0	1.0	0.0	7.93082	7.14615	-9.84043	14.43833	18.18091	1.16315	0.85973	176.05343	170.00999	66.3147	0.32741	 	1.25614E12	 	3.3538E-12	 	-71.85055	30.3589	 
585.0	1.0	0.0	7.93283	7.14433	-9.86334	14.41227	18.11537	1.1606	0.86162	176.38507	170.19599	66.44644	0.32727	 	1.56089E12	 	2.68335E-12	 	-223.37075	30.30404	 
580.0	1.0	0.0	7.93484	7.14252	-9.88618	14.38622	18.04981	1.15803	0.86354	176.71614	170.38119	66.57798	0.32714	 	1.94453E12	 	2.1414E-12	 	-374.61773	30.2494	 
575.0	1.0	0.0	7.93685	7.14072	-9.90896	14.36017	17.98423	1.15544	0.86547	177.04663	170.5656	66.70933	0.327	 	2.42875E12	 	1.70442E-12	 	-525.59265	30.19498	 
570.0	1.0	0.0	7.93885	7.13892	-9.93166	14.33411	17.91862	1.15283	0.86743	177.37655	170.74923	66.84049	0.32686	 	3.04155E12	 	1.353E-12	 	-676.2966	30.14079	 
565.0	1.0	0.0	7.94085	7.13712	-9.9543	14.30806	17.85298	1.15021	0.86941	177.7059	170.93206	66.97146	0.32673	 	3.81921E12	 	1.07111E-12	 	-826.73071	30.08682	 
560.0	1.0	0.0	7.94284	7.13534	-9.97687	14.282	17.78733	1.14757	0.87141	178.03466	171.11412	67.10223	0.32659	 	4.80882E12	 	8.45612E-13	 	-976.89607	30.03307	 
555.0	1.0	0.0	7.94482	7.13355	-9.99937	14.25595	17.72164	1.14491	0.87343	178.36286	171.29539	67.23282	0.32646	 	6.07173E12	 	6.65708E-13	 	-1126.7938	29.97955	 
550.0	1.0	0.0	7.9468	7.13177	-10.0218	14.22989	17.65594	1.14223	0.87548	178.69048	171.47587	67.36321	0.32632	 	7.68805E12	 	5.22576E-13	 	-1276.42501	29.92624	 
545.0	1.0	0.0	7.94878	7.13	-10.04416	14.20384	17.5902	1.13954	0.87755	179.01753	171.65559	67.4934	0.32619	 	9.76277E12	 	4.09022E-13	 	-1425.79077	29.87315	 
540.0	1.0	0.0	7.95075	7.12824	-10.06645	14.17778	17.52444	1.13682	0.87964	179.344	171.83452	67.62341	0.32605	 	1.24338E13	 	3.19192E-13	 	-1574.89222	29.82029	 
535.0	1.0	0.0	7.95271	7.12647	-10.08868	14.15172	17.45865	1.13409	0.88176	179.6699	172.01268	67.75322	0.32591	 	1.58832E13	 	2.48337E-13	 	-1723.73042	29.76764	 
530.0	1.0	0.0	7.95467	7.12472	-10.11083	14.12567	17.39283	1.13134	0.88391	179.99522	172.19007	67.88284	0.32578	 	2.03514E13	 	1.92614E-13	 	-1872.30646	29.71521	 
525.0	1.0	0.0	7.95663	7.12297	-10.13292	14.09961	17.32699	1.12857	0.88608	180.31997	172.36669	68.01226	0.32564	 	2.61577E13	 	1.48926E-13	 	-2020.62144	29.663	 
520.0	1.0	0.0	7.95858	7.12122	-10.15494	14.07355	17.26111	1.12578	0.88827	180.64415	172.54254	68.1415	0.32551	 	3.37271E13	 	1.14779E-13	 	-2168.67644	29.611	 
515.0	1.0	0.0	7.96052	7.11948	-10.17689	14.0475	17.19521	1.12297	0.8905	180.96775	172.71763	68.27054	0.32537	 	4.36274E13	 	8.81732E-14	 	-2316.47252	29.55922	 
510.0	1.0	0.0	7.96246	7.11775	-10.19877	14.02144	17.12927	1.12014	0.89275	181.29079	172.89195	68.39939	0.32524	 	5.66196E13	 	6.75095E-14	 	-2464.01077	29.50765	 
505.0	1.0	0.0	7.9644	7.11602	-10.22058	13.99538	17.06331	1.11729	0.89502	181.61324	173.06551	68.52804	0.3251	 	7.37274E13	 	5.15135E-14	 	-2611.29226	29.4563	 
500.0	1.0	0.0	7.96633	7.1143	-10.24232	13.96932	16.99731	1.11442	0.89733	181.93513	173.23831	68.65651	0.32497	 	9.63327E13	 	3.91721E-14	 	-2758.31804	29.40516	 
495.0	1.0	0.0	7.96825	7.11258	-10.264	13.94326	16.93128	1.11153	0.89966	182.25644	173.41035	68.78478	0.32483	 	1.2630799999999998E14	 	2.96826E-14	 	-2905.08919	29.35423	 
490.0	1.0	0.0	7.97017	7.11087	-10.2856	13.9172	16.86522	1.10862	0.90202	182.57718	173.58164	68.91285	0.3247	 	1.662E14	 	2.24113E-14	 	-3051.60675	29.30351	 
485.0	1.0	0.0	7.97208	7.10916	-10.30714	13.89114	16.79913	1.10569	0.90441	182.89735	173.75217	69.04074	0.32456	 	2.19483E14	 	1.68593E-14	 	-3197.87176	29.253	 
480.0	1.0	0.0	7.97399	7.10746	-10.32861	13.86508	16.733	1.10274	0.90683	183.21694	173.92195	69.16843	0.32443	 	2.90922E14	 	1.26355E-14	 	-3343.88529	29.20271	 
475.0	1.0	0.0	7.9759	7.10576	-10.35	13.83902	16.66683	1.09977	0.90928	183.53597	174.09099	69.29593	0.32429	 	3.87067E14	 	9.43385E-15	 	-3489.64837	29.15262	 
470.0	1.0	0.0	7.97779	7.10407	-10.37134	13.81296	16.60063	1.09678	0.91176	183.85441	174.25927	69.42323	0.32416	 	5.1696999999999994E14	 	7.01613E-15	 	-3635.16203	29.10273	 
465.0	1.0	0.0	7.97969	7.10238	-10.3926	13.7869	16.5344	1.09376	0.91428	184.17229	174.42681	69.55034	0.32402	 	6.93182E14	 	5.19737E-15	 	-3780.42731	29.05306	 
460.0	1.0	0.0	7.98157	7.1007	-10.41379	13.76084	16.46812	1.09072	0.91682	184.4896	174.5936	69.67726	0.32389	 	9.33182E14	 	3.83454E-15	 	-3925.44522	29.00358	 
455.0	1.0	0.0	7.98346	7.09903	-10.43491	13.73478	16.40181	1.08766	0.9194	184.80633	174.75966	69.80399	0.32375	 	1.26142E15	 	2.8174E-15	 	-4070.21677	28.95431	 
450.0	1.0	0.0	7.98533	7.09736	-10.45597	13.70872	16.33546	1.08458	0.92201	185.12249	174.92497	69.93052	0.32362	 	1.71223E15	 	2.06136E-15	 	-4214.743	28.90525	 
445.0	1.0	0.0	7.98721	7.0957	-10.47696	13.68266	16.26907	1.08148	0.92466	185.43808	175.08955	70.05686	0.32348	 	2.33406E15	 	1.50172E-15	 	-4359.02489	28.85638	 
440.0	1.0	0.0	7.98907	7.09404	-10.49787	13.6566	16.20264	1.07835	0.92734	185.7531	175.25339	70.18301	0.32335	 	3.19557E15	 	1.08923E-15	 	-4503.06346	28.80771	 
435.0	1.0	0.0	7.99093	7.09239	-10.51872	13.63054	16.13617	1.0752	0.93006	186.06754	175.41649	70.30896	0.32321	 	4.39453E15	 	7.86501E-16	 	-4646.85968	28.75924	 
430.0	1.0	0.0	7.99279	7.09074	-10.5395	13.60447	16.06965	1.07203	0.93281	186.38142	175.57887	70.43472	0.32308	 	6.07078E15	 	5.65315E-16	 	-4790.41456	28.71097	 
425.0	1.0	0.0	7.99464	7.0891	-10.56021	13.57841	16.0031	1.06884	0.9356	186.69472	175.74051	70.56029	0.32294	 	8.42531E15	 	4.04436E-16	 	-4933.72891	28.66287	 
420.0	1.0	0.0	7.99649	7.08746	-10.58086	13.55235	15.9365	1.06562	0.93842	187.00745	175.90143	70.68566	0.32281	 	1.17485E16	 	2.87961E-16	 	-5076.80395	28.61501	 
415.0	1.0	0.0	7.99833	7.08583	-10.60143	13.52628	15.86985	1.06237	0.94129	187.31961	176.06162	70.81084	0.32268	 	1.64617E16	 	2.04031E-16	 	-5219.6401	28.56723	 
410.0	1.0	0.0	8.00016	7.08421	-10.62194	13.50022	15.80315	1.0591	0.94419	187.6312	176.22108	70.93583	0.32254	 	2.31799E16	 	1.43844E-16	 	-5362.23763	28.51951	 
405.0	1.0	0.0	8.00199	7.08259	-10.64237	13.47416	15.73641	1.05581	0.94714	187.94222	176.37982	71.06062	0.32241	 	3.28051E16	 	1.00895E-16	 	-5504.59679	28.47183	 
400.0	1.0	0.0	8.00382	7.08097	-10.66274	13.44809	15.66963	1.05249	0.95012	188.25267	176.53784	71.18522	0.32227	 	4.66672E16	 	7.04023E-17	 	-5646.71783	28.42421	 
395.0	1.0	0.0	8.00564	7.07936	-10.68304	13.42203	15.60279	1.04915	0.95315	188.56254	176.69514	71.30963	0.32214	 	6.6738000000000008E16	 	4.88639E-17	 	-5788.60099	28.37663	 
390.0	1.0	0.0	8.00745	7.07776	-10.70327	13.39596	15.5359	1.04578	0.95622	188.87185	176.85173	71.43384	0.32201	 	9.59571E16	 	3.37304E-17	 	-5930.24646	28.3291	 
385.0	1.0	0.0	8.00926	7.07616	-10.72343	13.3699	15.46896	1.04239	0.95933	189.18058	177.0076	71.55786	0.32187	 	1.38732E17	 	2.31545E-17	 	-6071.65449	28.2816	 
380.0	1.0	0.0	8.01106	7.07457	-10.74352	13.34383	15.40196	1.03897	0.96249	189.48875	177.16275	71.68168	0.32174	 	2.0171E17	 	1.58042E-17	 	-6212.82527	28.23416	 
375.0	1.0	0.0	8.01286	7.07298	-10.76355	13.31777	15.33491	1.03552	0.96569	189.79634	177.3172	71.80531	0.3216	 	2.94977E17	 	1.07244E-17	 	-6353.75899	28.18674	 
370.0	1.0	0.0	8.01465	7.0714	-10.7835	13.2917	15.26781	1.03205	0.96894	190.10336	177.47093	71.92875	0.32147	 	4.33924E17	 	7.23412E-18	 	-6494.45584	28.13937	 
365.0	1.0	0.0	8.01644	7.06983	-10.80339	13.26563	15.20065	1.02855	0.97224	190.40981	177.62396	72.05199	0.32134	 	6.42193E17	 	4.85002E-18	 	-6634.91599	28.09203	 
360.0	1.0	0.0	8.01822	7.06825	-10.8232	13.23957	15.13343	1.02503	0.97558	190.7157	177.77628	72.17504	0.3212	 	9.56329E17	 	3.23137E-18	 	-6775.1396	28.04472	 
355.0	1.0	0.0	8.01999	7.06669	-10.84295	13.2135	15.06615	1.02147	0.97898	191.02101	177.9279	72.2979	0.32107	 	1.43318E18	 	2.13918E-18	 	-6915.12681	27.99744	 
350.0	1.0	0.0	8.02176	7.06513	-10.86263	13.18743	14.99881	1.01789	0.98242	191.32575	178.07881	72.42056	0.32094	 	2.1618E18	 	1.4069E-18	 	-7054.87777	27.95019	 
345.0	1.0	0.0	8.02353	7.06357	-10.88224	13.16136	14.9314	1.01428	0.98592	191.62992	178.22902	72.54303	0.3208	 	3.2826E18	 	9.191E-19	 	-7194.39259	27.90296	 
340.0	1.0	0.0	8.02529	7.06203	-10.90179	13.1353	14.86393	1.01065	0.98947	191.93352	178.37854	72.6653	0.32067	 	5.01855E18	 	5.96314E-19	 	-7333.67139	27.85576	 
335.0	1.0	0.0	8.02704	7.06048	-10.92126	13.10923	14.7964	1.00698	0.99307	192.23655	178.52735	72.78738	0.32053	 	7.72628E18	 	3.84173E-19	 	-7472.71424	27.80857	 
330.0	1.0	0.0	8.02879	7.05894	-10.94066	13.08316	14.7288	1.00328	0.99673	192.53901	178.67547	72.90926	0.3204	 	1.19803E19	 	2.45721E-19	 	-7611.52125	27.7614	 
325.0	1.0	0.0	8.03054	7.05741	-10.96	13.05709	14.66112	0.99956	1.00044	192.8409	178.8229	73.03095	0.32027	 	1.87134E19	 	1.56007E-19	 	-7750.09247	27.71424	 
320.0	1.0	0.0	8.03227	7.05588	-10.97927	13.03102	14.59338	0.99581	1.00421	193.14222	178.96964	73.15245	0.32014	 	2.94511E19	 	9.82991E-20	 	-7888.42795	27.6671	 
315.0	1.0	0.0	8.03401	7.05436	-10.99846	13.00495	14.52556	0.99202	1.00804	193.44298	179.11568	73.27375	0.32	 	4.67089E19	 	6.14576E-20	 	-8026.52771	27.61995	 
310.0	1.0	0.0	8.03573	7.05285	-11.01759	12.97888	14.45767	0.98821	1.01193	193.74316	179.26104	73.39486	0.31987	 	7.46675E19	 	3.81185E-20	 	-8164.39178	27.57281	 
305.0	1.0	0.0	8.03746	7.05134	-11.03665	12.95281	14.3897	0.98436	1.01589	194.04277	179.40571	73.51577	0.31974	 	1.2033399999999998E20	 	2.34498E-20	 	-8302.02014	27.52567	 
300.0	1.0	0.0	8.03917	7.04983	-11.05565	12.92674	14.32166	0.98049	1.0199	194.34181	179.54969	73.63649	0.3196	 	1.95551E20	 	1.43052E-20	 	-8439.41278	27.47853	 
295.0	1.0	0.0	8.04088	7.04833	-11.07457	12.90067	14.25353	0.97658	1.02398	194.64029	179.69299	73.75702	0.31947	 	3.20512E20	 	8.65178E-21	 	-8576.56966	27.43137	 
290.0	1.0	0.0	8.04259	7.04684	-11.09342	12.8746	14.18531	0.97264	1.02813	194.93819	179.83561	73.87735	0.31934	 	5.2995399999999993E20	 	5.18648E-21	 	-8713.49069	27.38421	 
285.0	1.0	0.0	8.04429	7.04535	-11.11221	12.84853	14.11702	0.96867	1.03235	195.23553	179.97755	73.99748	0.3192	 	8.841899999999999E20	 	3.081E-21	 	-8850.17582	27.33703	 
280.0	1.0	0.0	8.04598	7.04386	-11.13092	12.82246	14.04863	0.96466	1.03663	195.53229	180.11881	74.11742	0.31907	 	1.48892E21	 	1.81325E-21	 	-8986.62491	27.28982	 
275.0	1.0	0.0	8.04767	7.04239	-11.14957	12.79639	13.98015	0.96062	1.04099	195.82849	180.25939	74.23717	0.31894	 	2.5312E21	 	1.05696E-21	 	-9122.83785	27.24259	 
270.0	1.0	0.0	8.04935	7.04091	-11.16815	12.77032	13.91158	0.95655	1.04542	196.12411	180.3993	74.35672	0.31881	 	4.34535E21	 	6.10073E-22	 	-9258.81447	27.19532	 
265.0	1.0	0.0	8.05103	7.03945	-11.18666	12.74424	13.84291	0.95245	1.04992	196.41917	180.53854	74.47608	0.31867	 	7.535E21	 	3.48583E-22	 	-9394.55459	27.14803	 
260.0	1.0	0.0	8.0527	7.03798	-11.2051	12.71817	13.77415	0.94831	1.05451	196.71366	180.6771	74.59524	0.31854	 	1.32016E22	 	1.9711E-22	 	-9530.05801	27.10068	 
255.0	1.0	0.0	8.05437	7.03653	-11.22347	12.6921	13.70528	0.94414	1.05917	197.00758	180.81499	74.71421	0.31841	 	2.33766E22	 	1.10271E-22	 	-9665.32448	27.05329	 
250.0	1.0	0.0	8.05603	7.03508	-11.24178	12.66602	13.63631	0.93993	1.06391	197.30093	180.95222	74.83298	0.31828	 	4.18484E22	 	6.10147E-23	 	-9800.35373	27.00585	 
245.0	1.0	0.0	8.05769	7.03363	-11.26001	12.63995	13.56723	0.93569	1.06873	197.59372	181.08878	74.95156	0.31814	 	7.5763E22	 	3.33799E-23	 	-9935.14547	26.95835	 
240.0	1.0	0.0	8.05934	7.03219	-11.27818	12.61388	13.49805	0.93141	1.07364	197.88593	181.22467	75.06994	0.31801	 	1.38758E23	 	1.80498E-23	 	-10069.69938	26.91078	 
235.0	1.0	0.0	8.06098	7.03076	-11.29628	12.5878	13.42874	0.92709	1.07864	198.17757	181.3599	75.18812	0.31788	 	2.57177E23	 	9.64375E-24	 	-10204.01506	26.86314	 
230.0	1.0	0.0	8.06262	7.02933	-11.3143	12.56173	13.35932	0.92274	1.08373	198.46865	181.49447	75.30611	0.31775	 	4.82539E23	 	5.08923E-24	 	-10338.09214	26.81542	 
225.0	1.0	0.0	8.06425	7.02791	-11.33226	12.53565	13.28978	0.91835	1.08891	198.75916	181.62838	75.42391	0.31761	 	9.168919999999999E23	 	2.65173E-24	 	-10471.93017	26.76761	 
220.0	1.0	0.0	8.06588	7.02649	-11.35015	12.50958	13.22011	0.91392	1.09418	199.0491	181.76162	75.54151	0.31748	 	1.7650500000000002E24	 	1.36367E-24	 	-10605.52867	26.7197	 
215.0	1.0	0.0	8.0675	7.02508	-11.36798	12.4835	13.15032	0.90946	1.09955	199.33847	181.89422	75.65892	0.31735	 	3.44368E24	 	6.91858E-25	 	-10738.88712	26.67169	 
210.0	1.0	0.0	8.06912	7.02367	-11.38573	12.45743	13.08039	0.90496	1.10503	199.62727	182.02615	75.77613	0.31722	 	6.81234E24	 	3.46156E-25	 	-10872.00495	26.62357	 
205.0	1.0	0.0	8.07073	7.02227	-11.40341	12.43135	13.01032	0.90041	1.1106	199.9155	182.15743	75.89314	0.31709	 	1.36699E25	 	1.7072E-25	 	-11004.88156	26.57532	 
200.0	1.0	0.0	8.07233	7.02087	-11.42103	12.40528	12.94012	0.89583	1.11628	200.20317	182.28806	76.00996	0.31695	 	2.7837400000000003E25	 	8.29576E-26	 	-11137.51628	26.52694	 
195.0	1.0	0.0	8.07393	7.01948	-11.43857	12.3792	12.86976	0.89121	1.12207	200.49027	182.41804	76.12659	0.31682	 	5.75558E25	 	3.96993E-26	 	-11269.90841	26.47843	 
190.0	1.0	0.0	8.07553	7.01809	-11.45605	12.35312	12.79926	0.88655	1.12797	200.77679	182.54737	76.24301	0.31669	 	1.2088200000000002E26	 	1.87003E-26	 	-11402.05719	26.42976	 
185.0	1.0	0.0	8.07711	7.01671	-11.47346	12.32705	12.7286	0.88185	1.13398	201.06275	182.67605	76.35925	0.31656	 	2.5802800000000003E26	 	8.66619E-27	 	-11533.96178	26.38092	 
180.0	1.0	0.0	8.0787	7.01534	-11.4908	12.30097	12.65777	0.8771	1.14012	201.34815	182.80409	76.47528	0.31643	 	5.6006600000000005E26	 	3.94902E-27	 	-11665.6213	26.3319	 
175.0	1.0	0.0	8.08027	7.01397	-11.50807	12.27489	12.58678	0.87232	1.14637	201.63297	182.93148	76.59112	0.31629	 	1.23686E27	 	1.76843E-27	 	-11797.03483	26.28271	 
170.0	1.0	0.0	8.08184	7.01261	-11.52527	12.24881	12.51562	0.86749	1.15275	201.91723	183.05823	76.70677	0.31616	 	2.78079E27	 	7.77801E-28	 	-11928.20134	26.2333	 
165.0	1.0	0.0	8.08341	7.01125	-11.54241	12.22273	12.44428	0.86262	1.15926	202.20092	183.18433	76.82222	0.31603	 	6.368639999999999E27	 	3.35786E-28	 	-12059.11975	26.18368	 
160.0	1.0	0.0	8.08497	7.0099	-11.55947	12.19666	12.37275	0.85771	1.1659	202.48404	183.3098	76.93747	0.3159	 	1.48673E28	 	1.42198E-28	 	-12189.78891	26.13383	 
155.0	1.0	0.0	8.08652	7.00855	-11.57647	12.17058	12.30103	0.85275	1.17268	202.76659	183.43463	77.05253	0.31577	 	3.54012E28	 	5.90289E-29	 	-12320.20758	26.08373	 
150.0	1.0	0.0	8.08807	7.00721	-11.59339	12.1445	12.22912	0.84775	1.1796	203.04857	183.55882	77.16739	0.31564	 	8.60415E28	 	2.40034E-29	 	-12450.37444	26.03337	 
145.0	1.0	0.0	8.08961	7.00587	-11.61025	12.11842	12.15699	0.8427	1.18666	203.32999	183.68238	77.28206	0.31551	 	2.1361E29	 	9.55427E-30	 	-12580.2881	25.98273	 
140.0	1.0	0.0	8.09115	7.00454	-11.62704	12.09234	12.08465	0.83761	1.19388	203.61084	183.8053	77.39653	0.31537	 	5.42117E29	 	3.71964E-30	 	-12709.94703	25.93179	 
135.0	1.0	0.0	8.09268	7.00322	-11.64376	12.06626	12.01209	0.83247	1.20125	203.89112	183.92759	77.5108	0.31524	 	1.40759E30	 	1.41524E-30	 	-12839.34964	25.88052	 
130.0	1.0	0.0	8.09421	7.0019	-11.66041	12.04018	11.9393	0.82728	1.20878	204.17083	184.04925	77.62487	0.31511	 	3.74228E30	 	5.25796E-31	 	-12968.49423	25.82892	 
125.0	1.0	0.0	8.09573	7.00058	-11.677	12.0141	11.86627	0.82205	1.21647	204.44998	184.17027	77.73875	0.31498	 	1.01968E31	 	1.90577E-31	 	-13097.37897	25.77695	 
120.0	1.0	0.0	8.09724	6.99927	-11.69351	11.98802	11.79299	0.81677	1.22433	204.72855	184.29067	77.85244	0.31485	 	2.85011E31	 	6.73261E-32	 	-13226.00193	25.72459	 
115.0	1.0	0.0	8.09875	6.99797	-11.70996	11.96194	11.71946	0.81144	1.23237	205.00656	184.41045	77.96593	0.31472	 	8.18015E31	 	2.31593E-32	 	-13354.36103	25.67182	 
110.0	1.0	0.0	8.10025	6.99667	-11.72633	11.93585	11.64565	0.80607	1.24059	205.284	184.5296	78.07922	0.31459	 	2.4132999999999997E32	 	7.74896E-33	 	-13482.45406	25.61861	 
105.0	1.0	0.0	8.10175	6.99538	-11.74264	11.90977	11.57156	0.80064	1.249	205.56088	184.64812	78.19231	0.31446	 	7.32635E32	 	2.5192E-33	 	-13610.27871	25.56493	 
100.0	1.0	0.0	8.10324	6.99409	-11.75888	11.88369	11.49718	0.79517	1.2576	205.83719	184.76603	78.30521	0.31433	 	2.29133E33	 	7.94844E-34	 	-13737.83243	25.51074	 
95.0	1.0	0.0	8.10473	6.99281	-11.77505	11.85761	11.4225	0.78964	1.2664	206.11293	184.88331	78.41791	0.3142	 	7.39161E33	 	2.43093E-34	 	-13865.11259	25.45603	 
90.0	1.0	0.0	8.1062	6.99153	-11.79115	11.83153	11.3475	0.78407	1.2754	206.3881	184.99997	78.53041	0.31406	 	2.46262E34	 	7.1974E-35	 	-13992.11632	25.40075	 
85.0	1.0	0.0	8.10768	6.99026	-11.80718	11.80544	11.27216	0.77844	1.28462	206.6627	185.11602	78.64272	0.31393	 	8.48493E34	 	2.06017E-35	 	-14118.8406	25.34486	 
80.0	1.0	0.0	8.10915	6.989	-11.82314	11.77936	11.19648	0.77276	1.29407	206.93674	185.23145	78.75483	0.3138	 	3.0277E35	 	5.6929E-36	 	-14245.28219	25.28832	 
75.0	1.0	0.0	8.11061	6.98774	-11.83904	11.75328	11.12044	0.76703	1.30374	207.21021	185.34626	78.86675	0.31367	 	1.12059E36	 	1.51638E-36	 	-14371.43765	25.23109	 
70.0	1.0	0.0	8.11206	6.98648	-11.85486	11.72719	11.04402	0.76124	1.31364	207.48311	185.46046	78.97846	0.31354	 	4.30864E36	 	3.88714E-37	 	-14497.30328	25.17313	 
65.0	1.0	0.0	8.11351	6.98524	-11.87062	11.70111	10.96721	0.7554	1.32379	207.75545	185.57405	79.08998	0.31341	 	1.72398E37	 	9.57334E-38	 	-14622.87515	25.11437	 
60.0	1.0	0.0	8.11496	6.98399	-11.88631	11.67502	10.88998	0.74951	1.3342	208.02722	185.68703	79.2013	0.31328	 	7.19118E37	 	2.26113E-38	 	-14748.14908	25.05479	 
55.0	1.0	0.0	8.1164	6.98275	-11.90192	11.64894	10.81232	0.74357	1.34487	208.29842	185.7994	79.31243	0.31315	 	3.13307E38	 	5.11198E-39	 	-14873.12056	24.9943	 
50.0	1.0	0.0	8.11783	6.98152	-11.91747	11.62285	10.7342	0.73757	1.35581	208.56905	185.91116	79.42336	0.31302	 	1.42863E39	 	1.10401E-39	 	-14997.78479	24.93285	 
45.0	1.0	0.0	8.11926	6.98029	-11.93295	11.59677	10.65561	0.73151	1.36704	208.83912	186.02231	79.53409	0.31289	 	6.832510000000001E39	 	2.27268E-40	 	-15122.13665	24.87037	 
40.0	1.0	0.0	8.12068	6.97907	-11.94837	11.57068	10.57651	0.7254	1.37855	209.10862	186.13286	79.64462	0.31276	 	3.43514E40	 	4.44933E-41	 	-15246.17063	24.8068	 
35.0	1.0	0.0	8.12209	6.97786	-11.96371	11.54459	10.49689	0.71923	1.39038	209.37755	186.2428	79.75496	0.31263	 	1.82E41	 	8.26378E-42	 	-15369.88086	24.74204	 
30.0	1.0	0.0	8.1235	6.97665	-11.97898	11.51851	10.41671	0.71301	1.40251	209.64591	186.35215	79.8651	0.3125	 	1.01878E42	 	1.45232E-42	 	-15493.261	24.67603	 
25.0	1.0	0.0	8.12491	6.97544	-11.99419	 	10.33595	0.70673	1.41498	209.91371	186.46089	79.97504	0.31237	 	6.04203E42	 	2.40845E-43	 	-15616.30429	 	 
