T (C)	Fraction solid (wt)-TOTAL	Fraction liquid (wt)-LIQUID	Density (g/(cm)^3)-TOTAL	Molar volume (cm^3)-TOTAL	Volume change (%)-  	Average expansion coeff. (10e-6 1/K)-  	Thermal conductivity (W/(m*K))-TOTAL	Electrical resistivity (10e-6 Ohm*m)-TOTAL	Electrical conductivity (10e6 1/(Ohm*m))-TOTAL	Young's modulus (GPa)-TOTAL	Bulk modulus (GPa)-TOTAL	Shear modulus(GPa)-TOTAL	Poisson's ratio-TOTAL	Liquid viscosity (mPa s)-  	Total viscosity (mPa s)-  	Liquid diffusivity (10e-9 (m^2)/s)-  	Total diffusivity (10e-9 (m^2)/s)-  	Surface Tension (mN/m)-  	Enthalpy (J/mole)-TOTAL	Specific heat (J/(mole K))-TOTAL	Latent heat (J/mole)-TOTAL
1400.0	0.0	1.0	6.89209	7.98022	0.0	34.9951	29.93326	1.36945	0.73022	0.0	120.65675	0.0	0.5	6.76612	6.76612	1.20693	1.20693	1772.80197	39799.709	 	0.0
1395.0	0.0	1.0	6.8961	7.97558	-0.0581834	34.96082	29.8591	1.36875	0.73059	0.0	120.79735	0.0	0.5	6.83927	6.83927	1.19045	1.19045	1775.13462	39598.736	40.1946	0.0
1390.0	0.0	1.0	6.90011	7.97095	-0.1162	34.92674	29.78493	1.36805	0.73097	0.0	120.93795	0.0	0.5	6.91366	6.91366	1.17411	1.17411	1777.46809	39398.212	40.1048	0.0
1385.0	0.0	1.0	6.90411	7.96633	-0.17406	34.89288	29.71076	1.36734	0.73135	0.0	121.07855	0.0	0.5	6.98932	6.98932	1.15791	1.15791	1779.80223	39198.133	40.0158	0.0
1380.0	0.0	1.0	6.9081	7.96173	-0.23175	34.85923	29.63659	1.36663	0.73173	0.0	121.21915	0.0	0.5	7.06627	7.06627	1.14185	1.14185	1782.13681	38998.496	39.9274	0.0
1375.0	0.0	1.0	6.91209	7.95714	-0.28927	34.8258	29.56243	1.36591	0.73211	0.0	121.35975	0.0	0.5	7.14455	7.14455	1.12592	1.12592	1784.47164	38799.299	39.8394	0.0
1370.0	0.0	1.0	6.91606	7.95256	-0.34663	34.79258	29.48826	1.36519	0.7325	0.0	121.50035	0.0	0.5	7.22417	7.22417	1.11014	1.11014	1786.80649	38600.538	39.7522	0.0
1365.0	0.0	1.0	6.92004	7.948	-0.40383	34.75959	29.41409	1.36447	0.73288	0.0	121.64095	0.0	0.5	7.30518	7.30518	1.09448	1.09448	1789.14117	38402.211	39.6654	0.0
1360.0	0.0	1.0	6.924	7.94344	-0.46086	34.72681	29.33992	1.36375	0.73327	0.0	121.78155	0.0	0.5	7.38759	7.38759	1.07897	1.07897	1791.47547	38204.315	39.5792	0.0
1355.0	0.0	1.0	6.92796	7.93891	-0.51773	34.69427	29.26576	1.36302	0.73367	0.0	121.92215	0.0	0.5	7.47146	7.47146	1.06359	1.06359	1793.80919	38006.848	39.4934	0.0
1350.0	0.0	1.0	6.93191	7.93438	-0.57443	34.66195	29.19159	1.36228	0.73406	0.0	122.06275	0.0	0.5	7.5568	7.5568	1.04835	1.04835	1796.14213	37809.805	39.4086	0.0
1345.0	0.0	1.0	6.93585	7.92987	-0.63097	34.62986	29.11742	1.36154	0.73446	0.0	122.20335	0.0	0.5	7.64365	7.64365	1.03325	1.03325	1798.47411	37613.186	39.3238	0.0
1340.0	0.0	1.0	6.93979	7.92537	-0.68734	34.59801	29.04325	1.3608	0.73486	0.0	122.34395	0.0	0.5	7.73205	7.73205	1.01828	1.01828	1800.80493	37416.986	39.24	0.0
1339.79	0.0	1.0	6.93996	7.92518	-0.68976	34.59664	29.04007	1.36077	0.73488	0.0	122.35	0.0	0.5	7.73588	7.73588	1.01764	1.01764	1800.90507	37408.562	39.20145	0.0010
1335.0	0.15324	0.84676	6.99065	7.86776	-1.40931	32.62782	29.36565	1.34169	0.74533	0.0440113	122.39021	0.0148576	0.4811	7.83469	18.72545	1.00182	0.41916	1800.15429	35100.427	482.35777	2120.775
1330.0	0.28058	0.71942	7.0339	7.81933	-2.0162	30.97889	29.63236	1.32548	0.75444	0.50938	122.51293	0.17384	0.46512	7.94113	119.37937	0.98532	0.0655438	1799.28994	33154.486	389.1882	3871.349
1325.0	0.38266	0.61734	7.06953	7.77992	-2.51003	29.649	29.84107	1.31211	0.76213	1.80606	122.6992	0.62187	0.45211	8.05098	405.90442	0.96885	0.0192168	1798.35258	31567.539	317.3894	5263.34
1320.0	0.46571	0.53429	7.09921	7.7474	-2.91746	28.56337	30.00418	1.30089	0.7687	4.04611	122.93271	1.40355	0.44138	8.16413	922.05884	0.95243	0.00843305	1797.34733	30251.118	263.2842	6385.214
1315.0	0.53414	0.46586	7.12434	7.72	-3.26078	27.65888	30.13084	1.29136	0.77438	7.13011	123.20015	2.48883	0.43242	8.28084	1671.34678	0.93606	0.0046378	1796.28332	29141.807	221.8622	7300.385
1310.0	0.59118	0.40882	7.14583	7.69672	-3.55261	26.90022	30.22791	1.28316	0.77933	10.87114	123.49433	3.81479	0.42487	8.40102	2638.46103	0.91976	0.00292859	1795.16433	28193.346	189.6922	8055.11
1305.0	0.6392	0.3608	7.16444	7.67666	-3.80394	26.25629	30.30042	1.27604	0.78367	15.07056	123.80939	5.31239	0.41843	8.52492	3802.60463	0.90353	0.0020256	1793.99634	27371.446	164.38	8683.675
1300.0	0.67999	0.32001	7.18069	7.65923	-4.02239	25.70573	30.35235	1.26983	0.78751	19.5483	124.14047	6.91775	0.41291	8.65264	5143.24362	0.88738	0.00149286	1792.78356	26650.324	144.2244	9211.864
1295.0	0.71492	0.28508	7.19504	7.64384	-4.21521	25.22778	30.38729	1.26433	0.79093	24.16599	124.48279	8.58095	0.40812	8.78422	6645.48718	0.87131	0.00115172	1791.53421	26010.326	127.9996	9659.322
1290.0	0.74505	0.25495	7.20777	7.63023	-4.38577	24.81317	30.40777	1.25945	0.794	28.80869	124.83433	10.25994	0.40394	8.9197	8296.85685	0.85534	9.19547E-4	1790.24957	25436.294	114.8064	10041.211
1285.0	0.77121	0.22879	7.2192	7.61803	-4.53857	24.44905	30.41596	1.25509	0.79676	33.40201	125.19303	11.92701	0.40027	9.05944	10091.6934	0.83945	7.53584E-4	1788.93666	24916.398	103.9792	10369.354
1280.41	0.79227	0.20773	7.22869	7.60792	-4.66535	24.15331	30.41412	1.25146	0.79907	37.51866	125.52687	13.42564	0.39728	9.19144	11861.75582	0.82495	6.39241E-4	1787.71249	24479.044	 	10630.859
1280.0	0.79454	0.20546	7.22967	7.60688	-4.67835	24.12162	30.41443	1.25112	0.79928	37.98069	125.56026	13.59409	0.39696	9.20289	12054.71959	0.82371	6.28844E-4	1787.88111	24433.542	96.5712	10660.847
1275.0	0.82111	0.17889	7.24124	7.59452	-4.83321	23.74553	30.41503	1.24707	0.80188	43.74548	125.96854	15.70006	0.39316	9.34663	14575.23549	0.80843	5.18423E-4	1789.97048	23894.19	107.8704	11009.224
1270.0	0.84356	0.15644	7.25142	7.58364	-4.96954	23.4232	30.40448	1.24347	0.8042	49.17167	126.37187	17.68879	0.38991	9.49475	17230.60833	0.79325	4.37114E-4	1792.03884	23412.989	96.2402	11299.833
1265.0	0.86273	0.13727	7.26048	7.57396	-5.09087	23.1444	30.3846	1.24026	0.80629	54.24358	126.77079	19.55293	0.3871	9.64727	20023.42595	0.77818	3.74927E-4	1794.08568	22978.018	86.9942	11544.595
1260.0	0.87923	0.12077	7.26864	7.56522	-5.20038	22.89986	30.35718	1.23734	0.80818	58.97298	127.16601	21.29553	0.38463	9.8044	22963.99602	0.76322	3.25855E-4	1796.11406	22580.272	79.5492	11752.513
1255.0	0.89354	0.10646	7.27603	7.55728	-5.29987	22.68442	30.32333	1.23468	0.80993	63.36972	127.55772	22.91915	0.38246	9.9661	26062.87583	0.74839	2.86174E-4	1798.12133	22212.849	73.4846	11930.484
1250.0	0.90602	0.0939774	7.28281	7.55	-5.39116	22.49273	30.28404	1.23224	0.81153	67.45515	127.94614	24.4308	0.38053	10.13262	29334.50452	0.73368	2.53426E-4	1800.10932	21870.389	68.492	12083.868
1245.0	0.91699	0.0830074	7.28906	7.54326	-5.47551	22.32118	30.24019	1.22997	0.81302	71.25581	128.33196	25.8396	0.37881	10.3042	32798.22546	0.7191	2.25918E-4	1802.07614	21548.677	64.3424	12216.878
1240.0	0.92668	0.0733152	7.29486	7.53699	-5.55416	22.16612	30.19242	1.22786	0.81442	74.79223	128.71471	27.15262	0.37726	10.48075	36471.75848	0.70465	2.02494E-4	1804.02447	21244.36	60.8634	12332.864
1235.0	0.93529	0.0647091	7.30029	7.53111	-5.62782	22.02549	30.14125	1.22588	0.81574	78.08759	129.09491	28.37798	0.37585	10.66273	40376.65988	0.69034	1.82306E-4	1805.95238	20954.759	57.9202	12434.502
1230.0	0.94297	0.0570329	7.30539	7.52558	-5.69716	21.89738	30.08717	1.22402	0.81698	81.16263	129.4725	29.523	0.37457	10.85002	44535.90093	0.67617	1.64732E-4	1807.85878	20677.691	55.4136	12523.974
1225.0	0.94984	0.050158	7.31021	7.52033	-5.76294	21.77952	30.03054	1.22224	0.81817	84.03769	129.84759	30.59495	0.37339	11.04308	48974.88146	0.66214	1.49303E-4	1809.74661	20411.378	53.2626	12603.057
1220.0	0.95602	0.0439772	7.31479	7.51533	-5.82556	21.67076	29.97167	1.22056	0.8193	86.73022	130.22015	31.60007	0.37231	11.24213	53720.12024	0.64825	1.3566E-4	1811.61498	20154.352	51.4052	12673.213
1215.0	0.9616	0.0384006	7.31915	7.51056	-5.88532	21.57027	29.91084	1.21895	0.82038	89.25635	130.5903	32.54416	0.37131	11.44721	58801.18809	0.6345	1.23523E-4	1813.46142	19905.399	49.7906	12735.658
1210.0	0.96664	0.0333552	7.32332	7.50597	-5.94281	21.4762	29.84822	1.2174	0.82142	91.63154	130.95811	33.43282	0.37038	11.6585	64250.05984	0.62091	1.12667E-4	1816.19276	19663.19416	48.44097	12791.404
1205.0	0.97119	0.0288112	7.32732	7.50157	-5.99801	21.38878	29.78359	1.21593	0.82242	93.85469	131.32425	34.26546	0.36952	11.87717	70092.63921	0.60742	1.02928E-4	1818.9204	19427.3146	47.17591	12841.041
1200.0	0.97523	0.0247746	7.33351	7.49599	-6.06795	21.25274	29.53922	1.22184	0.81844	96.52573	131.78248	35.27998	0.368	12.10853	77186.03135	0.5938	9.31526E-5	1821.65016	19070.32452	71.39802	12885.966
1195.0	0.97895	0.0210481	7.33986	7.49011	-6.14156	21.10357	29.27357	1.22874	0.81384	99.19876	132.24287	36.29911	0.36641	12.34427	85103.9902	0.58049	8.41991E-5	1824.37686	18698.05302	74.4543	12926.272
1190.0	0.98254	0.0174589	7.34594	7.48411	-6.21677	20.94789	29.01935	1.23529	0.80953	101.83282	132.6948	37.3048	0.36488	12.60077	93821.57532	0.56673	7.61155E-5	1827.10884	18332.6641	73.07778	12964.757
1185.0	0.98636	0.013638	7.35181	7.47779	-6.29599	20.77766	28.77979	1.24131	0.8056	104.61034	133.15173	38.36551	0.36334	12.91523	103581.4879	0.55104	6.87079E-5	1829.8673	17967.90762	72.9513	13007.511
1180.0	0.98975	0.0102505	7.3573	7.47156	-6.37398	20.61006	28.54934	1.24704	0.8019	107.2048	133.59346	39.35858	0.3619	13.23998	114202.2041	0.53569	6.21044E-5	1832.62145	17613.4162	70.89828	13044.747
1175.0	0.99276	0.00723888	7.36242	7.46544	-6.45068	20.44523	28.32722	1.25249	0.79841	109.63362	134.02094	40.29027	0.36055	13.57539	125768.1652	0.52065	5.61991E-5	1835.37274	17268.24606	69.03403	13077.259
1170.0	0.99545	0.00455313	7.36721	7.45943	-6.52607	20.28337	28.11262	1.2577	0.7951	111.91178	134.43507	41.16596	0.35928	13.92201	138372.2599	0.50594	5.09037E-5	1838.11845	16931.59282	67.33065	13105.707
1165.0	0.99785	0.00215265	7.37169	7.45352	-6.60014	20.12449	27.905	1.26267	0.79198	114.0527	134.83654	41.99049	0.35808	14.2804	152116.3694	0.49153	4.6144E-5	1840.862	16602.76038	65.76649	13130.644
1160.0	1.0	0.0	7.37589	7.44771	-6.67286	19.96875	27.704	1.2674	0.78901	116.06766	135.22603	42.76797	0.35695	 	167112.0611	 	4.18572E-5	 	16281.14577	64.32292	13152.538
1155.0	1.0	0.0	7.38009	7.44347	-6.72597	19.87781	27.49279	1.27269	0.78574	117.01438	135.56383	43.14248	0.35614	 	182466.4138	 	3.82013E-5	 	15964.92357	63.24444	 
1150.0	1.0	0.0	7.38423	7.4393	-6.77834	19.7886	27.28816	1.27774	0.78263	117.93435	135.8908	43.50676	0.35536	 	199364.448	 	3.48409E-5	 	15678.45235	57.29424	 
1145.0	1.0	0.0	7.38833	7.43517	-6.82999	19.70104	27.08979	1.28257	0.77968	118.82872	136.20763	43.86123	0.3546	 	217974.1082	 	3.17544E-5	 	15395.6646	56.55755	 
1140.0	1.0	0.0	7.39237	7.43111	-6.88093	19.6151	26.89739	1.28719	0.77688	119.69858	136.51494	44.20628	0.35386	 	238482.9221	 	2.89213E-5	 	15116.44107	55.84471	 
1135.0	1.0	0.0	7.39636	7.4271	-6.9312	19.5307	26.71068	1.29161	0.77423	120.54494	136.81326	44.54229	0.35315	 	261100.4269	 	2.63226E-5	 	14840.66608	55.155	 
1130.0	1.0	0.0	7.40031	7.42314	-6.98082	19.44779	26.52939	1.29581	0.77172	121.36878	137.10309	44.86962	0.35246	 	286060.9381	 	2.39404E-5	 	14568.22753	54.48771	 
1125.0	1.0	0.0	7.40421	7.41923	-7.02981	19.36632	26.35327	1.29983	0.76933	122.171	137.38489	45.1886	0.35179	 	313626.6366	 	2.17584E-5	 	14299.01672	53.84216	 
1120.0	1.0	0.0	7.40806	7.41537	-7.07818	19.28624	26.18206	1.30365	0.76708	122.95246	137.65906	45.49956	0.35114	 	344091.1379	 	1.97611E-5	 	14032.92834	53.21768	 
1115.0	1.0	0.0	7.41187	7.41155	-7.12596	19.20749	26.01554	1.30728	0.76495	123.71401	137.92599	45.80281	0.35051	 	377783.4606	 	1.79341E-5	 	13769.8604	52.61359	 
1110.0	1.0	0.0	7.41564	7.40779	-7.17317	19.13003	25.85349	1.31074	0.76293	124.45642	138.18603	46.09863	0.34989	 	415072.5865	 	1.62642E-5	 	13509.7141	52.02926	 
1105.0	1.0	0.0	7.41937	7.40406	-7.21983	19.05381	25.69569	1.31402	0.76102	125.18045	138.43951	46.38732	0.3493	 	456372.6485	 	1.47388E-5	 	13252.39385	51.46405	 
1100.0	1.0	0.0	7.42306	7.40038	-7.26595	18.97879	25.54194	1.31713	0.75922	125.88682	138.68674	46.66915	0.34872	 	502148.7535	 	1.33467E-5	 	12997.80712	50.91735	 
1095.0	1.0	0.0	7.42671	7.39674	-7.31155	18.90491	25.39205	1.32009	0.75753	126.57623	138.928	46.94437	0.34815	 	552923.6891	 	1.20769E-5	 	12745.86442	50.38854	 
1090.0	1.0	0.0	7.43033	7.39315	-7.35664	18.83214	25.24584	1.32288	0.75593	127.24934	139.16359	47.21324	0.3476	 	609285.5736	 	1.09197E-5	 	12496.47925	49.87703	 
1085.0	1.0	0.0	7.43391	7.38959	-7.40125	18.76043	25.10313	1.32552	0.75442	127.9068	139.39377	47.47601	0.34707	 	671896.4261	 	9.8658E-6	 	12249.56797	49.38226	 
1080.0	1.0	0.0	7.43745	7.38606	-7.4454	18.68974	24.96377	1.32801	0.75301	128.54922	139.61877	47.7329	0.34655	 	741502.1963	 	8.90677E-6	 	12005.04981	48.90363	 
1075.0	1.0	0.0	7.44096	7.38258	-7.48908	18.62004	24.8276	1.33036	0.75168	129.17719	139.83885	47.98414	0.34604	 	818943.8789	 	8.03472E-6	 	11762.84676	48.44061	 
1070.0	1.0	0.0	7.44444	7.37913	-7.53232	18.55129	24.69447	1.33257	0.75043	129.79129	140.05423	48.22996	0.34555	 	905170.5891	 	7.24237E-6	 	11522.8835	47.99265	 
1065.0	1.0	0.0	7.44789	7.37571	-7.57514	18.48344	24.56424	1.33465	0.74926	130.39205	140.26514	48.47055	0.34506	 	1001254.196	 	6.523E-6	 	11285.08737	47.55923	 
1060.0	1.0	0.0	7.45131	7.37233	-7.61754	18.41646	24.43678	1.3366	0.74817	130.98003	140.47178	48.70612	0.3446	 	1108406.28	 	5.87039E-6	 	11049.38827	47.13982	 
1055.0	1.0	0.0	7.4547	7.36897	-7.65954	18.35033	24.31196	1.33842	0.74715	131.55571	140.67436	48.93688	0.34414	 	1227997.39	 	5.27881E-6	 	10815.71865	46.73393	 
1050.0	1.0	0.0	7.45806	7.36565	-7.70114	18.285	24.18967	1.34012	0.7462	132.1196	140.87308	49.16299	0.34369	 	1361579.33	 	4.743E-6	 	10584.01333	46.34106	 
1045.0	1.0	0.0	7.46139	7.36236	-7.74237	18.22044	24.06979	1.34171	0.74532	132.67217	141.06813	49.38466	0.34325	 	1510910.44	 	4.25807E-6	 	10354.20958	45.96075	 
1040.0	1.0	0.0	7.4647	7.3591	-7.78324	18.15662	23.95221	1.34318	0.7445	133.21387	141.25967	49.60205	0.34283	 	1677985.085	 	3.81956E-6	 	10126.24694	45.59253	 
1035.0	1.0	0.0	7.46798	7.35587	-7.82375	18.09352	23.83684	1.34454	0.74375	133.74514	141.44791	49.81533	0.34241	 	1865066.98	 	3.42334E-6	 	9900.06719	45.23595	 
1030.0	1.0	0.0	7.47123	7.35266	-7.86391	18.0311	23.72358	1.3458	0.74305	134.2664	141.63299	50.02467	0.342	 	2074727.977	 	3.06563E-6	 	9675.61429	44.89058	 
1025.0	1.0	0.0	7.47447	7.34949	-7.90374	17.96933	23.61233	1.34695	0.74242	134.77806	141.81509	50.23021	0.3416	 	2309892.68	 	2.74296E-6	 	9452.83434	44.55599	 
1020.0	1.0	0.0	7.47767	7.34633	-7.94324	17.90819	23.50302	1.348	0.74184	135.28051	141.99435	50.43212	0.34121	 	2573889.55	 	2.45214E-6	 	9231.67541	44.23178	 
1015.0	1.0	0.0	7.48086	7.34321	-7.98242	17.84765	23.39556	1.34896	0.74131	135.77413	142.17094	50.63054	0.34083	 	2870510.437	 	2.19025E-6	 	9012.08761	43.91756	 
1010.0	1.0	0.0	7.48402	7.3401	-8.0213	17.78768	23.28987	1.34982	0.74084	136.25928	142.345	50.82561	0.34046	 	3204078.777	 	1.95461E-6	 	8794.02292	43.61294	 
1005.0	1.0	0.0	7.48716	7.33703	-8.05988	17.72827	23.18589	1.35059	0.74042	136.73631	142.51667	51.01746	0.34009	 	3579528.809	 	1.74278E-6	 	8577.43518	43.31755	 
1000.0	1.0	0.0	7.49028	7.33397	-8.09817	17.66938	23.08354	1.35127	0.74004	137.20555	142.68608	51.20623	0.33973	 	4002497.032	 	1.55251E-6	 	8362.28	43.03104	 
995.0	1.0	0.0	7.49338	7.33094	-8.13618	17.611	22.98243	1.35189	0.73971	137.66733	142.85337	51.39204	0.33938	 	4479428.302	 	1.38177E-6	 	8148.5147	42.75306	 
990.0	1.0	0.0	7.49646	7.32793	-8.17391	17.5531	22.88313	1.3524	0.73943	138.12196	143.01866	51.575	0.33904	 	5017699.048	 	1.22867E-6	 	7936.09825	42.48329	 
985.0	1.0	0.0	7.49952	7.32494	-8.21138	17.49565	22.78529	1.35283	0.73919	138.56973	143.18207	51.75525	0.3387	 	5625759.439	 	1.09154E-6	 	7724.99121	42.22141	 
980.0	1.0	0.0	7.50256	7.32197	-8.24858	17.43865	22.68884	1.35318	0.739	139.01094	143.34372	51.93288	0.33837	 	6313300.027	 	9.68798E-7	 	7515.15567	41.96711	 
975.0	1.0	0.0	7.50558	7.31902	-8.28553	17.38207	22.59373	1.35346	0.73885	139.44586	143.50372	52.10802	0.33805	 	7091443.761	 	8.59051E-7	 	7306.55519	41.7201	 
970.0	1.0	0.0	7.50859	7.31609	-8.32224	17.32588	22.49992	1.35366	0.73874	139.87476	143.66219	52.28075	0.33773	 	7972971.447	 	7.61009E-7	 	7099.15473	41.48009	 
965.0	1.0	0.0	7.51157	7.31318	-8.3587	17.27008	22.40734	1.35378	0.73867	140.2979	143.81922	52.45118	0.33741	 	8972582.986	 	6.73508E-7	 	6892.92061	41.24683	 
960.0	1.0	0.0	7.51454	7.31029	-8.39492	17.21464	22.31597	1.35384	0.73864	140.71552	143.97492	52.61941	0.33711	 	1.010720338E7	 	5.95486E-7	 	6687.82043	41.02004	 
955.0	1.0	0.0	7.5175	7.30742	-8.43092	17.15954	22.22575	1.35382	0.73865	141.12786	144.12939	52.78554	0.3368	 	1.139633866E7	 	5.25984E-7	 	6483.82306	40.79947	 
950.0	1.0	0.0	7.52044	7.30456	-8.4667	17.10477	22.13665	1.35374	0.7387	141.53514	144.28271	52.94964	0.33651	 	1.286249508E7	 	4.64132E-7	 	6280.89855	40.5849	 
945.0	1.0	0.0	7.52336	7.30172	-8.50225	17.05031	22.04863	1.35358	0.73878	141.9376	144.43498	53.11181	0.33622	 	1.453166477E7	 	4.0914E-7	 	6079.01809	40.37609	 
940.0	1.0	0.0	7.52627	7.2989	-8.5376	16.99614	21.96165	1.35337	0.7389	142.33544	144.58629	53.27213	0.33593	 	1.643390018E7	 	3.60297E-7	 	5878.15395	40.17283	 
935.0	1.0	0.0	7.52916	7.2961	-8.57273	16.94225	21.87569	1.35309	0.73905	142.72887	144.73672	53.43067	0.33565	 	1.860398674E7	 	3.16958E-7	 	5678.27948	39.97489	 
930.0	1.0	0.0	7.53204	7.29331	-8.60766	16.88862	21.7907	1.35274	0.73924	143.11808	144.88636	53.58753	0.33537	 	2.108222769E7	 	2.78542E-7	 	5479.369	39.7821	 
925.0	1.0	0.0	7.5349	7.29054	-8.64239	16.83524	21.70666	1.35234	0.73946	143.50327	145.03527	53.74277	0.33509	 	2.391537735E7	 	2.44524E-7	 	5281.39778	39.59424	 
920.0	1.0	0.0	7.53775	7.28778	-8.67693	16.7821	21.62353	1.35187	0.73972	143.88461	145.18354	53.89645	0.33482	 	2.715772786E7	 	2.14431E-7	 	5084.34202	39.41115	 
915.0	1.0	0.0	7.54058	7.28504	-8.71128	16.72917	21.5413	1.35134	0.74	144.26229	145.33123	54.04867	0.33456	 	3.087240174E7	 	1.8784E-7	 	4888.1788	39.23264	 
910.0	1.0	0.0	7.54341	7.28232	-8.74544	16.67645	21.45993	1.35076	0.74032	144.63647	145.47843	54.19947	0.3343	 	3.513286774E7	 	1.64366E-7	 	4692.88599	39.05856	 
905.0	1.0	0.0	7.54622	7.27961	-8.77941	16.62392	21.3794	1.35012	0.74068	145.00733	145.62519	54.34892	0.33404	 	4.002473596E7	 	1.43668E-7	 	4498.4423	38.88874	 
900.0	1.0	0.0	7.54901	7.27691	-8.81321	16.57156	21.29968	1.34942	0.74106	145.37501	145.77159	54.49709	0.33379	 	4.56478845E7	 	1.25435E-7	 	4304.82719	38.72302	 
895.0	1.0	0.0	7.5518	7.27423	-8.84684	16.51937	21.22076	1.34866	0.74147	145.73967	145.91768	54.64404	0.33354	 	5.211897345E7	 	1.09393E-7	 	4112.02082	38.56127	 
890.0	1.0	0.0	7.55457	7.27156	-8.88029	16.46734	21.14261	1.34786	0.74192	146.10146	146.06353	54.78983	0.33329	 	5.95744246E7	 	9.52933E-8	 	3920.00405	38.40335	 
885.0	1.0	0.0	7.55733	7.2689	-8.91358	16.41544	21.06522	1.34699	0.74239	146.46052	146.20919	54.9345	0.33305	 	6.817396758E7	 	8.2915E-8	 	3728.7584	38.24913	 
880.0	1.0	0.0	7.56008	7.26626	-8.9467	16.36368	20.98855	1.34608	0.7429	146.817	146.35473	55.07812	0.33281	 	7.810485079E7	 	7.206E-8	 	3538.26596	38.09849	 
875.0	1.0	0.0	7.56282	7.26363	-8.97966	16.31202	20.91261	1.34511	0.74344	147.17101	146.5002	55.22074	0.33257	 	8.958685328E7	 	6.2552E-8	 	3348.50942	37.95131	 
870.0	1.0	0.0	7.56555	7.26101	-9.01246	16.26048	20.83736	1.34408	0.744	147.52271	146.64565	55.3624	0.33234	 	1.028782624E8	 	5.42333E-8	 	3159.47226	37.80743	 
865.0	1.0	0.0	7.56826	7.2584	-9.0451	16.20902	20.76279	1.34301	0.7446	147.87219	146.79113	55.50317	0.33211	 	1.182829967E8	 	4.69639E-8	 	2971.13833	37.66678	 
860.0	1.0	0.0	7.57097	7.25581	-9.07759	16.15765	20.68889	1.34189	0.74522	148.2196	146.93669	55.64308	0.33188	 	1.361591511E8	 	4.06188E-8	 	2783.49203	37.52926	 
855.0	1.0	0.0	7.57366	7.25323	-9.10993	16.10635	20.61564	1.34071	0.74587	148.56504	147.08238	55.78218	0.33165	 	1.569291759E8	 	3.50873E-8	 	2596.51819	37.39477	 
850.0	1.0	0.0	7.57634	7.25066	-9.14213	16.0551	20.54303	1.33949	0.74655	148.90863	147.22826	55.92052	0.33143	 	1.810921232E8	 	3.02709E-8	 	2410.2022	37.2632	 
845.0	1.0	0.0	7.57856	7.24853	-9.16877	16.02907	20.484	1.33737	0.74774	149.24519	147.44763	56.05236	0.3313	 	2.056510599E8	 	2.65372E-8	 	2250.44581	31.95128	 
840.0	1.0	0.0	7.58078	7.24641	-9.19534	16.00304	20.42495	1.33524	0.74893	149.58132	147.6663	56.18407	0.33117	 	2.338075417E8	 	2.32371E-8	 	2087.6434	32.56048	 
835.0	1.0	0.0	7.583	7.2443	-9.22185	15.97701	20.3659	1.33309	0.75013	149.91705	147.88428	56.31565	0.33104	 	2.661270178E8	 	2.03234E-8	 	1925.0566	32.51736	 
830.0	1.0	0.0	7.58521	7.24219	-9.24828	15.95097	20.30683	1.33094	0.75135	150.25235	148.10156	56.4471	0.33091	 	3.032697864E8	 	1.77538E-8	 	1762.68456	32.47441	 
825.0	1.0	0.0	7.58741	7.24008	-9.27465	15.92493	20.24776	1.32877	0.75257	150.58725	148.31816	56.57842	0.33078	 	3.46007898E8	 	1.54904E-8	 	1600.52636	32.43164	 
820.0	1.0	0.0	7.58961	7.23799	-9.30096	15.89888	20.18867	1.32659	0.75381	150.92173	148.53406	56.7096	0.33065	 	3.952452485E8	 	1.34989E-8	 	1438.58107	32.38906	 
815.0	1.0	0.0	7.59181	7.23589	-9.32719	15.87283	20.12957	1.3244	0.75506	151.2558	148.74928	56.84065	0.33052	 	4.520414945E8	 	1.17489E-8	 	1276.8477	32.34667	 
810.0	1.0	0.0	7.594	7.2338	-9.35336	15.84678	20.07045	1.3222	0.75631	151.58946	148.96381	56.97157	0.3304	 	5.176405606E8	 	1.02129E-8	 	1115.32526	32.30449	 
805.0	1.0	0.0	7.59618	7.23172	-9.37946	15.82072	20.01133	1.31999	0.75758	151.92271	149.17766	57.10236	0.33027	 	5.935046666E8	 	8.86629E-9	 	954.0127	32.26251	 
800.0	1.0	0.0	7.59837	7.22964	-9.40549	15.79467	19.95219	1.31776	0.75886	152.25555	149.39083	57.23302	0.33014	 	6.81355003E8	 	7.6873E-9	 	792.90891	32.22076	 
795.0	1.0	0.0	7.60055	7.22757	-9.43145	15.7686	19.89304	1.31552	0.76016	152.58797	149.60332	57.36354	0.33001	 	7.832204251E8	 	6.65633E-9	 	632.01278	32.17923	 
790.0	1.0	0.0	7.60272	7.2255	-9.45735	15.74254	19.83388	1.31327	0.76146	152.91998	149.81513	57.49394	0.32988	 	9.014958317E8	 	5.75596E-9	 	471.3231	32.13794	 
785.0	1.0	0.0	7.60489	7.22344	-9.48318	15.71647	19.77471	1.311	0.76278	153.25159	150.02627	57.6242	0.32975	 	1.039012261E9	 	4.97065E-9	 	310.83865	32.09689	 
780.0	1.0	0.0	7.60705	7.22139	-9.50894	15.6904	19.71552	1.30872	0.7641	153.58278	150.23674	57.75433	0.32962	 	1.199121182E9	 	4.28661E-9	 	150.55813	32.0561	 
775.0	1.0	0.0	7.60921	7.21934	-9.53464	15.66432	19.65632	1.30643	0.76544	153.91357	150.44654	57.88433	0.32949	 	1.385796015E9	 	3.69157E-9	 	-9.51978	32.01558	 
770.0	1.0	0.0	7.61137	7.21729	-9.56026	15.63824	19.5971	1.30413	0.76679	154.24395	150.65567	58.0142	0.32936	 	1.603754586E9	 	3.17465E-9	 	-169.39651	31.97535	 
765.0	1.0	0.0	7.61352	7.21525	-9.58582	15.61216	19.53787	1.30181	0.76816	154.57391	150.86414	58.14394	0.32923	 	1.858607085E9	 	2.72621E-9	 	-329.07352	31.9354	 
760.0	1.0	0.0	7.61567	7.21322	-9.61131	15.58607	19.47863	1.29948	0.76954	154.90347	151.07194	58.27355	0.32911	 	2.157035093E9	 	2.33772E-9	 	-488.55236	31.89577	 
755.0	1.0	0.0	7.61781	7.21119	-9.63673	15.55999	19.41937	1.29714	0.77093	155.23263	151.27908	58.40302	0.32898	 	2.507008598E9	 	2.00165E-9	 	-647.83464	31.85646	 
750.0	1.0	0.0	7.61995	7.20917	-9.66209	15.53389	19.3601	1.29479	0.77233	155.56137	151.48556	58.53237	0.32885	 	2.918049452E9	 	1.71133E-9	 	-806.92203	31.81748	 
745.0	1.0	0.0	7.62208	7.20715	-9.68737	15.5078	19.30081	1.29242	0.77374	155.88971	151.69138	58.66159	0.32872	 	3.401551776E9	 	1.4609E-9	 	-965.81634	31.77886	 
740.0	1.0	0.0	7.62421	7.20514	-9.71259	15.4817	19.24151	1.29003	0.77517	156.21764	151.89655	58.79067	0.32859	 	3.971172261E9	 	1.24521E-9	 	-1124.51941	31.74061	 
735.0	1.0	0.0	7.62634	7.20313	-9.73775	15.4556	19.18219	1.28764	0.77662	156.54516	152.10106	58.91963	0.32846	 	4.643306449E9	 	1.0597E-9	 	-1283.0332	31.70276	 
730.0	1.0	0.0	7.62846	7.20113	-9.76283	15.42949	19.12286	1.28522	0.77807	156.87228	152.30492	59.04845	0.32834	 	5.437670929E9	 	9.00409E-10	 	-1441.35978	31.66532	 
725.0	1.0	0.0	7.63057	7.19913	-9.78785	15.40338	19.06351	1.2828	0.77954	157.19899	152.50814	59.17714	0.32821	 	6.378016281E9	 	7.6383E-10	 	-1599.5013	31.6283	 
720.0	1.0	0.0	7.63268	7.19714	-9.81279	15.37727	19.00415	1.28036	0.78103	157.5253	152.7107	59.30571	0.32808	 	7.493001682E9	 	6.46913E-10	 	-1757.46006	31.59175	 
715.0	1.0	0.0	7.63479	7.19515	-9.83767	15.35115	18.94476	1.27791	0.78253	157.8512	152.91262	59.43414	0.32795	 	8.817269793E9	 	5.46985E-10	 	-1915.23843	31.55568	 
710.0	1.0	0.0	7.63689	7.19317	-9.86249	15.32504	18.88536	1.27544	0.78404	158.1767	153.11389	59.56244	0.32782	 	1.03928E10	 	4.61716E-10	 	-2072.83899	31.52011	 
705.0	1.0	0.0	7.63899	7.1912	-9.88723	15.29891	18.82595	1.27296	0.78557	158.50179	153.31453	59.69062	0.32769	 	1.2270399999999998E10	 	3.89075E-10	 	-2230.26439	31.48508	 
700.0	1.0	0.0	7.64108	7.18923	-9.91191	15.27279	18.76652	1.27046	0.78711	158.82648	153.51452	59.81866	0.32757	 	1.4511999999999998E10	 	3.27295E-10	 	-2387.51745	31.45061	 
695.0	1.0	0.0	7.64317	7.18727	-9.93652	15.24666	18.70706	1.26795	0.78867	159.15076	153.71387	59.94657	0.32744	 	1.71928E10	 	2.74841E-10	 	-2544.60117	31.41674	 
690.0	1.0	0.0	7.64525	7.18531	-9.96106	15.22053	18.6476	1.26543	0.79025	159.47464	153.91259	60.07436	0.32731	 	2.04048E10	 	2.30382E-10	 	-2701.51869	31.3835	 
685.0	1.0	0.0	7.64733	7.18335	-9.98553	15.19439	18.58811	1.26289	0.79184	159.79812	154.11068	60.20201	0.32718	 	2.4260199999999996E10	 	1.92764E-10	 	-2858.27336	31.35093	 
680.0	1.0	0.0	7.6494	7.18141	-10.00993	15.16825	18.5286	1.26033	0.79344	160.12119	154.30813	60.32954	0.32705	 	2.8896499999999996E10	 	1.60992E-10	 	-3014.8687	31.31907	 
675.0	1.0	0.0	7.65147	7.17947	-10.03427	15.14211	18.46908	1.25776	0.79506	160.44386	154.50495	60.45693	0.32693	 	3.44823E10	 	1.34205E-10	 	-3171.30846	31.28795	 
670.0	1.0	0.0	7.65354	7.17753	-10.05854	15.11596	18.40953	1.25517	0.7967	160.76613	154.70114	60.5842	0.3268	 	4.1225E10	 	1.11662E-10	 	-3327.5966	31.25763	 
665.0	1.0	0.0	7.6556	7.1756	-10.08274	15.08981	18.34997	1.25257	0.79836	161.088	154.89671	60.71133	0.32667	 	4.938019999999999E10	 	9.2727E-11	 	-3483.73733	31.22815	 
660.0	1.0	0.0	7.65765	7.17367	-10.10687	15.06366	18.29038	1.24996	0.80003	161.40946	155.09165	60.83834	0.32654	 	5.926319999999999E10	 	7.68517E-11	 	-3639.72337	31.19721	 
655.0	1.0	0.0	7.6597	7.17175	-10.13094	15.03751	18.23078	1.24732	0.80172	161.73052	155.28597	60.96521	0.32642	 	7.1264E10	 	6.35674E-11	 	-3795.48928	31.15318	 
650.0	1.0	0.0	7.66175	7.16984	-10.15494	15.01135	18.17115	1.24467	0.80342	162.05118	155.47966	61.09196	0.32629	 	8.58665E10	 	5.24729E-11	 	-3950.9483	31.0918	 
645.0	1.0	0.0	7.66379	7.16793	-10.17887	14.98519	18.11151	1.24201	0.80515	162.37144	155.67274	61.21858	0.32616	 	1.03671E11	 	4.32257E-11	 	-4106.1018	31.0307	 
640.0	1.0	0.0	7.66583	7.16602	-10.20273	14.95902	18.05184	1.23933	0.80689	162.68964	155.86361	61.34444	0.32603	 	1.25426E11	 	3.55336E-11	 	-4260.95121	30.96988	 
635.0	1.0	0.0	7.66786	7.16412	-10.22652	14.93285	17.99215	1.23663	0.80865	163.0091	156.05546	61.4708	0.32591	 	1.52066E11	 	2.91483E-11	 	-4415.49788	30.90934	 
630.0	1.0	0.0	7.66989	7.16223	-10.25024	14.90668	17.93243	1.23392	0.81043	163.32817	156.24669	61.59703	0.32578	 	1.84756E11	 	2.38587E-11	 	-4569.74322	30.84907	 
625.0	1.0	0.0	7.67191	7.16034	-10.2739	14.8805	17.8727	1.23119	0.81222	163.64683	156.43732	61.72313	0.32565	 	2.24962E11	 	1.94862E-11	 	-4723.68872	30.7891	 
620.0	1.0	0.0	7.67393	7.15846	-10.29749	14.85432	17.81294	1.22844	0.81404	163.9651	156.62733	61.84911	0.32553	 	2.74521E11	 	1.58794E-11	 	-4877.33602	30.72946	 
615.0	1.0	0.0	7.67594	7.15658	-10.32101	14.82814	17.75315	1.22568	0.81587	164.28296	156.81673	61.97495	0.3254	 	3.3575E11	 	1.29109E-11	 	-5030.68636	30.67007	 
610.0	1.0	0.0	7.67795	7.15471	-10.34446	14.80196	17.69334	1.2229	0.81773	164.60043	157.00553	62.10066	0.32527	 	4.11573E11	 	1.04731E-11	 	-5183.74114	30.61095	 
605.0	1.0	0.0	7.67995	7.15285	-10.36785	14.77577	17.63351	1.2201	0.8196	164.9175	157.19372	62.22625	0.32514	 	5.05691E11	 	8.4756E-12	 	-5336.5017	30.55211	 
600.0	1.0	0.0	7.68195	7.15098	-10.39116	14.74957	17.57365	1.21729	0.8215	165.23417	157.38131	62.35171	0.32502	 	6.22798E11	 	6.84272E-12	 	-5488.96945	30.49355	 
595.0	1.0	0.0	7.68394	7.14913	-10.41441	14.72338	17.51377	1.21445	0.82342	165.55044	157.56829	62.47704	0.32489	 	7.68867E11	 	5.511E-12	 	-5641.14574	30.43526	 
590.0	1.0	0.0	7.68593	7.14728	-10.43759	14.69718	17.45386	1.2116	0.82535	165.86631	157.75468	62.60223	0.32476	 	9.51514E11	 	4.42749E-12	 	-5793.03194	30.37724	 
585.0	1.0	0.0	7.68791	7.14544	-10.4607	14.67098	17.39392	1.20874	0.82731	166.18178	157.94046	62.72731	0.32464	 	1.18048E12	 	3.54807E-12	 	-5944.62942	30.3195	 
580.0	1.0	0.0	7.68989	7.1436	-10.48374	14.64477	17.33396	1.20585	0.82929	166.49685	158.12565	62.85225	0.32451	 	1.46824E12	 	2.83605E-12	 	-6095.93954	30.26203	 
575.0	1.0	0.0	7.69187	7.14176	-10.50672	14.61856	17.27397	1.20295	0.83129	166.81153	158.31024	62.97706	0.32438	 	1.83086E12	 	2.26102E-12	 	-6246.96369	30.20483	 
570.0	1.0	0.0	7.69384	7.13993	-10.52963	14.59235	17.21395	1.20003	0.83332	167.12581	158.49424	63.10174	0.32426	 	2.28902E12	 	1.7978E-12	 	-6397.70319	30.1479	 
565.0	1.0	0.0	7.6958	7.13811	-10.55246	14.56613	17.1539	1.19708	0.83536	167.43969	158.67765	63.2263	0.32413	 	2.86947E12	 	1.42563E-12	 	-6548.15941	30.09124	 
560.0	1.0	0.0	7.69776	7.1363	-10.57524	14.53992	17.09382	1.19413	0.83743	167.75318	158.86047	63.35072	0.324	 	3.60688E12	 	1.1274E-12	 	-6698.33373	30.03486	 
555.0	1.0	0.0	7.69971	7.13448	-10.59794	14.51369	17.03372	1.19115	0.83953	168.06626	159.04269	63.47502	0.32388	 	4.54632E12	 	8.89069E-13	 	-6848.22746	29.97875	 
550.0	1.0	0.0	7.70166	7.13268	-10.62057	14.48747	16.97358	1.18815	0.84164	168.37895	159.22433	63.59919	0.32375	 	5.7466E12	 	6.99125E-13	 	-6997.842	29.92291	 
545.0	1.0	0.0	7.70361	7.13088	-10.64314	14.46124	16.91341	1.18514	0.84379	168.69125	159.40539	63.72323	0.32362	 	7.28458E12	 	5.4817E-13	 	-7147.17864	29.86733	 
540.0	1.0	0.0	7.70555	7.12908	-10.66563	14.43501	16.85321	1.1821	0.84595	169.00315	159.58586	63.84714	0.3235	 	9.26116E12	 	4.28541E-13	 	-7296.23877	29.81203	 
535.0	1.0	0.0	7.70748	7.12729	-10.68806	14.40877	16.79297	1.17905	0.84814	169.31465	159.76575	63.97092	0.32337	 	1.18091E13	 	3.34013E-13	 	-7445.02372	29.75699	 
530.0	1.0	0.0	7.70941	7.12551	-10.71042	14.38253	16.73271	1.17597	0.85036	169.62575	159.94506	64.09457	0.32325	 	1.51036E13	 	2.59539E-13	 	-7593.53482	29.70222	 
525.0	1.0	0.0	7.71134	7.12373	-10.73272	14.35629	16.67241	1.17288	0.8526	169.93646	160.12378	64.2181	0.32312	 	1.93769E13	 	2.01042E-13	 	-7741.77341	29.64772	 
520.0	1.0	0.0	7.71326	7.12195	-10.75494	14.33004	16.61207	1.16976	0.85487	170.24678	160.30193	64.3415	0.32299	 	2.49375E13	 	1.55235E-13	 	-7889.74082	29.59348	 
515.0	1.0	0.0	7.71518	7.12019	-10.77709	14.30379	16.5517	1.16663	0.85717	170.5567	160.47951	64.46476	0.32287	 	3.21967E13	 	1.19477E-13	 	-8037.43838	29.53951	 
510.0	1.0	0.0	7.71709	7.11842	-10.79918	14.27754	16.49129	1.16347	0.8595	170.86622	160.65651	64.5879	0.32274	 	4.17048E13	 	9.16528E-14	 	-8184.86742	29.48581	 
505.0	1.0	0.0	7.71899	7.11667	-10.8212	14.25129	16.43085	1.1603	0.86185	171.17535	160.83294	64.71091	0.32262	 	5.42007E13	 	7.0072E-14	 	-8332.02925	29.43237	 
500.0	1.0	0.0	7.72089	7.11491	-10.84315	14.22503	16.37037	1.1571	0.86423	171.48408	161.00879	64.83379	0.32249	 	7.068E13	 	5.33893E-14	 	-8478.92521	29.37919	 
495.0	1.0	0.0	7.72279	7.11317	-10.86503	14.19876	16.30985	1.15388	0.86664	171.79242	161.18408	64.95655	0.32236	 	9.24887E13	 	4.05363E-14	 	-8625.5566	29.32628	 
490.0	1.0	0.0	7.72468	7.11143	-10.88685	14.1725	16.24929	1.15065	0.86908	172.10036	161.3588	65.07917	0.32224	 	1.21454E14	 	3.0668E-14	 	-8771.92473	29.27363	 
485.0	1.0	0.0	7.72656	7.10969	-10.90859	14.14623	16.18869	1.14739	0.87155	172.40791	161.53295	65.20167	0.32211	 	1.60064E14	 	2.31178E-14	 	-8918.03092	29.22124	 
480.0	1.0	0.0	7.72844	7.10796	-10.93027	14.11996	16.12805	1.1441	0.87405	172.71507	161.70653	65.32404	0.32199	 	2.11724E14	 	1.73619E-14	 	-9063.87645	29.16911	 
475.0	1.0	0.0	7.73032	7.10624	-10.95187	14.09368	16.06737	1.1408	0.87658	173.02183	161.87955	65.44628	0.32186	 	2.8110499999999997E14	 	1.29899E-14	 	-9209.46264	29.11724	 
470.0	1.0	0.0	7.73219	7.10452	-10.97341	14.0674	16.00665	1.13748	0.87914	173.3282	162.05201	65.56839	0.32174	 	3.74648E14	 	9.68143E-15	 	-9354.79078	29.06563	 
465.0	1.0	0.0	7.73405	7.10281	-10.99489	14.04112	15.94588	1.13413	0.88173	173.63418	162.22391	65.69037	0.32161	 	5.01267E14	 	7.18724E-15	 	-9499.86215	29.01428	 
460.0	1.0	0.0	7.73591	7.1011	-11.01629	14.01483	15.88507	1.13076	0.88436	173.93976	162.39525	65.81222	0.32149	 	6.73347E14	 	5.31423E-15	 	-9644.67805	28.96318	 
455.0	1.0	0.0	7.73777	7.0994	-11.03762	13.98855	15.82421	1.12737	0.88702	174.24494	162.56603	65.93395	0.32136	 	9.08175E14	 	3.91326E-15	 	-9789.23977	28.91234	 
450.0	1.0	0.0	7.73962	7.0977	-11.05889	13.96225	15.76331	1.12395	0.88972	174.54974	162.73626	66.05555	0.32123	 	1.22997E15	 	2.86958E-15	 	-9933.54856	28.86176	 
445.0	1.0	0.0	7.74146	7.09601	-11.08008	13.93596	15.70236	1.12051	0.89245	174.85414	162.90593	66.17702	0.32111	 	1.67285E15	 	2.09529E-15	 	-10077.6057	28.81143	 
440.0	1.0	0.0	7.7433	7.09432	-11.10121	13.90966	15.64136	1.11705	0.89522	175.15815	163.07505	66.29836	0.32098	 	2.28503E15	 	1.52327E-15	 	-10221.41247	28.76135	 
435.0	1.0	0.0	7.74514	7.09264	-11.12227	13.88336	15.58031	1.11356	0.89802	175.46176	163.24361	66.41957	0.32086	 	3.135E15	 	1.10249E-15	 	-10364.97011	28.71153	 
430.0	1.0	0.0	7.74697	7.09097	-11.14326	13.85705	15.51921	1.11006	0.90086	175.76499	163.41163	66.54065	0.32073	 	4.32054E15	 	7.94322E-16	 	-10508.2799	28.66196	 
425.0	1.0	0.0	7.74879	7.0893	-11.16419	13.83074	15.45805	1.10652	0.90373	176.06782	163.57909	66.66161	0.32061	 	5.98181E15	 	5.69643E-16	 	-10651.34289	28.6126	 
420.0	1.0	0.0	7.75061	7.08763	-11.18504	13.80443	15.39685	1.10296	0.90665	176.37026	163.74601	66.78243	0.32048	 	8.32083E15	 	4.06581E-16	 	-10794.16062	28.56355	 
415.0	1.0	0.0	7.75243	7.08597	-11.20582	13.77811	15.33559	1.09938	0.9096	176.67231	163.91238	66.90313	0.32036	 	1.16301E16	 	2.88793E-16	 	-10936.73361	28.5146	 
410.0	1.0	0.0	7.75424	7.08432	-11.22654	13.75179	15.27427	1.09578	0.9126	176.97396	164.07821	67.0237	0.32023	 	1.63353E16	 	2.04115E-16	 	-11079.06213	28.4657	 
405.0	1.0	0.0	7.75604	7.08267	-11.24719	13.72547	15.2129	1.09214	0.91563	177.27522	164.24349	67.14414	0.32011	 	2.30594E16	 	1.43537E-16	 	-11221.14643	28.41686	 
400.0	1.0	0.0	7.75784	7.08103	-11.26777	13.69914	15.15147	1.08849	0.91871	177.57609	164.40824	67.26446	0.31998	 	3.27185E16	 	1.00416E-16	 	-11362.98677	28.36807	 
395.0	1.0	0.0	7.75963	7.07939	-11.28828	13.67282	15.08997	1.0848	0.92182	177.87657	164.57244	67.38464	0.31986	 	4.66673E16	 	6.98792E-17	 	-11504.5834	28.31933	 
390.0	1.0	0.0	7.76142	7.07776	-11.30872	13.64648	15.02842	1.0811	0.92499	178.17666	164.7361	67.5047	0.31974	 	6.6920200000000008E16	 	4.83661E-17	 	-11645.93653	28.27063	 
385.0	1.0	0.0	7.7632	7.07614	-11.32909	13.62015	14.9668	1.07736	0.92819	178.47636	164.89923	67.62463	0.31961	 	9.64896E16	 	3.32913E-17	 	-11787.0464	28.22198	 
380.0	1.0	0.0	7.76498	7.07452	-11.3494	13.59381	14.90512	1.0736	0.93144	178.77567	165.06181	67.74443	0.31949	 	1.39906E17	 	2.27857E-17	 	-11927.91324	28.17337	 
375.0	1.0	0.0	7.76676	7.0729	-11.36963	13.56747	14.84338	1.06982	0.93474	179.07458	165.22387	67.8641	0.31936	 	2.04025E17	 	1.55053E-17	 	-12068.53727	28.1248	 
370.0	1.0	0.0	7.76852	7.07129	-11.3898	13.54112	14.78156	1.066	0.93808	179.37311	165.38539	67.98364	0.31924	 	2.99279E17	 	1.04887E-17	 	-12208.91865	28.07628	 
365.0	1.0	0.0	7.77029	7.06969	-11.4099	13.51477	14.71968	1.06216	0.94148	179.67124	165.54638	68.10306	0.31911	 	4.41648E17	 	7.05233E-18	 	-12349.05761	28.02779	 
360.0	1.0	0.0	7.77204	7.06809	-11.42993	13.48842	14.65773	1.05829	0.94492	179.96899	165.70683	68.22234	0.31899	 	6.55763E17	 	4.71245E-18	 	-12488.95434	27.97934	 
355.0	1.0	0.0	7.77379	7.0665	-11.44989	13.46206	14.5957	1.0544	0.94841	180.26634	165.86676	68.3415	0.31886	 	9.79828E17	 	3.12896E-18	 	-12628.60899	27.93093	 
350.0	1.0	0.0	7.77554	7.06491	-11.46978	13.4357	14.5336	1.05047	0.95195	180.5633	166.02616	68.46053	0.31874	 	1.4735E18	 	2.06409E-18	 	-12768.02174	27.88255	 
345.0	1.0	0.0	7.77728	7.06333	-11.4896	13.40934	14.47142	1.04652	0.95555	180.85987	166.18503	68.57943	0.31862	 	2.23059E18	 	1.35257E-18	 	-12907.19274	27.8342	 
340.0	1.0	0.0	7.77902	7.06175	-11.50936	13.38297	14.40916	1.04254	0.95919	181.15606	166.34338	68.69821	0.31849	 	3.39958E18	 	8.80296E-19	 	-13046.12214	27.78588	 
335.0	1.0	0.0	7.78075	7.06018	-11.52904	13.35661	14.34683	1.03853	0.9629	181.45185	166.5012	68.81685	0.31837	 	5.21722E18	 	5.68929E-19	 	-13184.81007	27.73759	 
330.0	1.0	0.0	7.78248	7.05861	-11.54866	13.33023	14.28441	1.0345	0.96665	181.74725	166.6585	68.93537	0.31824	 	8.06376E18	 	3.65069E-19	 	-13323.25664	27.68931	 
325.0	1.0	0.0	7.7842	7.05705	-11.5682	13.30386	14.2219	1.03043	0.97047	182.04227	166.81528	69.05376	0.31812	 	1.25544E19	 	2.32541E-19	 	-13461.46199	27.64107	 
320.0	1.0	0.0	7.78591	7.0555	-11.58768	13.27748	14.15931	1.02633	0.97434	182.33689	166.97154	69.17202	0.318	 	1.96924E19	 	1.47012E-19	 	-13599.42619	27.59284	 
315.0	1.0	0.0	7.78762	7.05395	-11.60709	13.2511	14.09663	1.02221	0.97828	182.63112	167.12728	69.29015	0.31787	 	3.1126E19	 	9.22256E-20	 	-13737.14933	27.54463	 
310.0	1.0	0.0	7.78932	7.05241	-11.62643	13.22471	14.03385	1.01805	0.98227	182.92497	167.28251	69.40815	0.31775	 	4.95859E19	 	5.73996E-20	 	-13874.63149	27.49643	 
305.0	1.0	0.0	7.79102	7.05087	-11.64571	13.19832	13.97098	1.01386	0.98633	183.21843	167.43721	69.52603	0.31762	 	7.96325E19	 	3.54353E-20	 	-14011.87271	27.44824	 
300.0	1.0	0.0	7.79272	7.04934	-11.66491	13.17193	13.90802	1.00965	0.99045	183.51149	167.5914	69.64377	0.3175	 	1.2894699999999998E20	 	2.16941E-20	 	-14148.87304	27.40007	 
295.0	1.0	0.0	7.79441	7.04781	-11.68404	13.14553	13.84495	1.0054	0.99463	183.80417	167.74508	69.76139	0.31738	 	2.10581E20	 	1.31683E-20	 	-14285.63251	27.35189	 
290.0	1.0	0.0	7.79609	7.04629	-11.70311	13.11913	13.78178	1.00112	0.99888	184.09646	167.89825	69.87888	0.31725	 	3.4690299999999997E20	 	7.92325E-21	 	-14422.15111	27.30372	 
285.0	1.0	0.0	7.79777	7.04477	-11.7221	13.09273	13.71851	0.99681	1.00321	184.38836	168.0509	69.99624	0.31713	 	5.7660799999999993E20	 	4.72451E-21	 	-14558.42885	27.25555	 
280.0	1.0	0.0	7.79944	7.04326	-11.74103	13.06632	13.65512	0.99246	1.0076	184.67987	168.20305	70.11347	0.31701	 	9.672589999999999E20	 	2.79117E-21	 	-14694.4657	27.20737	 
275.0	1.0	0.0	7.8011	7.04176	-11.75989	13.03991	13.59163	0.98808	1.01206	184.971	168.35468	70.23058	0.31688	 	1.63796E21	 	1.63336E-21	 	-14830.26161	27.15918	 
270.0	1.0	0.0	7.80277	7.04026	-11.77868	13.0135	13.52802	0.98368	1.0166	185.26173	168.50581	70.34755	0.31676	 	2.8007600000000003E21	 	9.46522E-22	 	-14965.81651	27.11098	 
265.0	1.0	0.0	7.80442	7.03876	-11.7974	12.98709	13.46429	0.97923	1.02121	185.55208	168.65643	70.4644	0.31664	 	4.83702E21	 	5.43016E-22	 	-15101.13034	27.06277	 
260.0	1.0	0.0	7.80607	7.03728	-11.81605	12.96067	13.40043	0.97476	1.0259	185.84204	168.80655	70.58112	0.31651	 	8.439760000000001E21	 	3.08323E-22	 	-15236.20297	27.01453	 
255.0	1.0	0.0	7.80772	7.03579	-11.83463	12.93424	13.33646	0.97025	1.03066	186.13161	168.95616	70.69771	0.31639	 	1.4882E22	 	1.73214E-22	 	-15371.03428	26.96626	 
250.0	1.0	0.0	7.80936	7.03432	-11.85314	12.90782	13.27235	0.96571	1.03551	186.42079	169.10528	70.81417	0.31627	 	2.65276E22	 	9.62531E-23	 	-15505.62412	26.91797	 
245.0	1.0	0.0	7.81099	7.03284	-11.87159	12.88139	13.20811	0.96113	1.04044	186.70958	169.25389	70.93051	0.31614	 	4.78169E22	 	5.28884E-23	 	-15639.97233	26.86964	 
240.0	1.0	0.0	7.81262	7.03138	-11.88996	12.85496	13.14373	0.95651	1.04546	186.99799	169.402	71.04671	0.31602	 	8.7187E22	 	2.87263E-23	 	-15774.07869	26.82127	 
235.0	1.0	0.0	7.81424	7.02992	-11.90827	12.82852	13.07921	0.95187	1.05057	187.28601	169.54961	71.16279	0.3159	 	1.60863E23	 	1.54178E-23	 	-15907.94296	26.77285	 
230.0	1.0	0.0	7.81586	7.02846	-11.9265	12.80208	13.01454	0.94718	1.05576	187.57364	169.69673	71.27873	0.31578	 	3.0043199999999996E23	 	8.17407E-24	 	-16041.56491	26.72439	 
225.0	1.0	0.0	7.81748	7.02701	-11.94467	12.77564	12.94972	0.94247	1.06105	187.86089	169.84334	71.39455	0.31565	 	5.681749999999999E23	 	4.27922E-24	 	-16174.94426	26.67587	 
220.0	1.0	0.0	7.81908	7.02557	-11.96277	12.74919	12.88475	0.93771	1.06643	188.14774	169.98947	71.51024	0.31553	 	1.0885E24	 	2.21124E-24	 	-16308.08066	26.62728	 
215.0	1.0	0.0	7.82068	7.02413	-11.9808	12.72274	12.81961	0.93292	1.0719	188.43421	170.1351	71.62581	0.31541	 	2.1133E24	 	1.1274E-24	 	-16440.97379	26.57863	 
210.0	1.0	0.0	7.82228	7.02269	-11.99876	12.69629	12.75431	0.92809	1.07748	188.7203	170.28024	71.74124	0.31528	 	4.15966E24	 	5.66906E-25	 	-16573.62325	26.52989	 
205.0	1.0	0.0	7.82387	7.02127	-12.01665	12.66983	12.68883	0.92323	1.08316	189.00599	170.42488	71.85654	0.31516	 	8.30432E24	 	2.81026E-25	 	-16706.02863	26.48108	 
200.0	1.0	0.0	7.82546	7.01985	-12.03447	12.64338	12.62318	0.91832	1.08894	189.2913	170.56904	71.97172	0.31504	 	1.6822700000000002E25	 	1.37274E-25	 	-16838.18947	26.43217	 
195.0	1.0	0.0	7.82704	7.01843	-12.05222	12.61691	12.55734	0.91338	1.09483	189.57622	170.7127	72.08677	0.31492	 	3.4596900000000004E25	 	6.60442E-26	 	-16970.10526	26.38316	 
190.0	1.0	0.0	7.82861	7.01702	-12.0699	12.59045	12.49131	0.90841	1.10083	189.86075	170.85588	72.20169	0.31479	 	7.22668E25	 	3.12802E-26	 	-17101.77548	26.33404	 
185.0	1.0	0.0	7.83018	7.01561	-12.08752	12.56398	12.42508	0.90339	1.10694	190.1449	170.99857	72.31648	0.31467	 	1.5339900000000002E26	 	1.45771E-26	 	-17233.19954	26.28481	 
180.0	1.0	0.0	7.83174	7.01421	-12.10506	12.5375	12.35865	0.89833	1.11317	190.42866	171.14078	72.43114	0.31455	 	3.31071E26	 	6.68047E-27	 	-17364.3768	26.23545	 
175.0	1.0	0.0	7.8333	7.01282	-12.12254	12.51103	12.29201	0.89324	1.11952	190.71204	171.2825	72.54567	0.31443	 	7.269010000000001E26	 	3.00909E-27	 	-17495.3066	26.18596	 
170.0	1.0	0.0	7.83485	7.01143	-12.13994	12.48455	12.22515	0.8881	1.126	190.99503	171.42374	72.66008	0.31431	 	1.62456E27	 	1.33138E-27	 	-17625.98817	26.13632	 
165.0	1.0	0.0	7.8364	7.01004	-12.15728	12.45807	12.15806	0.88293	1.1326	191.27763	171.5645	72.77435	0.31418	 	3.6980099999999996E27	 	5.78285E-28	 	-17756.42076	26.08652	 
160.0	1.0	0.0	7.83794	7.00867	-12.17454	12.43158	12.09074	0.87771	1.13933	191.55984	171.70477	72.8885	0.31406	 	8.5792E27	 	2.46421E-28	 	-17886.60351	26.03655	 
155.0	1.0	0.0	7.83947	7.00729	-12.19174	12.40509	12.02317	0.87246	1.14619	191.84167	171.84457	73.00252	0.31394	 	2.02984E28	 	1.02949E-28	 	-18016.5355	25.9864	 
150.0	1.0	0.0	7.841	7.00593	-12.20887	12.3786	11.95535	0.86716	1.15319	192.12311	171.98389	73.1164	0.31382	 	4.9013600000000005E28	 	4.21371E-29	 	-18146.21577	25.93606	 
145.0	1.0	0.0	7.84253	7.00457	-12.22593	12.3521	11.88726	0.86182	1.16034	192.40417	172.12273	73.23016	0.31369	 	1.2087200000000001E29	 	1.68846E-29	 	-18275.64327	25.8855	 
140.0	1.0	0.0	7.84404	7.00321	-12.24292	12.3256	11.8189	0.85644	1.16762	192.68484	172.26109	73.3438	0.31357	 	3.04667E29	 	6.61865E-30	 	-18404.81689	25.83472	 
135.0	1.0	0.0	7.84556	7.00186	-12.25984	12.2991	11.75026	0.85102	1.17506	192.96513	172.39898	73.4573	0.31345	 	7.85526E29	 	2.53598E-30	 	-18533.73542	25.78371	 
130.0	1.0	0.0	7.84706	7.00052	-12.27669	12.27259	11.68131	0.84555	1.18266	193.24502	172.53639	73.57067	0.31333	 	2.0734799999999998E30	 	9.48973E-31	 	-18662.39761	25.73244	 
125.0	1.0	0.0	7.84857	6.99918	-12.29347	12.24609	11.61206	0.84005	1.19041	193.52454	172.67333	73.68392	0.31321	 	5.60823E30	 	3.46504E-31	 	-18790.80207	25.68089	 
120.0	1.0	0.0	7.85006	6.99784	-12.31019	12.21957	11.54249	0.8345	1.19833	193.80367	172.8098	73.79703	0.31309	 	1.55576E31	 	1.23339E-31	 	-18918.94735	25.62906	 
115.0	1.0	0.0	7.85155	6.99651	-12.32683	12.19306	11.47259	0.8289	1.20641	194.08241	172.9458	73.91002	0.31296	 	4.43074E31	 	4.27573E-32	 	-19046.83188	25.57691	 
110.0	1.0	0.0	7.85304	6.99519	-12.3434	12.16654	11.40234	0.82327	1.21467	194.36076	173.08133	74.02288	0.31284	 	1.2968E32	 	1.44206E-32	 	-19174.454	25.52442	 
105.0	1.0	0.0	7.85451	6.99387	-12.35991	12.14001	11.33172	0.81759	1.22311	194.63873	173.21639	74.13561	0.31272	 	3.90484E32	 	4.72659E-33	 	-19301.81194	25.47159	 
100.0	1.0	0.0	7.85599	6.99256	-12.37634	12.11349	11.26072	0.81186	1.23173	194.91632	173.35098	74.2482	0.3126	 	1.21105E33	 	1.50386E-33	 	-19428.90379	25.41837	 
95.0	1.0	0.0	7.85746	6.99126	-12.39271	12.08696	11.18933	0.8061	1.24055	195.19352	173.4851	74.36068	0.31248	 	3.8732400000000004E33	 	4.63913E-34	 	-19555.72754	25.36475	 
90.0	1.0	0.0	7.85892	6.98996	-12.409	12.06043	11.11752	0.80028	1.24956	195.47033	173.61876	74.47302	0.31236	 	1.2790600000000002E34	 	1.38574E-34	 	-19682.28099	25.31069	 
85.0	1.0	0.0	7.86037	6.98866	-12.42523	12.03389	11.04528	0.79443	1.25877	195.74676	173.75196	74.58523	0.31224	 	4.36709E34	 	4.00276E-35	 	-19808.56186	25.25617	 
80.0	1.0	0.0	7.86182	6.98737	-12.44138	12.00735	10.97259	0.78853	1.26819	196.02281	173.88469	74.69731	0.31211	 	1.5438099999999998E35	 	1.11648E-35	 	-19934.56766	25.20116	 
75.0	1.0	0.0	7.86327	6.98609	-12.45747	11.98081	10.89942	0.78258	1.27782	196.29847	174.01696	74.80927	0.31199	 	5.659129999999999E35	 	3.00264E-36	 	-20060.29575	25.14562	 
70.0	1.0	0.0	7.86471	6.98481	-12.47349	11.95426	10.82576	0.77659	1.28768	196.57374	174.14877	74.92109	0.31187	 	2.15449E36	 	7.77367E-37	 	-20185.74332	25.08951	 
65.0	1.0	0.0	7.86614	6.98354	-12.48944	11.92771	10.75157	0.77056	1.29777	196.84863	174.28012	75.03279	0.31175	 	8.533149999999999E36	 	1.93413E-37	 	-20310.90734	25.0328	 
60.0	1.0	0.0	7.86757	6.98227	-12.50531	11.90116	10.67683	0.76448	1.30809	197.12313	174.41101	75.14435	0.31163	 	3.5222299999999997E37	 	4.61646E-38	 	-20435.7846	24.97545	 
55.0	1.0	0.0	7.86899	6.98101	-12.52112	11.8746	10.60153	0.75835	1.31865	197.39725	174.54144	75.25579	0.31151	 	1.5180599999999998E38	 	1.05505E-38	 	-20560.37162	24.91741	 
50.0	1.0	0.0	7.87041	6.97975	-12.53686	11.84804	10.52561	0.75218	1.32947	197.67099	174.67142	75.3671	0.31139	 	6.8453E38	 	2.30408E-39	 	-20684.66473	24.85862	 
45.0	1.0	0.0	7.87182	6.9785	-12.55253	11.82148	10.44906	0.74597	1.34054	197.94434	174.80094	75.47828	0.31127	 	3.2363600000000004E39	 	4.79802E-40	 	-20808.65996	24.79905	 
40.0	1.0	0.0	7.87322	6.97726	-12.56813	11.79491	10.37184	0.73971	1.35188	198.2173	174.93	75.58933	0.31115	 	1.60792E40	 	9.50547E-41	 	-20932.35308	24.73862	 
35.0	1.0	0.0	7.87462	6.97602	-12.58366	11.76834	10.29392	0.73341	1.36349	198.48988	175.05861	75.70025	0.31103	 	8.41526E40	 	1.78723E-41	 	-21055.73954	24.67729	 
30.0	1.0	0.0	7.87601	6.97478	-12.59912	11.74177	10.21525	0.72707	1.37539	198.76208	175.18677	75.81104	0.3109	 	4.65137E41	 	3.181E-42	 	-21178.81446	24.61499	 
25.0	1.0	0.0	7.8774	6.97356	-12.61451	 	10.13579	0.72068	1.38758	199.03389	175.31448	75.9217	0.31078	 	2.72269E42	 	5.34471E-43	 	-21301.57261	 	 
