T (C)	Fraction solid (wt)-TOTAL	Fraction liquid (wt)-LIQUID	Density (g/(cm)^3)-TOTAL	Molar volume (cm^3)-TOTAL	Volume change (%)-  	Average expansion coeff. (10e-6 1/K)-  	Thermal conductivity (W/(m*K))-TOTAL	Electrical resistivity (10e-6 Ohm*m)-TOTAL	Electrical conductivity (10e6 1/(Ohm*m))-TOTAL	Young's modulus (GPa)-TOTAL	Bulk modulus (GPa)-TOTAL	Shear modulus(GPa)-TOTAL	Poisson's ratio-TOTAL	Liquid viscosity (mPa s)-  	Total viscosity (mPa s)-  	Liquid diffusivity (10e-9 (m^2)/s)-  	Total diffusivity (10e-9 (m^2)/s)-  	Surface Tension (mN/m)-  	Enthalpy (J/mole)-TOTAL	Specific heat (J/(mole K))-TOTAL	Latent heat (J/mole)-TOTAL
1400.0	0.0	1.0	7.3192	7.95483	0.0	34.40384	30.83414	1.32944	0.7522	0.0	122.98577	0.0	0.5	6.84343	6.84343	1.1933	1.1933	1843.3781	43174.078	 	0.0
1395.0	0.0	1.0	7.32346	7.9502	-0.0581958	34.36771	30.74985	1.3291	0.75239	0.0	123.122	0.0	0.5	6.91701	6.91701	1.17707	1.17707	1847.35166	42974.411	39.9334	0.0
1390.0	0.0	1.0	7.32771	7.94558	-0.11623	34.33177	30.66555	1.32876	0.75258	0.0	123.25822	0.0	0.5	6.99183	6.99183	1.16099	1.16099	1851.34916	42775.183	39.8456	0.0
1385.0	0.0	1.0	7.33196	7.94098	-0.1741	34.29602	30.58126	1.32842	0.75278	0.0	123.39445	0.0	0.5	7.06793	7.06793	1.14503	1.14503	1855.37019	42576.39	39.7586	0.0
1380.0	0.0	1.0	7.3362	7.93639	-0.2318	34.26047	30.49696	1.32807	0.75297	0.0	123.53067	0.0	0.5	7.14531	7.14531	1.12922	1.12922	1859.41431	42378.03	39.672	0.0
1375.0	0.0	1.0	7.34044	7.93181	-0.28935	34.22512	30.41266	1.32773	0.75317	0.0	123.6669	0.0	0.5	7.22403	7.22403	1.11354	1.11354	1863.48111	42180.101	39.5858	0.0
1371.79	0.0	1.0	7.34315	7.92888	-0.32624	34.2025	30.35849	1.3275	0.75329	0.0	123.75445	0.0	0.5	7.27533	7.27533	1.10353	1.10353	1866.10651	42053.13	39.51322	0.0
1370.0	0.0684404	0.93156	7.36642	7.90385	-0.64085	33.35759	30.56564	1.31707	0.75926	0.00204715	125.75008	6.86125E-4	0.49182	7.29485	8.20626	1.09938	0.97728	1865.84649	40949.772	617.56725	1032.824
1365.0	0.23767	0.76233	7.42492	7.84162	-1.42311	31.25997	31.09075	1.29089	0.77466	0.30936	130.70922	0.10513	0.47128	7.35057	44.71785	1.08773	0.1788	1864.88142	38211.436	547.6672	3574.084
1360.0	0.36882	0.63118	7.4715	7.79274	-2.03755	29.62514	31.5058	1.26999	0.78741	1.84877	134.61829	0.6353	0.45504	7.4075	222.12618	1.07607	0.035885	1863.70088	36060.736	430.14	5528.128
1355.0	0.47194	0.52806	7.50921	7.75366	-2.52883	28.3305	31.83653	1.25295	0.79811	5.08195	137.75092	1.76208	0.44203	7.46592	603.55221	1.06438	0.0131664	1862.31987	34342.325	343.6822	7050.303
1350.0	0.55411	0.44589	7.54013	7.72198	-2.92708	27.29336	32.09991	1.23886	0.8072	9.86057	140.29847	3.44412	0.43151	7.52572	1190.31177	1.05268	0.00665556	1860.75014	32946.451	279.1748	8250.357
1345.0	0.62035	0.37965	7.56583	7.69589	-3.25513	26.45075	32.30826	1.22708	0.81495	15.76746	142.3999	5.54064	0.42289	7.58703	1954.46013	1.04096	0.00404091	1859.00878	31794.391	230.412	9207.01
1340.0	0.6743	0.3257	7.58745	7.6741	-3.52907	25.75838	32.47109	1.21715	0.82159	22.35015	144.15542	7.89327	0.41577	7.64987	2861.26694	1.02922	0.00275171	1857.11056	30828.893	193.0996	9977.513
1335.0	0.71866	0.28134	7.60586	7.65569	-3.76043	25.18446	32.59621	1.20872	0.82732	29.22774	145.64191	10.36568	0.40983	7.71437	3880.02075	1.01745	0.00202292	1855.06969	30007.774	164.2238	10604.045
1330.0	0.75545	0.24455	7.6217	7.63999	-3.95785	24.70512	32.69001	1.2015	0.83229	36.11405	146.91595	12.85347	0.40484	7.78061	4986.95806	1.00565	0.00156901	1852.90011	29299.583	141.6382	11118.055
1325.0	0.78622	0.21378	7.63548	7.62637	-4.12903	24.29892	32.75784	1.19528	0.83663	42.81772	148.01942	15.28556	0.40059	7.8486	6165.81298	0.99383	0.00126507	1850.62292	28680.603	123.796	11543.26
1320.0	0.81214	0.18786	7.6476	7.61447	-4.27866	23.95294	32.80396	1.18986	0.84043	49.22044	148.98697	17.61694	0.39696	7.91851	7407.24441	0.98197	0.00104975	1848.25063	28132.763	109.568	11897.724
1315.0	0.83414	0.16586	7.65835	7.60397	-4.4106	23.65645	32.83195	1.18512	0.8438	55.25075	149.84321	19.8197	0.39383	7.9903	8705.39506	0.9701	8.90409E-4	1845.79722	27642.154	98.1218	12195.354
1314.43	0.83637	0.16363	7.65949	7.60286	-4.42457	23.62571	32.8338	1.18462	0.84415	55.89821	149.93357	20.0566	0.39351	7.99862	8855.32475	0.96874	8.75019E-4	1845.52331	27590.139	 	12225.343
1310.0	0.86233	0.13767	7.67078	7.59183	-4.56319	23.29651	32.89006	1.1793	0.84796	63.7944	150.9282	22.95086	0.3898	8.05564	10494.40445	0.9592	7.36294E-4	1848.94457	27055.733	117.2842	12589.194
1305.0	0.88575	0.11425	7.68165	7.58129	-4.69573	22.99338	32.92613	1.17429	0.85158	71.69764	151.8692	25.85751	0.3864	8.11969	12341.39812	0.94863	6.24124E-4	1852.71878	26539.372	103.2722	12913.366
1300.0	0.90432	0.0956754	7.69097	7.5723	-4.80876	22.7461	32.93903	1.17011	0.85462	78.56883	152.66256	28.39221	0.38363	8.18358	14186.45994	0.93824	5.41231E-4	1856.42187	26093.541	89.1662	13167.399
1295.0	0.91931	0.0806944	7.69911	7.56447	-4.90718	22.54068	32.93403	1.16656	0.85722	84.53477	153.34555	30.59858	0.38135	8.24753	16043.29634	0.928	4.77068E-4	1860.07703	25700.105	78.6872	13369.426
1290.0	0.93153	0.0684692	7.70635	7.55754	-4.99427	22.36771	32.9151	1.16351	0.85947	89.72782	153.94488	32.52333	0.37944	8.31153	17928.71147	0.91792	4.25538E-4	1863.69396	25346.332	70.7546	13532.176
1285.0	0.94163	0.0583722	7.71287	7.55132	-5.07251	22.22013	32.88515	1.16085	0.86144	94.26522	154.47944	34.20831	0.37781	8.37566	19858.80245	0.90798	3.82951E-4	1867.28523	25023.092	64.648	13664.777
1280.0	0.95005	0.0499453	7.71885	7.54564	-5.14392	22.09204	32.8464	1.15849	0.86319	98.24936	154.96322	35.69041	0.37641	8.44009	21849.9937	0.89816	3.46936E-4	1870.86655	24723.718	59.8748	13773.893
1275.0	0.95715	0.0428455	7.72437	7.5404	-5.20973	21.98004	32.80048	1.15638	0.86477	101.76664	155.40654	37.00092	0.37519	8.50494	23917.69713	0.88844	3.15922E-4	1874.44173	24443.255	56.0926	13864.477
1270.0	0.96319	0.0368122	7.72954	7.53553	-5.27102	21.88093	32.74872	1.15446	0.8662	104.89006	155.81732	38.16639	0.37412	8.57031	26077.80648	0.87882	2.88818E-4	1878.01821	24177.967	53.0576	13940.263
1265.0	0.96835	0.031646	7.73441	7.53095	-5.32862	21.79233	32.69213	1.15271	0.86752	107.67943	156.20135	39.20865	0.37316	8.63624	28345.3535	0.86928	2.64852E-4	1881.6029	23924.994	50.5946	14004.108
1260.0	0.97281	0.0271902	7.73903	7.52661	-5.38317	21.71243	32.6315	1.1511	0.86873	110.18509	156.56324	40.14615	0.3723	8.70286	30735.76879	0.85982	2.4346E-4	1885.2005	23682.123	48.5742	14058.224
1255.0	0.97668	0.0233224	7.74344	7.52247	-5.43518	21.63973	32.56752	1.1496	0.86987	112.44899	156.90682	40.99426	0.37152	8.77017	33265.1944	0.85044	2.24214E-4	1888.81383	23447.625	46.8996	14104.337
1250.0	0.98005	0.0199454	7.74768	7.5185	-5.48502	21.5732	32.50064	1.1482	0.87093	114.50507	157.2346	41.76548	0.37081	8.83848	35949.01316	0.84111	2.06796E-4	1892.44769	23220.126	45.4998	14143.819
1245.0	0.98302	0.0169799	7.75177	7.51468	-5.53304	21.51179	32.43134	1.14687	0.87194	116.38302	157.54921	42.47072	0.37016	8.90778	38804.82992	0.83183	1.90948E-4	1896.10199	22998.527	44.3198	14177.767
1242.25	0.98448	0.0155158	7.75396	7.51264	-5.55869	21.48011	32.39231	1.14618	0.87246	117.34114	157.71664	42.83088	0.36982	8.94639	40451.02327	0.82674	1.82846E-4	1898.11915	22879.176	 	14194.221
1240.0	0.98605	0.0139493	7.75582	7.51073	-5.5828	21.44443	32.36704	1.14537	0.87308	118.1834	157.87329	43.14899	0.36948	9.00653	41929.38629	0.81999	1.76137E-4	1900.38666	22774.477	44.81	14214.529
1235.0	0.98915	0.0108493	7.75978	7.50664	-5.63413	21.37158	32.30761	1.14368	0.87437	119.90698	158.20713	43.80056	0.36878	9.13906	45353.16002	0.80543	1.62302E-4	1905.40387	22547.883	45.3188	14254.196
1234.45	0.98945	0.0105456	7.7602	7.50621	-5.63955	21.36418	32.30082	1.14351	0.8745	120.08186	158.24227	43.86672	0.36871	9.15365	45738.61639	0.80386	1.60876E-4	1905.95433	22523.671	 	14258.02
1232.87	0.99044	0.00956153	7.76157	7.50493	-5.65568	21.34143	32.2819	1.14297	0.87491	120.61995	158.3486	44.07035	0.36849	9.17874	46893.98326	0.80082	1.56747E-4	1906.08839	22451.355	 	14271.056
1232.87	0.99044	0.00956153	7.76157	7.50493	-5.65568	21.34143	32.2819	1.14297	0.87491	120.61995	158.3486	44.07035	0.36849	9.17874	46893.98326	0.80082	1.56747E-4	1906.08839	22451.355	 	14271.056
1230.0	0.99212	0.00788156	7.76405	7.50265	-5.68439	21.3015	32.24733	1.14202	0.87564	121.55106	158.53795	44.42294	0.36811	9.21907	49042.72997	0.7958	1.49594E-4	1906.035	22321.499	45.2768	14294.012
1225.0	0.99464	0.00535998	7.76815	7.49884	-5.7322	21.23859	32.18382	1.14047	0.87683	123.16682	158.85164	45.03345	0.3675	9.2935	52968.77287	0.7868	1.38045E-4	1906.20657	22101.475	44.0048	14327.826
1220.0	0.99673	0.00326591	7.77202	7.49523	-5.77759	21.18286	32.11761	1.13901	0.87796	125.03358	159.14814	45.73424	0.36696	9.37303	57145.03267	0.77752	1.2753E-4	1906.60428	21888.334	42.6282	14355.111
1215.0	0.9985	0.00150208	7.77571	7.49177	-5.82109	21.13274	32.04801	1.13766	0.879	126.99363	159.4309	46.46808	0.36646	9.45758	61603.28181	0.76799	1.17904E-4	1907.21009	21680.584	41.55	14377.358
1210.0	1.0	0.0	7.77926	7.48843	-5.86306	21.08709	31.97677	1.13636	0.88	128.39898	159.70253	46.9981	0.366	 	66375.81812	 	1.09059E-4	 	21477.14	40.6888	14395.65
1205.0	1.0	0.0	7.78181	7.48596	-5.89414	21.07619	31.89171	1.13555	0.88063	128.7846	159.90966	47.14713	0.36577	 	71147.11964	 	1.01402E-4	 	21267.42942	41.94212	 
1200.0	1.0	0.0	7.78435	7.48352	-5.92481	21.06651	31.80667	1.13474	0.88126	129.16941	160.11633	47.29587	0.36555	 	76299.42022	 	9.4235E-5	 	21089.01407	35.68307	 
1195.0	1.0	0.0	7.78689	7.48108	-5.95544	21.05691	31.72163	1.13392	0.8819	129.5533	160.32146	47.44432	0.36532	 	81863.81152	 	8.75317E-5	 	20910.83745	35.63532	 
1192.03	1.0	0.0	7.78839	7.47964	-5.97361	21.05125	31.67111	1.13343	0.88228	129.78093	160.44261	47.53238	0.36518	 	85379.16459	 	8.37579E-5	 	20805.10246	 	 
1190.0	1.0	0.0	7.78941	7.47866	-5.98591	21.04773	31.63663	1.13309	0.88254	129.93659	160.52563	47.59259	0.36509	 	87877.73196	 	8.12637E-5	 	20732.78271	35.61095	 
1185.0	1.0	0.0	7.79192	7.47625	-6.01619	21.03907	31.55169	1.13226	0.88319	130.31942	160.72908	47.74072	0.36487	 	94381.43678	 	7.54054E-5	 	20554.80623	35.5953	 
1180.0	1.0	0.0	7.79443	7.47384	-6.04644	21.03048	31.46673	1.13142	0.88384	130.7013	160.93097	47.88855	0.36464	 	101416.1402	 	6.99343E-5	 	20377.07764	35.54572	 
1179.73	1.0	0.0	7.79456	7.47372	-6.04804	21.03003	31.46222	1.13138	0.88388	130.72157	160.94165	47.8964	0.36463	 	101805.7265	 	6.96539E-5	 	20367.63905	 	 
1175.0	1.0	0.0	7.80041	7.46811	-6.11853	20.88328	31.12365	1.13996	0.87722	131.44829	160.70804	48.19624	0.36368	 	110411.3987	 	6.40157E-5	 	20047.99983	65.81556	 
1170.0	1.0	0.0	7.80645	7.46233	-6.19115	20.73306	30.78922	1.14836	0.87081	132.1758	160.46122	48.49731	0.36271	 	120366.8475	 	5.85182E-5	 	19717.17196	66.16557	 
1165.0	1.0	0.0	7.81235	7.4567	-6.262	20.58746	30.46746	1.15647	0.8647	132.86629	160.21639	48.78389	0.36178	 	131305.4516	 	5.34574E-5	 	19392.90593	64.85321	 
1160.0	1.0	0.0	7.81812	7.4512	-6.33115	20.44622	30.15774	1.16428	0.8589	133.52336	159.97517	49.05731	0.36089	 	143332.1754	 	4.88017E-5	 	19074.84703	63.61178	 
1155.0	1.0	0.0	7.82376	7.44582	-6.39871	20.30912	29.85949	1.17181	0.85338	134.15015	159.73878	49.31876	0.36003	 	156564.0176	 	4.45214E-5	 	18762.6646	62.43649	 
1150.0	1.0	0.0	7.82929	7.44057	-6.46476	20.17591	29.57211	1.17906	0.84814	134.74941	159.50814	49.56927	0.3592	 	171131.4639	 	4.05889E-5	 	18456.05031	61.32286	 
1145.0	1.0	0.0	7.8347	7.43543	-6.52938	20.04639	29.29503	1.18603	0.84315	135.31191	159.27017	49.80546	0.3584	 	187180.1466	 	3.69785E-5	 	18154.71591	60.26688	 
1140.0	1.0	0.0	7.84	7.4304	-6.59262	19.92036	29.0277	1.19273	0.83841	135.8629	159.05264	50.03667	0.35763	 	204872.7454	 	3.36659E-5	 	17858.39256	59.26467	 
1135.0	1.0	0.0	7.84521	7.42547	-6.65458	19.79764	28.76958	1.19917	0.83391	136.39292	158.8424	50.25944	0.35689	 	224391.0811	 	3.06288E-5	 	17566.82875	58.31276	 
1130.0	1.0	0.0	7.85031	7.42064	-6.7153	19.67806	28.52019	1.20536	0.82963	136.90369	158.63965	50.47441	0.35617	 	245938.5231	 	2.78461E-5	 	17279.78874	57.408	 
1125.0	1.0	0.0	7.85533	7.4159	-6.77485	19.56146	28.27905	1.21131	0.82555	137.39672	158.4445	50.68219	0.35547	 	269742.7404	 	2.52983E-5	 	16997.05211	56.54732	 
1120.0	1.0	0.0	7.86025	7.41125	-6.83327	19.44767	28.04573	1.21702	0.82168	137.8734	158.25699	50.8833	0.3548	 	296058.761	 	2.29671E-5	 	16718.41217	55.72799	 
1115.0	1.0	0.0	7.8651	7.40669	-6.89064	19.33656	27.81982	1.2225	0.818	138.335	158.07712	51.07823	0.35415	 	325172.4815	 	2.08358E-5	 	16443.67507	54.94742	 
1110.0	1.0	0.0	7.86986	7.40221	-6.94698	19.228	27.60091	1.22776	0.81449	138.78264	157.90484	51.26743	0.35352	 	357404.6646	 	1.88884E-5	 	16172.65863	54.20329	 
1105.0	1.0	0.0	7.87455	7.3978	-7.00236	19.12185	27.38866	1.2328	0.81116	139.21738	157.74008	51.45131	0.3529	 	393115.4576	 	1.71105E-5	 	15905.19189	53.49335	 
1100.0	1.0	0.0	7.87916	7.39347	-7.05681	19.018	27.1827	1.23763	0.80799	139.64016	157.58274	51.63022	0.35231	 	432709.5264	 	1.54885E-5	 	15641.11406	52.81557	 
1095.0	1.0	0.0	7.8837	7.38921	-7.11037	18.91633	26.98273	1.24226	0.80498	140.05186	157.43271	51.80453	0.35173	 	476641.9488	 	1.40097E-5	 	15380.27382	52.16805	 
1090.0	1.0	0.0	7.88818	7.38502	-7.16308	18.81674	26.78843	1.2467	0.80212	140.45328	157.28986	51.97455	0.35117	 	525424.8673	 	1.26625E-5	 	15122.52869	51.54902	 
1085.0	1.0	0.0	7.89259	7.38089	-7.21498	18.71913	26.59953	1.25095	0.79939	140.84517	157.15406	52.14057	0.35063	 	579635.1519	 	1.14361E-5	 	14867.74444	50.95685	 
1080.0	1.0	0.0	7.89694	7.37682	-7.2661	18.6234	26.41574	1.25502	0.7968	141.22822	157.02518	52.30286	0.3501	 	639923.053	 	1.03206E-5	 	14615.79454	50.38998	 
1075.0	1.0	0.0	7.90123	7.37282	-7.31648	18.52946	26.23682	1.25891	0.79434	141.60304	156.90307	52.46168	0.34959	 	707022.1639	 	9.30662E-6	 	14366.55934	49.84704	 
1070.0	1.0	0.0	7.90547	7.36886	-7.36614	18.43723	26.06253	1.26262	0.792	141.97024	156.78758	52.61726	0.34908	 	781760.7771	 	8.38566E-6	 	14119.92609	49.32665	 
1065.0	1.0	0.0	7.90965	7.36497	-7.41512	18.34662	25.89264	1.26618	0.78978	142.33036	156.67859	52.76982	0.3486	 	865074.9551	 	7.54984E-6	 	13875.78819	48.82758	 
1060.0	1.0	0.0	7.91378	7.36113	-7.46343	18.25757	25.72695	1.26957	0.78767	142.6839	156.57594	52.91956	0.34812	 	958023.3131	 	6.79187E-6	 	13634.0448	48.34868	 
1055.0	1.0	0.0	7.91786	7.35733	-7.51111	18.16999	25.56526	1.27281	0.78566	143.03134	156.4795	53.06667	0.34766	 	1061804.229	 	6.10505E-6	 	13394.6005	47.88886	 
1050.0	1.0	0.0	7.92189	7.35359	-7.55818	18.08382	25.40737	1.2759	0.78376	143.37313	156.38914	53.21134	0.3472	 	1177775.395	 	5.48319E-6	 	13157.36511	47.44708	 
1045.0	1.0	0.0	7.92588	7.34989	-7.60467	17.99899	25.25313	1.27884	0.78196	143.70966	156.30471	53.35372	0.34676	 	1307476.328	 	4.9206E-6	 	12922.25264	47.02249	 
1040.0	1.0	0.0	7.92982	7.34624	-7.65059	17.91545	25.10235	1.28164	0.78025	144.04134	156.22608	53.49397	0.34633	 	1452654.284	 	4.41203E-6	 	12689.182	46.61413	 
1035.0	1.0	0.0	7.93372	7.34263	-7.69597	17.83312	24.95488	1.2843	0.77863	144.36852	156.15314	53.63225	0.34591	 	1615294.118	 	3.95269E-6	 	12458.07633	46.22113	 
1030.0	1.0	0.0	7.93758	7.33906	-7.74082	17.75196	24.81058	1.28684	0.7771	144.69153	156.08575	53.76868	0.3455	 	1797652.491	 	3.53814E-6	 	12228.86244	45.84278	 
1025.0	1.0	0.0	7.94139	7.33553	-7.78517	17.67191	24.66931	1.28924	0.77565	145.01069	156.0238	53.90341	0.3451	 	2002297.633	 	3.16434E-6	 	12001.47098	45.47829	 
1020.0	1.0	0.0	7.94517	7.33204	-7.82903	17.59292	24.53094	1.29152	0.77428	145.32631	155.96717	54.03654	0.3447	 	2232154.845	 	2.82756E-6	 	11775.83555	45.12709	 
1016.0	1.0	0.0	7.94817	7.32928	-7.86379	17.53045	24.42224	1.29325	0.77324	145.57645	155.92562	54.14198	0.3444	 	2436426.755	 	2.58248E-6	 	11596.54425	 	 
1015.41	1.0	0.0	7.94875	7.32874	-7.87051	17.51509	24.40365	1.29364	0.77301	145.61423	155.9181	54.15796	0.34435	 	2468715.814	 	2.54753E-6	 	11567.38488	 	 
1015.0	1.0	0.0	7.94905	7.32846	-7.87403	17.50878	24.39271	1.29382	0.77291	145.63957	155.91413	54.16863	0.34432	 	2490924.313	 	2.52402E-6	 	11549.19797	45.32752	 
1010.0	1.0	0.0	7.95276	7.32505	-7.91695	17.4318	24.25978	1.29586	0.77169	145.94905	155.86813	54.29896	0.34394	 	2781765.876	 	2.25135E-6	 	11326.79892	44.47981	 
1005.0	1.0	0.0	7.95643	7.32167	-7.95943	17.35573	24.1294	1.29778	0.77055	146.25577	155.82711	54.42802	0.34357	 	3109320.203	 	2.00633E-6	 	11105.98348	44.16309	 
1000.0	1.0	0.0	7.96007	7.31832	-8.00149	17.28053	24.00147	1.29959	0.76947	146.55995	155.79095	54.55591	0.34321	 	3478559.936	 	1.78635E-6	 	10886.69725	43.85725	 
995.0	1.0	0.0	7.96367	7.31501	-8.04314	17.20616	23.87588	1.3013	0.76846	146.86182	155.75958	54.68272	0.34285	 	3895176.437	 	1.58902E-6	 	10668.88797	43.56186	 
990.0	1.0	0.0	7.96725	7.31173	-8.0844	17.13257	23.75255	1.3029	0.76752	147.16159	155.73288	54.80852	0.34251	 	4365690.084	 	1.41218E-6	 	10452.50581	43.27643	 
985.0	1.0	0.0	7.97079	7.30848	-8.12528	17.05973	23.63138	1.3044	0.76664	147.45944	155.71078	54.93342	0.34217	 	4897578.126	 	1.25383E-6	 	10237.5031	43.00054	 
980.0	1.0	0.0	7.97431	7.30525	-8.16578	16.98761	23.50971	1.30594	0.76573	147.75558	155.69319	55.05747	0.34183	 	5499423.982	 	1.11217E-6	 	10023.83444	42.73373	 
975.0	1.0	0.0	7.97779	7.30206	-8.20593	16.91617	23.39261	1.30724	0.76497	148.05017	155.68002	55.18076	0.3415	 	6181091.032	 	9.85572E-7	 	9811.45643	42.4756	 
970.0	1.0	0.0	7.98125	7.2989	-8.24572	16.84537	23.27743	1.30844	0.76427	148.34338	155.67119	55.30336	0.34118	 	6953925.24	 	8.7253E-7	 	9600.32757	42.22577	 
965.0	1.0	0.0	7.98469	7.29576	-8.28518	16.77518	23.16413	1.30955	0.76362	148.63536	155.66663	55.42532	0.34086	 	7830990.992	 	7.71691E-7	 	9390.40816	41.98388	 
960.0	1.0	0.0	7.9881	7.29264	-8.32431	16.70558	23.05262	1.31057	0.76302	148.92628	155.66625	55.54672	0.34055	 	8827348.177	 	6.81824E-7	 	9181.66022	41.74959	 
955.0	1.0	0.0	7.99148	7.28956	-8.36313	16.63653	22.94284	1.31151	0.76248	149.21627	155.67	55.66762	0.34024	 	9960375.472	 	6.01814E-7	 	8974.04741	41.52256	 
950.0	1.0	0.0	7.99484	7.28649	-8.40164	16.56801	22.83474	1.31235	0.76199	149.50546	155.67779	55.78806	0.33994	 	1.125014745E7	 	5.3065E-7	 	8767.53477	41.30253	 
945.0	1.0	0.0	7.99818	7.28345	-8.43984	16.49998	22.72825	1.31311	0.76155	149.79399	155.68957	55.90811	0.33964	 	1.271988029E7	 	4.67417E-7	 	8562.08893	41.08917	 
940.0	1.0	0.0	8.00149	7.28044	-8.47776	16.43242	22.62333	1.31378	0.76116	150.08197	155.70526	56.02781	0.33935	 	1.439645186E7	 	4.11288E-7	 	8357.67783	40.88222	 
935.0	1.0	0.0	8.00478	7.27744	-8.51539	16.3653	22.51992	1.31438	0.76082	150.36952	155.72481	56.14721	0.33906	 	1.631101467E7	 	3.61515E-7	 	8154.2707	40.68143	 
930.0	1.0	0.0	8.00805	7.27447	-8.55274	16.2986	22.41796	1.31489	0.76052	150.65676	155.74815	56.26637	0.33878	 	1.849971544E7	 	3.17425E-7	 	7951.8381	40.48652	 
925.0	1.0	0.0	8.0113	7.27152	-8.58983	16.23229	22.31743	1.31533	0.76027	150.94378	155.77524	56.38531	0.3385	 	2.100454592E7	 	2.7841E-7	 	7750.35143	40.29733	 
920.0	1.0	0.0	8.01453	7.26859	-8.62666	16.16635	22.21827	1.31568	0.76006	151.23069	155.80601	56.5041	0.33823	 	2.3874341E7	 	2.43922E-7	 	7549.7836	40.11357	 
915.0	1.0	0.0	8.01774	7.26568	-8.66323	16.10076	22.12043	1.31596	0.7599	151.51759	155.84041	56.62276	0.33796	 	2.716596336E7	 	2.13468E-7	 	7350.10815	39.93509	 
910.0	1.0	0.0	8.02093	7.26279	-8.69956	16.03549	22.02388	1.31617	0.75978	151.80456	155.87839	56.74134	0.33769	 	3.094570259E7	 	1.86606E-7	 	7151.29991	39.76165	 
905.0	1.0	0.0	8.0241	7.25992	-8.73564	15.97052	21.92859	1.3163	0.7597	152.09169	155.9199	56.85988	0.33743	 	3.52909253E7	 	1.62939E-7	 	6953.33454	39.59307	 
900.0	1.0	0.0	8.02725	7.25707	-8.77149	15.90583	21.83451	1.31636	0.75967	152.37907	155.96489	56.9784	0.33717	 	4.029204129E7	 	1.42109E-7	 	6756.18872	39.42917	 
895.0	1.0	0.0	8.03039	7.25424	-8.80711	15.84139	21.74161	1.31635	0.75967	152.66677	156.01332	57.09694	0.33691	 	4.605482788E7	 	1.23797E-7	 	6559.83962	39.26982	 
890.0	1.0	0.0	8.03351	7.25142	-8.84251	15.7772	21.64986	1.31628	0.75972	152.95487	156.06515	57.21554	0.33665	 	5.270319946E7	 	1.07717E-7	 	6364.26556	39.11481	 
885.0	1.0	0.0	8.03661	7.24862	-8.87769	15.71322	21.55923	1.31613	0.75981	153.24345	156.12032	57.33423	0.3364	 	6.03824927E7	 	9.36139E-8	 	6169.4455	38.96401	 
880.0	1.0	0.0	8.03969	7.24584	-8.91265	15.64945	21.46968	1.31591	0.75993	153.53257	156.17881	57.45303	0.33616	 	6.926339657E7	 	8.12585E-8	 	5975.35908	38.81728	 
875.0	1.0	0.0	8.04276	7.24308	-8.94741	15.58585	21.38119	1.31563	0.76009	153.82231	156.24056	57.57198	0.33591	 	7.954662341E7	 	7.04472E-8	 	5781.98643	38.67453	 
870.0	1.0	0.0	8.04581	7.24033	-8.98197	15.52241	21.29373	1.31528	0.7603	154.11271	156.30555	57.6911	0.33567	 	9.146849529E7	 	6.09984E-8	 	5589.30897	38.53549	 
865.0	1.0	0.0	8.04885	7.2376	-9.01633	15.45912	21.20728	1.31486	0.76054	154.40386	156.37373	57.81041	0.33543	 	1.053076372E8	 	5.27505E-8	 	5397.30838	38.40012	 
860.0	1.0	0.0	8.05188	7.23488	-9.05049	15.39595	21.12181	1.31438	0.76081	154.69579	156.44508	57.92995	0.3352	 	1.213929702E8	 	4.55597E-8	 	5205.96694	38.26829	 
855.0	1.0	0.0	8.05489	7.23217	-9.08446	15.33289	21.03729	1.31384	0.76113	154.98858	156.51955	58.04974	0.33496	 	1.401133304E8	 	3.92983E-8	 	5015.26748	38.13989	 
850.0	1.0	0.0	8.05788	7.22949	-9.11825	15.26992	20.95371	1.31324	0.76148	155.28227	156.59711	58.1698	0.33473	 	1.619289887E8	 	3.38532E-8	 	4825.19339	38.01482	 
845.0	1.0	0.0	8.06013	7.22747	-9.14358	15.24549	20.89141	1.31129	0.76261	155.61288	156.79485	58.29989	0.33459	 	1.838015381E8	 	2.96919E-8	 	4666.09199	31.82028	 
840.0	1.0	0.0	8.06237	7.22546	-9.16883	15.22105	20.8291	1.30933	0.76375	155.94294	156.99176	58.42981	0.33445	 	2.08866117E8	 	2.60119E-8	 	4503.95057	32.42828	 
835.0	1.0	0.0	8.0646	7.22346	-9.19403	15.19661	20.76677	1.30736	0.7649	156.27246	157.18785	58.55954	0.3343	 	2.376226579E8	 	2.27613E-8	 	4342.01744	32.38663	 
830.0	1.0	0.0	8.06684	7.22146	-9.21916	15.17216	20.70444	1.30538	0.76606	156.60143	157.38312	58.6891	0.33416	 	2.706546687E8	 	1.98933E-8	 	4180.2918	32.34513	 
825.0	1.0	0.0	8.06907	7.21947	-9.24423	15.14771	20.64209	1.30339	0.76723	156.92986	157.57758	58.81848	0.33402	 	3.086440792E8	 	1.73656E-8	 	4018.77284	32.30379	 
820.0	1.0	0.0	8.07129	7.21748	-9.26923	15.12326	20.57973	1.30139	0.76841	157.25774	157.77122	58.94767	0.33388	 	3.523888793E8	 	1.51406E-8	 	3857.45971	32.26263	 
815.0	1.0	0.0	8.07351	7.21549	-9.29418	15.0988	20.51736	1.29937	0.7696	157.58508	157.96405	59.07669	0.33373	 	4.028241033E8	 	1.31844E-8	 	3696.35151	32.22164	 
810.0	1.0	0.0	8.07572	7.21351	-9.31905	15.07434	20.45498	1.29735	0.7708	157.91188	158.15607	59.20553	0.33359	 	4.610468294E8	 	1.14665E-8	 	3535.44733	32.18084	 
805.0	1.0	0.0	8.07793	7.21154	-9.34387	15.04988	20.39258	1.29531	0.77202	158.23813	158.34728	59.33419	0.33345	 	5.283460057E8	 	9.95973E-9	 	3374.74622	32.14022	 
800.0	1.0	0.0	8.08014	7.20957	-9.36862	15.02541	20.33017	1.29326	0.77324	158.56384	158.53768	59.46267	0.33331	 	6.062380854E8	 	8.6398E-9	 	3214.24718	32.09981	 
795.0	1.0	0.0	8.08234	7.20761	-9.39331	15.00094	20.26775	1.2912	0.77447	158.88901	158.72728	59.59097	0.33316	 	6.965096638E8	 	7.485E-9	 	3053.94917	32.0596	 
790.0	1.0	0.0	8.08454	7.20565	-9.41793	14.97646	20.20532	1.28912	0.77572	159.21363	158.91609	59.71909	0.33302	 	8.012685704E8	 	6.47594E-9	 	2893.85112	32.01961	 
785.0	1.0	0.0	8.08673	7.20369	-9.44249	14.95198	20.14287	1.28704	0.77698	159.5377	159.10409	59.84703	0.33288	 	9.230051808E8	 	5.59538E-9	 	2733.9519	31.97984	 
780.0	1.0	0.0	8.08892	7.20175	-9.46699	14.9275	20.08041	1.28494	0.77824	159.86123	159.29129	59.97479	0.33274	 	1.064666109E9	 	4.82796E-9	 	2574.25034	31.94031	 
775.0	1.0	0.0	8.0911	7.1998	-9.49142	14.90302	20.01794	1.28283	0.77952	160.18422	159.47771	60.10237	0.33259	 	1.22974291E9	 	4.16002E-9	 	2414.74519	31.90103	 
770.0	1.0	0.0	8.09328	7.19786	-9.51579	14.87853	19.95545	1.28071	0.78082	160.50666	159.66333	60.22976	0.33245	 	1.422379025E9	 	3.57947E-9	 	2255.43518	31.862	 
765.0	1.0	0.0	8.09546	7.19593	-9.5401	14.85403	19.89295	1.27858	0.78212	160.82856	159.84816	60.35698	0.33231	 	1.647498911E9	 	3.07554E-9	 	2096.31898	31.82324	 
760.0	1.0	0.0	8.09763	7.194	-9.56434	14.82954	19.83043	1.27643	0.78343	161.14992	160.0322	60.48402	0.33217	 	1.910964225E9	 	2.63875E-9	 	1937.39516	31.78476	 
755.0	1.0	0.0	8.09979	7.19208	-9.58852	14.80504	19.7679	1.27427	0.78476	161.47073	160.21546	60.61088	0.33203	 	2.219763019E9	 	2.26067E-9	 	1778.66223	31.74658	 
750.0	1.0	0.0	8.10195	7.19016	-9.61263	14.78053	19.70536	1.2721	0.7861	161.79099	160.39793	60.73756	0.33189	 	2.58223931E9	 	1.93388E-9	 	1620.11868	31.70871	 
745.0	1.0	0.0	8.10411	7.18825	-9.63668	14.75602	19.6428	1.26991	0.78745	162.11071	160.57963	60.86406	0.33174	 	3.008372105E9	 	1.65184E-9	 	1461.76284	31.67117	 
740.0	1.0	0.0	8.10626	7.18634	-9.66067	14.73151	19.58022	1.26772	0.78882	162.42989	160.76054	60.99037	0.3316	 	3.51011511E9	 	1.40877E-9	 	1303.59304	31.63396	 
735.0	1.0	0.0	8.10841	7.18444	-9.6846	14.707	19.51763	1.26551	0.7902	162.74852	160.94068	61.11651	0.33146	 	4.101811016E9	 	1.1996E-9	 	1145.60745	31.59712	 
730.0	1.0	0.0	8.11055	7.18254	-9.70846	14.68248	19.45502	1.26328	0.79159	163.06661	161.12005	61.24247	0.33132	 	4.80069764E9	 	1.01988E-9	 	987.80421	31.56065	 
725.0	1.0	0.0	8.11269	7.18064	-9.73225	14.65796	19.3924	1.26104	0.79299	163.38416	161.29864	61.36824	0.33118	 	5.627527346E9	 	8.65695E-10	 	830.1813	31.52458	 
720.0	1.0	0.0	8.11482	7.17876	-9.75598	14.63343	19.32976	1.25879	0.79441	163.70115	161.47646	61.49383	0.33104	 	6.607326484E9	 	7.33628E-10	 	672.73664	31.48893	 
715.0	1.0	0.0	8.11695	7.17687	-9.77965	14.6089	19.26711	1.25653	0.79584	164.01761	161.65351	61.61925	0.3309	 	7.770328164E9	 	6.20684E-10	 	515.46802	31.45372	 
710.0	1.0	0.0	8.11908	7.175	-9.80326	14.58437	19.20444	1.25425	0.79729	164.33352	161.8298	61.74448	0.33075	 	9.153120052E9	 	5.24249E-10	 	358.37311	31.41898	 
705.0	1.0	0.0	8.1212	7.17312	-9.8268	14.55983	19.14175	1.25196	0.79875	164.64889	162.00533	61.86953	0.33061	 	1.08001E10	 	4.42045E-10	 	201.44944	31.38473	 
700.0	1.0	0.0	8.12331	7.17126	-9.85028	14.53529	19.07904	1.24965	0.80022	164.96371	162.18009	61.9944	0.33047	 	1.2764999999999998E10	 	3.72087E-10	 	44.69443	31.351	 
695.0	1.0	0.0	8.12542	7.16939	-9.87369	14.51075	19.01632	1.24733	0.80171	165.27799	162.3541	62.11909	0.33033	 	1.5113599999999998E10	 	3.12653E-10	 	-111.8947	31.31783	 
690.0	1.0	0.0	8.12753	7.16754	-9.89704	14.4862	18.95357	1.245	0.80321	165.59172	162.52734	62.24359	0.33019	 	1.79256E10	 	2.62245E-10	 	-268.32084	31.28523	 
685.0	1.0	0.0	8.12963	7.16568	-9.92033	14.46165	18.89081	1.24265	0.80473	165.90491	162.69983	62.36792	0.33005	 	2.12987E10	 	2.19567E-10	 	-424.58706	31.25324	 
680.0	1.0	0.0	8.13172	7.16384	-9.94355	14.43709	18.82804	1.24029	0.80626	166.21755	162.87157	62.49206	0.32991	 	2.5352399999999996E10	 	1.83497E-10	 	-580.69662	31.22191	 
675.0	1.0	0.0	8.13382	7.16199	-9.96671	14.41253	18.76524	1.23791	0.80781	166.52965	163.04256	62.61602	0.32977	 	3.0233099999999996E10	 	1.53067E-10	 	-736.65296	31.19127	 
670.0	1.0	0.0	8.1359	7.16016	-9.9898	14.38797	18.70242	1.23552	0.80938	166.84121	163.21279	62.7398	0.32963	 	3.61208E10	 	1.27441E-10	 	-892.45977	31.16136	 
665.0	1.0	0.0	8.13798	7.15832	-10.01283	14.3634	18.63958	1.23311	0.81096	167.15222	163.38228	62.8634	0.32949	 	4.3237E10	 	1.05902E-10	 	-1048.12091	31.13223	 
660.0	1.0	0.0	8.14006	7.1565	-10.0358	14.33883	18.57673	1.23069	0.81255	167.46268	163.55103	62.98681	0.32935	 	5.185509999999999E10	 	8.78308E-11	 	-1203.62958	31.10173	 
655.0	1.0	0.0	8.14214	7.15468	-10.0587	14.31426	18.51385	1.22825	0.81417	167.7726	163.71903	63.11005	0.32921	 	6.231269999999999E10	 	7.26989E-11	 	-1358.92508	31.0591	 
650.0	1.0	0.0	8.1442	7.15286	-10.08154	14.28968	18.45095	1.2258	0.81579	168.08198	163.88629	63.2331	0.32907	 	7.50286E10	 	6.00527E-11	 	-1513.92687	31.00036	 
645.0	1.0	0.0	8.14627	7.15105	-10.10431	14.2651	18.38803	1.22333	0.81744	168.39081	164.05281	63.35597	0.32893	 	9.05222E10	 	4.95046E-11	 	-1668.63621	30.94187	 
640.0	1.0	0.0	8.14832	7.14924	-10.12702	14.24052	18.32509	1.22085	0.8191	168.6991	164.2186	63.47865	0.32879	 	1.0944E11	 	4.07242E-11	 	-1823.05438	30.88363	 
635.0	1.0	0.0	8.15038	7.14744	-10.14967	14.21593	18.26213	1.21835	0.82078	169.00684	164.38365	63.60116	0.32865	 	1.32588E11	 	3.34302E-11	 	-1977.18264	30.82565	 
630.0	1.0	0.0	8.15243	7.14564	-10.17225	14.19134	18.19915	1.21584	0.82248	169.31404	164.54797	63.72348	0.32851	 	1.60974E11	 	2.73836E-11	 	-2131.02226	30.76792	 
625.0	1.0	0.0	8.15447	7.14385	-10.19477	14.16674	18.13614	1.21331	0.82419	169.62069	164.71155	63.84562	0.32837	 	1.9586E11	 	2.23815E-11	 	-2284.5747	30.71049	 
620.0	1.0	0.0	8.15651	7.14207	-10.21722	14.14214	18.07311	1.21076	0.82593	169.9268	164.87441	63.96757	0.32823	 	2.3883E11	 	1.82525E-11	 	-2437.84165	30.65339	 
615.0	1.0	0.0	8.15855	7.14028	-10.23962	14.11754	18.01006	1.2082	0.82768	170.23236	165.03654	64.08935	0.32809	 	2.91878E11	 	1.48515E-11	 	-2590.82415	30.5965	 
610.0	1.0	0.0	8.16058	7.13851	-10.26194	14.09293	17.94698	1.20562	0.82945	170.53738	165.19794	64.21094	0.32795	 	3.57521E11	 	1.20565E-11	 	-2743.52347	30.53986	 
605.0	1.0	0.0	8.1626	7.13674	-10.2842	14.06832	17.88388	1.20302	0.83124	170.84185	165.35862	64.33235	0.32781	 	4.38939E11	 	9.76453E-12	 	-2895.94082	30.48347	 
600.0	1.0	0.0	8.16462	7.13497	-10.3064	14.04371	17.82075	1.20041	0.83305	171.14578	165.51858	64.45357	0.32767	 	5.40166E11	 	7.88948E-12	 	-3048.07746	30.42733	 
595.0	1.0	0.0	8.16664	7.13321	-10.32854	14.01909	17.7576	1.19778	0.83488	171.44916	165.67782	64.57462	0.32753	 	6.66329E11	 	6.35906E-12	 	-3199.93466	30.37144	 
590.0	1.0	0.0	8.16865	7.13146	-10.35061	13.99447	17.69442	1.19513	0.83673	171.752	165.83634	64.69547	0.32739	 	8.2396E11	 	5.1129E-12	 	-3351.51363	30.31579	 
585.0	1.0	0.0	8.17065	7.1297	-10.37261	13.96984	17.63122	1.19247	0.8386	172.05429	165.99414	64.81615	0.32725	 	1.02141E12	 	4.10064E-12	 	-3502.8156	30.2604	 
580.0	1.0	0.0	8.17265	7.12796	-10.39455	13.94522	17.56799	1.18979	0.84049	172.35604	166.15124	64.93664	0.32711	 	1.26936E12	 	3.28041E-12	 	-3653.84185	30.20525	 
575.0	1.0	0.0	8.17465	7.12622	-10.41643	13.92058	17.50474	1.18709	0.8424	172.65724	166.30762	65.05695	0.32697	 	1.58155E12	 	2.61744E-12	 	-3804.59359	30.15035	 
570.0	1.0	0.0	8.17664	7.12448	-10.43824	13.89595	17.44145	1.18437	0.84433	172.9579	166.46329	65.17708	0.32683	 	1.97566E12	 	2.08295E-12	 	-3955.07205	30.09569	 
565.0	1.0	0.0	8.17863	7.12275	-10.45999	13.87131	17.37814	1.18164	0.84628	173.25801	166.61825	65.29702	0.32669	 	2.47455E12	 	1.65315E-12	 	-4105.27845	30.04128	 
560.0	1.0	0.0	8.18061	7.12103	-10.48168	13.84667	17.3148	1.17889	0.84826	173.55758	166.7725	65.41678	0.32655	 	3.10781E12	 	1.30844E-12	 	-4255.21405	29.98712	 
555.0	1.0	0.0	8.18258	7.11931	-10.5033	13.82202	17.25143	1.17612	0.85026	173.8566	166.92605	65.53635	0.32641	 	3.91388E12	 	1.03273E-12	 	-4404.88005	29.9332	 
550.0	1.0	0.0	8.18455	7.11759	-10.52485	13.79737	17.18803	1.17333	0.85228	174.15508	167.0789	65.65574	0.32627	 	4.94284E12	 	8.1281E-13	 	-4554.27766	29.87952	 
545.0	1.0	0.0	8.18652	7.11588	-10.54635	13.77271	17.1246	1.17052	0.85432	174.45301	167.23105	65.77495	0.32614	 	6.26015E12	 	6.37874E-13	 	-4703.40812	29.82609	 
540.0	1.0	0.0	8.18848	7.11418	-10.56777	13.74806	17.06114	1.16769	0.85639	174.7504	167.3825	65.89397	0.326	 	7.95161E12	 	4.99117E-13	 	-4852.27265	29.77291	 
535.0	1.0	0.0	8.19044	7.11248	-10.58914	13.7234	16.99764	1.16485	0.85848	175.04724	167.53325	66.01281	0.32586	 	1.013E13	 	3.89375E-13	 	-5000.87244	29.71996	 
530.0	1.0	0.0	8.19239	7.11079	-10.61044	13.69873	16.93412	1.16198	0.8606	175.34354	167.6833	66.13146	0.32572	 	1.29442E13	 	3.02837E-13	 	-5149.20872	29.66726	 
525.0	1.0	0.0	8.19434	7.1091	-10.63167	13.67406	16.87056	1.1591	0.86274	175.63929	167.83266	66.24993	0.32558	 	1.6591E13	 	2.348E-13	 	-5297.28269	29.61479	 
520.0	1.0	0.0	8.19628	7.10741	-10.65284	13.64939	16.80697	1.1562	0.8649	175.93449	167.98133	66.36821	0.32544	 	2.1332E13	 	1.81472E-13	 	-5445.09553	29.56257	 
515.0	1.0	0.0	8.19822	7.10573	-10.67395	13.62471	16.74335	1.15327	0.8671	176.22915	168.12931	66.48632	0.3253	 	2.75153E13	 	1.39805E-13	 	-5592.64847	29.51059	 
510.0	1.0	0.0	8.20015	7.10406	-10.69499	13.60003	16.67969	1.15033	0.86931	176.52327	168.27661	66.60423	0.32517	 	3.56064E13	 	1.0735E-13	 	-5739.94268	29.45884	 
505.0	1.0	0.0	8.20207	7.10239	-10.71597	13.57535	16.61599	1.14737	0.87156	176.81684	168.42321	66.72196	0.32503	 	4.62297E13	 	8.2154E-14	 	-5886.97938	29.40734	 
500.0	1.0	0.0	8.204	7.10073	-10.73688	13.55066	16.55226	1.14439	0.87383	177.10986	168.56913	66.83951	0.32489	 	6.02255E13	 	6.2657E-14	 	-6033.75973	29.35607	 
495.0	1.0	0.0	8.20591	7.09907	-10.75773	13.52597	16.48849	1.14138	0.87613	177.40234	168.71437	66.95687	0.32475	 	7.87291E13	 	4.76209E-14	 	-6180.28494	29.30504	 
490.0	1.0	0.0	8.20782	7.09742	-10.77851	13.50128	16.42468	1.13836	0.87846	177.69427	168.85893	67.07405	0.32461	 	1.0328E14	 	3.60646E-14	 	-6326.55616	29.25424	 
485.0	1.0	0.0	8.20973	7.09577	-10.79923	13.47658	16.36084	1.13531	0.88081	177.98566	169.0028	67.19104	0.32447	 	1.3597199999999998E14	 	2.7214E-14	 	-6472.5746	29.20369	 
480.0	1.0	0.0	8.21163	7.09412	-10.81989	13.45188	16.29695	1.13225	0.8832	178.2765	169.146	67.30785	0.32434	 	1.79667E14	 	2.04597E-14	 	-6618.3414	29.15336	 
475.0	1.0	0.0	8.21353	7.09249	-10.84048	13.42718	16.23303	1.12916	0.88561	178.56679	169.28853	67.42447	0.3242	 	2.38291E14	 	1.53239E-14	 	-6763.85773	29.10327	 
470.0	1.0	0.0	8.21542	7.09085	-10.86101	13.40247	16.16906	1.12605	0.88806	178.85654	169.43037	67.5409	0.32406	 	3.17245E14	 	1.14332E-14	 	-6909.12477	29.05341	 
465.0	1.0	0.0	8.21731	7.08923	-10.88147	13.37775	16.10505	1.12292	0.89054	179.14575	169.57155	67.65716	0.32392	 	4.24001E14	 	8.49698E-15	 	-7054.14368	29.00378	 
460.0	1.0	0.0	8.21919	7.0876	-10.90186	13.35304	16.041	1.11977	0.89304	179.43441	169.71206	67.77322	0.32379	 	5.68927E14	 	6.2896E-15	 	-7198.91558	28.95438	 
455.0	1.0	0.0	8.22106	7.08599	-10.9222	13.32832	15.97691	1.11659	0.89558	179.72252	169.85189	67.8891	0.32365	 	7.66479E14	 	4.63668E-15	 	-7343.44165	28.90521	 
450.0	1.0	0.0	8.22293	7.08437	-10.94247	13.30359	15.91277	1.11339	0.89816	180.01008	169.99106	68.00479	0.32351	 	1.03689E15	 	3.40393E-15	 	-7487.72302	28.85627	 
445.0	1.0	0.0	8.2248	7.08277	-10.96267	13.27887	15.84858	1.11017	0.90076	180.2971	170.12957	68.1203	0.32337	 	1.40862E15	 	2.48832E-15	 	-7631.76083	28.80756	 
440.0	1.0	0.0	8.22666	7.08116	-10.98281	13.25414	15.78435	1.10693	0.9034	180.58358	170.2674	68.23563	0.32324	 	1.92186E15	 	1.81111E-15	 	-7775.5562	28.75907	 
435.0	1.0	0.0	8.22852	7.07957	-11.00288	13.2294	15.72007	1.10366	0.90607	180.86951	170.40458	68.35076	0.3231	 	2.63362E15	 	1.31238E-15	 	-7919.11026	28.71081	 
430.0	1.0	0.0	8.23037	7.07798	-11.02289	13.20466	15.65575	1.10037	0.90878	181.15489	170.5411	68.46571	0.32296	 	3.6252E15	 	9.46679E-16	 	-8062.42413	28.66277	 
425.0	1.0	0.0	8.23221	7.07639	-11.04284	13.17992	15.59137	1.09706	0.91153	181.43973	170.67695	68.58048	0.32282	 	5.013E15	 	6.79732E-16	 	-8205.49878	28.61493	 
420.0	1.0	0.0	8.23405	7.07481	-11.06272	13.15518	15.52694	1.09372	0.91431	181.72402	170.81215	68.69506	0.32269	 	6.96458E15	 	4.85757E-16	 	-8348.33555	28.56735	 
415.0	1.0	0.0	8.23589	7.07323	-11.08254	13.13043	15.46246	1.09036	0.91713	182.00776	170.9467	68.80945	0.32255	 	9.72224E15	 	3.45464E-16	 	-8490.93487	28.51987	 
410.0	1.0	0.0	8.23772	7.07166	-11.10229	13.10568	15.39793	1.08698	0.91998	182.29096	171.08059	68.92365	0.32241	 	1.36383E16	 	2.4448E-16	 	-8633.29698	28.47242	 
405.0	1.0	0.0	8.23954	7.07009	-11.12197	13.08092	15.33334	1.08357	0.92288	182.57361	171.21382	69.03767	0.32228	 	1.92273E16	 	1.72145E-16	 	-8775.42204	28.42501	 
400.0	1.0	0.0	8.24136	7.06853	-11.1416	13.05616	15.26869	1.08013	0.92581	182.85571	171.34641	69.1515	0.32214	 	2.72455E16	 	1.20588E-16	 	-8917.31023	28.37764	 
395.0	1.0	0.0	8.24318	7.06698	-11.16115	13.0314	15.20399	1.07667	0.92879	183.13727	171.47835	69.26515	0.322	 	3.88093E16	 	8.40281E-17	 	-9058.96174	28.3303	 
390.0	1.0	0.0	8.24498	7.06543	-11.18065	13.00663	15.13923	1.07318	0.93181	183.41829	171.60964	69.37861	0.32186	 	5.55769E16	 	5.82377E-17	 	-9200.37671	28.28299	 
385.0	1.0	0.0	8.24679	7.06388	-11.20007	12.98186	15.07441	1.06967	0.93487	183.69875	171.74028	69.49188	0.32173	 	8.00244E16	 	4.01411E-17	 	-9341.55531	28.23572	 
380.0	1.0	0.0	8.24859	7.06234	-11.21944	12.95708	15.00953	1.06613	0.93797	183.97867	171.87028	69.60497	0.32159	 	1.15871E17	 	2.75122E-17	 	-9482.49769	28.18848	 
375.0	1.0	0.0	8.25038	7.06081	-11.23874	12.9323	14.94459	1.06257	0.94111	184.25804	171.99963	69.71787	0.32146	 	1.68736E17	 	1.8748E-17	 	-9623.20399	28.14126	 
370.0	1.0	0.0	8.25217	7.05928	-11.25797	12.90752	14.87958	1.05898	0.94431	184.53687	172.12835	69.83058	0.32132	 	2.47159E17	 	1.27005E-17	 	-9763.67433	28.09407	 
365.0	1.0	0.0	8.25395	7.05775	-11.27714	12.88274	14.81451	1.05536	0.94754	184.81515	172.25642	69.9431	0.32118	 	3.64204E17	 	8.55194E-18	 	-9903.90883	28.0469	 
360.0	1.0	0.0	8.25573	7.05623	-11.29624	12.85795	14.74937	1.05172	0.95083	185.09288	172.38386	70.05544	0.32105	 	5.39973E17	 	5.72297E-18	 	-10043.9076	27.99976	 
355.0	1.0	0.0	8.2575	7.05472	-11.31528	12.83315	14.68416	1.04805	0.95416	185.37007	172.51066	70.16759	0.32091	 	8.05604E17	 	3.80565E-18	 	-10183.67075	27.95263	 
350.0	1.0	0.0	8.25927	7.05321	-11.33426	12.80836	14.61888	1.04435	0.95754	185.64671	172.63682	70.27955	0.32077	 	1.20965E18	 	2.51432E-18	 	-10323.19836	27.90552	 
345.0	1.0	0.0	8.26103	7.0517	-11.35317	12.78356	14.55353	1.04062	0.96097	185.9228	172.76236	70.39132	0.32064	 	1.82833E18	 	1.65016E-18	 	-10462.49049	27.85843	 
340.0	1.0	0.0	8.26279	7.0502	-11.37201	12.75875	14.4881	1.03686	0.96445	186.19835	172.88725	70.50291	0.3205	 	2.7821E18	 	1.07567E-18	 	-10601.54725	27.81135	 
335.0	1.0	0.0	8.26454	7.04871	-11.39079	12.73395	14.42259	1.03308	0.96798	186.47335	173.01152	70.61431	0.32037	 	4.26276E18	 	6.96316E-19	 	-10740.36864	27.76428	 
330.0	1.0	0.0	8.26628	7.04722	-11.40951	12.70914	14.35701	1.02927	0.97157	186.7478	173.13516	70.72552	0.32023	 	6.57781E18	 	4.47539E-19	 	-10878.95473	27.71722	 
325.0	1.0	0.0	8.26803	7.04574	-11.42816	12.68432	14.29135	1.02542	0.97521	187.02171	173.25818	70.83654	0.32009	 	1.0224E19	 	2.85546E-19	 	-11017.30555	27.67016	 
320.0	1.0	0.0	8.26976	7.04426	-11.44674	12.6595	14.22561	1.02155	0.9789	187.29507	173.38056	70.94738	0.31996	 	1.60099E19	 	1.80826E-19	 	-11155.4211	27.62311	 
315.0	1.0	0.0	8.27149	7.04279	-11.46526	12.63468	14.15978	1.01765	0.98266	187.56788	173.50232	71.05802	0.31982	 	2.52621E19	 	1.13633E-19	 	-11293.30137	27.57606	 
310.0	1.0	0.0	8.27321	7.04132	-11.48372	12.60985	14.09386	1.01372	0.98647	187.84014	173.62346	71.16848	0.31969	 	4.01742E19	 	7.08467E-20	 	-11430.94637	27.529	 
305.0	1.0	0.0	8.27493	7.03986	-11.50211	12.58503	14.02785	1.00975	0.99034	188.11186	173.74398	71.27875	0.31955	 	6.44035E19	 	4.38145E-20	 	-11568.35605	27.48194	 
300.0	1.0	0.0	8.27665	7.0384	-11.52044	12.56019	13.96176	1.00576	0.99427	188.38303	173.86388	71.38884	0.31942	 	1.04099E20	 	2.68725E-20	 	-11705.53036	27.43486	 
295.0	1.0	0.0	8.27836	7.03694	-11.5387	12.53536	13.89556	1.00174	0.99827	188.65365	173.98316	71.49873	0.31928	 	1.6969E20	 	1.63416E-20	 	-11842.46925	27.38778	 
290.0	1.0	0.0	8.28006	7.0355	-11.55689	12.51051	13.82928	0.99768	1.00233	188.92373	174.10182	71.60843	0.31914	 	2.7901799999999997E20	 	9.85095E-21	 	-11979.17261	27.34067	 
285.0	1.0	0.0	8.28176	7.03406	-11.57502	12.48567	13.76289	0.99359	1.00645	189.19326	174.21987	71.71795	0.31901	 	4.6289099999999997E20	 	5.88516E-21	 	-12115.64037	27.29355	 
280.0	1.0	0.0	8.28345	7.03262	-11.59309	12.46082	13.6964	0.98947	1.01064	189.46224	174.3373	71.82728	0.31887	 	7.74997E20	 	3.48361E-21	 	-12251.87237	27.2464	 
275.0	1.0	0.0	8.28514	7.03119	-11.61109	12.43597	13.6298	0.98532	1.0149	189.73067	174.45412	71.93642	0.31874	 	1.3098E21	 	2.0426E-21	 	-12387.86851	27.19923	 
270.0	1.0	0.0	8.28682	7.02976	-11.62902	12.41112	13.5631	0.98113	1.01923	189.99856	174.57033	72.04537	0.3186	 	2.2351400000000001E21	 	1.18605E-21	 	-12523.62859	27.15202	 
265.0	1.0	0.0	8.28849	7.02834	-11.64689	12.38626	13.49628	0.97691	1.02363	190.2659	174.68593	72.15413	0.31847	 	3.8522700000000003E21	 	6.81826E-22	 	-12659.15246	27.10477	 
260.0	1.0	0.0	8.29017	7.02692	-11.6647	12.3614	13.42936	0.97266	1.02811	190.53269	174.80093	72.2627	0.31833	 	6.70755E21	 	3.87947E-22	 	-12794.43988	27.05748	 
255.0	1.0	0.0	8.29183	7.02551	-11.68244	12.33653	13.36231	0.96837	1.03266	190.79894	174.91531	72.37108	0.3182	 	1.1802399999999999E22	 	2.1841E-22	 	-12929.49063	27.01015	 
250.0	1.0	0.0	8.29349	7.0241	-11.70011	12.31166	13.29514	0.96405	1.03729	191.06463	175.02909	72.47927	0.31806	 	2.09928E22	 	1.21631E-22	 	-13064.30446	26.96277	 
245.0	1.0	0.0	8.29514	7.0227	-11.71772	12.28679	13.22784	0.95969	1.042	191.32978	175.14227	72.58728	0.31793	 	3.7756699999999996E22	 	6.69804E-23	 	-13198.88106	26.91532	 
240.0	1.0	0.0	8.29679	7.02131	-11.73527	12.26191	13.16042	0.9553	1.04679	191.59438	175.25484	72.69509	0.31779	 	6.8689E22	 	3.64623E-23	 	-13333.22014	26.86781	 
235.0	1.0	0.0	8.29844	7.01992	-11.75275	12.23703	13.09286	0.95087	1.05166	191.85843	175.36681	72.80271	0.31766	 	1.2644299999999999E23	 	1.96148E-23	 	-13467.32134	26.82024	 
230.0	1.0	0.0	8.30007	7.01853	-11.77016	12.21215	13.02517	0.94641	1.05662	192.12194	175.47819	72.91015	0.31753	 	2.3559699999999998E23	 	1.04235E-23	 	-13601.1843	26.77259	 
225.0	1.0	0.0	8.30171	7.01715	-11.78751	12.18726	12.95734	0.94191	1.06167	192.3849	175.58896	73.01739	0.31739	 	4.4449699999999996E23	 	5.46988E-24	 	-13734.80862	26.72486	 
220.0	1.0	0.0	8.30333	7.01578	-11.8048	12.16237	12.88936	0.93738	1.06681	192.6473	175.69914	73.12445	0.31726	 	8.494919999999999E23	 	2.83339E-24	 	-13868.19384	26.67704	 
215.0	1.0	0.0	8.30496	7.01441	-11.82202	12.13747	12.82122	0.9328	1.07204	192.90917	175.80872	73.23131	0.31712	 	1.64518E24	 	1.4482E-24	 	-14001.33949	26.62913	 
210.0	1.0	0.0	8.30657	7.01304	-11.83917	12.11257	12.75294	0.92819	1.07736	193.17048	175.91771	73.33799	0.31699	 	3.23003E24	 	7.30066E-25	 	-14134.24506	26.58111	 
205.0	1.0	0.0	8.30818	7.01168	-11.85626	12.08767	12.68449	0.92354	1.08279	193.43124	176.02611	73.44447	0.31685	 	6.43174E24	 	3.62846E-25	 	-14266.91	26.53299	 
200.0	1.0	0.0	8.30979	7.01033	-11.87328	12.06276	12.61587	0.91886	1.08831	193.69146	176.13391	73.55077	0.31672	 	1.29949E25	 	1.77711E-25	 	-14399.3337	26.48474	 
195.0	1.0	0.0	8.31139	7.00898	-11.89024	12.03785	12.54709	0.91413	1.09394	193.95113	176.24113	73.65687	0.31659	 	2.66526E25	 	8.57297E-26	 	-14531.51554	26.43637	 
190.0	1.0	0.0	8.31298	7.00764	-11.90713	12.01294	12.47813	0.90937	1.09967	194.21025	176.34776	73.76278	0.31645	 	5.55193E25	 	4.07159E-26	 	-14663.45482	26.38786	 
185.0	1.0	0.0	8.31457	7.0063	-11.92396	11.98802	12.40898	0.90456	1.10551	194.46882	176.45379	73.86851	0.31632	 	1.17518E26	 	1.90279E-26	 	-14795.15081	26.3392	 
180.0	1.0	0.0	8.31615	7.00496	-11.94072	11.9631	12.33964	0.89972	1.11146	194.72685	176.55925	73.97404	0.31618	 	2.5290200000000003E26	 	8.74535E-27	 	-14926.60273	26.29038	 
175.0	1.0	0.0	8.31773	7.00364	-11.95742	11.93818	12.27011	0.89483	1.11753	194.98432	176.66412	74.07938	0.31605	 	5.5363800000000006E26	 	3.95079E-27	 	-15057.80974	26.2414	 
170.0	1.0	0.0	8.3193	7.00231	-11.97405	11.91325	12.20037	0.88991	1.12372	195.24125	176.7684	74.18453	0.31592	 	1.23361E27	 	1.75331E-27	 	-15188.77095	26.19224	 
165.0	1.0	0.0	8.32087	7.001	-11.99062	11.88832	12.13042	0.88494	1.13002	195.49763	176.87211	74.28949	0.31578	 	2.79945E27	 	7.63901E-28	 	-15319.48537	26.14288	 
160.0	1.0	0.0	8.32243	6.99968	-12.00712	11.86338	12.06026	0.87993	1.13645	195.75346	176.97523	74.39426	0.31565	 	6.47415E27	 	3.26545E-28	 	-15449.95201	26.09333	 
155.0	1.0	0.0	8.32398	6.99838	-12.02355	11.83844	11.98986	0.87488	1.14302	196.00874	177.07778	74.49884	0.31552	 	1.5268500000000001E28	 	1.36863E-28	 	-15580.16977	26.04355	 
150.0	1.0	0.0	8.32553	6.99707	-12.03992	11.8135	11.91923	0.86979	1.14971	196.26347	177.17974	74.60322	0.31538	 	3.6746600000000004E28	 	5.62035E-29	 	-15710.13749	25.99354	 
145.0	1.0	0.0	8.32707	6.99578	-12.05623	11.78855	11.84836	0.86465	1.15654	196.51765	177.28113	74.70742	0.31525	 	9.0315E28	 	2.25974E-29	 	-15839.85393	25.94329	 
140.0	1.0	0.0	8.32861	6.99448	-12.07246	11.7636	11.77723	0.85947	1.16351	196.77129	177.38195	74.81142	0.31512	 	2.2685800000000002E29	 	8.88873E-30	 	-15969.31778	25.89277	 
135.0	1.0	0.0	8.33014	6.9932	-12.08864	11.73865	11.70584	0.85425	1.17062	197.02437	177.48219	74.91523	0.31498	 	5.8284E29	 	3.41788E-30	 	-16098.52762	25.84197	 
130.0	1.0	0.0	8.33167	6.99192	-12.10475	11.71369	11.63418	0.84898	1.17789	197.27691	177.58186	75.01886	0.31485	 	1.53288E30	 	1.28364E-30	 	-16227.48198	25.79087	 
125.0	1.0	0.0	8.33319	6.99064	-12.12079	11.68873	11.56223	0.84367	1.1853	197.5289	177.68095	75.12228	0.31472	 	4.1306399999999997E30	 	4.70453E-31	 	-16356.17924	25.73945	 
120.0	1.0	0.0	8.33471	6.98937	-12.13677	11.66377	11.48998	0.83831	1.19287	197.78034	177.77948	75.22552	0.31458	 	1.1415E31	 	1.68101E-31	 	-16484.61773	25.6877	 
115.0	1.0	0.0	8.33622	6.9881	-12.15268	11.6388	11.41742	0.83291	1.20061	198.03123	177.87744	75.32857	0.31445	 	3.23822E31	 	5.85033E-32	 	-16612.79563	25.63558	 
110.0	1.0	0.0	8.33772	6.98684	-12.16852	11.61383	11.34454	0.82746	1.20852	198.28157	177.97483	75.43142	0.31432	 	9.43965E31	 	1.98107E-32	 	-16740.71103	25.58308	 
105.0	1.0	0.0	8.33922	6.98559	-12.1843	11.58885	11.27133	0.82197	1.21659	198.53136	178.07166	75.53408	0.31418	 	2.8306999999999998E32	 	6.52015E-33	 	-16868.36188	25.53017	 
100.0	1.0	0.0	8.34071	6.98434	-12.20002	11.56387	11.19776	0.81643	1.22485	198.7806	178.16792	75.63655	0.31405	 	8.74202E32	 	2.08333E-33	 	-16995.74601	25.47683	 
95.0	1.0	0.0	8.3422	6.98309	-12.21567	11.53889	11.12383	0.81084	1.23329	199.0293	178.26361	75.73883	0.31392	 	2.78377E33	 	6.45474E-34	 	-17122.8611	25.42302	 
90.0	1.0	0.0	8.34368	6.98185	-12.23125	11.5139	11.04952	0.80521	1.24191	199.27744	178.35875	75.84091	0.31379	 	9.15177E33	 	1.93672E-34	 	-17249.70469	25.36872	 
85.0	1.0	0.0	8.34515	6.98062	-12.24677	11.48891	10.97481	0.79953	1.25074	199.52504	178.45332	75.9428	0.31365	 	3.1103500000000003E34	 	5.62008E-35	 	-17376.27414	25.31389	 
80.0	1.0	0.0	8.34662	6.97939	-12.26222	11.46392	10.89968	0.7938	1.25976	199.77208	178.54733	76.0445	0.31352	 	1.09436E35	 	1.57503E-35	 	-17502.56665	25.2585	 
75.0	1.0	0.0	8.34809	6.97817	-12.27761	11.43892	10.82412	0.78803	1.269	200.01858	178.64079	76.14601	0.31339	 	3.9920899999999995E35	 	4.2565E-36	 	-17628.57924	25.20252	 
70.0	1.0	0.0	8.34955	6.97695	-12.29293	11.41392	10.74809	0.7822	1.27844	200.26452	178.73368	76.24732	0.31326	 	1.5122399999999998E36	 	1.10752E-36	 	-17754.30872	25.1459	 
65.0	1.0	0.0	8.351	6.97573	-12.30819	11.38892	10.67159	0.77633	1.28811	200.50992	178.82602	76.34844	0.31312	 	5.95864E36	 	2.7698E-37	 	-17879.75169	25.08859	 
60.0	1.0	0.0	8.35245	6.97452	-12.32338	11.36391	10.59458	0.77041	1.29801	200.75477	178.91781	76.44937	0.31299	 	2.44652E37	 	6.64627E-38	 	-18004.90453	25.03057	 
55.0	1.0	0.0	8.35389	6.97332	-12.3385	11.3389	10.51705	0.76444	1.30814	200.99906	179.00904	76.55011	0.31286	 	1.04868E38	 	1.52727E-38	 	-18129.76336	24.97177	 
50.0	1.0	0.0	8.35532	6.97212	-12.35356	11.31388	10.43896	0.75843	1.31852	201.24281	179.09972	76.65065	0.31273	 	4.70217E38	 	3.35423E-39	 	-18254.32403	24.91213	 
45.0	1.0	0.0	8.35675	6.97093	-12.36856	11.28886	10.36028	0.75236	1.32915	201.48601	179.18985	76.751	0.3126	 	2.2102200000000002E39	 	7.02559E-40	 	-18378.58215	24.85162	 
40.0	1.0	0.0	8.35818	6.96974	-12.38348	11.26384	10.28099	0.74625	1.34004	201.72866	179.27943	76.85115	0.31246	 	1.09153E40	 	1.40024E-40	 	-18502.53295	24.79016	 
35.0	1.0	0.0	8.35959	6.96856	-12.39835	11.23881	10.20105	0.74009	1.35119	201.97075	179.36846	76.95111	0.31233	 	5.67737E40	 	2.64912E-41	 	-18626.17139	24.72769	 
30.0	1.0	0.0	8.36101	6.96738	-12.41314	11.21378	10.12043	0.73388	1.36262	202.2123	179.45694	77.05088	0.3122	 	3.11802E41	 	4.74532E-42	 	-18749.49203	24.66413	 
25.0	1.0	0.0	8.36241	6.96621	-12.42787	 	10.03908	0.72762	1.37434	202.4533	179.54488	77.15046	0.31207	 	1.8130999999999998E42	 	8.02601E-43	 	-18872.48906	 	 
