T (C)	Fraction solid (wt)-TOTAL	Fraction liquid (wt)-LIQUID	Density (g/(cm)^3)-TOTAL	Molar volume (cm^3)-TOTAL	Volume change (%)-  	Average expansion coeff. (10e-6 1/K)-  	Thermal conductivity (W/(m*K))-TOTAL	Electrical resistivity (10e-6 Ohm*m)-TOTAL	Electrical conductivity (10e6 1/(Ohm*m))-TOTAL	Young's modulus (GPa)-TOTAL	Bulk modulus (GPa)-TOTAL	Shear modulus(GPa)-TOTAL	Poisson's ratio-TOTAL	Liquid viscosity (mPa s)-  	Total viscosity (mPa s)-  	Liquid diffusivity (10e-9 (m^2)/s)-  	Total diffusivity (10e-9 (m^2)/s)-  	Surface Tension (mN/m)-  	Enthalpy (J/mole)-TOTAL	Specific heat (J/(mole K))-TOTAL	Latent heat (J/mole)-TOTAL
1500.0	0.0	1.0	6.95478	7.86605	0.0	26.73369	31.25186	1.84879	0.54089	0.0	106.27613	0.0	0.49974	6.74355	6.74355	1.28335	1.28335	1765.69062	64725.906	 	0.0
1495.0	0.0	1.0	6.95867	7.86165	-0.0559081	26.68285	31.17716	1.84799	0.54113	0.0	106.46221	0.0	0.49974	6.80255	6.80255	1.26863	1.26863	1767.46975	64504.114	44.3584	0.0
1490.0	0.0	1.0	6.96255	7.85727	-0.11166	26.63206	31.10246	1.84719	0.54136	0.0	106.64829	0.0	0.49974	6.86241	6.86241	1.25401	1.25401	1769.24571	64282.828	44.2572	0.0
1485.0	0.0	1.0	6.96643	7.85289	-0.16726	26.58132	31.02776	1.84639	0.5416	0.0	106.83438	0.0	0.49974	6.92314	6.92314	1.23948	1.23948	1771.01847	64062.045	44.1566	0.0
1480.0	0.0	1.0	6.9703	7.84853	-0.2227	26.53062	30.95306	1.84558	0.54183	0.0	107.02046	0.0	0.49974	6.98476	6.98476	1.22505	1.22505	1772.788	63841.763	44.0564	0.0
1475.0	0.0	1.0	6.97416	7.84418	-0.27798	26.47998	30.87836	1.84477	0.54207	0.0	107.20654	0.0	0.49974	7.04728	7.04728	1.21072	1.21072	1774.55427	63621.976	43.9574	0.0
1470.0	0.0	1.0	6.97802	7.83985	-0.33311	26.42939	30.80366	1.84395	0.54231	0.0	107.39262	0.0	0.49974	7.11073	7.11073	1.19648	1.19648	1776.31722	63402.684	43.8584	0.0
1465.0	0.0	1.0	6.98187	7.83552	-0.38809	26.37885	30.72896	1.84313	0.54255	0.0	107.57871	0.0	0.49974	7.17512	7.17512	1.18235	1.18235	1778.07683	63183.881	43.7606	0.0
1460.0	0.0	1.0	6.98572	7.83121	-0.44291	26.32836	30.65426	1.84231	0.5428	0.0	107.76479	0.0	0.49974	7.24047	7.24047	1.1683	1.1683	1779.83306	62965.566	43.663	0.0
1455.0	0.0	1.0	6.98955	7.82691	-0.49757	26.27792	30.57957	1.84148	0.54304	0.0	107.95087	0.0	0.49974	7.3068	7.3068	1.15436	1.15436	1781.58587	62747.734	43.5664	0.0
1450.0	0.0	1.0	6.99338	7.82262	-0.55208	26.22754	30.50487	1.84065	0.54329	0.0	108.13695	0.0	0.49974	7.37412	7.37412	1.14051	1.14051	1783.33521	62530.411	43.4646	0.0
1445.0	0.0	1.0	6.99721	7.81835	-0.60643	26.17721	30.43017	1.83982	0.54353	0.0	108.32303	0.0	0.49974	7.44246	7.44246	1.12676	1.12676	1785.08105	62313.638	43.3546	0.0
1440.0	0.0	1.0	7.00103	7.81408	-0.66063	26.12694	30.35547	1.83898	0.54378	0.0	108.50912	0.0	0.49974	7.51184	7.51184	1.1131	1.1131	1786.82334	62097.407	43.2462	0.0
1439.28	0.0	1.0	7.00158	7.81347	-0.66843	26.11968	30.3447	1.83886	0.54382	0.0	108.53593	0.0	0.49974	7.52193	7.52193	1.11114	1.11114	1787.0741	62066.29	43.1911	0.0050
1435.0	0.16196	0.83804	7.0304	7.78142	-1.07591	25.12169	30.94065	1.79893	0.55589	0.0394936	102.5867	0.0133784	0.47602	7.55515	11.82873	1.10349	0.70481	1785.73033	60458.903	375.597	1422.809
1430.0	0.30675	0.69325	7.05703	7.75205	-1.44927	24.22053	31.48515	1.76265	0.56733	0.51924	97.3514	0.17848	0.45461	7.5945	44.95539	1.09456	0.18491	1784.29715	58976.573	296.466	2689.982
1426.67	0.38204	0.61796	7.07131	7.73636	-1.64874	23.74753	31.77152	1.74335	0.57361	1.26466	94.68389	0.43809	0.44338	7.62112	95.98206	1.08861	0.0864371	1783.41577	58177.74	 	3345.933
1425.0	0.44066	0.55934	7.08135	7.72547	-1.78717	23.40732	31.92648	1.73318	0.57698	2.03159	93.43667	0.70783	0.43509	7.63307	180.92052	1.08583	0.0458115	1782.01013	57501.294	295.056	3950.634
1420.0	0.57928	0.42072	7.10571	7.69899	-2.12382	22.59164	32.28894	1.70867	0.58525	5.84903	90.72089	2.06636	0.41529	7.66872	629.4597	1.0776	0.0131285	1778.21772	55863.46	327.567	5374.37
1415.0	0.67185	0.32815	7.12295	7.68043	-2.35981	22.04002	32.51717	1.69167	0.59113	11.33727	89.11935	4.0435	0.40191	7.70488	1262.83145	1.06938	0.00652458	1774.82527	54708.057	231.081	6316.199
1410.0	0.73664	0.26336	7.13585	7.66663	-2.53513	21.64772	32.66197	1.67918	0.59553	17.56046	88.16081	6.30567	0.39243	7.74213	1981.81024	1.06108	0.00414522	1771.77486	53842.751	173.061	6968.453
1405.0	0.78372	0.21628	7.14601	7.65587	-2.67192	21.35667	32.75228	1.66958	0.59895	23.75363	87.6007	8.57247	0.38546	7.78046	2730.05608	1.05272	0.00300017	1769.01697	53161.703	136.21	7436.964
1400.0	0.819	0.181	7.15435	7.64707	-2.78391	21.13072	32.80534	1.66191	0.60172	29.50452	87.30001	10.6888	0.38016	7.8195	3481.88968	1.04434	0.00234534	1766.51388	52602.952	111.75	7783.69
1395.0	0.84614	0.15386	7.16141	7.63964	-2.87836	20.95085	32.83235	1.65558	0.60402	34.66145	87.17547	12.59479	0.37602	7.85946	4228.60839	1.03593	0.00192541	1764.22934	52128.484	94.8936	8046.644
1390.0	0.86745	0.13255	7.16758	7.63319	-2.96036	20.80367	32.8405	1.65021	0.60598	39.21341	87.17463	14.28312	0.37272	7.90035	4969.75925	1.02748	0.00163336	1762.13476	51713.979	82.901	8250.14
1385.0	0.88451	0.11549	7.17306	7.62748	-3.03296	20.68115	32.8347	1.64554	0.6077	43.20816	87.26354	15.76907	0.37003	7.94242	5708.46471	1.01896	0.00141772	1760.204	51343.317	74.1324	8410.298
1380.0	0.89837	0.10163	7.17804	7.6223	-3.09874	20.57649	32.8184	1.64139	0.60924	46.7199	87.41813	17.07853	0.3678	7.98562	6450.05727	1.01039	0.00125094	1758.41857	51005.47	67.5694	8538.139
1375.0	0.9099	0.0900972	7.18267	7.6175	-3.15974	20.48428	32.79432	1.63763	0.61064	49.84537	87.62173	18.24634	0.3659	8.02958	7203.81958	1.00182	0.00111666	1756.76148	50691.646	62.7648	8642.455
1370.0	0.91963	0.0803705	7.18704	7.61302	-3.21675	20.40243	32.76423	1.63416	0.61193	52.64676	87.86336	19.29487	0.36427	8.07494	7975.82576	0.99317	0.00100551	1755.21353	50396.538	59.0216	8728.549
1369.52	0.92049	0.0795126	7.18746	7.61258	-3.22229	20.3944	32.76104	1.63384	0.61206	52.90261	87.88791	19.39073	0.36412	8.07923	8051.47211	0.99235	9.95774E-4	1755.06777	50368.922	 	8735.993
1365.0	0.93158	0.0684247	7.19278	7.60713	-3.2916	20.27033	32.74411	1.63019	0.61343	56.20086	88.0473	20.62747	0.36228	8.13799	8907.91052	0.98248	8.97562E-4	1755.03723	50075.829	64.1418	8840.734
1360.0	0.94146	0.0585417	7.19805	7.60173	-3.36022	20.15465	32.71696	1.62656	0.61479	59.33067	88.27523	21.8032	0.3606	8.20399	9853.99419	0.9716	8.08911E-4	1755.05887	49777.285	59.7088	8931.242
1355.0	0.94955	0.0504505	7.20289	7.59683	-3.42256	20.0557	32.68351	1.62324	0.61605	62.05232	88.54282	22.82721	0.35917	8.27146	10814.11096	0.96072	7.34836E-4	1755.12099	49498.368	55.7834	9002.607
1350.0	0.95628	0.0437216	7.20739	7.59228	-3.48039	19.96869	32.64515	1.62016	0.61722	64.45214	88.84028	23.73135	0.35795	8.34039	11798.45529	0.94986	6.7146E-4	1755.22434	49234.335	52.8066	9059.571
1345.0	0.96195	0.0380468	7.21165	7.58801	-3.53472	19.89088	32.60299	1.61726	0.61833	66.59396	89.16085	24.53922	0.35689	8.41045	12815.87234	0.93904	6.16251E-4	1755.36366	48981.83	50.501	9105.485
1340.0	0.96679	0.0332099	7.21571	7.58395	-3.58632	19.82026	32.55777	1.6145	0.61939	68.52534	89.49963	25.26844	0.35595	8.48165	13874.09948	0.92828	5.67488E-4	1755.53605	48738.458	48.6744	9142.742
1335.0	0.97096	0.0290394	7.21962	7.58006	-3.63572	19.75533	32.51011	1.61185	0.6204	70.28583	89.85294	25.93373	0.3551	8.55442	14980.96295	0.91754	5.2393E-4	1755.73656	48502.374	47.2168	9173.183
1330.0	0.97459	0.025411	7.22339	7.57632	-3.68331	19.69507	32.46048	1.6093	0.62139	71.9045	90.21801	26.54591	0.35434	8.62837	16143.47506	0.90684	4.8469E-4	1755.9609	48272.226	46.0296	9198.159
1325.0	0.97777	0.0222271	7.22707	7.57269	-3.72944	19.63856	32.4092	1.60682	0.62235	73.40533	90.59287	27.11393	0.35365	8.70394	17369.04048	0.89617	4.49085E-4	1756.20641	48046.977	45.0498	9218.704
1320.0	0.98058	0.0194157	7.23066	7.56915	-3.7744	19.58497	32.35651	1.6044	0.62329	74.8062	90.97576	27.64447	0.353	8.78074	18664.6113	0.88555	4.16605E-4	1756.47474	47825.819	44.2316	9235.621
1315.0	0.98309	0.0169149	7.23417	7.5657	-3.81835	19.53387	32.30267	1.60203	0.62421	76.12297	91.36543	28.14345	0.35241	8.85878	20037.60807	0.87499	3.86841E-4	1756.76133	47608.117	43.5404	9249.544
1310.0	0.98532	0.0146774	7.23763	7.56231	-3.86144	19.48488	32.24781	1.5997	0.62512	77.36744	91.76091	28.6153	0.35185	8.93854	21495.63794	0.86445	3.59467E-4	1757.06422	47393.363	42.9508	9260.979
1305.0	0.98733	0.0126661	7.24104	7.55898	-3.90379	19.43768	32.19211	1.59741	0.62601	78.54969	92.16121	29.06379	0.35133	9.01997	23046.48549	0.85394	3.34218E-4	1757.38009	47181.147	42.4432	9270.33
1300.0	0.98915	0.0108491	7.2444	7.55569	-3.9455	19.39194	32.13567	1.59515	0.6269	79.67795	92.56567	29.49202	0.35084	9.10274	24698.51474	0.8435	3.10875E-4	1757.71021	46971.137	42.002	9277.929
1295.0	0.9908	0.00919949	7.24772	7.55245	-3.98669	19.34741	32.07858	1.59291	0.62778	80.75957	92.97376	29.90273	0.35037	9.18685	26460.77116	0.83312	2.89249E-4	1758.05423	46763.057	41.616	9284.049
1290.0	0.9923	0.00769566	7.25101	7.54925	-4.02737	19.304	32.02093	1.59069	0.62866	81.80064	93.38499	30.29822	0.34992	9.27275	28342.84515	0.82277	2.69181E-4	1758.40558	46556.681	41.2752	9288.915
1285.0	0.99368	0.00631902	7.25427	7.54609	-4.06764	19.26146	31.96277	1.58848	0.62953	82.8061	93.79906	30.68035	0.3495	9.36004	30355.13041	0.81249	2.50532E-4	1758.76748	46351.818	40.9726	9292.712
1280.0	0.99495	0.00505408	7.2575	7.54295	-4.10754	19.21969	31.90418	1.58629	0.6304	83.78006	94.21539	31.05066	0.34909	9.44919	32508.13274	0.80224	2.33189E-4	1759.14009	46148.309	40.7018	9295.598
1275.0	0.99611	0.00388741	7.26072	7.53984	-4.1471	19.17858	31.8452	1.58412	0.63127	84.72672	94.63385	31.41073	0.34869	9.5402	34814.32592	0.79203	2.17041E-4	1759.51638	45946.021	40.4576	9297.705
1270.0	0.99719	0.00280868	7.26391	7.53675	-4.18637	19.13804	31.78586	1.58195	0.63213	85.64864	95.05422	31.76153	0.34831	9.63266	37286.28064	0.7819	2.01997E-4	1759.90076	45744.837	40.2368	9299.144
1265.0	0.99819	0.00180653	7.26708	7.53368	-4.22537	19.09795	31.72623	1.57978	0.633	86.54952	95.4762	32.10446	0.34794	9.72711	39938.0807	0.77179	1.87974E-4	1760.28993	45544.661	40.0352	9300.012
1260.0	0.99913	8.72573E-4	7.27024	7.53063	-4.26415	19.05823	31.66639	1.57763	0.63386	87.4317	95.89952	32.44039	0.34757	9.82311	42784.75955	0.76177	1.74897E-4	1760.68541	45345.408	39.8506	9300.389
1255.0	1.0	0.0	7.27338	7.5276	-4.30271	19.01884	31.60639	1.57547	0.63473	88.297	96.32423	32.77001	0.34722	 	45842.97012	 	1.62697E-4	 	45147.007	39.6802	9300.345
1250.0	1.0	0.0	7.27575	7.52514	-4.33398	19.00132	31.54334	1.57345	0.63555	88.8097	96.75436	32.96528	0.34702	 	48944.9658	 	1.51887E-4	 	44923.115	44.7784	 
1245.0	1.0	0.0	7.27813	7.52268	-4.3652	18.98382	31.48029	1.57143	0.63636	89.32359	97.18464	33.16106	0.34681	 	52280.58495	 	1.4173E-4	 	44730.825	38.458	 
1240.0	1.0	0.0	7.2805	7.52023	-4.39636	18.96631	31.41723	1.56939	0.63719	89.83866	97.61506	33.35732	0.34661	 	55869.13946	 	1.32189E-4	 	44538.794	38.4062	 
1235.0	1.0	0.0	7.28287	7.51778	-4.42748	18.94881	31.35418	1.56735	0.63802	90.35488	98.04559	33.55408	0.34641	 	59731.67539	 	1.23233E-4	 	44347.03	38.3528	 
1230.0	1.0	0.0	7.28524	7.51534	-4.45856	18.93132	31.29112	1.5653	0.63885	90.87223	98.4762	33.75132	0.3462	 	63891.14079	 	1.14828E-4	 	44155.535	38.299	 
1225.0	1.0	0.0	7.28761	7.5129	-4.48958	18.91383	31.22806	1.56325	0.63969	91.39068	98.90686	33.94902	0.346	 	68372.57093	 	1.06945E-4	 	43964.309	38.2452	 
1220.0	1.0	0.0	7.28997	7.51046	-4.52055	18.89635	31.165	1.56118	0.64054	91.91021	99.33755	34.14719	0.34579	 	73203.29282	 	9.95542E-5	 	43773.349	38.192	 
1215.0	1.0	0.0	7.29233	7.50803	-4.55148	18.87887	31.10194	1.55911	0.64139	92.4308	99.76825	34.34581	0.34559	 	78413.15121	 	9.26285E-5	 	43582.655	38.1388	 
1210.0	1.0	0.0	7.29469	7.5056	-4.58236	18.86139	31.03888	1.55703	0.64225	92.95243	100.19893	34.54487	0.34539	 	84034.75844	 	8.61416E-5	 	43392.225	38.086	 
1205.0	1.0	0.0	7.29705	7.50317	-4.61319	18.84392	30.97582	1.55494	0.64311	93.47507	100.62956	34.74437	0.34518	 	90103.77078	 	8.00686E-5	 	43202.058	38.0334	 
1200.0	1.0	0.0	7.29941	7.50075	-4.64397	18.82646	30.91275	1.55284	0.64398	93.99869	101.06013	34.9443	0.34498	 	96659.1944	 	7.43859E-5	 	43012.153	37.981	 
1195.0	1.0	0.0	7.30176	7.49834	-4.6747	18.809	30.84968	1.55073	0.64486	94.52329	101.4906	35.14465	0.34477	 	103743.7241	 	6.90709E-5	 	42822.509	37.9288	 
1190.0	1.0	0.0	7.30411	7.49592	-4.70538	18.79155	30.78661	1.54862	0.64574	95.04882	101.92095	35.34541	0.34457	 	111404.119	 	6.41024E-5	 	42633.123	37.8772	 
1185.0	1.0	0.0	7.30646	7.49351	-4.73602	18.7741	30.72354	1.5465	0.64662	95.57528	102.35116	35.54657	0.34437	 	119691.6187	 	5.946E-5	 	42443.996	37.8254	 
1180.0	1.0	0.0	7.30881	7.49111	-4.76661	18.75666	30.66046	1.54436	0.64752	96.10263	102.7812	35.74813	0.34416	 	128662.4052	 	5.51246E-5	 	42255.124	37.7744	 
1175.0	1.0	0.0	7.31115	7.4887	-4.79714	18.73922	30.59739	1.54222	0.64842	96.63086	103.21106	35.95007	0.34396	 	138378.1162	 	5.10779E-5	 	42066.507	37.7234	 
1170.0	1.0	0.0	7.31349	7.48631	-4.82763	18.72179	30.53431	1.54007	0.64932	97.15994	103.6407	36.1524	0.34376	 	148906.4147	 	4.73026E-5	 	41878.144	37.6726	 
1165.0	1.0	0.0	7.31583	7.48391	-4.85808	18.70436	30.47123	1.53791	0.65023	97.68986	104.07011	36.35509	0.34355	 	160321.6228	 	4.37823E-5	 	41690.032	37.6224	 
1160.0	1.0	0.0	7.31817	7.48152	-4.88847	18.68693	30.40815	1.53575	0.65115	98.22058	104.49926	36.55815	0.34335	 	172705.426	 	4.05016E-5	 	41502.171	37.5722	 
1155.0	1.0	0.0	7.32051	7.47913	-4.91881	18.66952	30.34507	1.53357	0.65207	98.75209	104.92814	36.76156	0.34314	 	186147.6582	 	3.74458E-5	 	41314.559	37.5224	 
1150.0	1.0	0.0	7.32284	7.47675	-4.94911	18.6521	30.28198	1.53138	0.653	99.28436	105.35671	36.96532	0.34294	 	200747.1752	 	3.46009E-5	 	41127.194	37.473	 
1145.0	1.0	0.0	7.32517	7.47437	-4.97936	18.6347	30.21889	1.52919	0.65394	99.81738	105.78495	37.16941	0.34274	 	216612.829	 	3.1954E-5	 	40940.074	37.424	 
1140.0	1.0	0.0	7.3275	7.47199	-5.00956	18.61729	30.1558	1.52699	0.65488	100.35111	106.21286	37.37384	0.34253	 	233864.5539	 	2.94924E-5	 	40753.199	37.375	 
1135.0	1.0	0.0	7.32983	7.46962	-5.03971	18.5999	30.09271	1.52477	0.65584	100.88555	106.64039	37.57859	0.34233	 	252634.5788	 	2.72046E-5	 	40566.566	37.3266	 
1130.0	1.0	0.0	7.33215	7.46725	-5.06982	18.5825	30.02962	1.52255	0.65679	101.42066	107.06753	37.78365	0.34212	 	273068.782	 	2.50795E-5	 	40380.174	37.2784	 
1125.0	1.0	0.0	7.33447	7.46489	-5.09987	18.56512	29.96652	1.52032	0.65776	101.95643	107.49427	37.98902	0.34192	 	295328.2044	 	2.31066E-5	 	40194.021	37.2306	 
1120.0	1.0	0.0	7.33679	7.46253	-5.12988	18.54773	29.90343	1.51808	0.65873	102.49283	107.92057	38.19469	0.34172	 	319590.7422	 	2.1276E-5	 	40008.105	37.1832	 
1115.0	1.0	0.0	7.33911	7.46017	-5.15984	18.53036	29.84033	1.51583	0.6597	103.02985	108.34642	38.40065	0.34151	 	346053.0419	 	1.95785E-5	 	39822.425	37.136	 
1110.0	1.0	0.0	7.34143	7.45782	-5.18975	18.51298	29.77722	1.51357	0.66069	103.56746	108.7718	38.6069	0.34131	 	374932.6221	 	1.80054E-5	 	39636.978	37.0894	 
1105.0	1.0	0.0	7.34374	7.45547	-5.21962	18.49562	29.71412	1.5113	0.66168	104.10563	109.19668	38.81341	0.3411	 	406470.2522	 	1.65483E-5	 	39451.764	37.0428	 
1100.0	1.0	0.0	7.34605	7.45313	-5.24943	18.47825	29.65102	1.50902	0.66268	104.64436	109.62105	39.0202	0.3409	 	440932.6199	 	1.51996E-5	 	39266.779	36.997	 
1095.0	1.0	0.0	7.34836	7.45078	-5.2792	18.4609	29.58791	1.50674	0.66369	105.18362	110.04489	39.22725	0.3407	 	478615.3265	 	1.39519E-5	 	39082.023	36.9512	 
1090.0	1.0	0.0	7.35067	7.44845	-5.30892	18.44355	29.5248	1.50444	0.6647	105.72338	110.46818	39.43454	0.34049	 	519846.2498	 	1.27984E-5	 	38897.492	36.9062	 
1085.0	1.0	0.0	7.35297	7.44611	-5.33859	18.4262	29.46169	1.50213	0.66572	106.26363	110.89089	39.64209	0.34029	 	564989.3265	 	1.17326E-5	 	38713.186	36.8612	 
1080.0	1.0	0.0	7.35527	7.44378	-5.36822	18.40886	29.39857	1.49981	0.66675	106.80434	111.313	39.84987	0.34008	 	614448.8059	 	1.07485E-5	 	38529.102	36.8168	 
1075.0	1.0	0.0	7.35757	7.44146	-5.39779	18.39152	29.33546	1.49749	0.66779	107.3455	111.73451	40.05787	0.33988	 	668674.0397	 	9.84035E-6	 	38345.238	36.7728	 
1070.0	1.0	0.0	7.35987	7.43913	-5.42732	18.37419	29.27234	1.49515	0.66883	107.88708	112.15539	40.2661	0.33968	 	728164.8789	 	9.00288E-6	 	38161.592	36.7292	 
1065.0	1.0	0.0	7.36216	7.43681	-5.4568	18.35686	29.20922	1.4928	0.66988	108.42906	112.57561	40.47455	0.33947	 	793477.7592	 	8.23108E-6	 	37978.162	36.686	 
1060.0	1.0	0.0	7.36446	7.4345	-5.48623	18.33954	29.14609	1.49045	0.67094	108.97143	112.99517	40.6832	0.33927	 	865232.5684	 	7.52026E-6	 	37794.946	36.6432	 
1055.0	1.0	0.0	7.36675	7.43219	-5.51561	18.32222	29.08297	1.48808	0.67201	109.51416	113.41403	40.89204	0.33906	 	944120.4035	 	6.86604E-6	 	37611.94	36.6012	 
1050.0	1.0	0.0	7.36903	7.42988	-5.54495	18.30491	29.01984	1.4857	0.67308	110.05723	113.83219	41.10108	0.33886	 	1030912.337	 	6.26432E-6	 	37429.144	36.5592	 
1045.0	1.0	0.0	7.37132	7.42758	-5.57424	18.28761	28.95671	1.48331	0.67417	110.60062	114.24963	41.31031	0.33866	 	1126469.336	 	5.71126E-6	 	37246.554	36.518	 
1040.0	1.0	0.0	7.3736	7.42528	-5.60348	18.27031	28.89358	1.48092	0.67526	111.14431	114.66633	41.51971	0.33845	 	1231753.49	 	5.20328E-6	 	37064.169	36.477	 
1035.0	1.0	0.0	7.37588	7.42298	-5.63267	18.25301	28.83045	1.47851	0.67636	111.68829	115.08226	41.72927	0.33825	 	1347840.737	 	4.73702E-6	 	36881.985	36.4368	 
1030.0	1.0	0.0	7.37816	7.42069	-5.66182	18.23572	28.76731	1.47609	0.67747	112.23252	115.49741	41.939	0.33804	 	1475935.29	 	4.30937E-6	 	36700.001	36.3968	 
1025.0	1.0	0.0	7.38044	7.4184	-5.69091	18.21843	28.70417	1.47366	0.67858	112.777	115.91177	42.14889	0.33784	 	1617386.02	 	3.9174E-6	 	36518.213	36.3576	 
1020.0	1.0	0.0	7.38271	7.41611	-5.71996	18.20115	28.64103	1.47122	0.67971	113.32169	116.32532	42.35892	0.33764	 	1773705.062	 	3.5584E-6	 	36336.619	36.3188	 
1015.0	1.0	0.0	7.38499	7.41383	-5.74897	18.18388	28.57789	1.46877	0.68084	113.86659	116.73803	42.56909	0.33743	 	1946588.968	 	3.22982E-6	 	36155.216	36.2806	 
1010.0	1.0	0.0	7.38725	7.41156	-5.77792	18.1666	28.51474	1.46631	0.68198	114.41167	117.14989	42.77939	0.33723	 	2137942.789	 	2.92933E-6	 	35974.002	36.2428	 
1005.0	1.0	0.0	7.38952	7.40928	-5.80683	18.14934	28.4516	1.46384	0.68314	114.95691	117.56089	42.98981	0.33703	 	2349907.496	 	2.65471E-6	 	35792.973	36.2058	 
1000.0	1.0	0.0	7.39179	7.40701	-5.83569	18.13208	28.38845	1.46135	0.6843	115.50229	117.97101	43.20035	0.33682	 	2584891.246	 	2.40394E-6	 	35612.127	36.1692	 
995.0	1.0	0.0	7.39405	7.40475	-5.8645	18.11482	28.32529	1.45886	0.68547	116.04779	118.38023	43.411	0.33662	 	2845605.057	 	2.17512E-6	 	35431.461	36.1332	 
990.0	1.0	0.0	7.39631	7.40248	-5.89326	18.09757	28.26214	1.45636	0.68665	116.59339	118.78853	43.62176	0.33641	 	3135103.558	 	1.96648E-6	 	35250.971	36.098	 
985.0	1.0	0.0	7.39857	7.40022	-5.92198	18.08033	28.19898	1.45384	0.68783	117.13907	119.1959	43.83261	0.33621	 	3456831.571	 	1.7764E-6	 	35070.654	36.0634	 
980.0	1.0	0.0	7.40082	7.39797	-5.95064	18.06309	28.13582	1.45131	0.68903	117.68482	119.60232	44.04354	0.33601	 	3814677.418	 	1.60336E-6	 	34890.507	36.0294	 
975.0	1.0	0.0	7.40307	7.39572	-5.97927	18.04585	28.07266	1.44877	0.69024	118.23061	120.00777	44.25456	0.3358	 	4213033.97	 	1.44597E-6	 	34710.528	35.9958	 
970.0	1.0	0.0	7.40532	7.39347	-6.00784	18.02862	28.0095	1.44623	0.69146	118.77643	120.41225	44.46565	0.3356	 	4656868.648	 	1.30292E-6	 	34530.711	35.9634	 
965.0	1.0	0.0	7.40757	7.39123	-6.03636	18.0114	27.94633	1.44366	0.69268	119.32225	120.81572	44.67681	0.33539	 	5151803.748	 	1.17301E-6	 	34351.054	35.9314	 
960.0	1.0	0.0	7.40982	7.38899	-6.06484	17.99418	27.88316	1.44109	0.69392	119.86805	121.21819	44.88802	0.33519	 	5704208.715	 	1.05513E-6	 	34171.553	35.9002	 
955.0	1.0	0.0	7.41206	7.38675	-6.09327	17.97696	27.81999	1.43851	0.69516	120.41382	121.61962	45.09929	0.33499	 	6321306.248	 	9.48268E-7	 	33992.205	35.8696	 
950.0	1.0	0.0	7.4143	7.38452	-6.12166	17.95975	27.75681	1.43591	0.69642	120.95954	122.02002	45.3106	0.33478	 	7011294.42	 	8.51468E-7	 	33813.005	35.84	 
945.0	1.0	0.0	7.41654	7.38229	-6.14999	17.94255	27.69364	1.4333	0.69769	121.50518	122.41935	45.52195	0.33458	 	7783487.396	 	7.63859E-7	 	33633.949	35.8112	 
940.0	1.0	0.0	7.41878	7.38006	-6.17828	17.92535	27.63046	1.43069	0.69897	122.05074	122.8176	45.73333	0.33437	 	8648477.727	 	6.84639E-7	 	33455.034	35.783	 
935.0	1.0	0.0	7.42101	7.37784	-6.20652	17.90815	27.56728	1.42805	0.70025	122.59618	123.21477	45.94473	0.33417	 	9618323.732	 	6.13067E-7	 	33276.255	35.7558	 
930.0	1.0	0.0	7.42324	7.37562	-6.23472	17.89096	27.50409	1.42541	0.70155	123.14149	123.61083	46.15615	0.33397	 	1.070676608E7	 	5.48464E-7	 	33097.607	35.7296	 
925.0	1.0	0.0	7.42547	7.37341	-6.26286	17.87378	27.44091	1.42276	0.70286	123.68665	124.00577	46.36758	0.33376	 	1.192947836E7	 	4.90204E-7	 	32919.087	35.704	 
920.0	1.0	0.0	7.4277	7.3712	-6.29096	17.8566	27.37772	1.42009	0.70418	124.23165	124.39958	46.57901	0.33356	 	1.330435737E7	 	4.37711E-7	 	32740.69	35.6794	 
915.0	1.0	0.0	7.42992	7.36899	-6.31902	17.83942	27.31453	1.41741	0.70551	124.77646	124.79224	46.79043	0.33335	 	1.485185963E7	 	3.90461E-7	 	32562.41	35.656	 
910.0	1.0	0.0	7.43214	7.36679	-6.34702	17.82225	27.25133	1.41472	0.70685	125.32107	125.18373	47.00185	0.33315	 	1.659539211E7	 	3.47968E-7	 	32384.243	35.6334	 
905.0	1.0	0.0	7.43436	7.36459	-6.37498	17.80509	27.18814	1.41201	0.70821	125.86545	125.57405	47.21324	0.33295	 	1.856176622E7	 	3.0979E-7	 	32206.184	35.6118	 
900.0	1.0	0.0	7.43658	7.36239	-6.40289	17.78793	27.12494	1.4093	0.70957	126.40958	125.96316	47.4246	0.33274	 	2.07817261E7	 	2.75523E-7	 	32028.228	35.5912	 
895.0	1.0	0.0	7.4388	7.3602	-6.43075	17.77078	27.06174	1.40657	0.71095	126.95345	126.35107	47.63593	0.33254	 	2.329056383E7	 	2.44797E-7	 	31850.368	35.572	 
890.0	1.0	0.0	7.44101	7.35802	-6.45857	17.75363	26.99854	1.40383	0.71234	127.49704	126.73776	47.84722	0.33233	 	2.612883696E7	 	2.17271E-7	 	31672.599	35.5538	 
885.0	1.0	0.0	7.44322	7.35583	-6.48634	17.73648	26.93533	1.40107	0.71374	128.04033	127.12321	48.05846	0.33213	 	2.934320617E7	 	1.92639E-7	 	31494.915	35.5368	 
880.0	1.0	0.0	7.44542	7.35365	-6.51406	17.71934	26.87213	1.3983	0.71515	128.5833	127.50741	48.26965	0.33193	 	3.298741438E7	 	1.70618E-7	 	31317.311	35.5208	 
875.0	1.0	0.0	7.44763	7.35147	-6.54173	17.70221	26.80892	1.39552	0.71658	129.12594	127.89034	48.48077	0.33172	 	3.71234326E7	 	1.50951E-7	 	31139.779	35.5064	 
870.0	1.0	0.0	7.44983	7.3493	-6.56936	17.68508	26.74571	1.39273	0.71801	129.66821	128.27199	48.69183	0.33152	 	4.182280253E7	 	1.33406E-7	 	30962.314	35.493	 
865.0	1.0	0.0	7.45203	7.34713	-6.59694	17.66796	26.68249	1.38992	0.71946	130.21011	128.65235	48.90281	0.33132	 	4.716821167E7	 	1.17771E-7	 	30784.908	35.4812	 
860.0	1.0	0.0	7.45423	7.34497	-6.62447	17.65084	26.61928	1.3871	0.72093	130.75161	129.0314	49.1137	0.33111	 	5.325534339E7	 	1.03851E-7	 	30607.553	35.471	 
855.0	1.0	0.0	7.45642	7.3428	-6.65196	17.63373	26.55607	1.38427	0.7224	131.2927	129.40913	49.32451	0.33091	 	6.019505284E7	 	9.1473E-8	 	30430.244	35.4618	 
850.0	1.0	0.0	7.45862	7.34064	-6.6794	17.61662	26.49285	1.38142	0.72389	131.83336	129.78553	49.53521	0.3307	 	6.81159293E7	 	8.04777E-8	 	30252.971	35.4546	 
845.0	1.0	0.0	7.46081	7.33849	-6.70679	17.59951	26.42963	1.37856	0.72539	132.37357	130.16058	49.74581	0.3305	 	7.716731753E7	 	7.07218E-8	 	30075.727	35.4488	 
840.0	1.0	0.0	7.46299	7.33634	-6.73413	17.58242	26.36641	1.37569	0.72691	132.91332	130.53427	49.9563	0.3303	 	8.752288493E7	 	6.20753E-8	 	29898.504	35.4446	 
835.0	1.0	0.0	7.46518	7.33419	-6.76143	17.56532	26.30319	1.3728	0.72844	133.45257	130.90659	50.16667	0.33009	 	9.938483883E7	 	5.44208E-8	 	29721.292	35.4424	 
830.0	1.0	0.0	7.46736	7.33205	-6.78868	17.54824	26.23997	1.3699	0.72998	133.99132	131.27751	50.37692	0.32989	 	1.12988919E8	 	4.76525E-8	 	29544.082	35.442	 
825.0	1.0	0.0	7.46954	7.32991	-6.81589	17.53115	26.17675	1.36698	0.73154	134.52955	131.64704	50.58704	0.32968	 	1.286103161E8	 	4.16747E-8	 	29366.865	35.4434	 
820.0	1.0	0.0	7.47172	7.32777	-6.84304	17.51407	26.11353	1.36406	0.73311	135.06723	132.01516	50.79701	0.32948	 	1.465706969E8	 	3.64015E-8	 	29189.63	35.447	 
815.0	1.0	0.0	7.47389	7.32564	-6.87015	17.497	26.0503	1.36111	0.73469	135.60436	132.38185	51.00684	0.32928	 	1.672465561E8	 	3.17555E-8	 	29012.367	35.4526	 
810.0	1.0	0.0	7.47607	7.32351	-6.89722	17.47993	25.98708	1.35815	0.73629	136.1409	132.74711	51.21651	0.32907	 	1.910791578E8	 	2.7667E-8	 	28835.065	35.4604	 
805.0	1.0	0.0	7.47824	7.32139	-6.92423	17.46287	25.92386	1.35518	0.73791	136.67686	133.11091	51.42603	0.32887	 	2.185863875E8	 	2.40737E-8	 	28657.712	35.4706	 
800.0	1.0	0.0	7.4804	7.31926	-6.9512	17.44581	25.86064	1.35219	0.73954	137.21219	133.47325	51.63538	0.32866	 	2.503769008E8	 	2.09196E-8	 	28480.296	35.4832	 
795.0	1.0	0.0	7.48257	7.31715	-6.97813	17.42876	25.79741	1.34919	0.74118	137.7469	133.83412	51.84455	0.32846	 	2.87167041E8	 	1.81545E-8	 	28302.803	35.4986	 
790.0	1.0	0.0	7.48473	7.31503	-7.005	17.41171	25.73419	1.34618	0.74285	138.28096	134.1935	52.05355	0.32826	 	3.298010953E8	 	1.57336E-8	 	28125.22	35.5166	 
785.0	1.0	0.0	7.48689	7.31292	-7.03183	17.39467	25.67097	1.34314	0.74452	138.81434	134.55138	52.26236	0.32805	 	3.792755856E8	 	1.36169E-8	 	27947.533	35.5374	 
780.0	1.0	0.0	7.48905	7.31082	-7.05862	17.37763	25.60775	1.3401	0.74621	139.34705	134.90775	52.47097	0.32785	 	4.367684444E8	 	1.17686E-8	 	27769.726	35.5614	 
775.0	1.0	0.0	7.4912	7.30871	-7.08535	17.3606	25.54453	1.33704	0.74792	139.87905	135.26259	52.67938	0.32765	 	5.036741086E8	 	1.01569E-8	 	27591.783	35.5886	 
770.0	1.0	0.0	7.49336	7.30661	-7.11204	17.34357	25.48131	1.33396	0.74965	140.41032	135.61591	52.88759	0.32744	 	5.816458019E8	 	8.75336E-9	 	27413.687	35.6192	 
765.0	1.0	0.0	7.49551	7.30452	-7.13868	17.32655	25.41809	1.33087	0.75139	140.94086	135.96767	53.09558	0.32724	 	6.726465565E8	 	7.53286E-9	 	27235.419	35.6536	 
760.0	1.0	0.0	7.49765	7.30242	-7.16528	17.30953	25.35487	1.32776	0.75315	141.47065	136.31788	53.30335	0.32703	 	7.790108822E8	 	6.47301E-9	 	27056.96	35.6918	 
755.0	1.0	0.0	7.4998	7.30034	-7.19183	17.29252	25.29166	1.32464	0.75492	141.99965	136.66652	53.51089	0.32683	 	9.035194246E8	 	5.554E-9	 	26878.29	35.734	 
750.0	1.0	0.0	7.50194	7.29825	-7.21833	17.27551	25.22844	1.3215	0.75672	142.52787	137.01358	53.7182	0.32663	 	1.049489501E9	 	4.75826E-9	 	26699.385	35.781	 
745.0	1.0	0.0	7.50408	7.29617	-7.24479	17.25851	25.16523	1.31834	0.75853	143.05528	137.35905	53.92526	0.32642	 	1.220885074E9	 	4.07027E-9	 	26520.224	35.8322	 
740.0	1.0	0.0	7.50622	7.29409	-7.2712	17.24152	25.10201	1.31517	0.76036	143.58186	137.70292	54.13208	0.32622	 	1.422450562E9	 	3.47635E-9	 	26340.78	35.8888	 
735.0	1.0	0.0	7.50835	7.29202	-7.29756	17.22452	25.0388	1.31199	0.7622	144.1076	138.04517	54.33864	0.32601	 	1.65987394E9	 	2.9644E-9	 	26161.025	35.951	 
730.0	1.0	0.0	7.51048	7.28995	-7.32388	17.20754	24.97559	1.30878	0.76407	144.63247	138.38579	54.54494	0.32581	 	1.939985887E9	 	2.52379E-9	 	25980.932	36.0186	 
725.0	1.0	0.0	7.51261	7.28788	-7.35015	17.19056	24.91238	1.30556	0.76595	145.15647	138.72478	54.75098	0.32561	 	2.271003382E9	 	2.14518E-9	 	25800.469	36.0926	 
720.0	1.0	0.0	7.51474	7.28582	-7.37637	17.17358	24.84917	1.30233	0.76786	145.67957	139.06213	54.95674	0.3254	 	2.662828201E9	 	1.82036E-9	 	25619.601	36.1736	 
715.0	1.0	0.0	7.51686	7.28376	-7.40255	17.15661	24.78596	1.29908	0.76978	146.20176	139.39782	55.16222	0.3252	 	3.127413374E9	 	1.54214E-9	 	25438.292	36.2618	 
710.0	1.0	0.0	7.51899	7.28171	-7.42868	17.13964	24.72275	1.29581	0.77172	146.72302	139.73184	55.36741	0.32499	 	3.679213883E9	 	1.30422E-9	 	25256.502	36.358	 
705.0	1.0	0.0	7.52111	7.27965	-7.45476	17.12268	24.65954	1.29252	0.77368	147.24333	140.06418	55.5723	0.32479	 	4.335742041E9	 	1.1011E-9	 	25074.189	36.4626	 
700.0	1.0	0.0	7.52322	7.27761	-7.4808	17.10572	24.59633	1.28922	0.77566	147.76267	140.39483	55.77689	0.32459	 	5.118253155E9	 	9.27993E-10	 	24891.305	36.5768	 
695.0	1.0	0.0	7.52534	7.27556	-7.50679	17.08877	24.53312	1.2859	0.77766	148.28103	140.72379	55.98118	0.32438	 	6.052593676E9	 	7.80707E-10	 	24707.8	36.701	 
690.0	1.0	0.0	7.52745	7.27352	-7.53273	17.07183	24.46991	1.28256	0.77969	148.7984	141.05103	56.18515	0.32418	 	7.170252422E9	 	6.55611E-10	 	24523.618	36.8364	 
685.0	1.0	0.0	7.52956	7.27148	-7.55863	17.05489	24.4067	1.27921	0.78173	149.31475	141.37656	56.3888	0.32398	 	8.509666078E9	 	5.49551E-10	 	24338.697	36.9842	 
680.0	1.0	0.0	7.53166	7.26945	-7.58448	17.03795	24.34348	1.27584	0.7838	149.83006	141.70035	56.59213	0.32377	 	1.01178E10	 	4.5979E-10	 	24152.972	37.145	 
675.0	1.0	0.0	7.53377	7.26742	-7.61029	17.02102	24.28026	1.27245	0.78588	150.34433	142.02241	56.79512	0.32357	 	1.2052399999999998E10	 	3.83964E-10	 	23966.369	37.3206	 
670.0	1.0	0.0	7.53587	7.26539	-7.63605	17.00409	24.21704	1.26905	0.78799	150.85753	142.34272	56.99777	0.32336	 	1.4384099999999998E10	 	3.20027E-10	 	23778.806	37.5126	 
665.0	1.0	0.0	7.53797	7.26337	-7.66176	16.98717	24.15381	1.26562	0.79012	151.36964	142.66126	57.20007	0.32316	 	1.71999E10	 	2.66216E-10	 	23590.195	37.7222	 
660.0	1.0	0.0	7.54006	7.26135	-7.68743	16.97026	24.09058	1.26218	0.79228	151.88066	142.97804	57.40202	0.32296	 	2.06071E10	 	2.21015E-10	 	23400.437	37.9516	 
655.0	1.0	0.0	7.54216	7.25934	-7.71305	16.95335	24.02734	1.25872	0.79446	152.39056	143.29305	57.60361	0.32275	 	2.4738399999999996E10	 	1.83119E-10	 	23209.423	38.2028	 
650.0	1.0	0.0	7.54425	7.25733	-7.73862	16.93644	23.96409	1.25525	0.79666	152.89932	143.60626	57.80483	0.32255	 	2.9757999999999996E10	 	1.5141E-10	 	23017.03	38.4786	 
645.0	1.0	0.0	7.54633	7.25532	-7.76415	16.91954	23.90084	1.25175	0.79888	153.40694	143.91768	58.00568	0.32234	 	3.58695E10	 	1.24932E-10	 	22823.124	38.7812	 
640.0	1.0	0.0	7.54842	7.25331	-7.78963	16.90265	23.83758	1.24824	0.80113	153.91338	144.22729	58.20615	0.32214	 	4.33263E10	 	1.02867E-10	 	22627.553	39.1142	 
635.0	1.0	0.0	7.5505	7.25131	-7.81507	16.88575	23.77432	1.24471	0.8034	154.41865	144.53508	58.40623	0.32194	 	5.244429999999999E10	 	8.45173E-11	 	22430.149	39.4808	 
630.0	1.0	0.0	7.55258	7.24931	-7.84046	16.86887	23.71104	1.24116	0.8057	154.92271	144.84105	58.60593	0.32173	 	6.361799999999999E10	 	6.92894E-11	 	22215.728	42.8842	 
625.0	1.0	0.0	7.55466	7.24732	-7.8658	16.85199	23.64775	1.23759	0.80802	155.42556	145.14519	58.80522	0.32153	 	7.73413E10	 	5.66792E-11	 	22001.932	42.7592	 
620.0	1.0	0.0	7.55673	7.24533	-7.8911	16.83511	23.58445	1.234	0.81037	155.92718	145.44748	59.00411	0.32132	 	9.423439999999998E10	 	4.62596E-11	 	21790.197	42.347	 
615.0	1.0	0.0	7.55881	7.24335	-7.91635	16.81824	23.52115	1.2304	0.81275	156.42755	145.74792	59.20259	0.32112	 	1.15077E11	 	3.7669E-11	 	21580.448	41.9498	 
610.0	1.0	0.0	7.56088	7.24136	-7.94156	16.80138	23.45783	1.22677	0.81515	156.92665	146.0465	59.40065	0.32092	 	1.40854E11	 	3.06022E-11	 	21372.613	41.567	 
605.0	1.0	0.0	7.56294	7.23938	-7.96672	16.78452	23.39449	1.22313	0.81757	157.42447	146.34321	59.59828	0.32071	 	1.72808E11	 	2.48023E-11	 	21166.622	41.1982	 
600.0	1.0	0.0	7.56501	7.23741	-7.99183	16.76766	23.33115	1.21947	0.82003	157.921	146.63804	59.79549	0.32051	 	2.12515E11	 	2.00533E-11	 	20962.411	40.8422	 
595.0	1.0	0.0	7.56707	7.23544	-8.0169	16.75082	23.26779	1.21579	0.82251	158.41621	146.93099	59.99226	0.32031	 	2.6198E11	 	1.61739E-11	 	20759.92	40.4982	 
590.0	1.0	0.0	7.56913	7.23347	-8.04192	16.73397	23.20441	1.21209	0.82502	158.91009	147.22204	60.18858	0.3201	 	3.23753E11	 	1.30124E-11	 	20559.088	40.1664	 
585.0	1.0	0.0	7.57118	7.2315	-8.0669	16.71713	23.14103	1.20837	0.82756	159.40262	147.51118	60.38446	0.3199	 	4.01096E11	 	1.04424E-11	 	20359.862	39.8452	 
580.0	1.0	0.0	7.57324	7.22954	-8.09183	16.7003	23.07763	1.20463	0.83013	159.89379	147.79842	60.57988	0.31969	 	4.98181E11	 	8.35843E-12	 	20162.189	39.5346	 
575.0	1.0	0.0	7.57529	7.22759	-8.11671	16.68347	23.01421	1.20087	0.83273	160.38359	148.08373	60.77484	0.31949	 	6.20372E11	 	6.67278E-12	 	19966.02	39.2338	 
570.0	1.0	0.0	7.57734	7.22563	-8.14155	16.66664	22.95078	1.19709	0.83536	160.87199	148.36712	60.96933	0.31929	 	7.74573E11	 	5.31287E-12	 	19771.307	38.9426	 
565.0	1.0	0.0	7.57938	7.22368	-8.16634	16.64982	22.88733	1.19329	0.83802	161.35898	148.64857	61.16335	0.31908	 	9.69701E11	 	4.21862E-12	 	19578.005	38.6604	 
560.0	1.0	0.0	7.58143	7.22173	-8.19108	16.63301	22.82387	1.18947	0.84071	161.84455	148.92807	61.35689	0.31888	 	1.2173E12	 	3.34049E-12	 	19386.073	38.3864	 
555.0	1.0	0.0	7.58347	7.21979	-8.21578	16.6162	22.76039	1.18562	0.84344	162.32867	149.20562	61.54994	0.31867	 	1.53239E12	 	2.63771E-12	 	19195.469	38.1208	 
550.0	1.0	0.0	7.5855	7.21785	-8.24044	16.5994	22.6969	1.18176	0.84619	162.81134	149.48122	61.7425	0.31847	 	1.93449E12	 	2.07682E-12	 	19006.156	37.8626	 
545.0	1.0	0.0	7.58754	7.21592	-8.26505	16.5826	22.63339	1.17788	0.84898	163.29254	149.75484	61.93456	0.31827	 	2.44916E12	 	1.63043E-12	 	18818.097	37.6118	 
540.0	1.0	0.0	7.58957	7.21398	-8.28961	16.5658	22.56987	1.17398	0.85181	163.77225	150.02649	62.12611	0.31806	 	3.10986E12	 	1.27619E-12	 	18631.257	37.368	 
535.0	1.0	0.0	7.5916	7.21206	-8.31413	16.54901	22.50633	1.17005	0.85466	164.25046	150.29616	62.31715	0.31786	 	3.96062E12	 	9.959E-13	 	18445.604	37.1306	 
530.0	1.0	0.0	7.59363	7.21013	-8.3386	16.53223	22.44278	1.16611	0.85756	164.72715	150.56384	62.50768	0.31766	 	5.05949E12	 	7.74776E-13	 	18261.106	36.8996	 
525.0	1.0	0.0	7.59565	7.20821	-8.36302	16.51545	22.37922	1.16214	0.86048	165.2023	150.82952	62.69768	0.31745	 	6.48332E12	 	6.00861E-13	 	18077.733	36.6746	 
520.0	1.0	0.0	7.59767	7.20629	-8.3874	16.49868	22.31564	1.15815	0.86345	165.67591	151.09319	62.88716	0.31725	 	8.33411E12	 	4.64497E-13	 	17895.457	36.4552	 
515.0	1.0	0.0	7.59969	7.20438	-8.41174	16.48191	22.25205	1.15414	0.86645	166.14795	151.35486	63.0761	0.31704	 	1.07478E13	 	3.57912E-13	 	17714.25	36.2414	 
510.0	1.0	0.0	7.60171	7.20247	-8.43603	16.46515	22.18844	1.1501	0.86949	166.61841	151.6145	63.26449	0.31684	 	1.3906E13	 	2.74871E-13	 	17534.087	36.0326	 
505.0	1.0	0.0	7.60372	7.20056	-8.46027	16.44839	22.12483	1.14604	0.87257	167.08728	151.87212	63.45234	0.31664	 	1.80525E13	 	2.10384E-13	 	17354.943	35.8288	 
500.0	1.0	0.0	7.60573	7.19866	-8.48447	16.43164	22.0612	1.14196	0.87568	167.55454	152.12771	63.63964	0.31643	 	2.35153E13	 	1.60472E-13	 	17176.795	35.6296	 
495.0	1.0	0.0	7.60774	7.19676	-8.50862	16.41489	21.99757	1.13786	0.87884	168.02018	152.38126	63.82638	0.31623	 	3.07378E13	 	1.21972E-13	 	16999.62	35.435	 
490.0	1.0	0.0	7.60974	7.19486	-8.53273	16.39814	21.93392	1.13373	0.88204	168.48418	152.63276	64.01256	0.31602	 	4.0321E13	 	9.23772E-14	 	16823.396	35.2448	 
485.0	1.0	0.0	7.61175	7.19297	-8.55679	16.38141	21.87026	1.12958	0.88528	168.94652	152.88221	64.19816	0.31582	 	5.30833E13	 	6.97082E-14	 	16648.103	35.0586	 
480.0	1.0	0.0	7.61375	7.19108	-8.5808	16.36467	21.8066	1.12541	0.88856	169.4072	153.1296	64.38319	0.31562	 	7.01426E13	 	5.24066E-14	 	16473.722	34.8762	 
475.0	1.0	0.0	7.61574	7.18919	-8.60477	16.34794	21.74292	1.12121	0.89189	169.86619	153.37493	64.56763	0.31541	 	9.30329E13	 	3.92499E-14	 	16300.233	34.6978	 
470.0	1.0	0.0	7.61774	7.18731	-8.6287	16.33122	21.67924	1.11699	0.89526	170.32349	153.61819	64.75149	0.31521	 	1.23866E14	 	2.92826E-14	 	16127.619	34.5228	 
465.0	1.0	0.0	7.61973	7.18543	-8.65258	16.3145	21.61555	1.11275	0.89868	170.77907	153.85937	64.93475	0.31501	 	1.65564E14	 	2.17603E-14	 	15955.862	34.3514	 
460.0	1.0	0.0	7.62172	7.18356	-8.67641	16.29779	21.55186	1.10847	0.90214	171.23293	154.09846	65.11741	0.3148	 	2.22183E14	 	1.61053E-14	 	15784.946	34.1832	 
455.0	1.0	0.0	7.6237	7.18169	-8.7002	16.28108	21.48816	1.10418	0.90565	171.68505	154.33547	65.29947	0.3146	 	2.99378E14	 	1.1871E-14	 	15614.855	34.0182	 
450.0	1.0	0.0	7.62568	7.17982	-8.72394	16.26438	21.42445	1.09986	0.90921	172.13542	154.57038	65.48092	0.31439	 	4.05072E14	 	8.7133E-15	 	15445.574	33.8562	 
445.0	1.0	0.0	7.62767	7.17796	-8.74764	16.24768	21.36074	1.09551	0.91282	172.58402	154.80319	65.66175	0.31419	 	5.5040699999999994E14	 	6.36822E-15	 	15277.088	33.6972	 
440.0	1.0	0.0	7.62964	7.1761	-8.77129	16.23099	21.29703	1.09114	0.91647	173.03083	155.0339	65.84196	0.31399	 	7.51128E14	 	4.63397E-15	 	15109.383	33.541	 
435.0	1.0	0.0	7.63162	7.17424	-8.79489	16.2143	21.23331	1.08674	0.92018	173.47585	155.2625	66.02154	0.31378	 	1.02958E15	 	3.35699E-15	 	14942.446	33.3874	 
430.0	1.0	0.0	7.63359	7.17239	-8.81846	16.19762	21.16958	1.08231	0.92395	173.91907	155.48898	66.20049	0.31358	 	1.41764E15	 	2.42085E-15	 	14776.263	33.2366	 
425.0	1.0	0.0	7.63556	7.17054	-8.84197	16.18094	21.10586	1.07786	0.92776	174.36046	155.71333	66.3788	0.31337	 	1.96098E15	 	1.73765E-15	 	14610.822	33.0882	 
420.0	1.0	0.0	7.63753	7.16869	-8.86544	16.16427	21.04213	1.07338	0.93163	174.80002	155.93557	66.55647	0.31317	 	2.72535E15	 	1.24134E-15	 	14446.112	32.942	 
415.0	1.0	0.0	7.63949	7.16685	-8.88887	16.14761	20.9784	1.06888	0.93556	175.23772	156.15567	66.73349	0.31297	 	3.80591E15	 	8.82493E-16	 	14282.12	32.7984	 
410.0	1.0	0.0	7.64145	7.16501	-8.91225	16.13094	20.91466	1.06435	0.93954	175.67357	156.37363	66.90986	0.31276	 	5.34106E15	 	6.24274E-16	 	14118.836	32.6568	 
405.0	1.0	0.0	7.64341	7.16317	-8.93558	16.11429	20.85092	1.05979	0.94359	176.10754	156.58946	67.08556	0.31256	 	7.53315E15	 	4.39375E-16	 	13956.248	32.5176	 
400.0	1.0	0.0	7.64536	7.16134	-8.95887	16.09763	20.78718	1.0552	0.94769	176.53963	156.80314	67.2606	0.31236	 	1.06796E16	 	3.07641E-16	 	13794.347	32.3802	 
395.0	1.0	0.0	7.64732	7.15951	-8.98212	16.08099	20.72344	1.05058	0.95185	176.96981	157.01468	67.43498	0.31215	 	1.52198E16	 	2.14265E-16	 	13633.122	32.245	 
390.0	1.0	0.0	7.64927	7.15769	-9.00532	16.06435	20.65969	1.04594	0.95608	177.39809	157.22406	67.60867	0.31195	 	2.18068E16	 	1.48425E-16	 	13472.563	32.1118	 
385.0	1.0	0.0	7.65121	7.15587	-9.02847	16.04771	20.59595	1.04126	0.96037	177.82444	157.43128	67.78169	0.31174	 	3.14165E16	 	1.02248E-16	 	13312.662	31.9802	 
380.0	1.0	0.0	7.65316	7.15405	-9.05158	16.03108	20.5322	1.03656	0.96473	178.24885	157.63635	67.95403	0.31154	 	4.55156E16	 	7.0039E-17	 	13153.409	31.8506	 
375.0	1.0	0.0	7.6551	7.15223	-9.07464	16.01445	20.46844	1.03183	0.96915	178.67131	157.83925	68.12567	0.31134	 	6.6321500000000008E16	 	4.76989E-17	 	12994.796	31.7226	 
370.0	1.0	0.0	7.65704	7.15042	-9.09766	15.99783	20.40469	1.02707	0.97364	179.09182	158.03998	68.29662	0.31113	 	9.72073E16	 	3.22924E-17	 	12836.813	31.5966	 
365.0	1.0	0.0	7.65897	7.14862	-9.12064	15.98121	20.34093	1.02228	0.97821	179.51035	158.23855	68.46687	0.31093	 	1.43335E17	 	2.17298E-17	 	12679.454	31.4718	 
360.0	1.0	0.0	7.6609	7.14681	-9.14356	15.9646	20.27717	1.01746	0.98284	179.9269	158.43494	68.63642	0.31072	 	2.12657E17	 	1.45316E-17	 	12522.709	31.349	 
355.0	1.0	0.0	7.66283	7.14501	-9.16645	15.948	20.21341	1.01261	0.98755	180.34146	158.62916	68.80526	0.31052	 	3.17497E17	 	9.65629E-18	 	12366.571	31.2276	 
350.0	1.0	0.0	7.66476	7.14322	-9.18929	15.9314	20.14964	1.00773	0.99233	180.75401	158.8212	68.97339	0.31032	 	4.77091E17	 	6.37497E-18	 	12211.034	31.1074	 
345.0	1.0	0.0	7.66669	7.14142	-9.21208	15.9148	20.08587	1.00282	0.99719	181.16455	159.01106	69.1408	0.31011	 	7.21657E17	 	4.18071E-18	 	12056.089	30.989	 
340.0	1.0	0.0	7.66861	7.13963	-9.23483	15.89821	20.0221	0.99787	1.00213	181.57307	159.19873	69.30749	0.30991	 	1.099E18	 	2.72305E-18	 	11901.729	30.872	 
335.0	1.0	0.0	7.67053	7.13785	-9.25753	15.88162	19.95832	0.9929	1.00715	181.97954	159.38423	69.47345	0.30971	 	1.6853E18	 	1.76125E-18	 	11747.949	30.756	 
330.0	1.0	0.0	7.67244	7.13606	-9.28019	15.86504	19.89454	0.98789	1.01226	182.38398	159.56754	69.63869	0.3095	 	2.60279E18	 	1.13103E-18	 	11594.741	30.6416	 
325.0	1.0	0.0	7.67436	7.13429	-9.30281	15.84847	19.83075	0.98285	1.01745	182.78635	159.74866	69.80319	0.3093	 	4.04915E18	 	7.20996E-19	 	11442.099	30.5284	 
320.0	1.0	0.0	7.67627	7.13251	-9.32538	15.8319	19.76696	0.97778	1.02272	183.18667	159.92759	69.96696	0.30909	 	6.34645E18	 	4.56163E-19	 	11290.017	30.4164	 
315.0	1.0	0.0	7.67817	7.13074	-9.3479	15.81533	19.70316	0.97268	1.02809	183.58491	160.10434	70.12998	0.30889	 	1.00235E19	 	2.86387E-19	 	11138.488	30.3058	 
310.0	1.0	0.0	7.68008	7.12897	-9.37038	15.79877	19.63936	0.96754	1.03354	183.98107	160.27889	70.29226	0.30869	 	1.59559E19	 	1.7838E-19	 	10987.508	30.196	 
305.0	1.0	0.0	7.68198	7.12721	-9.39282	15.78221	19.57555	0.96237	1.0391	184.37514	160.45126	70.45379	0.30848	 	2.56047E19	 	1.10207E-19	 	10837.071	30.0874	 
300.0	1.0	0.0	7.68388	7.12544	-9.41521	15.76566	19.51174	0.95717	1.04474	184.76712	160.62144	70.61458	0.30828	 	4.14292E19	 	6.75225E-20	 	10687.17	29.9802	 
295.0	1.0	0.0	7.68577	7.12369	-9.43755	15.74912	19.44792	0.95194	1.05049	185.15699	160.78943	70.7746	0.30808	 	6.76046E19	 	4.10179E-20	 	10537.801	29.8738	 
290.0	1.0	0.0	7.68767	7.12193	-9.45985	15.73258	19.38409	0.94666	1.05634	185.54475	160.95524	70.93387	0.30787	 	1.1128299999999998E20	 	2.46992E-20	 	10388.959	29.7684	 
285.0	1.0	0.0	7.68956	7.12018	-9.48211	15.71604	19.32026	0.94136	1.06229	185.93039	161.11886	71.09238	0.30767	 	1.84826E20	 	1.47393E-20	 	10240.639	29.664	 
280.0	1.0	0.0	7.69144	7.11843	-9.50432	15.69951	19.25642	0.93602	1.06835	186.31391	161.28029	71.25013	0.30746	 	3.09802E20	 	8.71457E-21	 	10092.836	29.5606	 
275.0	1.0	0.0	7.69333	7.11669	-9.52649	15.68299	19.19258	0.93064	1.07452	186.69529	161.43954	71.40711	0.30726	 	5.2420599999999993E20	 	5.10368E-21	 	9945.545	29.4582	 
270.0	1.0	0.0	7.69521	7.11495	-9.54861	15.66647	19.12872	0.92523	1.08081	187.07454	161.59661	71.56332	0.30706	 	8.956339999999999E20	 	2.95989E-21	 	9798.762	29.3566	 
265.0	1.0	0.0	7.69709	7.11321	-9.57068	15.64995	19.06486	0.91979	1.08721	187.45165	161.7515	71.71876	0.30685	 	1.54556E21	 	1.69944E-21	 	9652.483	29.2558	 
260.0	1.0	0.0	7.69896	7.11148	-9.59272	15.63344	19.00099	0.9143	1.09373	187.82662	161.90422	71.87343	0.30665	 	2.69456E21	 	9.65713E-22	 	9506.703	29.156	 
255.0	1.0	0.0	7.70084	7.10975	-9.6147	15.61694	18.93712	0.90879	1.10037	188.19944	162.05477	72.02733	0.30644	 	4.7475E21	 	5.42974E-22	 	9361.418	29.057	 
250.0	1.0	0.0	7.70271	7.10803	-9.63665	15.60044	18.87323	0.90323	1.10714	188.57011	162.20315	72.18045	0.30624	 	8.45566E21	 	3.01971E-22	 	9216.625	28.9586	 
245.0	1.0	0.0	7.70457	7.1063	-9.65855	15.58394	18.80934	0.89763	1.11404	188.93862	162.34937	72.3328	0.30604	 	1.5228999999999999E22	 	1.66062E-22	 	9072.32	28.861	 
240.0	1.0	0.0	7.70644	7.10458	-9.6804	15.56745	18.74543	0.892	1.12107	189.30498	162.49344	72.48436	0.30583	 	2.7744499999999997E22	 	9.02721E-23	 	8928.5	28.764	 
235.0	1.0	0.0	7.7083	7.10287	-9.70221	15.55097	18.68152	0.88633	1.12824	189.66918	162.63535	72.63515	0.30563	 	5.11462E22	 	4.84914E-23	 	8785.16	28.668	 
230.0	1.0	0.0	7.71016	7.10116	-9.72398	15.53449	18.6176	0.88063	1.13556	190.03122	162.77512	72.78516	0.30543	 	9.54402E22	 	2.57308E-23	 	8642.298	28.5724	 
225.0	1.0	0.0	7.71201	7.09945	-9.7457	15.51802	18.55367	0.87488	1.14302	190.39111	162.91276	72.93439	0.30522	 	1.80339E23	 	1.34821E-23	 	8499.91	28.4776	 
220.0	1.0	0.0	7.71387	7.09774	-9.76737	15.50155	18.48973	0.86909	1.15063	190.74884	163.04826	73.08284	0.30502	 	3.4518899999999996E23	 	6.97283E-24	 	8357.994	28.3832	 
215.0	1.0	0.0	7.71572	7.09604	-9.789	15.48508	18.42578	0.86327	1.15839	191.10442	163.18164	73.23051	0.30481	 	6.69577E23	 	3.55827E-24	 	8216.546	28.2896	 
210.0	1.0	0.0	7.71756	7.09434	-9.81059	15.46862	18.36183	0.8574	1.16632	191.45785	163.31291	73.3774	0.30461	 	1.31675E24	 	1.79088E-24	 	8075.565	28.1962	 
205.0	1.0	0.0	7.71941	7.09265	-9.83213	15.45217	18.29786	0.85149	1.17441	191.80913	163.44208	73.52352	0.30441	 	2.6263300000000003E24	 	8.88591E-25	 	7935.048	28.1034	 
200.0	1.0	0.0	7.72125	7.09096	-9.85363	15.43572	18.23388	0.84555	1.18267	192.15827	163.56915	73.66886	0.3042	 	5.31539E24	 	4.34461E-25	 	7794.991	28.0114	 
195.0	1.0	0.0	7.72309	7.08927	-9.87509	15.41928	18.16989	0.83956	1.1911	192.50527	163.69415	73.81342	0.304	 	1.0921000000000001E25	 	2.09223E-25	 	7655.394	27.9194	 
190.0	1.0	0.0	7.72492	7.08759	-9.8965	15.40284	18.10589	0.83353	1.19972	192.85014	163.81708	73.95722	0.3038	 	2.279E25	 	9.91891E-26	 	7516.254	27.828	 
185.0	1.0	0.0	7.72675	7.08591	-9.91786	15.38641	18.04188	0.82745	1.20853	193.19289	163.93795	74.10024	0.30359	 	4.83283E25	 	4.62693E-26	 	7377.569	27.737	 
180.0	1.0	0.0	7.72858	7.08423	-9.93918	15.36998	17.97786	0.82134	1.21753	193.53353	164.05678	74.2425	0.30339	 	1.0419900000000001E26	 	2.12259E-26	 	7239.338	27.6462	 
175.0	1.0	0.0	7.73041	7.08255	-9.96046	15.35355	17.91382	0.81518	1.22672	193.87206	164.17359	74.384	0.30318	 	2.2854500000000002E26	 	9.57056E-27	 	7101.559	27.5558	 
170.0	1.0	0.0	7.73223	7.08088	-9.98169	15.33713	17.84978	0.80898	1.23613	194.20851	164.28839	74.52474	0.30298	 	5.102470000000001E26	 	4.23894E-27	 	6964.231	27.4656	 
165.0	1.0	0.0	7.73405	7.07922	-10.00288	15.32072	17.78573	0.80273	1.24575	194.54288	164.4012	74.66473	0.30278	 	1.1602499999999999E27	 	1.84314E-27	 	6827.352	27.3758	 
160.0	1.0	0.0	7.73587	7.07755	-10.02403	15.30431	17.72166	0.79644	1.25559	194.87519	164.51204	74.80397	0.30257	 	2.6888E27	 	7.86262E-28	 	6690.923	27.2858	 
155.0	1.0	0.0	7.73769	7.07589	-10.04513	15.28791	17.65758	0.7901	1.26566	195.20545	164.62092	74.94247	0.30237	 	6.35465E27	 	3.28845E-28	 	6554.942	27.1962	 
150.0	1.0	0.0	7.7395	7.07424	-10.06618	15.27151	17.59349	0.78372	1.27597	195.53369	164.72788	75.08023	0.30216	 	1.53269E28	 	1.3475E-28	 	6419.409	27.1066	 
145.0	1.0	0.0	7.74131	7.07259	-10.08719	15.25512	17.52939	0.77729	1.28652	195.85992	164.83292	75.21727	0.30196	 	3.77538E28	 	5.40577E-29	 	6284.324	27.017	 
140.0	1.0	0.0	7.74311	7.07094	-10.10816	15.23873	17.46527	0.77081	1.29733	196.18417	164.93609	75.35359	0.30176	 	9.50485E28	 	2.12153E-29	 	6149.686	26.9276	 
135.0	1.0	0.0	7.74491	7.06929	-10.12909	15.22235	17.40115	0.76429	1.3084	196.50646	165.03739	75.48919	0.30155	 	2.4476800000000003E29	 	8.13864E-30	 	6015.495	26.8382	 
130.0	1.0	0.0	7.74671	7.06765	-10.14997	15.20597	17.33701	0.75772	1.31974	196.82681	165.13687	75.6241	0.30135	 	6.45289E29	 	3.04929E-30	 	5881.754	26.7482	 
125.0	1.0	0.0	7.74851	7.06601	-10.1708	15.1896	17.27286	0.7511	1.33137	197.14526	165.23455	75.75831	0.30115	 	1.74313E30	 	1.11482E-30	 	5748.461	26.6586	 
120.0	1.0	0.0	7.7503	7.06437	-10.19159	15.17323	17.20869	0.74444	1.3433	197.46184	165.33046	75.89185	0.30094	 	4.8292699999999997E30	 	3.97341E-31	 	5615.618	26.5686	 
115.0	1.0	0.0	7.7521	7.06274	-10.21234	15.15687	17.14451	0.73772	1.35553	197.77658	165.42463	76.02473	0.30074	 	1.37352E31	 	1.37927E-31	 	5483.227	26.4782	 
110.0	1.0	0.0	7.75388	7.06111	-10.23304	15.14051	17.08032	0.73095	1.36807	198.08951	165.51711	76.15695	0.30053	 	4.01456E31	 	4.65819E-32	 	5351.29	26.3874	 
105.0	1.0	0.0	7.75567	7.05949	-10.2537	15.12416	17.01612	0.72414	1.38095	198.40069	165.60793	76.28854	0.30033	 	1.20714E32	 	1.52894E-32	 	5219.807	26.2966	 
100.0	1.0	0.0	7.75745	7.05787	-10.27432	15.10781	16.9519	0.71727	1.39417	198.71014	165.69714	76.4195	0.30013	 	3.73847E32	 	4.87165E-33	 	5088.782	26.205	 
95.0	1.0	0.0	7.75923	7.05625	-10.29489	15.09147	16.88766	0.71035	1.40775	199.01792	165.78476	76.54987	0.29992	 	1.19389E33	 	1.50504E-33	 	4958.217	26.113	 
90.0	1.0	0.0	7.761	7.05463	-10.31542	15.07513	16.82342	0.70338	1.42171	199.32408	165.87087	76.67965	0.29972	 	3.93659E33	 	4.50249E-34	 	4828.115	26.0204	 
85.0	1.0	0.0	7.76278	7.05302	-10.3359	15.0588	16.75916	0.69635	1.43605	199.62867	165.95549	76.80886	0.29952	 	1.34197E34	 	1.30259E-34	 	4698.48	25.927	 
80.0	1.0	0.0	7.76455	7.05141	-10.35634	15.04247	16.69488	0.68928	1.4508	199.93176	166.03869	76.93754	0.29931	 	4.73642E34	 	3.63911E-35	 	4569.315	25.833	 
75.0	1.0	0.0	7.76631	7.04981	-10.37674	15.02615	16.63059	0.68214	1.46596	200.23339	166.12052	77.0657	0.29911	 	1.73336E35	 	9.80312E-36	 	4440.626	25.7378	 
70.0	1.0	0.0	7.76808	7.04821	-10.39709	15.00983	16.56629	0.67496	1.48157	200.53365	166.20105	77.19338	0.2989	 	6.5879E35	 	2.54228E-36	 	4312.416	25.642	 
65.0	1.0	0.0	7.76984	7.04661	-10.4174	14.99352	16.50197	0.66772	1.49764	200.83261	166.28034	77.32059	0.2987	 	2.6046699999999997E36	 	6.3364E-37	 	4184.692	25.5448	 
60.0	1.0	0.0	7.7716	7.04502	-10.43766	14.97721	16.43763	0.66042	1.51419	201.13034	166.35845	77.44736	0.2985	 	1.0731999999999999E37	 	1.51512E-37	 	4057.459	25.4466	 
55.0	1.0	0.0	7.77335	7.04343	-10.45788	14.96091	16.37328	0.65306	1.53125	201.42693	166.43546	77.57374	0.29829	 	4.616849999999999E37	 	3.46907E-38	 	3930.725	25.3468	 
50.0	1.0	0.0	7.7751	7.04184	-10.47806	14.94461	16.30891	0.64565	1.54883	201.72248	166.51146	77.69976	0.29809	 	2.07788E38	 	7.5905E-39	 	3804.495	25.246	 
45.0	1.0	0.0	7.77685	7.04026	-10.49819	14.92832	16.24453	0.63818	1.56696	202.01708	166.58652	77.82545	0.29789	 	9.804589999999999E38	 	1.58376E-39	 	3678.778	25.1434	 
40.0	1.0	0.0	7.7786	7.03868	-10.51828	14.91203	16.18013	0.63065	1.58567	202.31084	166.66074	77.95085	0.29768	 	4.8613300000000006E39	 	3.14401E-40	 	3553.583	25.039	 
35.0	1.0	0.0	7.78034	7.0371	-10.53832	14.89575	16.11571	0.62306	1.60498	202.60387	166.73422	78.07602	0.29748	 	2.5389E40	 	5.92384E-41	 	3428.918	24.933	 
30.0	1.0	0.0	7.78208	7.03553	-10.55833	14.87948	16.05128	0.61541	1.62493	202.8963	166.80705	78.20099	0.29727	 	1.40029E41	 	1.05664E-41	 	3304.796	24.8244	 
25.0	1.0	0.0	7.78382	7.03396	-10.57828	 	15.98683	0.6077	1.64555	203.18826	166.87935	78.32582	0.29707	 	8.17825E41	 	1.77935E-42	 	3181.226	 	 
