T (C)	Fraction solid (wt)-TOTAL	Fraction liquid (wt)-LIQUID	Density (g/(cm)^3)-TOTAL	Molar volume (cm^3)-TOTAL	Volume change (%)-  	Average expansion coeff. (10e-6 1/K)-  	Thermal conductivity (W/(m*K))-TOTAL	Electrical resistivity (10e-6 Ohm*m)-TOTAL	Electrical conductivity (10e6 1/(Ohm*m))-TOTAL	Young's modulus (GPa)-TOTAL	Bulk modulus (GPa)-TOTAL	Shear modulus(GPa)-TOTAL	Poisson's ratio-TOTAL	Liquid viscosity (mPa s)-  	Total viscosity (mPa s)-  	Liquid diffusivity (10e-9 (m^2)/s)-  	Total diffusivity (10e-9 (m^2)/s)-  	Surface Tension (mN/m)-  	Enthalpy (J/mole)-TOTAL	Specific heat (J/(mole K))-TOTAL	Latent heat (J/mole)-TOTAL
1400.0	0.0	1.0	7.51425	7.91568	0.0	32.22521	30.72792	1.33404	0.7496	0.0	123.88844	0.0	0.5	7.14279	7.14279	1.14328	1.14328	1791.29968	42166.733	 	0.0
1395.0	0.0	1.0	7.51842	7.91128	-0.0555577	32.18967	30.6431	1.33373	0.74978	0.0	124.0251	0.0	0.5	7.22068	7.22068	1.12757	1.12757	1794.71115	41964.542	40.4382	0.0
1390.0	0.0	1.0	7.52259	7.9069	-0.11096	32.15432	30.55829	1.33342	0.74995	0.0	124.16176	0.0	0.5	7.2999	7.2999	1.11199	1.11199	1798.16048	41762.815	40.3454	0.0
1385.0	0.0	1.0	7.52676	7.90253	-0.1662	32.11914	30.47348	1.33312	0.75012	0.0	124.29841	0.0	0.5	7.38048	7.38048	1.09654	1.09654	1801.64777	41561.549	40.2532	0.0
1380.0	0.0	1.0	7.53091	7.89817	-0.22128	32.08414	30.38866	1.33281	0.7503	0.0	124.43507	0.0	0.5	7.46243	7.46243	1.08123	1.08123	1805.17307	41360.742	40.1614	0.0
1375.0	0.0	1.0	7.53506	7.89382	-0.27621	32.04932	30.30385	1.33249	0.75047	0.0	124.57173	0.0	0.5	7.54581	7.54581	1.06605	1.06605	1808.7364	41160.39	40.0704	0.0
1370.0	0.0	1.0	7.5392	7.88948	-0.33097	32.01469	30.21904	1.33218	0.75065	0.0	124.70839	0.0	0.5	7.63063	7.63063	1.051	1.051	1812.33777	40960.491	39.9798	0.0
1365.0	0.0	1.0	7.54333	7.88516	-0.38558	31.98025	30.13422	1.33186	0.75083	0.0	124.84505	0.0	0.5	7.71693	7.71693	1.03609	1.03609	1815.97716	40761.043	39.8896	0.0
1360.0	0.0	1.0	7.54746	7.88085	-0.44003	31.946	30.04941	1.33155	0.75101	0.0	124.98171	0.0	0.5	7.80475	7.80475	1.0213	1.0213	1819.65451	40562.041	39.8004	0.0
1355.0	0.0	1.0	7.55158	7.87655	-0.49433	31.91193	29.9646	1.33123	0.75119	0.0	125.11837	0.0	0.5	7.89411	7.89411	1.00665	1.00665	1823.36975	40363.485	39.7112	0.0
1350.4	0.0	1.0	7.55536	7.87261	-0.5441	31.88079	29.88663	1.33093	0.75135	0.0	125.244	0.0	0.5	7.97766	7.97766	0.99329	0.99329	1826.81852	40181.343	39.62606	0.0
1350.0	0.01237	0.98763	7.55936	7.86849	-0.59615	31.74214	29.9183	1.32919	0.75234	2.2514E-6	125.53189	7.51233E-7	0.49847	7.9846	8.11704	0.99218	0.976	1826.66439	39985.099	486.37851	180.27
1345.0	0.15897	0.84103	7.6071	7.81907	-1.22058	30.07593	30.30098	1.30836	0.76431	0.0632046	128.84447	0.0213513	0.48011	8.07409	25.21232	0.97816	0.31325	1824.84699	37665.797	463.8604	2301.898
1340.0	0.2794	0.7206	7.64704	7.77825	-1.73615	28.70967	30.61474	1.29095	0.77462	0.61748	131.55155	0.21078	0.46478	8.16799	165.94141	0.96393	0.0474468	1823.09892	35742.317	384.696	4028.141
1335.0	0.37922	0.62078	7.68069	7.74413	-2.16723	27.57654	30.87348	1.27617	0.7836	2.13764	133.78867	0.73616	0.45188	8.2663	567.47274	0.94952	0.0138315	1821.42487	34130.639	322.3356	5443.015
1330.0	0.46261	0.53739	7.70932	7.71543	-2.5298	26.63299	31.08756	1.26344	0.79149	4.81633	135.66166	1.67122	0.44097	8.36913	1314.94278	0.93493	0.00595051	1819.82663	32766.61	272.8058	6610.672
1325.0	0.53281	0.46719	7.73384	7.69091	-2.83958	25.83554	31.26391	1.25239	0.79847	8.6021	137.24525	3.00424	0.43166	8.47637	2440.90179	0.92023	0.00319561	1818.3077	31600.812	233.1596	7580.527
1320.0	0.5923	0.4077	7.75501	7.66988	-3.1053	25.1604	31.40796	1.24275	0.80467	13.30923	138.60173	4.67424	0.42368	8.58826	3944.34068	0.9054	0.00197137	1816.86779	30594.861	201.1902	8390.962
1315.0	0.64302	0.35698	7.77341	7.65164	-3.33566	24.58354	31.52422	1.23428	0.81019	18.70167	139.77571	6.59997	0.4168	8.7047	5806.36947	0.89048	0.00133498	1815.50768	29718.71	175.2302	9072.021
1310.0	0.68649	0.31351	7.7895	7.63576	-3.53627	24.08964	31.61629	1.22681	0.81512	24.54623	140.8039	8.69916	0.41084	8.82587	8002.16411	0.87549	9.65609E-4	1814.22622	28948.658	154.0104	9647.403
1305.0	0.72395	0.27605	7.80367	7.62177	-3.7131	23.66204	31.6874	1.22019	0.81954	30.64008	141.71244	10.89892	0.40565	8.95178	10507.55465	0.86045	7.3305E-4	1813.02346	28265.881	136.5554	10135.928
1300.0	0.75638	0.24362	7.81622	7.60938	-3.86961	23.29127	31.74032	1.2143	0.82352	36.81834	142.52436	13.13906	0.4011	9.08245	13302.78928	0.84538	5.77184E-4	1811.89745	27655.326	122.111	10552.649
1295.0	0.78457	0.21543	7.8274	7.59835	-4.00886	22.96889	31.77727	1.20903	0.82711	42.94875	143.25672	15.37056	0.39711	9.21819	16371.61472	0.83029	4.67501E-4	1810.84636	27104.877	110.0898	10909.679
1290.0	0.80918	0.19082	7.83742	7.58845	-4.13396	22.68621	31.80049	1.2043	0.83036	48.94021	143.92328	17.55909	0.39359	9.35883	19705.66022	0.8152	3.87165E-4	1809.86907	26604.723	100.0308	11216.825
1285.0	0.83074	0.16926	7.84646	7.57948	-4.24728	22.43659	31.81163	1.20002	0.83332	54.72569	144.53463	19.679	0.39046	9.50459	23300.70448	0.80013	3.26383E-4	1808.96423	26146.875	91.5696	11482.075
1280.0	0.84969	0.15031	7.85464	7.57136	-4.34992	22.21714	31.81223	1.19615	0.83602	60.25996	145.10066	21.7125	0.38768	9.65558	27158.20142	0.78509	2.79125E-4	1808.12849	25724.787	84.4176	11711.972
1275.0	0.86641	0.13359	7.8621	7.56391	-4.44404	22.02165	31.80372	1.19262	0.83849	65.52398	145.62811	23.6516	0.38519	9.81191	31286.93937	0.7701	2.41511E-4	1807.36115	25333.072	78.343	11911.9
1270.0	0.88121	0.11879	7.86892	7.55707	-4.53043	21.84803	31.78709	1.18939	0.84077	70.49792	146.123	25.48801	0.38296	9.97375	35695.07441	0.75516	2.11002E-4	1806.65947	24967.272	73.16	12086.316
1265.0	0.89435	0.10565	7.87521	7.55074	-4.61037	21.69267	31.76349	1.18641	0.84288	75.18612	146.59047	27.22254	0.38095	10.14113	40400.8759	0.74028	1.85821E-4	1806.02183	24623.679	68.7186	12238.926
1260.0	0.90605	0.0939488	7.88102	7.54485	-4.68477	21.55299	31.73359	1.18367	0.84483	79.58653	147.03395	28.8537	0.37914	10.31426	45420.026	0.72549	1.64749E-4	1805.44684	24299.196	64.8966	12372.823
1255.0	0.91649	0.0835097	7.88641	7.53935	-4.75421	21.42741	31.69825	1.18113	0.84665	83.71285	147.45731	30.38593	0.37749	10.4933	50778.03463	0.71079	1.46885E-4	1804.93192	23991.224	61.5944	12490.605
1250.0	0.92583	0.0741667	7.89145	7.53419	-4.81948	21.31367	31.6581	1.17876	0.84835	87.57568	147.86308	31.82266	0.376	10.67833	56500.06663	0.69619	1.31577E-4	1804.47609	23697.574	58.73	12594.458
1245.0	0.93421	0.0657867	7.89618	7.52932	-4.88097	21.21066	31.61365	1.17654	0.84995	91.18838	148.25356	33.16837	0.37463	10.86959	62615.66424	0.68169	1.18336E-4	1804.07729	23416.393	56.2362	12686.233
1240.0	0.94175	0.0582521	7.90062	7.52471	-4.93921	21.11693	31.5654	1.17446	0.85146	94.56559	148.63078	34.42814	0.37338	11.06724	69158.22366	0.66731	1.06789E-4	1803.73417	23146.108	54.057	12767.501
1235.0	0.94854	0.0514638	7.90482	7.52033	-4.9946	21.03132	31.51379	1.17249	0.85288	97.72332	148.99629	35.6076	0.37223	11.27141	76165.00022	0.65306	9.66442E-5	1803.44548	22885.377	52.1462	12839.6
1230.0	0.95467	0.0453345	7.90881	7.51614	-5.0475	20.95282	31.45916	1.17063	0.85424	100.6765	149.3514	36.71204	0.37116	11.48232	83676.90114	0.63894	8.76765E-5	1803.20998	22633.053	50.4648	12903.678
1225.0	0.96021	0.0397915	7.9126	7.51213	-5.09813	20.88076	31.40185	1.16887	0.85553	103.43916	149.69736	37.74645	0.37018	11.70019	91738.71631	0.62496	7.97057E-5	1803.02617	22388.151	48.9804	12960.716
1220.0	0.96523	0.0347687	7.91622	7.50827	-5.14686	20.81415	31.34214	1.16719	0.85676	106.02585	150.03496	38.71608	0.36927	11.92513	100399.7574	0.61112	7.25868E-5	1802.8937	22149.821	47.666	13011.561
1215.0	0.96979	0.0302098	7.91969	7.50456	-5.19379	20.75267	31.28027	1.16558	0.85794	108.44939	150.36519	39.62554	0.36843	12.15748	109714.3415	0.59743	6.62018E-5	1802.81078	21917.33	46.4982	13056.945
1210.0	0.97393	0.0260653	7.92302	7.50097	-5.23916	20.69563	31.21646	1.16404	0.85908	110.72211	150.68867	40.47929	0.36764	12.3974	119741.4208	0.5839	6.04543E-5	1802.77685	21690.042	45.4576	13097.501
1205.0	0.97771	0.0222919	7.92623	7.49749	-5.28315	20.64257	31.15091	1.16256	0.86017	112.85619	151.00606	41.28178	0.3669	12.64512	130546.6527	0.57053	5.52636E-5	1802.79094	21467.405	44.5274	13133.781
1200.0	0.98115	0.0188507	7.92933	7.4941	-5.32588	20.59305	31.08378	1.16113	0.86123	114.86174	151.31777	42.03668	0.36621	12.90086	142200.2624	0.55733	5.05631E-5	1802.85256	21248.935	43.694	13166.263
1195.0	0.98429	0.0157098	7.92782	7.48932	-5.38628	20.48611	30.85745	1.16567	0.85787	117.03691	151.70904	42.86106	0.36531	13.16489	154781.3534	0.5443	4.62955E-5	1805.2153	20911.26388	67.53422	13195.368
1190.0	0.98716	0.0128397	7.93605	7.48319	-5.46381	20.32273	30.52166	1.17448	0.85144	119.64105	152.3173	43.85559	0.36403	13.43751	171266.4814	0.53144	4.16968E-5	1807.5827	20517.23364	78.80605	13221.464
1185.0	0.98979	0.0102126	7.94371	7.47707	-5.541	20.15901	30.20091	1.1829	0.84538	122.11109	152.90455	44.80029	0.36284	13.71897	189351.4752	0.51876	3.75855E-5	1809.95511	20133.40846	76.76504	13244.872
1180.0	0.99219	0.00780506	7.95084	7.47101	-5.61762	19.99579	29.89396	1.19095	0.83967	124.45556	153.47153	45.69822	0.36171	14.00949	209195.8016	0.50626	3.39035E-5	1812.33348	19759.10674	74.86034	13265.877
1175.0	0.9944	0.00559802	7.95749	7.46501	-5.6934	19.83386	29.59986	1.19864	0.83428	126.68151	154.01905	46.55189	0.36065	14.30945	230974.5215	0.49394	3.0601E-5	1814.718	19393.70498	73.08035	13284.731
1170.0	0.99643	0.00357219	7.96369	7.45909	-5.76821	19.67373	29.31775	1.206	0.82919	128.7969	154.54807	47.36417	0.35964	14.61901	254883.4888	0.48182	2.76348E-5	1817.10896	19036.63373	71.41425	13301.655
1165.0	0.99829	0.00171046	7.96948	7.45326	-5.84188	19.51598	29.04683	1.21303	0.82438	130.80738	155.05921	48.1371	0.3587	14.93872	281135.3878	0.46987	2.49675E-5	1819.50675	18687.3748	69.85179	13316.846
1160.0	1.0	0.0	7.9749	7.44752	-5.91432	19.36091	28.78638	1.21975	0.81984	132.71987	155.55336	48.8732	0.3578	 	309969.0087	 	2.25663E-5	 	18345.45162	68.38464	13330.48
1155.0	1.0	0.0	7.97993	7.44283	-5.97362	19.24841	28.52577	1.2266	0.81526	133.67431	155.98167	49.24749	0.35717	 	339750.3488	 	2.05164E-5	 	17988.54163	71.382	 
1150.0	1.0	0.0	7.98487	7.43823	-6.03175	19.13883	28.27471	1.23316	0.81093	134.60024	156.39617	49.61085	0.35656	 	372617.3941	 	1.86412E-5	 	17675.41595	62.62513	 
1145.0	1.0	0.0	7.98972	7.43372	-6.08877	19.03201	28.03267	1.23944	0.80682	135.49939	156.798	49.96392	0.35597	 	408913.2662	 	1.69269E-5	 	17367.17427	61.64834	 
1140.0	1.0	0.0	7.99448	7.42929	-6.14473	18.92783	27.79918	1.24544	0.80293	136.37335	157.18816	50.3073	0.3554	 	449021.7722	 	1.53606E-5	 	17063.58893	60.71707	 
1135.0	1.0	0.0	7.99916	7.42494	-6.19968	18.82614	27.57378	1.25118	0.79925	137.22356	157.56753	50.64153	0.35485	 	493372.5118	 	1.39303E-5	 	16764.44729	59.82833	 
1130.0	1.0	0.0	8.00377	7.42066	-6.25366	18.72683	27.35606	1.25666	0.79576	138.05138	157.93692	50.96712	0.35432	 	542446.6646	 	1.26251E-5	 	16469.5507	58.97932	 
1125.0	1.0	0.0	8.0083	7.41646	-6.30673	18.62976	27.14562	1.26189	0.79246	138.85803	158.29702	51.28454	0.3538	 	596783.5358	 	1.14347E-5	 	16178.71359	58.16742	 
1120.0	1.0	0.0	8.01277	7.41233	-6.35892	18.53485	26.94207	1.26687	0.78935	139.64464	158.6485	51.59421	0.3533	 	656987.9822	 	1.03497E-5	 	15891.76251	57.39022	 
1115.0	1.0	0.0	8.01716	7.40827	-6.41026	18.44198	26.74508	1.27162	0.7864	140.41229	158.99191	51.89654	0.35281	 	723738.8338	 	9.36141E-6	 	15608.53533	56.64544	 
1110.0	1.0	0.0	8.02149	7.40427	-6.4608	18.35107	26.5543	1.27615	0.78361	141.16193	159.3278	52.19189	0.35234	 	797798.4463	 	8.4618E-6	 	15328.88051	55.93096	 
1105.0	1.0	0.0	8.02576	7.40033	-6.51056	18.26202	26.36944	1.28045	0.78098	141.8945	159.65664	52.48062	0.35188	 	880023.5589	 	7.64344E-6	 	15052.6563	55.24484	 
1100.0	1.0	0.0	8.02997	7.39645	-6.55958	18.17475	26.1902	1.28453	0.77849	142.61083	159.97887	52.76304	0.35143	 	971377.619	 	6.89948E-6	 	14779.7301	54.58524	 
1095.0	1.0	0.0	8.03413	7.39262	-6.60789	18.0892	26.01631	1.28841	0.77615	143.31173	160.29489	53.03946	0.35099	 	1072944.805	 	6.22362E-6	 	14509.97781	53.95046	 
1090.0	1.0	0.0	8.03822	7.38885	-6.6555	18.00528	25.84752	1.29208	0.77394	143.99792	160.60506	53.31016	0.35057	 	1185945.989	 	5.61003E-6	 	14243.28322	53.33892	 
1085.0	1.0	0.0	8.04227	7.38514	-6.70246	17.92293	25.68357	1.29556	0.77187	144.67011	160.90973	53.57541	0.35015	 	1311756.894	 	5.05337E-6	 	13979.53745	52.74916	 
1080.0	1.0	0.0	8.04626	7.38147	-6.74877	17.84209	25.52424	1.29885	0.76991	145.32894	161.20921	53.83545	0.34975	 	1451928.807	 	4.5487E-6	 	13718.63837	52.17982	 
1075.0	1.0	0.0	8.05021	7.37785	-6.79447	17.76269	25.36933	1.30195	0.76808	145.97503	161.50379	54.09053	0.34936	 	1608212.178	 	4.09149E-6	 	13460.49012	51.62965	 
1070.0	1.0	0.0	8.05411	7.37428	-6.83957	17.6847	25.21861	1.30488	0.76636	146.60895	161.79372	54.34085	0.34898	 	1782583.561	 	3.67757E-6	 	13205.00261	51.0975	 
1065.0	1.0	0.0	8.05796	7.37076	-6.88409	17.60805	25.07192	1.30763	0.76474	147.23124	162.07927	54.58663	0.3486	 	1977276.397	 	3.30312E-6	 	12952.09104	50.58231	 
1060.0	1.0	0.0	8.06176	7.36728	-6.92806	17.5327	24.92905	1.31021	0.76324	147.84241	162.36065	54.82807	0.34824	 	2194816.158	 	2.96461E-6	 	12701.67544	50.08312	 
1055.0	1.0	0.0	8.06553	7.36384	-6.97148	17.4586	24.78985	1.31262	0.76183	148.44295	162.63809	55.06534	0.34788	 	2438060.575	 	2.65882E-6	 	12453.68035	49.59902	 
1050.0	1.0	0.0	8.06925	7.36045	-7.01438	17.38572	24.65414	1.31488	0.76053	149.03332	162.91177	55.29863	0.34753	 	2710245.689	 	2.3828E-6	 	12208.03426	49.12922	 
1045.0	1.0	0.0	8.07293	7.35709	-7.05677	17.314	24.52178	1.31698	0.75931	149.61394	163.1819	55.52811	0.34719	 	3015038.604	 	2.13382E-6	 	11964.6694	48.67297	 
1040.0	1.0	0.0	8.07657	7.35378	-7.09866	17.24342	24.39262	1.31893	0.75819	150.18523	163.44864	55.75393	0.34686	 	3356597.972	 	1.90942E-6	 	11723.52127	48.22963	 
1035.0	1.0	0.0	8.08017	7.3505	-7.14007	17.17394	24.26652	1.32074	0.75715	150.74758	163.71215	55.97624	0.34653	 	3739643.418	 	1.70732E-6	 	11484.52839	47.79858	 
1030.0	1.0	0.0	8.08373	7.34726	-7.18102	17.10552	24.14334	1.3224	0.7562	151.30136	163.9726	56.19519	0.34621	 	4169535.258	 	1.52543E-6	 	11247.63196	47.37929	 
1025.0	1.0	0.0	8.08726	7.34405	-7.22151	17.03814	24.02296	1.32393	0.75533	151.84693	164.23012	56.41092	0.3459	 	4652366.238	 	1.36188E-6	 	11012.77577	46.97124	 
1020.0	1.0	0.0	8.09076	7.34088	-7.26156	16.97176	23.90526	1.32532	0.75453	152.38464	164.48485	56.62356	0.34559	 	5195066.768	 	1.21491E-6	 	10779.90602	46.57395	 
1015.0	1.0	0.0	8.09421	7.33774	-7.30118	16.90635	23.79011	1.32659	0.75381	152.9148	164.73692	56.83323	0.34529	 	5805526.742	 	1.08296E-6	 	10548.96993	46.18722	 
1010.0	1.0	0.0	8.09764	7.33464	-7.34037	16.84188	23.67742	1.32773	0.75317	153.43773	164.98646	57.04006	0.345	 	6492735.259	 	9.64576E-7	 	10319.91694	45.8106	 
1005.0	1.0	0.0	8.10103	7.33157	-7.37917	16.77833	23.56707	1.32875	0.75259	153.95373	165.23357	57.24417	0.34471	 	7266942.268	 	8.58454E-7	 	10092.69806	45.44377	 
1000.0	1.0	0.0	8.10439	7.32853	-7.41756	16.71567	23.45896	1.32965	0.75208	154.46309	165.47837	57.44567	0.34443	 	8139845.052	 	7.63396E-7	 	9867.26573	45.08647	 
995.0	1.0	0.0	8.10772	7.32552	-7.45556	16.65387	23.353	1.33044	0.75163	154.96609	165.72096	57.64466	0.34415	 	9124803.885	 	6.78319E-7	 	9643.57364	44.73842	 
990.0	1.0	0.0	8.11101	7.32255	-7.49319	16.5929	23.24908	1.33111	0.75125	155.46298	165.96144	57.84125	0.34388	 	1.023709133E7	 	6.02234E-7	 	9421.57666	44.3994	 
985.0	1.0	0.0	8.11428	7.3196	-7.53045	16.53275	23.14713	1.33168	0.75093	155.95403	166.19991	58.03554	0.34361	 	1.149418123E7	 	5.34246E-7	 	9201.23071	44.06919	 
980.0	1.0	0.0	8.11752	7.31667	-7.56735	16.47338	23.04704	1.33215	0.75066	156.43948	166.43644	58.22763	0.34334	 	1.291608338E7	 	4.73542E-7	 	8982.49273	43.7476	 
975.0	1.0	0.0	8.12073	7.31378	-7.60391	16.41478	22.94875	1.33252	0.75046	156.91957	166.67114	58.4176	0.34308	 	1.452573205E7	 	4.19387E-7	 	8765.3206	43.43442	 
970.0	1.0	0.0	8.12392	7.31091	-7.64012	16.35691	22.85216	1.33279	0.7503	157.39453	166.90407	58.60556	0.34283	 	1.634943702E7	 	3.71114E-7	 	8549.67314	43.12949	 
965.0	1.0	0.0	8.12707	7.30807	-7.676	16.29976	22.75721	1.33297	0.7502	157.86457	167.13532	58.79158	0.34258	 	1.841740816E7	 	3.28119E-7	 	8335.51	42.83263	 
960.0	1.0	0.0	8.13021	7.30526	-7.71156	16.24331	22.66383	1.33306	0.75016	158.32991	167.36495	58.97575	0.34233	 	2.076436554E7	 	2.89857E-7	 	8122.79173	42.54366	 
955.0	1.0	0.0	8.13331	7.30247	-7.74681	16.18752	22.57193	1.33306	0.75016	158.79074	167.59304	59.15814	0.34209	 	2.343025036E7	 	2.55836E-7	 	7911.4797	42.26241	 
950.0	1.0	0.0	8.13639	7.2997	-7.78175	16.13237	22.48145	1.33297	0.7502	159.24727	167.81965	59.33884	0.34185	 	2.646105376E7	 	2.2561E-7	 	7701.53614	41.98871	 
945.0	1.0	0.0	8.13945	7.29696	-7.81639	16.07786	22.39234	1.33281	0.7503	159.69967	168.04484	59.51791	0.34161	 	2.990978452E7	 	1.98781E-7	 	7492.92411	41.72241	 
940.0	1.0	0.0	8.14249	7.29424	-7.85074	16.02394	22.30453	1.33256	0.75043	160.14812	168.26868	59.69544	0.34138	 	3.38375991E7	 	1.74985E-7	 	7285.60756	41.46331	 
935.0	1.0	0.0	8.1455	7.29155	-7.8848	15.97061	22.21795	1.33224	0.75061	160.5928	168.49121	59.87147	0.34115	 	3.831512423E7	 	1.539E-7	 	7079.55126	41.21126	 
930.0	1.0	0.0	8.14849	7.28887	-7.9186	15.91784	22.13256	1.33185	0.75084	161.03387	168.71249	60.04609	0.34092	 	4.342400518E7	 	1.35231E-7	 	6874.72084	40.96608	 
925.0	1.0	0.0	8.15145	7.28622	-7.95212	15.8656	22.0483	1.33138	0.7511	161.47148	168.93258	60.21935	0.34069	 	4.925872021E7	 	1.18718E-7	 	6671.08286	40.7276	 
920.0	1.0	0.0	8.1544	7.28359	-7.98538	15.81389	21.96512	1.33085	0.7514	161.90578	169.1515	60.3913	0.34047	 	5.592871043E7	 	1.04123E-7	 	6468.60468	40.49564	 
915.0	1.0	0.0	8.15733	7.28097	-8.01839	15.76268	21.88297	1.33024	0.75174	162.33692	169.36932	60.56202	0.34025	 	6.356088157E7	 	9.12364E-8	 	6267.25463	40.27001	 
910.0	1.0	0.0	8.16023	7.27838	-8.05115	15.71195	21.8018	1.32958	0.75212	162.76503	169.58607	60.73154	0.34004	 	7.230254638E7	 	7.9868E-8	 	6067.00186	40.05055	 
905.0	1.0	0.0	8.16312	7.27581	-8.08366	15.66168	21.72157	1.32885	0.75253	163.19023	169.80179	60.89993	0.33982	 	8.232488865E7	 	6.98483E-8	 	5867.81645	39.83708	 
900.0	1.0	0.0	8.16599	7.27325	-8.11594	15.61185	21.64225	1.32806	0.75298	163.61266	170.01651	61.06723	0.33961	 	9.382704727E7	 	6.10256E-8	 	5669.66936	39.62942	 
895.0	1.0	0.0	8.16884	7.27071	-8.148	15.56245	21.56378	1.32721	0.75346	164.03243	170.23027	61.23349	0.3394	 	1.070409345E8	 	5.32642E-8	 	5472.53243	39.42738	 
890.0	1.0	0.0	8.17167	7.26819	-8.17982	15.51345	21.48613	1.32631	0.75397	164.44965	170.44311	61.39874	0.33919	 	1.222369305E8	 	4.6443E-8	 	5276.37841	39.2308	 
885.0	1.0	0.0	8.17448	7.26569	-8.21143	15.46485	21.40927	1.32535	0.75452	164.86443	170.65505	61.56304	0.33899	 	1.397306189E8	 	4.04539E-8	 	5081.18088	39.03951	 
880.0	1.0	0.0	8.17728	7.26321	-8.24283	15.41662	21.33315	1.32433	0.7551	165.27686	170.86611	61.72643	0.33879	 	1.598907601E8	 	3.52005E-8	 	4886.91398	38.85338	 
875.0	1.0	0.0	8.18006	7.26074	-8.27401	15.36875	21.25775	1.32327	0.75571	165.68705	171.07634	61.88894	0.33858	 	1.831487635E8	 	3.05972E-8	 	4693.55283	38.67223	 
870.0	1.0	0.0	8.18282	7.25829	-8.305	15.32122	21.18304	1.32215	0.75634	166.09508	171.28574	62.05061	0.33838	 	2.100098978E8	 	2.65675E-8	 	4501.07435	38.4957	 
865.0	1.0	0.0	8.18557	7.25585	-8.33578	15.27401	21.10899	1.32099	0.75701	166.50103	171.49435	62.21146	0.33819	 	2.410666551E8	 	2.30435E-8	 	4309.45555	38.32376	 
860.0	1.0	0.0	8.1883	7.25343	-8.36637	15.22712	21.03556	1.31977	0.75771	166.905	171.70218	62.37155	0.33799	 	2.770146353E8	 	1.99651E-8	 	4118.67423	38.15626	 
855.0	1.0	0.0	8.19102	7.25102	-8.39677	15.18052	20.96274	1.31851	0.75843	167.30705	171.90925	62.53089	0.3378	 	3.18671486E8	 	1.72787E-8	 	3928.709	37.99305	 
850.0	1.0	0.0	8.19372	7.24863	-8.42699	15.13421	20.89049	1.31721	0.75918	167.70726	172.11559	62.68952	0.3376	 	3.669994961E8	 	1.49368E-8	 	3739.53922	37.83396	 
845.0	1.0	0.0	8.19594	7.24667	-8.45178	15.11235	20.82919	1.31521	0.76034	168.04503	172.30714	62.82264	0.33746	 	4.18081289E8	 	1.30535E-8	 	3579.21056	32.06573	 
840.0	1.0	0.0	8.19816	7.24471	-8.4765	15.09047	20.76789	1.31319	0.7615	168.38221	172.49777	62.95557	0.33731	 	4.768309309E8	 	1.1394E-8	 	3415.83025	32.67606	 
835.0	1.0	0.0	8.20037	7.24276	-8.50118	15.06859	20.70658	1.31116	0.76268	168.7188	172.68747	63.08831	0.33716	 	5.444818578E8	 	9.93349E-9	 	3252.67194	32.63166	 
830.0	1.0	0.0	8.20258	7.24081	-8.5258	15.04669	20.64526	1.30912	0.76387	169.05479	172.87627	63.22086	0.33702	 	6.224790239E8	 	8.64961E-9	 	3089.73505	32.58738	 
825.0	1.0	0.0	8.20478	7.23886	-8.55036	15.02477	20.58393	1.30707	0.76507	169.39019	173.06415	63.3532	0.33687	 	7.125174037E8	 	7.52234E-9	 	2927.01897	32.54322	 
820.0	1.0	0.0	8.20698	7.23692	-8.57487	15.00285	20.52259	1.30501	0.76628	169.72499	173.25112	63.48536	0.33673	 	8.165879086E8	 	6.53377E-9	 	2764.52305	32.49918	 
815.0	1.0	0.0	8.20917	7.23499	-8.59932	14.98091	20.46124	1.30294	0.7675	170.0592	173.43718	63.61732	0.33658	 	9.3703222E8	 	5.66788E-9	 	2602.24665	32.45528	 
810.0	1.0	0.0	8.21137	7.23306	-8.62372	14.95895	20.39988	1.30085	0.76873	170.39282	173.62234	63.74908	0.33643	 	1.076608366E9	 	4.91041E-9	 	2440.18907	32.41151	 
805.0	1.0	0.0	8.21355	7.23113	-8.64807	14.93699	20.33851	1.29875	0.76997	170.72584	173.80659	63.88065	0.33629	 	1.238569261E9	 	4.2486E-9	 	2278.34964	32.36789	 
800.0	1.0	0.0	8.21574	7.22921	-8.67235	14.91501	20.27714	1.29664	0.77122	171.05827	173.98994	64.01203	0.33614	 	1.426756908E9	 	3.67111E-9	 	2116.72761	32.32441	 
795.0	1.0	0.0	8.21792	7.22729	-8.69658	14.89301	20.21575	1.29452	0.77249	171.3901	174.1724	64.14321	0.336	 	1.645715554E9	 	3.16785E-9	 	1955.32222	32.28108	 
790.0	1.0	0.0	8.2201	7.22537	-8.72076	14.87101	20.15435	1.29238	0.77376	171.72135	174.35396	64.27419	0.33585	 	1.900827829E9	 	2.72985E-9	 	1794.13271	32.2379	 
785.0	1.0	0.0	8.22227	7.22347	-8.74488	14.84899	20.09295	1.29024	0.77505	172.05199	174.53463	64.40498	0.3357	 	2.198478761E9	 	2.34915E-9	 	1633.15823	32.1949	 
780.0	1.0	0.0	8.22444	7.22156	-8.76895	14.82696	20.03153	1.28808	0.77635	172.38205	174.7144	64.53558	0.33556	 	2.546253723E9	 	2.01872E-9	 	1472.39796	32.15205	 
775.0	1.0	0.0	8.2266	7.21966	-8.79295	14.80491	19.9701	1.28591	0.77766	172.71151	174.89329	64.66598	0.33541	 	2.953177661E9	 	1.73229E-9	 	1311.85098	32.10939	 
770.0	1.0	0.0	8.22876	7.21776	-8.81691	14.78286	19.90867	1.28372	0.77899	173.04038	175.0713	64.79618	0.33527	 	3.430004716E9	 	1.48436E-9	 	1151.51641	32.06691	 
765.0	1.0	0.0	8.23092	7.21587	-8.84081	14.76078	19.84722	1.28152	0.78032	173.36865	175.24842	64.92619	0.33512	 	3.989569388E9	 	1.27005E-9	 	991.39327	32.02463	 
760.0	1.0	0.0	8.23307	7.21399	-8.86465	14.7387	19.78576	1.27931	0.78167	173.69633	175.42466	65.05601	0.33498	 	4.64721305E9	 	1.08507E-9	 	831.48055	31.98254	 
755.0	1.0	0.0	8.23522	7.2121	-8.88843	14.7166	19.72429	1.27709	0.78303	174.02342	175.60002	65.18563	0.33483	 	5.421302806E9	 	9.25634E-10	 	671.77721	31.94067	 
750.0	1.0	0.0	8.23737	7.21022	-8.91216	14.69449	19.6628	1.27485	0.7844	174.34992	175.77451	65.31505	0.33468	 	6.333863785E9	 	7.88419E-10	 	512.28214	31.89901	 
745.0	1.0	0.0	8.23951	7.20835	-8.93584	14.67237	19.60131	1.2726	0.78579	174.67582	175.94813	65.44428	0.33454	 	7.411350954E9	 	6.70504E-10	 	352.9942	31.85759	 
740.0	1.0	0.0	8.24165	7.20648	-8.95945	14.65023	19.53981	1.27034	0.78719	175.00112	176.12087	65.57331	0.33439	 	8.685592905E9	 	5.69326E-10	 	193.91219	31.8164	 
735.0	1.0	0.0	8.24378	7.20462	-8.98301	14.62808	19.47829	1.26806	0.78861	175.32584	176.29275	65.70214	0.33425	 	1.01949E10	 	4.82644E-10	 	35.03483	31.77547	 
730.0	1.0	0.0	8.24591	7.20276	-9.00652	14.60592	19.41676	1.26577	0.79003	175.64996	176.46376	65.83078	0.3341	 	1.1985699999999998E10	 	4.08497E-10	 	-123.63918	31.7348	 
725.0	1.0	0.0	8.24804	7.2009	-9.02997	14.58374	19.35522	1.26347	0.79147	175.97348	176.63391	65.95923	0.33396	 	1.4113899999999998E10	 	3.45172E-10	 	-282.11125	31.69441	 
720.0	1.0	0.0	8.25016	7.19905	-9.05336	14.56155	19.29367	1.26115	0.79293	176.29642	176.80319	66.08748	0.33381	 	1.6647399999999998E10	 	2.91176E-10	 	-440.38284	31.65432	 
715.0	1.0	0.0	8.25227	7.1972	-9.0767	14.53935	19.2321	1.25882	0.7944	176.61876	176.97162	66.21553	0.33367	 	1.96684E10	 	2.45211E-10	 	-598.45549	31.61453	 
710.0	1.0	0.0	8.25439	7.19536	-9.09998	14.51714	19.17052	1.25647	0.79588	176.94051	177.13919	66.34339	0.33352	 	2.32771E10	 	2.06147E-10	 	-756.3308	31.57506	 
705.0	1.0	0.0	8.2565	7.19352	-9.1232	14.49491	19.10893	1.25411	0.79738	177.26166	177.30591	66.47105	0.33337	 	2.7595499999999996E10	 	1.73003E-10	 	-914.0105	31.53594	 
700.0	1.0	0.0	8.2586	7.19169	-9.14637	14.47267	19.04733	1.25173	0.79889	177.58222	177.47177	66.59851	0.33323	 	3.2772199999999996E10	 	1.44931E-10	 	-1071.49638	31.49718	 
695.0	1.0	0.0	8.2607	7.18986	-9.16948	14.45041	18.98571	1.24934	0.80042	177.90219	177.63679	66.72578	0.33308	 	3.89892E10	 	1.21195E-10	 	-1228.79032	31.45879	 
690.0	1.0	0.0	8.2628	7.18803	-9.19253	14.42814	18.92408	1.24694	0.80196	178.22156	177.80096	66.85285	0.33294	 	4.64693E10	 	1.01161E-10	 	-1385.89435	31.42081	 
685.0	1.0	0.0	8.26489	7.18621	-9.21553	14.40586	18.86244	1.24452	0.80352	178.54034	177.96428	66.97973	0.33279	 	5.548609999999999E10	 	8.42822E-11	 	-1542.81057	31.38324	 
680.0	1.0	0.0	8.26698	7.18439	-9.23847	14.38357	18.80078	1.24209	0.8051	178.85853	178.12677	67.10641	0.33265	 	6.637579999999999E10	 	7.00871E-11	 	-1699.54121	31.34613	 
675.0	1.0	0.0	8.26907	7.18258	-9.26135	14.36126	18.73911	1.23964	0.80669	179.17613	178.28841	67.23289	0.3325	 	7.9553E10	 	5.81711E-11	 	-1856.08865	31.30949	 
670.0	1.0	0.0	8.27115	7.18078	-9.28418	14.33894	18.67742	1.23717	0.8083	179.49313	178.44921	67.35918	0.33236	 	9.552929999999998E10	 	4.81871E-11	 	-2012.45539	31.27335	 
665.0	1.0	0.0	8.27323	7.17897	-9.30695	14.31661	18.61572	1.23469	0.80992	179.80954	178.60918	67.48527	0.33221	 	1.14938E11	 	3.98377E-11	 	-2168.64407	31.23774	 
660.0	1.0	0.0	8.2753	7.17718	-9.32966	14.29426	18.55401	1.2322	0.81156	180.12535	178.76832	67.61116	0.33207	 	1.38565E11	 	3.28689E-11	 	-2324.65022	31.20123	 
655.0	1.0	0.0	8.27737	7.17538	-9.35232	14.2719	18.49228	1.22968	0.81322	180.44057	178.92662	67.73686	0.33192	 	1.67385E11	 	2.70638E-11	 	-2480.43329	31.15662	 
650.0	1.0	0.0	8.27943	7.17359	-9.37491	14.24953	18.43053	1.22716	0.81489	180.7552	179.0841	67.86236	0.33178	 	2.02613E11	 	2.22378E-11	 	-2635.93948	31.10124	 
645.0	1.0	0.0	8.28149	7.17181	-9.39746	14.22715	18.36877	1.22462	0.81658	181.06924	179.24075	67.98766	0.33163	 	2.45767E11	 	1.82338E-11	 	-2791.1697	31.04604	 
640.0	1.0	0.0	8.28355	7.17003	-9.41994	14.20475	18.30699	1.22206	0.81829	181.38268	179.39657	68.11277	0.33149	 	2.98743E11	 	1.49187E-11	 	-2946.12485	30.99103	 
635.0	1.0	0.0	8.2856	7.16825	-9.44237	14.18234	18.2452	1.21948	0.82002	181.69553	179.55158	68.23767	0.33134	 	3.63919E11	 	1.21798E-11	 	-3100.80582	30.93619	 
630.0	1.0	0.0	8.28764	7.16648	-9.46474	14.15991	18.18339	1.21689	0.82177	182.00779	179.70576	68.36239	0.3312	 	4.44285E11	 	9.92168E-12	 	-3255.21354	30.88154	 
625.0	1.0	0.0	8.28969	7.16472	-9.48705	14.13747	18.12157	1.21428	0.82353	182.31945	179.85913	68.4869	0.33105	 	5.43604E11	 	8.06405E-12	 	-3409.34936	30.82716	 
620.0	1.0	0.0	8.29173	7.16296	-9.50931	14.11502	18.05972	1.21166	0.82532	182.63052	180.01168	68.61122	0.33091	 	6.6663E11	 	6.53923E-12	 	-3563.21535	30.7732	 
615.0	1.0	0.0	8.29376	7.1612	-9.5315	14.09256	17.99787	1.20901	0.82712	182.941	180.16341	68.73534	0.33076	 	8.19379E11	 	5.2904E-12	 	-3716.8118	30.71929	 
610.0	1.0	0.0	8.29579	7.15945	-9.55364	14.07008	17.93599	1.20636	0.82894	183.25089	180.31434	68.85926	0.33062	 	1.00948E12	 	4.26994E-12	 	-3870.13959	30.66556	 
605.0	1.0	0.0	8.29782	7.1577	-9.57573	14.04759	17.8741	1.20368	0.83079	183.56018	180.46446	68.98298	0.33047	 	1.24665E12	 	3.43803E-12	 	-4023.19959	30.612	 
600.0	1.0	0.0	8.29984	7.15595	-9.59775	14.02509	17.81218	1.20099	0.83265	183.86888	180.61377	69.10651	0.33033	 	1.54327E12	 	2.76143E-12	 	-4175.99267	30.55862	 
595.0	1.0	0.0	8.30186	7.15422	-9.61972	14.00257	17.75026	1.19827	0.83453	184.17698	180.76227	69.22984	0.33018	 	1.91516E12	 	2.21247E-12	 	-4328.5197	30.50541	 
590.0	1.0	0.0	8.30387	7.15248	-9.64163	13.98004	17.68831	1.19555	0.83644	184.48449	180.90997	69.35297	0.33004	 	2.38262E12	 	1.76815E-12	 	-4480.78155	30.45237	 
585.0	1.0	0.0	8.30588	7.15075	-9.66348	13.9575	17.62634	1.1928	0.83836	184.79141	181.05688	69.47591	0.3299	 	2.97173E12	 	1.40942E-12	 	-4632.7791	30.39951	 
580.0	1.0	0.0	8.30788	7.14903	-9.68528	13.93494	17.56435	1.19003	0.84031	185.09774	181.20298	69.59865	0.32975	 	3.71612E12	 	1.12053E-12	 	-4784.51318	30.34682	 
575.0	1.0	0.0	8.30988	7.14731	-9.70701	13.91237	17.50235	1.18725	0.84228	185.40347	181.34829	69.72118	0.32961	 	4.65923E12	 	8.88475E-13	 	-4935.98468	30.2943	 
570.0	1.0	0.0	8.31188	7.14559	-9.72869	13.88979	17.44032	1.18445	0.84427	185.70861	181.4928	69.84353	0.32946	 	5.85738E12	 	7.02567E-13	 	-5087.19446	30.24196	 
565.0	1.0	0.0	8.31387	7.14388	-9.75031	13.86719	17.37828	1.18163	0.84629	186.01316	181.63652	69.96567	0.32932	 	7.38378E12	 	5.54025E-13	 	-5238.14336	30.18978	 
560.0	1.0	0.0	8.31586	7.14217	-9.77188	13.84459	17.31621	1.17879	0.84833	186.31712	181.77945	70.08761	0.32917	 	9.33386E12	 	4.35661E-13	 	-5388.83224	30.13778	 
555.0	1.0	0.0	8.31784	7.14047	-9.79338	13.82196	17.25413	1.17593	0.85039	186.62048	181.9216	70.20936	0.32903	 	1.18324E13	 	3.41604E-13	 	-5539.26197	30.08594	 
550.0	1.0	0.0	8.31982	7.13877	-9.81483	13.79933	17.19202	1.17305	0.85248	186.92324	182.06296	70.33091	0.32888	 	1.5043E13	 	2.67073E-13	 	-5689.43337	30.03428	 
545.0	1.0	0.0	8.32179	7.13708	-9.83622	13.77668	17.12989	1.17016	0.85459	187.22542	182.20353	70.45226	0.32874	 	1.91811E13	 	2.08184E-13	 	-5839.34732	29.98279	 
540.0	1.0	0.0	8.32376	7.13539	-9.85755	13.75402	17.06774	1.16724	0.85672	187.527	182.34333	70.57341	0.3286	 	2.45306E13	 	1.61789E-13	 	-5989.00463	29.93146	 
535.0	1.0	0.0	8.32572	7.13371	-9.87882	13.73135	17.00557	1.16431	0.85888	187.82799	182.48234	70.69436	0.32845	 	3.14677E13	 	1.25347E-13	 	-6138.40617	29.88031	 
530.0	1.0	0.0	8.32768	7.13203	-9.90004	13.70866	16.94338	1.16135	0.86107	188.12839	182.62057	70.81512	0.32831	 	4.0492E13	 	9.68086E-14	 	-6287.55277	29.82932	 
525.0	1.0	0.0	8.32964	7.13035	-9.92119	13.68596	16.88116	1.15837	0.86328	188.42819	182.75804	70.93567	0.32816	 	5.22691E13	 	7.45291E-14	 	-6436.44527	29.7785	 
520.0	1.0	0.0	8.33159	7.12868	-9.94229	13.66325	16.81892	1.15538	0.86552	188.7274	182.89472	71.05603	0.32802	 	6.76891E13	 	5.71904E-14	 	-6585.08449	29.72784	 
515.0	1.0	0.0	8.33354	7.12702	-9.96333	13.64052	16.75665	1.15236	0.86779	189.02602	183.03064	71.17619	0.32787	 	8.79462E13	 	4.374E-14	 	-6733.47128	29.67736	 
510.0	1.0	0.0	8.33548	7.12536	-9.98431	13.61778	16.69436	1.14932	0.87008	189.32404	183.16578	71.29615	0.32773	 	1.14648E14	 	3.33399E-14	 	-6881.60645	29.62703	 
505.0	1.0	0.0	8.33742	7.1237	-10.00523	13.59503	16.63205	1.14626	0.8724	189.62148	183.30016	71.41591	0.32759	 	1.49967E14	 	2.53252E-14	 	-7029.49084	29.57688	 
500.0	1.0	0.0	8.33935	7.12205	-10.02609	13.57226	16.56971	1.14318	0.87475	189.91831	183.43378	71.53547	0.32744	 	1.9685E14	 	1.91697E-14	 	-7177.12526	29.52688	 
495.0	1.0	0.0	8.34128	7.1204	-10.0469	13.54948	16.50735	1.14008	0.87713	190.21456	183.56663	71.65484	0.3273	 	2.5930499999999997E14	 	1.44584E-14	 	-7324.51051	29.47705	 
490.0	1.0	0.0	8.3432	7.11876	-10.06764	13.52669	16.44496	1.13695	0.87954	190.51021	183.69871	71.774	0.32715	 	3.42812E14	 	1.08653E-14	 	-7471.64743	29.42738	 
485.0	1.0	0.0	8.34512	7.11712	-10.08833	13.50389	16.38254	1.13381	0.88198	190.80527	183.83004	71.89296	0.32701	 	4.54883E14	 	8.13471E-15	 	-7618.53683	29.37788	 
480.0	1.0	0.0	8.34704	7.11549	-10.10896	13.48107	16.3201	1.13064	0.88445	191.09974	183.96061	72.01173	0.32687	 	6.05863E14	 	6.06728E-15	 	-7765.17951	29.32853	 
475.0	1.0	0.0	8.34895	7.11386	-10.12953	13.45824	16.25763	1.12745	0.88696	191.39361	184.09043	72.1303	0.32672	 	8.10052E14	 	4.50778E-15	 	-7911.57626	29.27935	 
470.0	1.0	0.0	8.35086	7.11224	-10.15004	13.43539	16.19513	1.12424	0.88949	191.68689	184.21949	72.24866	0.32658	 	1.0873E15	 	3.33591E-15	 	-8057.72789	29.23032	 
465.0	1.0	0.0	8.35276	7.11062	-10.17049	13.41254	16.1326	1.121	0.89206	191.97958	184.3478	72.36683	0.32643	 	1.46527E15	 	2.45875E-15	 	-8203.63518	29.18146	 
460.0	1.0	0.0	8.35465	7.109	-10.19088	13.38967	16.07005	1.11774	0.89466	192.27168	184.47536	72.4848	0.32629	 	1.98268E15	 	1.8048E-15	 	-8349.29895	29.13275	 
455.0	1.0	0.0	8.35655	7.1074	-10.21122	13.36678	16.00746	1.11446	0.8973	192.56318	184.60217	72.60257	0.32615	 	2.69395E15	 	1.31922E-15	 	-8494.71995	29.0842	 
450.0	1.0	0.0	8.35843	7.10579	-10.23149	13.34389	15.94484	1.11115	0.89997	192.85409	184.72824	72.72013	0.326	 	3.67595E15	 	9.60163E-16	 	-8639.89899	29.03581	 
445.0	1.0	0.0	8.36032	7.10419	-10.25171	13.32098	15.8822	1.10782	0.90267	193.1444	184.85356	72.8375	0.32586	 	5.03767E15	 	6.95781E-16	 	-8784.83682	28.98757	 
440.0	1.0	0.0	8.36219	7.10259	-10.27186	13.29805	15.81952	1.10447	0.90541	193.43412	184.97814	72.95467	0.32571	 	6.93438E15	 	5.01949E-16	 	-8929.53422	28.93948	 
435.0	1.0	0.0	8.36407	7.101	-10.29196	13.27512	15.75681	1.10109	0.90819	193.72325	185.10198	73.07164	0.32557	 	9.58839E15	 	3.60467E-16	 	-9073.99195	28.89155	 
430.0	1.0	0.0	8.36594	7.09942	-10.312	13.25217	15.69407	1.09769	0.91101	194.01179	185.22508	73.18841	0.32543	 	1.33194E16	 	2.57661E-16	 	-9218.2108	28.84377	 
425.0	1.0	0.0	8.3678	7.09784	-10.33198	13.22921	15.63129	1.09426	0.91386	194.29973	185.34745	73.30498	0.32528	 	1.85896E16	 	1.83301E-16	 	-9362.19137	28.79612	 
420.0	1.0	0.0	8.36966	7.09626	-10.35189	13.20623	15.56848	1.0908	0.91675	194.58708	185.46908	73.42135	0.32514	 	2.60701E16	 	1.29769E-16	 	-9505.93462	28.74865	 
415.0	1.0	0.0	8.37151	7.09469	-10.37175	13.18324	15.50564	1.08733	0.91969	194.87384	185.58998	73.53752	0.325	 	3.67409E16	 	9.14155E-17	 	-9649.44084	28.70124	 
410.0	1.0	0.0	8.37336	7.09312	-10.39155	13.16024	15.44276	1.08382	0.92266	195.16	185.71014	73.65348	0.32485	 	5.20401E16	 	6.40714E-17	 	-9792.71016	28.65386	 
405.0	1.0	0.0	8.37521	7.09156	-10.41129	13.13723	15.37984	1.08029	0.92568	195.44557	185.82958	73.76925	0.32471	 	7.40895E16	 	4.46741E-17	 	-9935.74272	28.60651	 
400.0	1.0	0.0	8.37705	7.09	-10.43097	13.1142	15.31689	1.07673	0.92874	195.73055	185.94829	73.88482	0.32457	 	1.06036E17	 	3.09845E-17	 	-10078.53864	28.55918	 
395.0	1.0	0.0	8.37888	7.08845	-10.45059	13.09116	15.2539	1.07315	0.93184	196.01494	186.06627	74.00018	0.32442	 	1.52574E17	 	2.13737E-17	 	-10221.09804	28.51188	 
390.0	1.0	0.0	8.38071	7.0869	-10.47015	13.0681	15.19088	1.06954	0.93499	196.29873	186.18354	74.11535	0.32428	 	2.20745E17	 	1.46625E-17	 	-10363.42103	28.4646	 
385.0	1.0	0.0	8.38254	7.08535	-10.48966	13.04504	15.12781	1.0659	0.93818	196.58193	186.30007	74.23032	0.32414	 	3.21173E17	 	1.00017E-17	 	-10505.50771	28.41734	 
380.0	1.0	0.0	8.38436	7.08382	-10.5091	13.02196	15.0647	1.06223	0.94142	196.86453	186.41589	74.34508	0.32399	 	4.6998E17	 	6.78298E-18	 	-10647.35818	28.37009	 
375.0	1.0	0.0	8.38618	7.08228	-10.52848	12.99886	15.00156	1.05854	0.9447	197.14654	186.531	74.45964	0.32385	 	6.91785E17	 	4.57289E-18	 	-10788.97252	28.32287	 
370.0	1.0	0.0	8.38799	7.08075	-10.5478	12.97576	14.93837	1.05481	0.94804	197.42796	186.64538	74.57401	0.3237	 	1.02441E18	 	3.06426E-18	 	-10930.35082	28.27566	 
365.0	1.0	0.0	8.3898	7.07923	-10.56706	12.95264	14.87514	1.05106	0.95142	197.70879	186.75905	74.68817	0.32356	 	1.52633E18	 	2.04062E-18	 	-11071.49314	28.22846	 
360.0	1.0	0.0	8.3916	7.07771	-10.58626	12.92951	14.81186	1.04728	0.95485	197.98902	186.87201	74.80213	0.32342	 	2.28853E18	 	1.35032E-18	 	-11212.39954	28.18128	 
355.0	1.0	0.0	8.39339	7.07619	-10.6054	12.90636	14.74855	1.04347	0.95834	198.26866	186.98426	74.91589	0.32328	 	3.45355E18	 	8.87736E-19	 	-11353.07008	28.13411	 
350.0	1.0	0.0	8.39519	7.07468	-10.62448	12.8832	14.68518	1.03963	0.96188	198.5477	187.09579	75.02945	0.32313	 	5.24619E18	 	5.79743E-19	 	-11493.50481	28.08694	 
345.0	1.0	0.0	8.39697	7.07318	-10.64351	12.86003	14.62177	1.03576	0.96547	198.82616	187.20662	75.1428	0.32299	 	8.0234E18	 	3.76029E-19	 	-11633.70374	28.03979	 
340.0	1.0	0.0	8.39875	7.07168	-10.66247	12.83684	14.55831	1.03186	0.96912	199.10402	187.31675	75.25596	0.32285	 	1.23561E19	 	2.42198E-19	 	-11773.66692	27.99264	 
335.0	1.0	0.0	8.40053	7.07018	-10.68137	12.81365	14.49481	1.02793	0.97283	199.38128	187.42617	75.36891	0.3227	 	1.91642E19	 	1.54884E-19	 	-11913.39434	27.94548	 
330.0	1.0	0.0	8.4023	7.06869	-10.70021	12.79043	14.43125	1.02397	0.97659	199.65796	187.53489	75.48167	0.32256	 	2.99405E19	 	9.83226E-20	 	-12052.88602	27.89834	 
325.0	1.0	0.0	8.40407	7.0672	-10.71899	12.76721	14.36765	1.01998	0.98041	199.93404	187.6429	75.59422	0.32242	 	4.71266E19	 	6.19485E-20	 	-12192.14193	27.85118	 
320.0	1.0	0.0	8.40583	7.06572	-10.73771	12.74397	14.30399	1.01595	0.9843	200.20952	187.75022	75.70657	0.32227	 	7.47472E19	 	3.87308E-20	 	-12331.16206	27.80403	 
315.0	1.0	0.0	8.40759	7.06424	-10.75636	12.72072	14.24028	1.0119	0.98824	200.48442	187.85684	75.81871	0.32213	 	1.1948899999999998E20	 	2.4024E-20	 	-12469.94637	27.75686	 
310.0	1.0	0.0	8.40934	7.06277	-10.77496	12.69746	14.17652	1.00781	0.99225	200.75872	187.96277	75.93066	0.32199	 	1.92556E20	 	1.47812E-20	 	-12608.49482	27.70969	 
305.0	1.0	0.0	8.41109	7.0613	-10.7935	12.67418	14.1127	1.00368	0.99633	201.03242	188.068	76.0424	0.32184	 	3.1287499999999997E20	 	9.01896E-21	 	-12746.80734	27.6625	 
300.0	1.0	0.0	8.41283	7.05984	-10.81198	12.65089	14.04882	0.99953	1.00047	201.30554	188.17255	76.15395	0.3217	 	5.1269799999999993E20	 	5.45624E-21	 	-12884.88385	27.6153	 
295.0	1.0	0.0	8.41457	7.05838	-10.83039	12.62759	13.98488	0.99534	1.00468	201.57806	188.2764	76.26528	0.32156	 	8.47477E20	 	3.27206E-21	 	-13022.72427	27.56808	 
290.0	1.0	0.0	8.4163	7.05693	-10.84875	12.60427	13.92089	0.99111	1.00897	201.84998	188.37956	76.37642	0.32142	 	1.4134200000000001E21	 	1.94465E-21	 	-13160.32848	27.52084	 
285.0	1.0	0.0	8.41803	7.05548	-10.86704	12.58094	13.85683	0.98685	1.01332	202.12131	188.48204	76.48736	0.32127	 	2.37899E21	 	1.14511E-21	 	-13297.69636	27.47358	 
280.0	1.0	0.0	8.41975	7.05404	-10.88527	12.5576	13.79271	0.98256	1.01775	202.39205	188.58383	76.59809	0.32113	 	4.04205E21	 	6.67925E-22	 	-13434.82778	27.42628	 
275.0	1.0	0.0	8.42147	7.0526	-10.90345	12.53425	13.72853	0.97823	1.02225	202.6622	188.68493	76.70862	0.32099	 	6.93445E21	 	3.85811E-22	 	-13571.72257	27.37896	 
270.0	1.0	0.0	8.42318	7.05117	-10.92156	12.51088	13.66428	0.97387	1.02684	202.93175	188.78536	76.81895	0.32084	 	1.20154E22	 	2.20632E-22	 	-13708.38056	27.3316	 
265.0	1.0	0.0	8.42489	7.04974	-10.93961	12.4875	13.59996	0.96946	1.0315	203.20071	188.88511	76.92907	0.3207	 	2.10329E22	 	1.2488E-22	 	-13844.80156	27.2842	 
260.0	1.0	0.0	8.42659	7.04831	-10.9576	12.4641	13.53558	0.96503	1.03624	203.46908	188.98417	77.039	0.32056	 	3.72067E22	 	6.99383E-23	 	-13980.98533	27.23676	 
255.0	1.0	0.0	8.42829	7.04689	-10.97553	12.44069	13.47112	0.96055	1.04107	203.73685	189.08256	77.14872	0.32042	 	6.6532499999999996E22	 	3.87445E-23	 	-14116.93166	27.18927	 
250.0	1.0	0.0	8.42998	7.04548	-10.99339	12.41727	13.40659	0.95604	1.04599	204.00403	189.18028	77.25823	0.32027	 	1.2030199999999998E23	 	2.12247E-23	 	-14252.64028	27.14172	 
245.0	1.0	0.0	8.43167	7.04407	-11.0112	12.39384	13.34199	0.95148	1.05099	204.27061	189.27732	77.36755	0.32013	 	2.2002599999999997E23	 	1.14939E-23	 	-14388.1109	27.09412	 
240.0	1.0	0.0	8.43335	7.04267	-11.02894	12.37039	13.2773	0.94689	1.05609	204.53661	189.37369	77.47666	0.31999	 	4.0717899999999994E23	 	6.151E-24	 	-14523.34321	27.04646	 
235.0	1.0	0.0	8.43503	7.04127	-11.04663	12.34693	13.21254	0.94226	1.06128	204.802	189.46939	77.58557	0.31985	 	7.62707E23	 	3.25178E-24	 	-14658.33689	26.99874	 
230.0	1.0	0.0	8.4367	7.03987	-11.06425	12.32346	13.1477	0.93759	1.06656	205.06681	189.56442	77.69427	0.3197	 	1.4466E24	 	1.69761E-24	 	-14793.09156	26.95093	 
225.0	1.0	0.0	8.43836	7.03848	-11.08181	12.29997	13.08277	0.93288	1.07195	205.33102	189.65879	77.80278	0.31956	 	2.77918E24	 	8.74842E-25	 	-14927.60686	26.90306	 
220.0	1.0	0.0	8.44002	7.0371	-11.09931	12.27647	13.01776	0.92813	1.07744	205.59464	189.75248	77.91107	0.31942	 	5.4105E24	 	4.44865E-25	 	-15061.88234	26.8551	 
215.0	1.0	0.0	8.44168	7.03572	-11.11674	12.25296	12.95266	0.92334	1.08303	205.85766	189.84552	78.01917	0.31928	 	1.06779E25	 	2.23129E-25	 	-15195.91757	26.80705	 
210.0	1.0	0.0	8.44333	7.03434	-11.13412	12.22944	12.88747	0.9185	1.08873	206.12009	189.93789	78.12706	0.31913	 	2.1371900000000003E25	 	1.10338E-25	 	-15329.71206	26.7589	 
205.0	1.0	0.0	8.44498	7.03297	-11.15143	12.2059	12.82218	0.91363	1.09454	206.38193	190.0296	78.23475	0.31899	 	4.34013E25	 	5.3771E-26	 	-15463.2653	26.71065	 
200.0	1.0	0.0	8.44662	7.03161	-11.16868	12.18234	12.7568	0.90871	1.10047	206.64317	190.12066	78.34223	0.31885	 	8.94676E25	 	2.58119E-26	 	-15596.57672	26.66228	 
195.0	1.0	0.0	8.44825	7.03024	-11.18587	12.15878	12.69132	0.90374	1.10651	206.90382	190.21105	78.44951	0.31871	 	1.8730100000000002E26	 	1.21992E-26	 	-15729.64573	26.6138	 
190.0	1.0	0.0	8.44988	7.02889	-11.203	12.1352	12.62574	0.89873	1.11268	207.16387	190.30079	78.55659	0.31856	 	3.9842000000000006E26	 	5.67371E-27	 	-15862.4717	26.56519	 
185.0	1.0	0.0	8.45151	7.02754	-11.22007	12.11161	12.56005	0.89368	1.11897	207.42333	190.38988	78.66347	0.31842	 	8.61584E26	 	2.59535E-27	 	-15995.05397	26.51645	 
180.0	1.0	0.0	8.45312	7.02619	-11.23707	12.08801	12.49425	0.88858	1.12539	207.6822	190.47831	78.77013	0.31828	 	1.8951599999999998E27	 	1.16703E-27	 	-16127.3918	26.46757	 
175.0	1.0	0.0	8.45474	7.02485	-11.25402	12.06439	12.42834	0.88344	1.13194	207.94048	190.56609	78.8766	0.31814	 	4.24261E27	 	5.15557E-28	 	-16259.48443	26.41853	 
170.0	1.0	0.0	8.45635	7.02351	-11.2709	12.04076	12.36232	0.87825	1.13863	208.19816	190.65322	78.98286	0.318	 	9.67206E27	 	2.23624E-28	 	-16391.33104	26.36932	 
165.0	1.0	0.0	8.45795	7.02218	-11.28772	12.01712	12.29617	0.87301	1.14546	208.45524	190.73971	79.08892	0.31785	 	2.24684E28	 	9.51782E-29	 	-16522.93075	26.31994	 
160.0	1.0	0.0	8.45955	7.02086	-11.30447	11.99346	12.22991	0.86772	1.15244	208.71173	190.82554	79.19477	0.31771	 	5.3220200000000005E28	 	3.97236E-29	 	-16654.28264	26.27038	 
155.0	1.0	0.0	8.46114	7.01954	-11.32117	11.96979	12.16351	0.86239	1.15957	208.96763	190.91074	79.30042	0.31757	 	1.28626E29	 	1.62463E-29	 	-16785.38574	26.22062	 
150.0	1.0	0.0	8.46273	7.01822	-11.3378	11.94611	12.09699	0.857	1.16685	209.22294	190.99529	79.40586	0.31743	 	3.1742100000000005E29	 	6.50646E-30	 	-16916.23897	26.17065	 
145.0	1.0	0.0	8.46431	7.01691	-11.35437	11.92241	12.03032	0.85157	1.1743	209.47765	191.07919	79.5111	0.31729	 	8.00436E29	 	2.54972E-30	 	-17046.84122	26.12045	 
140.0	1.0	0.0	8.46589	7.0156	-11.37087	11.8987	11.96352	0.84609	1.18191	209.73176	191.16246	79.61614	0.31714	 	2.06414E30	 	9.76911E-31	 	-17177.19133	26.07002	 
135.0	1.0	0.0	8.46746	7.0143	-11.38732	11.87498	11.89657	0.84055	1.1897	209.98528	191.24509	79.72097	0.317	 	5.44794E30	 	3.65657E-31	 	-17307.28801	26.01934	 
130.0	1.0	0.0	8.46902	7.013	-11.4037	11.85124	11.82947	0.83496	1.19766	210.23821	191.32707	79.82559	0.31686	 	1.47292E31	 	1.3359E-31	 	-17437.12991	25.96838	 
125.0	1.0	0.0	8.47058	7.01171	-11.42002	11.82749	11.76222	0.82932	1.2058	210.49055	191.40843	79.93002	0.31672	 	4.082979999999999E31	 	4.75944E-32	 	-17566.71564	25.91715	 
120.0	1.0	0.0	8.47214	7.01042	-11.43628	11.80373	11.6948	0.82363	1.21414	210.74229	191.48915	80.03423	0.31658	 	1.16155E32	 	1.65199E-32	 	-17696.04365	25.8656	 
115.0	1.0	0.0	8.47369	7.00914	-11.45247	11.77996	11.62722	0.81788	1.22267	210.99343	191.56923	80.13824	0.31643	 	3.3946499999999996E32	 	5.58074E-33	 	-17825.11236	25.81374	 
110.0	1.0	0.0	8.47523	7.00786	-11.46861	11.75617	11.55946	0.81208	1.23141	211.24399	191.64869	80.24205	0.31629	 	1.02025E33	 	1.83293E-33	 	-17953.92002	25.76153	 
105.0	1.0	0.0	8.47677	7.00659	-11.48468	11.73237	11.49152	0.80622	1.24036	211.49394	191.72751	80.34565	0.31615	 	3.1569E33	 	5.84643E-34	 	-18082.46483	25.70896	 
100.0	1.0	0.0	8.4783	7.00533	-11.50068	11.70856	11.42339	0.8003	1.24953	211.74331	191.80571	80.44904	0.31601	 	1.0068400000000001E34	 	1.80889E-34	 	-18210.74485	25.656	 
95.0	1.0	0.0	8.47983	7.00406	-11.51663	11.68473	11.35507	0.79433	1.25892	211.99208	191.88328	80.55223	0.31587	 	3.31389E34	 	5.42217E-35	 	-18338.75801	25.60263	 
90.0	1.0	0.0	8.48135	7.00281	-11.53251	11.66089	11.28654	0.7883	1.26855	212.24025	191.96022	80.65522	0.31573	 	1.1271099999999999E35	 	1.57256E-35	 	-18466.50212	25.54882	 
85.0	1.0	0.0	8.48287	7.00155	-11.54833	11.63704	11.21781	0.78221	1.27843	212.48783	192.03654	80.758	0.31558	 	3.96676E35	 	4.40672E-36	 	-18593.97485	25.49455	 
80.0	1.0	0.0	8.48438	7.00031	-11.56408	11.61317	11.14885	0.77606	1.28856	212.73482	192.11224	80.86057	0.31544	 	1.44671E36	 	1.19142E-36	 	-18721.1737	25.43977	 
75.0	1.0	0.0	8.48589	6.99906	-11.57977	11.58929	11.07967	0.76985	1.29896	212.98121	192.18731	80.96294	0.3153	 	5.47605E36	 	3.10303E-37	 	-18848.09602	25.38446	 
70.0	1.0	0.0	8.48739	6.99783	-11.5954	11.5654	11.01024	0.76358	1.30962	213.22701	192.26177	81.0651	0.31516	 	2.15476E37	 	7.77269E-38	 	-18974.73898	25.32859	 
65.0	1.0	0.0	8.48888	6.9966	-11.61097	11.54149	10.94057	0.75724	1.32058	213.47221	192.33561	81.16706	0.31502	 	8.829279999999999E37	 	1.86926E-38	 	-19101.0996	25.27212	 
60.0	1.0	0.0	8.49037	6.99537	-11.62647	11.51757	10.87064	0.75085	1.33183	213.71682	192.40883	81.26881	0.31488	 	3.7743099999999995E38	 	4.30813E-39	 	-19227.17464	25.21501	 
55.0	1.0	0.0	8.49185	6.99415	-11.64191	11.49364	10.80043	0.74438	1.34339	213.96084	192.48143	81.37035	0.31473	 	1.6864600000000002E39	 	9.49694E-40	 	-19352.96067	25.15721	 
50.0	1.0	0.0	8.49333	6.99293	-11.65729	11.4697	10.72995	0.73786	1.35527	214.20426	192.55342	81.47169	0.31459	 	7.89282E39	 	1.99829E-40	 	-19478.45403	25.09867	 
45.0	1.0	0.0	8.4948	6.99172	-11.6726	11.44574	10.65916	0.73127	1.36749	214.44709	192.6248	81.57282	0.31445	 	3.87754E40	 	4.00463E-41	 	-19603.65081	25.03936	 
40.0	1.0	0.0	8.49627	6.99051	-11.68785	11.42177	10.58807	0.72461	1.38006	214.68932	192.69557	81.67375	0.31431	 	2.00428E41	 	7.62573E-42	 	-19728.54681	24.9792	 
35.0	1.0	0.0	8.49773	6.98931	-11.70303	11.39778	10.51665	0.71788	1.39299	214.93096	192.76572	81.77447	0.31417	 	1.09272E42	 	1.37638E-42	 	-19853.13758	24.91815	 
30.0	1.0	0.0	8.49919	6.98811	-11.71816	11.37379	10.44488	0.71108	1.40631	215.172	192.83527	81.87498	0.31403	 	6.30025E42	 	2.34848E-43	 	-19977.41828	24.85614	 
25.0	1.0	0.0	8.50064	6.98692	-11.73321	 	10.37276	0.70422	1.42002	215.41245	192.90421	81.97529	0.31389	 	3.85235E43	 	3.77743E-44	 	-20101.38381	 	 
