T (C)	Fraction solid (wt)-TOTAL	Fraction liquid (wt)-LIQUID	Density (g/(cm)^3)-TOTAL	Molar volume (cm^3)-TOTAL	Volume change (%)-  	Average expansion coeff. (10e-6 1/K)-  	Thermal conductivity (W/(m*K))-TOTAL	Electrical resistivity (10e-6 Ohm*m)-TOTAL	Electrical conductivity (10e6 1/(Ohm*m))-TOTAL	Young's modulus (GPa)-TOTAL	Bulk modulus (GPa)-TOTAL	Shear modulus(GPa)-TOTAL	Poisson's ratio-TOTAL	Liquid viscosity (mPa s)-  	Total viscosity (mPa s)-  	Liquid diffusivity (10e-9 (m^2)/s)-  	Total diffusivity (10e-9 (m^2)/s)-  	Surface Tension (mN/m)-  	Enthalpy (J/mole)-TOTAL	Specific heat (J/(mole K))-TOTAL	Latent heat (J/mole)-TOTAL
1400.0	0.0	1.0	7.32937	7.89929	0.0	28.95037	28.3705	1.44489	0.6921	0.0	125.5266	0.0	0.5	7.75745	7.75745	1.05269	1.05269	1750.26813	54602.28	 	0.0
1395.0	0.0	1.0	7.33322	7.89515	-0.0524403	28.9132	28.29293	1.44452	0.69227	0.0	125.68998	0.0	0.5	7.84127	7.84127	1.03833	1.03833	1752.36314	54397.959	40.8642	0.0
1390.0	0.0	1.0	7.33706	7.89102	-0.10473	28.87617	28.21535	1.44415	0.69245	0.0	125.85335	0.0	0.5	7.9265	7.9265	1.02409	1.02409	1754.47353	54194.106	40.7706	0.0
1385.0	0.0	1.0	7.34089	7.8869	-0.15686	28.83929	28.13778	1.44378	0.69263	0.0	126.01673	0.0	0.5	8.01318	8.01318	1.00996	1.00996	1756.59942	53990.718	40.6776	0.0
1380.0	0.0	1.0	7.34471	7.88279	-0.20884	28.80257	28.06021	1.4434	0.69281	0.0	126.1801	0.0	0.5	8.10134	8.10134	0.99596	0.99596	1758.74086	53787.793	40.585	0.0
1375.0	0.0	1.0	7.34853	7.8787	-0.26067	28.76599	27.98264	1.44303	0.69299	0.0	126.34348	0.0	0.5	8.19101	8.19101	0.98208	0.98208	1760.89792	53585.329	40.4928	0.0
1370.0	0.0	1.0	7.35234	7.87462	-0.31235	28.72956	27.90507	1.44265	0.69317	0.0	126.50686	0.0	0.5	8.28223	8.28223	0.96831	0.96831	1763.07064	53383.323	40.4012	0.0
1365.0	0.0	1.0	7.35614	7.87055	-0.36387	28.69329	27.8275	1.44227	0.69335	0.0	126.67023	0.0	0.5	8.37504	8.37504	0.95467	0.95467	1765.25907	53181.774	40.3098	0.0
1360.0	0.0	1.0	7.35994	7.86649	-0.41524	28.65718	27.74993	1.44188	0.69354	0.0	126.83361	0.0	0.5	8.46946	8.46946	0.94115	0.94115	1767.46324	52980.677	40.2194	0.0
1355.0	0.0	1.0	7.36372	7.86244	-0.46645	28.62122	27.67235	1.4415	0.69372	0.0	126.99698	0.0	0.5	8.56553	8.56553	0.92774	0.92774	1769.68315	52780.033	40.1288	0.0
1350.0	0.0	1.0	7.3675	7.85841	-0.51752	28.58543	27.59478	1.44111	0.69391	0.0	127.16036	0.0	0.5	8.6633	8.6633	0.91445	0.91445	1771.91883	52579.837	40.0392	0.0
1345.0	0.0	1.0	7.37127	7.85439	-0.56843	28.54979	27.51721	1.44072	0.6941	0.0	127.32373	0.0	0.5	8.7628	8.7628	0.90129	0.90129	1774.17025	52380.088	39.9498	0.0
1340.0	0.0	1.0	7.37504	7.85038	-0.61918	28.51432	27.43964	1.44033	0.69428	0.0	127.48711	0.0	0.5	8.86407	8.86407	0.88824	0.88824	1776.43742	52180.783	39.861	0.0
1335.0	0.0	1.0	7.3788	7.84638	-0.66979	28.47901	27.36207	1.43994	0.69447	0.0	127.65048	0.0	0.5	8.96715	8.96715	0.8753	0.8753	1778.72029	51981.921	39.7724	0.0
1330.0	0.0	1.0	7.38255	7.8424	-0.72024	28.44387	27.2845	1.43954	0.69467	0.0	127.81386	0.0	0.5	9.07208	9.07208	0.86249	0.86249	1781.01883	51783.499	39.6844	0.0
1325.0	0.0	1.0	7.38629	7.83842	-0.77054	28.4089	27.20693	1.43914	0.69486	0.0	127.97723	0.0	0.5	9.17891	9.17891	0.84979	0.84979	1783.33297	51585.514	39.597	0.0
1321.17	0.0	1.0	7.38915	7.83538	-0.80901	28.3822	27.14744	1.43884	0.69501	0.0	128.10252	0.0	0.5	9.26214	9.26214	0.84014	0.84014	1785.11808	51433.992	39.51875	0.0
1320.0	0.02777	0.97223	7.39582	7.82829	-0.8988	28.14901	27.23813	1.433	0.69784	5.90652E-5	128.12393	1.97398E-5	0.4961	9.2982	9.67986	0.83627	0.80329	1784.96141	50993.246	378.05665	394.718
1315.0	0.13932	0.86068	7.42275	7.79994	-1.25773	27.2199	27.60458	1.40954	0.70945	0.0380811	128.23127	0.0128625	0.48032	9.45401	30.71953	0.8199	0.25233	1784.33735	49219.604	354.7284	1971.243
1310.0	0.2343	0.7657	7.44608	7.77551	-1.56698	26.42779	27.91449	1.3895	0.71968	0.30931	128.37501	0.10544	0.46675	9.61239	177.79037	0.80385	0.0434611	1783.80093	47690.668	305.7872	3303.496
1305.0	0.31575	0.68425	7.46644	7.75422	-1.83648	25.7454	28.17825	1.37215	0.72879	1.0342	128.54892	0.3554	0.455	9.77342	593.22563	0.78811	0.0129842	1783.34922	46361.274	265.8788	4436.635
1300.0	0.38606	0.61394	7.48436	7.73568	-2.07119	25.15946	28.40415	1.35692	0.73696	2.33979	128.75181	0.80974	0.44478	9.937	1393.76618	0.77268	0.00550893	1782.97833	45195.901	233.0746	5406.181
1295.0	0.44713	0.55287	7.50023	7.71921	-2.2797	24.64589	28.5973	1.34347	0.74434	4.25782	128.97563	1.48272	0.43582	10.10342	2660.16662	0.75754	0.00287717	1782.68544	44166.344	205.9114	6240.335
1290.0	0.50045	0.49955	7.5144	7.70462	-2.4644	24.19848	28.76249	1.3315	0.75103	6.75142	129.2204	2.36405	0.42793	10.27256	4442.62518	0.74269	0.00171731	1782.4665	43250.023	183.2642	6961.676
1285.0	0.54727	0.45273	7.52713	7.69152	-2.63028	23.80329	28.90298	1.32079	0.75712	9.74669	129.48157	3.42961	0.42096	10.44456	6771.09984	0.72812	0.00112315	1782.31837	42428.714	164.2618	7588.425
1280.0	0.58855	0.41145	7.53865	7.6797	-2.77986	23.45336	29.0217	1.31116	0.76268	13.1525	129.75718	4.64829	0.41477	10.61943	9662.97564	0.71384	7.84493E-4	1782.23744	41687.603	148.2222	8135.395
1275.0	0.6251	0.3749	7.54912	7.66895	-2.91594	23.14096	29.12099	1.30249	0.76776	16.87473	130.04453	5.98716	0.40924	10.79725	13128.8516	0.69982	5.75537E-4	1782.22053	41014.562	134.6082	8614.711
1270.0	0.6576	0.3424	7.5587	7.65915	-3.03998	22.86213	29.20317	1.29463	0.77242	20.82828	130.34295	7.41592	0.4043	10.97811	17180.67313	0.68607	4.38384E-4	1782.26412	40399.601	122.9922	9036.363
1265.0	0.68659	0.31341	7.5675	7.65015	-3.15401	22.6112	29.26992	1.28749	0.77671	24.93255	130.65018	8.90545	0.39985	11.16208	21827.16028	0.67257	3.43944E-4	1782.36529	39834.439	113.0324	9408.627
1260.0	0.71254	0.28746	7.57564	7.64182	-3.25939	22.38435	29.32289	1.28098	0.78065	29.12179	130.96495	10.43165	0.39584	11.34925	27083.19525	0.65933	2.76294E-4	1782.52104	39312.174	104.453	9738.405
1255.0	0.73584	0.26416	7.5832	7.63409	-3.3573	22.17832	29.36362	1.27504	0.78429	33.34175	131.28627	11.97441	0.39221	11.53967	32968.38414	0.64634	2.26233E-4	1782.72855	38827.024	97.03	10031.476
1250.0	0.75682	0.24318	7.59025	7.62687	-3.44861	21.9907	29.3933	1.26958	0.78766	37.54575	131.61303	13.51621	0.38892	11.73344	39504.66225	0.63358	1.88183E-4	1782.98507	38374.118	90.5812	10292.709
1245.0	0.77577	0.22423	7.59685	7.62014	-3.53389	21.81999	29.41322	1.26456	0.79079	41.70052	131.94509	15.04436	0.38592	11.93059	46726.20185	0.62107	1.58577E-4	1783.28782	37949.336	84.9564	10526.223
1240.43	0.79148	0.20852	7.60254	7.61431	-3.60766	21.6756	29.42349	1.26031	0.79346	45.42532	132.25188	16.41786	0.38341	12.11389	53948.26064	0.60983	1.36935E-4	1783.60372	37583.045	 	10718.004
1240.0	0.79376	0.20624	7.60335	7.61352	-3.61762	21.65263	29.42681	1.25981	0.79377	45.98106	132.30443	16.62298	0.38306	12.11964	54885.69722	0.60937	1.34558E-4	1783.5825	37534.929	82.8814	10749.763
1235.0	0.81879	0.18121	7.61235	7.60454	-3.73137	21.39134	29.46003	1.25423	0.7973	52.43388	132.90416	19.00955	0.37915	12.18914	66425.0656	0.60389	1.10815E-4	1783.39319	36998.912	107.2034	11095.314
1230.0	0.83991	0.16009	7.62044	7.59652	-3.83287	21.16578	29.47847	1.24929	0.80045	58.46313	133.47276	21.24675	0.37581	12.26288	78721.89801	0.59827	9.31952E-5	1783.31165	36519.804	95.8216	11384.355
1225.0	0.85794	0.14206	7.62777	7.58928	-3.92451	20.96904	29.48466	1.24487	0.80329	64.06527	134.01583	23.33133	0.37295	12.34109	91817.95589	0.5925	7.96369E-5	1783.32164	36085.933	86.7742	11628.555
1220.0	0.87346	0.12654	7.63449	7.58269	-4.00792	20.79633	29.48081	1.24088	0.80588	69.25981	134.53809	25.26897	0.37045	12.42392	105783.855	0.58659	6.88923E-5	1783.40977	35688.51	79.4846	11836.701
1215.0	0.88693	0.11307	7.6407	7.57662	-4.08482	20.64257	29.4684	1.23725	0.80825	74.0713	135.04247	27.06763	0.36826	12.51172	120699.895	0.58052	6.01764E-5	1783.56579	35320.821	73.5378	12015.506
1210.0	0.89871	0.10129	7.64648	7.57099	-4.15609	20.50524	29.44886	1.23391	0.81043	78.53221	135.53208	28.73842	0.36633	12.60455	136670.3048	0.57431	5.29661E-5	1783.78057	34977.667	68.6308	12170.167
1205.0	0.90908	0.0909221	7.65191	7.56573	-4.22269	20.38152	29.42314	1.23082	0.81246	82.66805	136.00875	30.29011	0.3646	12.7026	153795.8871	0.56795	4.69095E-5	1784.04726	34654.969	64.5396	12304.76
1200.0	0.91826	0.0817369	7.65703	7.56078	-4.28529	20.26948	29.39211	1.22795	0.81436	86.51072	136.47422	31.73404	0.36306	12.80601	172203.8566	0.56146	4.17533E-5	1784.36001	34349.495	61.0948	12422.515
1195.0	0.92643	0.0735696	7.66188	7.55611	-4.34448	20.16731	29.35645	1.22527	0.81614	90.0843	136.92969	33.07874	0.36166	12.9149	192021.1079	0.55484	3.73171E-5	1784.71439	34058.652	58.1686	12526.023
1193.39	0.92882	0.0711833	7.66338	7.55468	-4.36258	20.13722	29.34383	1.22446	0.81669	91.15959	137.07336	33.48371	0.36125	12.95093	198667.6744	0.55269	3.60292E-5	1784.83705	33968.573	 	12556.035
1190.0	0.9502	0.0498031	7.67234	7.54615	-4.47056	19.85004	29.35667	1.22109	0.81894	97.20164	137.79262	35.78955	0.35796	13.02751	228482.2848	0.54817	3.12553E-5	1784.41472	33448.183	122.0938	12949.541
1185.0	0.96898	0.0310177	7.68136	7.53776	-4.57674	19.59406	29.33612	1.21777	0.82117	104.28298	138.5884	38.48086	0.355	13.16006	265844.7746	0.54079	2.67708E-5	1783.86836	32917.544	106.1278	13293.609
1182.95	0.9741	0.0259045	7.6842	7.53517	-4.6095	19.52312	29.31982	1.21674	0.82187	107.24842	138.85734	39.5994	0.35417	13.21779	279872.9162	0.53767	2.53932E-5	1783.66652	32748.397	 	13386.465
1182.35	0.97835	0.0216549	7.68604	7.53349	-4.63084	19.46446	29.32034	1.21621	0.82222	110.15213	139.00746	40.69153	0.3535	13.19654	287255.8352	0.53832	2.47304E-5	1783.51147	32645.007	 	13467.521
1181.4	0.98713	0.0128685	7.69002	7.52976	-4.67796	19.32839	29.31473	1.21565	0.8226	117.11627	139.35875	43.30882	0.35211	13.19602	301927.6981	0.53799	2.35133E-5	1783.44414	32428.028	 	13649.155
1181.4	0.98713	0.0128685	7.69002	7.52976	-4.67796	19.32839	29.31473	1.21565	0.8226	117.11627	139.35875	43.30882	0.35211	13.19602	301927.6981	0.53799	2.35133E-5	1783.44414	32428.028	 	13649.155
1180.0	1.0	0.0	7.69533	7.52469	-4.74221	19.14432	29.31897	1.21431	0.82352	125.85427	139.88511	46.61095	0.35005	 	324722.7976	 	2.18416E-5	 	32119.392	159.6304	13905.569
1175.0	1.0	0.0	7.69784	7.52223	-4.77332	19.1266	29.24086	1.21336	0.82416	126.31563	140.24199	46.7876	0.34988	 	350525.3009	 	2.01642E-5	 	31920.0143	39.87554	 
1170.0	1.0	0.0	7.70036	7.51977	-4.80448	19.10856	29.16271	1.21241	0.8248	126.77635	140.59755	46.96404	0.34972	 	378564.7468	 	1.86062E-5	 	31752.38336	33.52619	 
1165.0	1.0	0.0	7.70288	7.51731	-4.83558	19.09058	29.08455	1.21146	0.82545	127.23633	140.95157	47.14025	0.34955	 	409065.9715	 	1.71592E-5	 	31585.02294	33.47208	 
1160.0	1.0	0.0	7.70539	7.51486	-4.86661	19.07267	29.00639	1.2105	0.82611	127.69556	141.30406	47.31623	0.34938	 	442263.765	 	1.5816E-5	 	31417.93256	33.41808	 
1155.0	1.0	0.0	7.7079	7.51242	-4.89757	19.05482	28.92823	1.20953	0.82676	128.15406	141.65501	47.49197	0.34922	 	478417.051	 	1.45698E-5	 	31251.11164	33.36418	 
1150.0	1.0	0.0	7.71041	7.50998	-4.92847	19.03703	28.85005	1.20857	0.82743	128.61182	142.00443	47.66748	0.34905	 	517811.531	 	1.34142E-5	 	31084.55969	33.31039	 
1145.0	1.0	0.0	7.71291	7.50754	-4.9593	19.0193	28.77188	1.20759	0.82809	129.06883	142.35233	47.84276	0.34889	 	560762.7006	 	1.23433E-5	 	30918.27617	33.25671	 
1140.0	1.0	0.0	7.71541	7.50511	-4.99006	19.00165	28.69369	1.20661	0.82877	129.52511	142.69872	48.0178	0.34872	 	607619.0974	 	1.13512E-5	 	30752.26053	33.20313	 
1135.0	1.0	0.0	7.7179	7.50269	-5.02076	18.98405	28.6155	1.20563	0.82944	129.98064	143.0436	48.19261	0.34855	 	658766.0444	 	1.04329E-5	 	30586.51227	33.14965	 
1130.0	1.0	0.0	7.72039	7.50027	-5.05138	18.96653	28.5373	1.20464	0.83012	130.43544	143.38697	48.36719	0.34839	 	714629.8563	 	9.58318E-6	 	30421.03084	33.09629	 
1125.0	1.0	0.0	7.72287	7.49785	-5.08195	18.94907	28.4591	1.20365	0.83081	130.88949	143.72885	48.54153	0.34822	 	775682.3876	 	8.79744E-6	 	30255.81573	33.04302	 
1120.0	1.0	0.0	7.72536	7.49544	-5.11244	18.93168	28.38089	1.20265	0.8315	131.34281	144.06923	48.71564	0.34806	 	842446.3851	 	8.07128E-6	 	30090.86638	32.98987	 
1115.0	1.0	0.0	7.72783	7.49304	-5.14287	18.91437	28.30267	1.20164	0.83219	131.79539	144.40812	48.88951	0.34789	 	915501.2014	 	7.40055E-6	 	29926.1823	32.93682	 
1110.0	1.0	0.0	7.73031	7.49064	-5.17323	18.89712	28.22444	1.20063	0.83289	132.24722	144.74554	49.06315	0.34772	 	995489.5027	 	6.7814E-6	 	29761.76292	32.88387	 
1105.0	1.0	0.0	7.73278	7.48825	-5.20352	18.87994	28.14621	1.19962	0.8336	132.69832	145.08147	49.23656	0.34756	 	1083124.581	 	6.21019E-6	 	29597.60774	32.83104	 
1100.0	1.0	0.0	7.73524	7.48586	-5.23374	18.86284	28.06797	1.1986	0.83431	133.14868	145.41593	49.40973	0.34739	 	1179198.677	 	5.68352E-6	 	29433.71622	32.7783	 
1095.0	1.0	0.0	7.73771	7.48348	-5.2639	18.84581	27.98972	1.19757	0.83502	133.5983	145.74893	49.58267	0.34723	 	1284592.362	 	5.19823E-6	 	29270.08783	32.72568	 
1090.0	1.0	0.0	7.74017	7.4811	-5.294	18.82886	27.91147	1.19654	0.83574	134.04717	146.08047	49.75537	0.34706	 	1400284.931	 	4.75132E-6	 	29106.72205	32.67316	 
1085.0	1.0	0.0	7.74262	7.47873	-5.32402	18.81198	27.83321	1.1955	0.83647	134.49531	146.41055	49.92784	0.3469	 	1527366.446	 	4.34001E-6	 	28943.61832	32.62075	 
1080.0	1.0	0.0	7.74507	7.47636	-5.35398	18.79518	27.75494	1.19446	0.8372	134.94271	146.73917	50.10007	0.34673	 	1667050.99	 	3.96172E-6	 	28780.77613	32.56844	 
1075.0	1.0	0.0	7.74752	7.474	-5.38387	18.77845	27.67666	1.19341	0.83793	135.38938	147.06636	50.27207	0.34657	 	1820691.734	 	3.614E-6	 	28618.19495	32.51624	 
1070.0	1.0	0.0	7.74996	7.47165	-5.41369	18.76181	27.59837	1.19236	0.83867	135.8353	147.3921	50.44383	0.3464	 	1989798.164	 	3.2946E-6	 	28455.87424	32.46414	 
1065.0	1.0	0.0	7.7524	7.4693	-5.44345	18.74524	27.52008	1.1913	0.83942	136.28048	147.71641	50.61536	0.34624	 	2176055.082	 	3.00138E-6	 	28293.81348	32.41215	 
1063.51	1.0	0.0	7.75312	7.4686	-5.45228	18.74034	27.49682	1.19098	0.83964	136.41261	147.81249	50.66628	0.34619	 	2234971.766	 	2.91902E-6	 	28245.71298	 	 
1060.0	1.0	0.0	7.75628	7.46556	-5.49071	18.66541	27.39347	1.19233	0.83869	136.96895	148.19245	50.88166	0.34596	 	2396423.94	 	2.7152E-6	 	28043.66244	50.03021	 
1055.0	1.0	0.0	7.76069	7.46131	-5.54451	18.56113	27.25114	1.19407	0.83747	137.74315	148.71811	51.18155	0.34563	 	2647975.158	 	2.44805E-6	 	27760.90391	56.55171	 
1050.0	1.0	0.0	7.76503	7.45715	-5.59727	18.45961	27.11349	1.19561	0.83639	138.50088	149.2309	51.47518	0.34532	 	2927948.36	 	2.20563E-6	 	27483.44112	55.49256	 
1045.0	1.0	0.0	7.76929	7.45306	-5.64903	18.36074	26.9801	1.19698	0.83543	139.2434	149.7321	51.76303	0.34501	 	3239763.333	 	1.98581E-6	 	27211.03444	54.48134	 
1040.0	1.0	0.0	7.77348	7.44904	-5.69984	18.2644	26.851	1.19817	0.8346	139.97159	150.22244	52.04541	0.34471	 	3587277.67	 	1.78664E-6	 	26943.45402	53.51608	 
1035.0	1.0	0.0	7.77759	7.4451	-5.74973	18.17048	26.725	1.19924	0.83386	140.68621	150.70255	52.32263	0.34441	 	3974846.729	 	1.60629E-6	 	26680.47979	52.59485	 
1034.2	1.0	0.0	7.77825	7.44448	-5.75765	18.15566	26.70511	1.1994	0.83375	140.79967	150.7787	52.36665	0.34436	 	4041093.708	 	1.57899E-6	 	26638.69378	 	 
1030.0	1.0	0.0	7.78164	7.44123	-5.7987	18.07909	26.60241	1.20016	0.83322	141.38814	151.1733	52.59501	0.34412	 	4407459.986	 	1.44309E-6	 	26421.80488	51.73498	 
1025.0	1.0	0.0	7.78561	7.43743	-5.84683	17.9899	26.483	1.20095	0.83268	142.07787	151.63489	52.86273	0.34384	 	4890633.15	 	1.29553E-6	 	26167.3167	50.89764	 
1020.0	1.0	0.0	7.78953	7.43369	-5.89416	17.9028	26.36656	1.2016	0.83222	142.75597	152.08774	53.12603	0.34356	 	5430659.547	 	1.16221E-6	 	25916.83991	50.09536	 
1015.0	1.0	0.0	7.79339	7.43001	-5.94073	17.81769	26.25288	1.20214	0.83185	143.42304	152.53229	53.38512	0.34329	 	6034675.53	 	1.04184E-6	 	25670.19188	49.3296	 
1010.0	1.0	0.0	7.79719	7.42639	-5.98657	17.73449	26.1418	1.20256	0.83156	144.07962	152.96896	53.64022	0.34302	 	6710771.412	 	9.33236E-7	 	25427.19903	48.59857	 
1005.0	1.0	0.0	7.80093	7.42283	-6.03171	17.6531	26.03314	1.20288	0.83134	144.72624	153.39813	53.89152	0.34276	 	7468127.085	 	8.35328E-7	 	25187.6965	47.90051	 
1000.0	1.0	0.0	7.80462	7.41931	-6.07618	17.57344	25.92675	1.20309	0.83119	145.36338	153.82016	54.13921	0.3425	 	8317167.465	 	7.47121E-7	 	24951.52788	47.23372	 
995.0	1.0	0.0	7.80827	7.41585	-6.12	17.49543	25.82248	1.2032	0.83112	145.99151	154.23538	54.38347	0.34224	 	9269742.86	 	6.67713E-7	 	24718.54485	46.5966	 
990.0	1.0	0.0	7.81186	7.41244	-6.16322	17.41898	25.72019	1.20322	0.8311	146.61105	154.64412	54.62446	0.34199	 	1.033933381E7	 	5.96278E-7	 	24488.60688	45.9876	 
985.0	1.0	0.0	7.81541	7.40907	-6.20584	17.34402	25.61978	1.20316	0.83115	147.22243	155.04666	54.86234	0.34174	 	1.154129208E7	 	5.32065E-7	 	24261.58078	45.40522	 
980.0	1.0	0.0	7.81892	7.40575	-6.2479	17.27049	25.52112	1.20301	0.83125	147.82603	155.44329	55.09727	0.3415	 	1.289311331E7	 	4.74386E-7	 	24037.34048	44.84806	 
975.0	1.0	0.0	7.82238	7.40247	-6.28942	17.19832	25.4241	1.20278	0.83141	148.42221	155.83426	55.32937	0.34126	 	1.44147569E7	 	4.22616E-7	 	23815.76657	44.31478	 
970.0	1.0	0.0	7.82581	7.39923	-6.33042	17.12744	25.32862	1.20248	0.83161	149.01132	156.21982	55.55879	0.34102	 	1.612901361E7	 	3.76186E-7	 	23596.74601	43.80411	 
965.0	1.0	0.0	7.82919	7.39603	-6.37091	17.05779	25.2346	1.20211	0.83187	149.59367	156.60019	55.78564	0.34079	 	1.806193204E7	 	3.34577E-7	 	23380.17178	43.31484	 
960.0	1.0	0.0	7.83254	7.39287	-6.41093	16.98931	25.14194	1.20166	0.83218	150.16958	156.9756	56.01004	0.34056	 	2.024331253E7	 	2.97318E-7	 	23165.94256	42.84584	 
955.0	1.0	0.0	7.83585	7.38975	-6.45048	16.92196	25.05058	1.20116	0.83253	150.73932	157.34623	56.2321	0.34033	 	2.270728044E7	 	2.63981E-7	 	22953.96242	42.39603	 
950.0	1.0	0.0	7.83913	7.38666	-6.48959	16.85567	24.96042	1.20059	0.83293	151.30317	157.71229	56.45193	0.34011	 	2.549295393E7	 	2.34178E-7	 	22744.14049	41.96439	 
945.0	1.0	0.0	7.84237	7.3836	-6.52827	16.7904	24.87141	1.19996	0.83336	151.86139	158.07394	56.66962	0.33988	 	2.864521557E7	 	2.07556E-7	 	22536.3907	41.54996	 
940.0	1.0	0.0	7.84559	7.38058	-6.56653	16.7261	24.78347	1.19927	0.83384	152.4142	158.43135	56.88527	0.33966	 	3.221561744E7	 	1.83795E-7	 	22330.63147	41.15185	 
935.0	1.0	0.0	7.84877	7.37759	-6.6044	16.66273	24.69655	1.19853	0.83435	152.96184	158.78468	57.09895	0.33945	 	3.626343232E7	 	1.62607E-7	 	22126.78549	40.7692	 
930.0	1.0	0.0	7.85192	7.37463	-6.64189	16.60024	24.6106	1.19774	0.8349	153.50452	159.13408	57.31076	0.33923	 	4.085687612E7	 	1.43728E-7	 	21924.77945	40.40121	 
925.0	1.0	0.0	7.85504	7.3717	-6.679	16.53859	24.52555	1.1969	0.83549	154.04243	159.47968	57.52077	0.33902	 	4.607454615E7	 	1.26922E-7	 	21724.54378	40.04713	 
920.0	1.0	0.0	7.85814	7.36879	-6.71576	16.47774	24.44136	1.19601	0.83611	154.57577	159.82161	57.72906	0.3388	 	5.200708916E7	 	1.11975E-7	 	21526.01247	39.70626	 
915.0	1.0	0.0	7.8612	7.36592	-6.75217	16.41766	24.35798	1.19508	0.83677	155.10472	160.16	57.93568	0.33859	 	5.875916983E7	 	9.86921E-8	 	21329.12282	39.37793	 
910.0	1.0	0.0	7.86425	7.36307	-6.78824	16.35831	24.27537	1.1941	0.83745	155.62943	160.49496	58.14071	0.33839	 	6.645176179E7	 	8.69E-8	 	21133.81528	39.06151	 
905.0	1.0	0.0	7.86726	7.36024	-6.82399	16.29965	24.19349	1.19308	0.83817	156.15007	160.82659	58.34421	0.33818	 	7.522484836E7	 	7.64409E-8	 	20940.03321	38.75641	 
900.0	1.0	0.0	7.87026	7.35744	-6.85943	16.24166	24.11231	1.19201	0.83892	156.6668	161.15501	58.54623	0.33798	 	8.524058377E7	 	6.71729E-8	 	20747.7228	38.46208	 
895.0	1.0	0.0	7.87323	7.35467	-6.89457	16.1843	24.03177	1.19091	0.83969	157.17974	161.4803	58.74683	0.33777	 	9.668703053E7	 	5.89681E-8	 	20556.83277	38.17801	 
890.0	1.0	0.0	7.87617	7.35192	-6.92941	16.12755	23.95186	1.18977	0.8405	157.68904	161.80257	58.94606	0.33757	 	1.097825267E8	 	5.17117E-8	 	20367.31436	37.90368	 
885.0	1.0	0.0	7.8791	7.34919	-6.96397	16.07137	23.87254	1.18859	0.84133	158.19481	162.12189	59.14397	0.33737	 	1.247808727E8	 	4.53006E-8	 	20179.12107	37.63866	 
880.0	1.0	0.0	7.882	7.34648	-6.99826	16.01574	23.79378	1.18738	0.84219	158.69719	162.43834	59.34061	0.33717	 	1.419774299E8	 	3.96418E-8	 	19992.20849	37.38252	 
875.0	1.0	0.0	7.88489	7.34379	-7.03227	15.96063	23.71556	1.18613	0.84308	159.19627	162.75202	59.53601	0.33697	 	1.617163436E8	 	3.46522E-8	 	19806.53406	37.13489	 
870.0	1.0	0.0	7.88775	7.34112	-7.06602	15.90602	23.63784	1.18484	0.84399	159.69217	163.06297	59.73022	0.33678	 	1.843990562E8	 	3.02574E-8	 	19622.058	36.89521	 
865.0	1.0	0.0	7.8906	7.33848	-7.09953	15.85187	23.5606	1.18353	0.84493	160.185	163.37129	59.92328	0.33658	 	2.104944491E8	 	2.63904E-8	 	19438.74182	36.66324	 
860.0	1.0	0.0	7.89342	7.33585	-7.13278	15.79818	23.48383	1.18218	0.84589	160.67483	163.67702	60.11523	0.33639	 	2.405508371E8	 	2.29915E-8	 	19256.54878	36.43861	 
855.0	1.0	0.0	7.89623	7.33324	-7.1658	15.74492	23.40749	1.1808	0.84688	161.16177	163.98025	60.3061	0.3362	 	2.752102099E8	 	2.00073E-8	 	19075.44373	36.22101	 
850.0	1.0	0.0	7.89902	7.33065	-7.19858	15.69206	23.33156	1.1794	0.84789	161.6459	164.28101	60.49592	0.33601	 	3.152252179E8	 	1.73902E-8	 	18895.39304	36.01014	 
845.0	1.0	0.0	7.90127	7.32856	-7.22503	15.66739	23.26023	1.17775	0.84908	162.04407	164.53691	60.65166	0.33586	 	3.589057026E8	 	1.52057E-8	 	18747.2501	29.62859	 
840.0	1.0	0.0	7.90352	7.32648	-7.25141	15.64273	23.18889	1.17609	0.85028	162.44156	164.7917	60.80719	0.33571	 	4.09115628E8	 	1.32799E-8	 	18596.3164	30.18674	 
835.0	1.0	0.0	7.90576	7.3244	-7.27773	15.61807	23.11753	1.17442	0.85148	162.83839	165.04539	60.9625	0.33556	 	4.669011454E8	 	1.1584E-8	 	18445.617	30.13988	 
830.0	1.0	0.0	7.908	7.32233	-7.30397	15.59342	23.04617	1.17274	0.8527	163.23455	165.29797	61.11759	0.33541	 	5.334871287E8	 	1.00925E-8	 	18295.15131	30.09314	 
825.0	1.0	0.0	7.91023	7.32026	-7.33015	15.56877	22.9748	1.17105	0.85393	163.63004	165.54946	61.27247	0.33527	 	6.103095889E8	 	8.7821E-9	 	18144.91868	30.04653	 
820.0	1.0	0.0	7.91246	7.3182	-7.35626	15.54413	22.90341	1.16935	0.85517	164.02487	165.79985	61.42712	0.33512	 	6.990543092E8	 	7.6323E-9	 	17994.91849	30.00004	 
815.0	1.0	0.0	7.91469	7.31614	-7.38231	15.5195	22.83201	1.16764	0.85642	164.41902	166.04915	61.58156	0.33497	 	8.017029555E8	 	6.62464E-9	 	17845.15011	29.95368	 
810.0	1.0	0.0	7.91691	7.31409	-7.40829	15.49487	22.7606	1.16593	0.85769	164.81251	166.29736	61.73579	0.33482	 	9.205881908E8	 	5.74262E-9	 	17695.61289	29.90744	 
805.0	1.0	0.0	7.91913	7.31204	-7.4342	15.47024	22.68918	1.1642	0.85896	165.20534	166.54448	61.8898	0.33467	 	1.058459645E9	 	4.97155E-9	 	17546.30618	29.86134	 
800.0	1.0	0.0	7.92134	7.31	-7.46004	15.44563	22.61775	1.16246	0.86025	165.59749	166.79052	62.04359	0.33453	 	1.218562996E9	 	4.29832E-9	 	17397.2293	29.81537	 
795.0	1.0	0.0	7.92354	7.30796	-7.48581	15.42102	22.54631	1.16071	0.86154	165.98898	167.03548	62.19716	0.33438	 	1.404734903E9	 	3.71129E-9	 	17248.3816	29.76954	 
790.0	1.0	0.0	7.92575	7.30593	-7.51152	15.39641	22.47485	1.15895	0.86285	166.3798	167.27936	62.35051	0.33423	 	1.621517158E9	 	3.20007E-9	 	17099.76237	29.72385	 
785.0	1.0	0.0	7.92794	7.30391	-7.53716	15.37181	22.40338	1.15718	0.86417	166.76995	167.52217	62.50365	0.33408	 	1.874294124E9	 	2.75547E-9	 	16951.37093	29.67829	 
780.0	1.0	0.0	7.93014	7.30189	-7.56274	15.34722	22.3319	1.1554	0.8655	167.15943	167.76391	62.65657	0.33393	 	2.169458508E9	 	2.36933E-9	 	16803.20656	29.63287	 
775.0	1.0	0.0	7.93233	7.29987	-7.58824	15.32263	22.26041	1.1536	0.86685	167.54825	168.00457	62.80927	0.33379	 	2.514611587E9	 	2.03441E-9	 	16655.26854	29.5876	 
770.0	1.0	0.0	7.93451	7.29786	-7.61368	15.29805	22.1889	1.1518	0.86821	167.9364	168.24418	62.96175	0.33364	 	2.918805452E9	 	1.74433E-9	 	16507.55614	29.54248	 
765.0	1.0	0.0	7.93669	7.29586	-7.63906	15.27347	22.11739	1.14999	0.86958	168.32388	168.48272	63.11402	0.33349	 	3.392836558E9	 	1.49343E-9	 	16360.0686	29.49751	 
760.0	1.0	0.0	7.93887	7.29386	-7.66436	15.2489	22.04585	1.14816	0.87096	168.7107	168.7202	63.26607	0.33334	 	3.949602019E9	 	1.27672E-9	 	16212.80516	29.45269	 
755.0	1.0	0.0	7.94104	7.29187	-7.6896	15.22434	21.97431	1.14632	0.87235	169.09685	168.95663	63.4179	0.3332	 	4.604532786E9	 	1.08983E-9	 	16065.76502	29.40803	 
750.0	1.0	0.0	7.9432	7.28988	-7.71477	15.19978	21.90275	1.14448	0.87376	169.48233	169.19201	63.56951	0.33305	 	5.376121178E9	 	9.28874E-10	 	15918.94739	29.36353	 
745.0	1.0	0.0	7.94536	7.28789	-7.73988	15.17522	21.83118	1.14262	0.87518	169.86714	169.42633	63.7209	0.3329	 	6.286564405E9	 	7.90469E-10	 	15772.35145	29.31919	 
740.0	1.0	0.0	7.94752	7.28592	-7.76492	15.15068	21.75959	1.14075	0.87662	170.25129	169.65961	63.87208	0.33275	 	7.362550958E9	 	6.71633E-10	 	15625.97633	29.27502	 
735.0	1.0	0.0	7.94967	7.28394	-7.78989	15.12613	21.688	1.13886	0.87807	170.63476	169.89184	64.02303	0.3326	 	8.636223255E9	 	5.69755E-10	 	15479.82119	29.23103	 
730.0	1.0	0.0	7.95182	7.28198	-7.81479	15.1016	21.61638	1.13697	0.87953	171.01757	170.12303	64.17377	0.33246	 	1.01464E10	 	4.8255E-10	 	15333.88512	29.18721	 
725.0	1.0	0.0	7.95396	7.28001	-7.83963	15.07707	21.54475	1.13506	0.88101	171.39972	170.35319	64.32429	0.33231	 	1.1939799999999998E10	 	4.08023E-10	 	15188.16722	29.14358	 
720.0	1.0	0.0	7.9561	7.27806	-7.8644	15.05255	21.47311	1.13315	0.8825	171.78119	170.5823	64.47459	0.33216	 	1.4073299999999998E10	 	3.44433E-10	 	15042.66653	29.10014	 
715.0	1.0	0.0	7.95824	7.27611	-7.88911	15.02803	21.40146	1.13122	0.884	172.162	170.81039	64.62467	0.33201	 	1.6615699999999998E10	 	2.90262E-10	 	14897.38209	29.05689	 
710.0	1.0	0.0	7.96036	7.27416	-7.91374	15.00352	21.32978	1.12927	0.88552	172.54214	171.03744	64.77454	0.33187	 	1.96505E10	 	2.44193E-10	 	14752.31288	29.01384	 
705.0	1.0	0.0	7.96249	7.27222	-7.93831	14.97901	21.2581	1.12732	0.88706	172.92162	171.26347	64.92418	0.33172	 	2.32795E10	 	2.05077E-10	 	14607.45786	28.971	 
700.0	1.0	0.0	7.96461	7.27028	-7.96282	14.95451	21.18639	1.12535	0.88861	173.30042	171.48847	65.07361	0.33157	 	2.7626799999999996E10	 	1.71924E-10	 	14462.81597	28.92838	 
695.0	1.0	0.0	7.96672	7.26835	-7.98725	14.93001	21.11468	1.12337	0.89018	173.67856	171.71245	65.22281	0.33142	 	3.2843899999999996E10	 	1.43871E-10	 	14318.38608	28.88598	 
690.0	1.0	0.0	7.96884	7.26643	-8.01162	14.90553	21.04294	1.12138	0.89176	174.05604	171.93542	65.3718	0.33128	 	3.91165E10	 	1.20177E-10	 	14174.16704	28.84381	 
685.0	1.0	0.0	7.97094	7.26451	-8.03593	14.88104	20.97119	1.11938	0.89335	174.43284	172.15737	65.52057	0.33113	 	4.667199999999999E10	 	1.00199E-10	 	14030.15765	28.80188	 
680.0	1.0	0.0	7.97304	7.26259	-8.06016	14.85656	20.89943	1.11736	0.89497	174.80898	172.3783	65.66911	0.33098	 	5.579019999999999E10	 	8.33854E-11	 	13886.35666	28.7602	 
675.0	1.0	0.0	7.97514	7.26068	-8.08433	14.83209	20.82765	1.11533	0.8966	175.18445	172.59822	65.81744	0.33084	 	6.681539999999999E10	 	6.92607E-11	 	13742.76278	28.71878	 
670.0	1.0	0.0	7.97723	7.25878	-8.10844	14.80763	20.75585	1.11329	0.89824	175.55925	172.81714	65.96555	0.33069	 	8.01726E10	 	5.74171E-11	 	13599.37463	28.67763	 
665.0	1.0	0.0	7.97932	7.25688	-8.13248	14.78317	20.68403	1.11123	0.89991	175.93338	173.03505	66.11344	0.33054	 	9.638709999999998E10	 	4.75051E-11	 	13456.19083	28.63676	 
660.0	1.0	0.0	7.9814	7.25499	-8.15645	14.75871	20.6122	1.10916	0.90159	176.30685	173.25196	66.26111	0.33039	 	1.1611E11	 	3.92256E-11	 	13313.21284	28.5956	 
655.0	1.0	0.0	7.98348	7.2531	-8.18035	14.73427	20.54035	1.10707	0.90328	176.67965	173.46787	66.40856	0.33025	 	1.40149E11	 	3.23232E-11	 	13170.45685	28.5512	 
650.0	1.0	0.0	7.98555	7.25122	-8.20419	14.70982	20.46848	1.10498	0.905	177.05178	173.68278	66.55579	0.3301	 	1.6951E11	 	2.65805E-11	 	13027.94443	28.50249	 
645.0	1.0	0.0	7.98762	7.24934	-8.22796	14.68539	20.39659	1.10286	0.90673	177.42325	173.8967	66.70281	0.32995	 	2.05448E11	 	2.18121E-11	 	12885.67485	28.45392	 
640.0	1.0	0.0	7.98968	7.24747	-8.25166	14.66096	20.32469	1.10074	0.90848	177.79404	174.10963	66.8496	0.32981	 	2.4953E11	 	1.7861E-11	 	12743.64744	28.40548	 
635.0	1.0	0.0	7.99174	7.2456	-8.2753	14.63653	20.25277	1.0986	0.91025	178.16417	174.32157	66.99617	0.32966	 	3.0372E11	 	1.45939E-11	 	12601.86152	28.35719	 
630.0	1.0	0.0	7.9938	7.24374	-8.29887	14.61211	20.18083	1.09645	0.91204	178.53363	174.53252	67.14252	0.32951	 	3.70483E11	 	1.18981E-11	 	12460.31636	28.30903	 
625.0	1.0	0.0	7.99585	7.24188	-8.32238	14.5877	20.10887	1.09428	0.91385	178.90243	174.74249	67.28865	0.32937	 	4.52923E11	 	9.67856E-12	 	12319.01104	28.26106	 
620.0	1.0	0.0	7.99789	7.24003	-8.34582	14.56329	20.03689	1.09209	0.91567	179.27056	174.95148	67.43456	0.32922	 	5.54955E11	 	7.85513E-12	 	12177.94411	28.21339	 
615.0	1.0	0.0	7.99993	7.23818	-8.36919	14.53889	19.96489	1.0899	0.91752	179.63802	175.15949	67.58024	0.32907	 	6.81529E11	 	6.36047E-12	 	12037.11527	28.16577	 
610.0	1.0	0.0	8.00197	7.23634	-8.3925	14.5145	19.89287	1.08768	0.91938	180.00481	175.36653	67.72571	0.32893	 	8.3892E11	 	5.13807E-12	 	11896.52387	28.11828	 
605.0	1.0	0.0	8.004	7.23451	-8.41574	14.49011	19.82083	1.08546	0.92127	180.37093	175.57259	67.87096	0.32878	 	1.03511E12	 	4.14067E-12	 	11756.16924	28.07093	 
600.0	1.0	0.0	8.00602	7.23268	-8.43891	14.46572	19.74877	1.08322	0.92318	180.73639	175.77769	68.01599	0.32863	 	1.28025E12	 	3.32875E-12	 	11616.05073	28.0237	 
595.0	1.0	0.0	8.00804	7.23085	-8.46202	14.44134	19.67669	1.08096	0.92511	181.10117	175.98181	68.16079	0.32848	 	1.58733E12	 	2.6694E-12	 	11476.16767	27.97661	 
590.0	1.0	0.0	8.01006	7.22903	-8.48506	14.41697	19.60459	1.07868	0.92705	181.4653	176.18497	68.30538	0.32834	 	1.97298E12	 	2.13526E-12	 	11336.51942	27.92965	 
585.0	1.0	0.0	8.01207	7.22722	-8.50804	14.39261	19.53247	1.0764	0.92903	181.82875	176.38717	68.44974	0.32819	 	2.45854E12	 	1.70362E-12	 	11197.10531	27.88282	 
580.0	1.0	0.0	8.01408	7.22541	-8.53095	14.36824	19.46033	1.07409	0.93102	182.19153	176.58841	68.59388	0.32805	 	3.07152E12	 	1.35569E-12	 	11057.92472	27.83612	 
575.0	1.0	0.0	8.01608	7.2236	-8.55379	14.34389	19.38816	1.07177	0.93303	182.55365	176.78869	68.73781	0.3279	 	3.8474E12	 	1.07595E-12	 	10918.97699	27.78955	 
570.0	1.0	0.0	8.01808	7.2218	-8.57657	14.31954	19.31597	1.06943	0.93507	182.9151	176.98801	68.88151	0.32775	 	4.83218E12	 	8.51625E-13	 	10780.26148	27.7431	 
565.0	1.0	0.0	8.02007	7.22001	-8.59928	14.2952	19.24376	1.06708	0.93714	183.27588	177.18638	69.02498	0.32761	 	6.08554E12	 	6.72216E-13	 	10641.77757	27.69678	 
560.0	1.0	0.0	8.02206	7.21822	-8.62192	14.27086	19.17153	1.06471	0.93922	183.63599	177.38381	69.16824	0.32746	 	7.68524E12	 	5.29118E-13	 	10503.5246	27.65059	 
555.0	1.0	0.0	8.02404	7.21644	-8.6445	14.24653	19.09927	1.06233	0.94133	183.99544	177.58028	69.31128	0.32731	 	9.73285E12	 	4.15294E-13	 	10365.50197	27.60453	 
550.0	1.0	0.0	8.02602	7.21466	-8.66701	14.2222	19.02699	1.05992	0.94346	184.35422	177.77581	69.45409	0.32717	 	1.23614E13	 	3.25011E-13	 	10227.70904	27.55859	 
545.0	1.0	0.0	8.02799	7.21288	-8.68946	14.19788	18.95469	1.0575	0.94562	184.71233	177.9704	69.59668	0.32702	 	1.57458E13	 	2.53603E-13	 	10090.14519	27.51277	 
540.0	1.0	0.0	8.02996	7.21112	-8.71184	14.17357	18.88236	1.05507	0.94781	185.06977	178.16405	69.73905	0.32687	 	2.01167E13	 	1.97288E-13	 	9952.80982	27.46708	 
535.0	1.0	0.0	8.03192	7.20935	-8.73415	14.14926	18.81	1.05261	0.95002	185.42654	178.35676	69.8812	0.32673	 	2.57788E13	 	1.53009E-13	 	9815.70228	27.42151	 
530.0	1.0	0.0	8.03388	7.2076	-8.7564	14.12496	18.73762	1.05014	0.95225	185.78264	178.54853	70.02313	0.32658	 	3.31367E13	 	1.18297E-13	 	9678.822	27.37606	 
525.0	1.0	0.0	8.03583	7.20584	-8.77859	14.10066	18.66522	1.04765	0.95451	186.13808	178.73938	70.16483	0.32643	 	4.27291E13	 	9.11692E-14	 	9542.16837	27.33073	 
520.0	1.0	0.0	8.03778	7.2041	-8.8007	14.07637	18.59279	1.04515	0.9568	186.49285	178.92929	70.30631	0.32629	 	5.5275E13	 	7.00346E-14	 	9405.74077	27.28552	 
515.0	1.0	0.0	8.03973	7.20235	-8.82275	14.05209	18.52033	1.04262	0.95912	186.84695	179.11827	70.44757	0.32614	 	7.17387E13	 	5.36219E-14	 	9269.53864	27.24043	 
510.0	1.0	0.0	8.04167	7.20062	-8.84474	14.02781	18.44784	1.04008	0.96147	187.20038	179.30633	70.58861	0.326	 	9.34165E13	 	4.09174E-14	 	9133.56136	27.19546	 
505.0	1.0	0.0	8.0436	7.19889	-8.86666	14.00353	18.37533	1.03751	0.96384	187.55315	179.49347	70.72942	0.32585	 	1.22058E14	 	3.11159E-14	 	8997.80837	27.1506	 
500.0	1.0	0.0	8.04553	7.19716	-8.88851	13.97927	18.30279	1.03493	0.96625	187.90524	179.67969	70.87001	0.3257	 	1.60034E14	 	2.35796E-14	 	8862.27906	27.10586	 
495.0	1.0	0.0	8.04745	7.19544	-8.9103	13.95501	18.23022	1.03233	0.96868	188.25667	179.86499	71.01038	0.32556	 	2.10567E14	 	1.7805E-14	 	8726.9729	27.06123	 
490.0	1.0	0.0	8.04937	7.19372	-8.93202	13.93075	18.15762	1.02971	0.97114	188.60743	180.04937	71.15052	0.32541	 	2.7805499999999997E14	 	1.33957E-14	 	8591.88928	27.01672	 
485.0	1.0	0.0	8.05129	7.19201	-8.95368	13.9065	18.085	1.02708	0.97364	188.95752	180.23284	71.29045	0.32527	 	3.68521E14	 	1.00411E-14	 	8457.02767	26.97232	 
480.0	1.0	0.0	8.0532	7.19031	-8.97527	13.88226	18.01234	1.02442	0.97616	189.30694	180.41539	71.43014	0.32512	 	4.9025E14	 	7.49808E-15	 	8322.3875	26.92803	 
475.0	1.0	0.0	8.0551	7.18861	-8.99679	13.85802	17.93965	1.02174	0.97872	189.65569	180.59704	71.56962	0.32497	 	6.54683E14	 	5.57756E-15	 	8187.96823	26.88385	 
470.0	1.0	0.0	8.057	7.18691	-9.01825	13.83379	17.86694	1.01904	0.98131	190.00377	180.77779	71.70887	0.32483	 	8.77675E14	 	4.13266E-15	 	8053.7693	26.83979	 
465.0	1.0	0.0	8.0589	7.18522	-9.03965	13.80956	17.79419	1.01632	0.98394	190.35119	180.95763	71.8479	0.32468	 	1.1813E15	 	3.04979E-15	 	7919.79019	26.79582	 
460.0	1.0	0.0	8.06079	7.18354	-9.06098	13.78534	17.72141	1.01359	0.9866	190.69794	181.13656	71.98671	0.32454	 	1.59643E15	 	2.24146E-15	 	7786.03036	26.75197	 
455.0	1.0	0.0	8.06267	7.18186	-9.08224	13.76112	17.64859	1.01083	0.98929	191.04402	181.3146	72.12529	0.32439	 	2.16637E15	 	1.64049E-15	 	7652.48928	26.70822	 
450.0	1.0	0.0	8.06455	7.18018	-9.10344	13.73691	17.57575	1.00805	0.99202	191.38943	181.49174	72.26365	0.32424	 	2.95223E15	 	1.19554E-15	 	7519.16645	26.66457	 
445.0	1.0	0.0	8.06643	7.17851	-9.12457	13.71271	17.50287	1.00525	0.99478	191.73417	181.66799	72.40178	0.3241	 	4.04054E15	 	8.67486E-16	 	7386.06136	26.62102	 
440.0	1.0	0.0	8.0683	7.17685	-9.14563	13.68851	17.42995	1.00242	0.99758	192.07824	181.84334	72.53969	0.32395	 	5.55443E15	 	6.26655E-16	 	7253.1735	26.57757	 
435.0	1.0	0.0	8.07016	7.17519	-9.16663	13.66432	17.357	0.99958	1.00042	192.42164	182.0178	72.67738	0.32381	 	7.66992E15	 	4.50631E-16	 	7120.50239	26.53422	 
430.0	1.0	0.0	8.07202	7.17354	-9.18757	13.64014	17.28402	0.99671	1.0033	192.76438	182.19138	72.81484	0.32366	 	1.06399E16	 	3.22551E-16	 	6988.04752	26.49097	 
425.0	1.0	0.0	8.07388	7.17189	-9.20844	13.61596	17.211	0.99382	1.00622	193.10644	182.36407	72.95208	0.32352	 	1.48292E16	 	2.29783E-16	 	6855.80848	26.44781	 
420.0	1.0	0.0	8.07573	7.17025	-9.22924	13.59178	17.13794	0.99091	1.00917	193.44784	182.53587	73.0891	0.32337	 	2.07672E16	 	1.62906E-16	 	6723.78472	26.40475	 
415.0	1.0	0.0	8.07758	7.16861	-9.24998	13.56761	17.06485	0.98798	1.01217	193.78857	182.7068	73.22589	0.32322	 	2.92256E16	 	1.14923E-16	 	6591.97597	26.36175	 
410.0	1.0	0.0	8.07942	7.16697	-9.27065	13.54345	16.99171	0.98502	1.01521	194.12862	182.87685	73.36245	0.32308	 	4.13354E16	 	8.06641E-17	 	6460.38201	26.31879	 
405.0	1.0	0.0	8.08125	7.16535	-9.29126	13.5193	16.91854	0.98204	1.01829	194.46801	183.04601	73.49879	0.32293	 	5.87626E16	 	5.63264E-17	 	6329.00267	26.27587	 
400.0	1.0	0.0	8.08308	7.16372	-9.3118	13.49514	16.84533	0.97904	1.02141	194.80673	183.21431	73.63491	0.32279	 	8.39748E16	 	3.91246E-17	 	6197.83774	26.23299	 
395.0	1.0	0.0	8.08491	7.16211	-9.33228	13.471	16.77208	0.97601	1.02458	195.14479	183.38173	73.7708	0.32264	 	1.20647E17	 	2.70298E-17	 	6066.88706	26.19014	 
390.0	1.0	0.0	8.08673	7.16049	-9.35269	13.44686	16.69878	0.97296	1.0278	195.48217	183.54828	73.90647	0.3225	 	1.74285E17	 	1.85712E-17	 	5936.15045	26.14732	 
385.0	1.0	0.0	8.08854	7.15889	-9.37304	13.42273	16.62545	0.96988	1.03106	195.81888	183.71397	74.04191	0.32235	 	2.53179E17	 	1.26877E-17	 	5805.62778	26.10453	 
380.0	1.0	0.0	8.09036	7.15728	-9.39332	13.3986	16.55207	0.96678	1.03436	196.15493	183.87879	74.17712	0.32221	 	3.69896E17	 	8.61826E-18	 	5675.31889	26.06178	 
375.0	1.0	0.0	8.09216	7.15569	-9.41354	13.37448	16.47865	0.96365	1.03772	196.4903	184.04274	74.31212	0.32206	 	5.43591E17	 	5.81956E-18	 	5545.22367	26.01905	 
370.0	1.0	0.0	8.09396	7.1541	-9.43369	13.35036	16.40518	0.9605	1.04112	196.825	184.20584	74.44688	0.32192	 	8.03644E17	 	3.90603E-18	 	5415.34198	25.97634	 
365.0	1.0	0.0	8.09576	7.15251	-9.45378	13.32625	16.33167	0.95732	1.04458	197.15904	184.36807	74.58142	0.32177	 	1.19541E18	 	2.60551E-18	 	5285.67373	25.93365	 
360.0	1.0	0.0	8.09755	7.15093	-9.4738	13.30215	16.25811	0.95412	1.04809	197.49241	184.52945	74.71574	0.32163	 	1.78934E18	 	1.72703E-18	 	5156.21882	25.89098	 
355.0	1.0	0.0	8.09933	7.14935	-9.49375	13.27805	16.1845	0.95089	1.05165	197.8251	184.68997	74.84983	0.32148	 	2.69561E18	 	1.13735E-18	 	5026.97719	25.84833	 
350.0	1.0	0.0	8.10111	7.14778	-9.51364	13.25396	16.11085	0.94763	1.05526	198.15713	184.84964	74.98369	0.32133	 	4.08769E18	 	7.44049E-19	 	4897.94877	25.80568	 
345.0	1.0	0.0	8.10289	7.14621	-9.53347	13.22987	16.03715	0.94435	1.05893	198.48849	185.00846	75.11733	0.32119	 	6.24057E18	 	4.83456E-19	 	4769.13351	25.76305	 
340.0	1.0	0.0	8.10466	7.14465	-9.55323	13.20579	15.96339	0.94104	1.06266	198.81918	185.16643	75.25074	0.32104	 	9.59327E18	 	3.11951E-19	 	4640.53139	25.72042	 
335.0	1.0	0.0	8.10642	7.1431	-9.57293	13.18171	15.88959	0.9377	1.06644	199.1492	185.32356	75.38393	0.3209	 	1.48518E19	 	1.99856E-19	 	4512.14239	25.6778	 
330.0	1.0	0.0	8.10818	7.14155	-9.59256	13.15765	15.81573	0.93433	1.07028	199.47855	185.47984	75.51689	0.32075	 	2.31601E19	 	1.27108E-19	 	4383.96652	25.63517	 
325.0	1.0	0.0	8.10994	7.14	-9.61212	13.13358	15.74182	0.93094	1.07418	199.80723	185.63528	75.64963	0.32061	 	3.63854E19	 	8.02361E-20	 	4256.00379	25.59255	 
320.0	1.0	0.0	8.11169	7.13846	-9.63162	13.10952	15.66785	0.92752	1.07815	200.13524	185.78988	75.78213	0.32046	 	5.75998E19	 	5.02609E-20	 	4128.25424	25.54991	 
315.0	1.0	0.0	8.11343	7.13692	-9.65106	13.08547	15.59383	0.92406	1.08218	200.46258	185.94364	75.91442	0.32032	 	9.18981E19	 	3.12369E-20	 	4000.71793	25.50726	 
310.0	1.0	0.0	8.11517	7.13539	-9.67043	13.06143	15.51975	0.92058	1.08627	200.78926	186.09657	76.04647	0.32017	 	1.47799E20	 	1.92573E-20	 	3873.39495	25.4646	 
305.0	1.0	0.0	8.11691	7.13387	-9.68973	13.03739	15.44561	0.91707	1.09043	201.11526	186.24866	76.1783	0.32003	 	2.3966599999999997E20	 	1.17739E-20	 	3746.28539	25.42191	 
300.0	1.0	0.0	8.11864	7.13235	-9.70898	13.01335	15.37141	0.91353	1.09466	201.44059	186.39992	76.30991	0.31988	 	3.9192499999999997E20	 	7.1376E-21	 	3619.38937	25.3792	 
295.0	1.0	0.0	8.12036	7.13083	-9.72815	12.98932	15.29715	0.90995	1.09896	201.76525	186.55035	76.44128	0.31974	 	6.464859999999999E20	 	4.28934E-21	 	3492.70704	25.33647	 
290.0	1.0	0.0	8.12208	7.12932	-9.74726	12.9653	15.22282	0.90635	1.10333	202.08925	186.69995	76.57243	0.3196	 	1.0759100000000001E21	 	2.55467E-21	 	3366.23856	25.2937	 
285.0	1.0	0.0	8.1238	7.12782	-9.76631	12.94129	15.14844	0.90271	1.10777	202.41257	186.84873	76.70335	0.31945	 	1.80699E21	 	1.50759E-21	 	3239.98414	25.25088	 
280.0	1.0	0.0	8.12551	7.12632	-9.78529	12.91727	15.07398	0.89904	1.11229	202.73523	186.99669	76.83405	0.31931	 	3.06342E21	 	8.813E-22	 	3113.94398	25.20803	 
275.0	1.0	0.0	8.12721	7.12483	-9.80421	12.89327	14.99946	0.89534	1.11689	203.05721	187.14382	76.96452	0.31916	 	5.24371E21	 	5.10208E-22	 	2988.11834	25.16513	 
270.0	1.0	0.0	8.12891	7.12334	-9.82306	12.86927	14.92487	0.89161	1.12157	203.37853	187.29013	77.09476	0.31902	 	9.065030000000001E21	 	2.9244E-22	 	2862.50749	25.12217	 
265.0	1.0	0.0	8.1306	7.12185	-9.84185	12.84528	14.85021	0.88784	1.12632	203.69917	187.43563	77.22478	0.31887	 	1.5831299999999998E22	 	1.6591E-22	 	2737.11173	25.07915	 
260.0	1.0	0.0	8.13229	7.12037	-9.86057	12.82129	14.77548	0.88404	1.13117	204.01915	187.58031	77.35456	0.31873	 	2.79388E22	 	9.31384E-23	 	2611.9314	25.03607	 
255.0	1.0	0.0	8.13398	7.1189	-9.87923	12.79731	14.70067	0.88021	1.13609	204.33846	187.72418	77.48412	0.31858	 	4.9838899999999995E22	 	5.17221E-23	 	2486.96687	24.99291	 
250.0	1.0	0.0	8.13565	7.11743	-9.89783	12.77333	14.62579	0.87634	1.14111	204.65709	187.86724	77.61346	0.31844	 	8.98946E22	 	2.8404E-23	 	2362.21854	24.94967	 
245.0	1.0	0.0	8.13733	7.11597	-9.91635	12.74936	14.55083	0.87244	1.14621	204.97506	188.00949	77.74256	0.31829	 	1.64E23	 	1.54205E-23	 	2237.68685	24.90634	 
240.0	1.0	0.0	8.139	7.11451	-9.93482	12.7254	14.47579	0.8685	1.15141	205.29236	188.15094	77.87144	0.31815	 	3.0271999999999997E23	 	8.27352E-24	 	2113.37226	24.86292	 
235.0	1.0	0.0	8.14066	7.11306	-9.95322	12.70144	14.40066	0.86452	1.15671	205.60899	188.29157	78.00009	0.318	 	5.6555799999999995E23	 	4.38532E-24	 	1989.2753	24.81939	 
230.0	1.0	0.0	8.14232	7.11161	-9.97156	12.67749	14.32545	0.86051	1.1621	205.92495	188.43141	78.12851	0.31786	 	1.06981E24	 	2.29549E-24	 	1865.39653	24.77575	 
225.0	1.0	0.0	8.14397	7.11016	-9.98983	12.65354	14.25016	0.85646	1.1676	206.24024	188.57044	78.25671	0.31772	 	2.04973E24	 	1.18618E-24	 	1741.73653	24.732	 
220.0	1.0	0.0	8.14562	7.10873	-10.00803	12.6296	14.17477	0.85237	1.1732	206.55486	188.70868	78.38468	0.31757	 	3.97934E24	 	6.0486E-25	 	1618.29596	24.68811	 
215.0	1.0	0.0	8.14726	7.10729	-10.02617	12.60566	14.0993	0.84825	1.1789	206.86881	188.84612	78.51242	0.31743	 	7.83119E24	 	3.04237E-25	 	1495.0755	24.64409	 
210.0	1.0	0.0	8.1489	7.10586	-10.04425	12.58173	14.02373	0.84408	1.18472	207.18209	188.98276	78.63993	0.31728	 	1.56289E25	 	1.50883E-25	 	1372.07591	24.59992	 
205.0	1.0	0.0	8.15053	7.10444	-10.06227	12.55781	13.94806	0.83988	1.19065	207.4947	189.11861	78.76721	0.31714	 	3.1645200000000004E25	 	7.37467E-26	 	1249.29797	24.55559	 
200.0	1.0	0.0	8.15216	7.10302	-10.08021	12.53389	13.8723	0.83563	1.19669	207.80665	189.25367	78.89427	0.31699	 	6.50372E25	 	3.55078E-26	 	1126.74253	24.51109	 
195.0	1.0	0.0	8.15378	7.10161	-10.0981	12.50998	13.79643	0.83135	1.20286	208.11792	189.38794	79.02109	0.31685	 	1.3573700000000001E26	 	1.68335E-26	 	1004.4105	24.46641	 
190.0	1.0	0.0	8.1554	7.1002	-10.11592	12.48608	13.72045	0.82703	1.20915	208.42853	189.52143	79.14769	0.31671	 	2.8782800000000002E26	 	7.85371E-27	 	882.30285	24.42153	 
185.0	1.0	0.0	8.15701	7.0988	-10.13368	12.46218	13.64437	0.82266	1.21557	208.73846	189.65413	79.27406	0.31656	 	6.204320000000001E26	 	3.60413E-27	 	760.42063	24.37645	 
180.0	1.0	0.0	8.15861	7.0974	-10.15137	12.43828	13.56818	0.81825	1.22212	209.04773	189.78605	79.40021	0.31642	 	1.3602399999999998E27	 	1.62597E-27	 	638.76492	24.33114	 
175.0	1.0	0.0	8.16021	7.09601	-10.16899	12.41439	13.49187	0.8138	1.2288	209.35633	189.91718	79.52612	0.31627	 	3.0349E27	 	7.20718E-28	 	517.33691	24.2856	 
170.0	1.0	0.0	8.16181	7.09462	-10.18656	12.39051	13.41544	0.8093	1.23563	209.66426	190.04754	79.65181	0.31613	 	6.89507E27	 	3.13689E-28	 	396.13785	24.23981	 
165.0	1.0	0.0	8.1634	7.09324	-10.20406	12.36663	13.33889	0.80477	1.2426	209.97152	190.17712	79.77726	0.31599	 	1.59612E28	 	1.33981E-28	 	275.16906	24.19376	 
160.0	1.0	0.0	8.16499	7.09186	-10.22149	12.34276	13.26222	0.80018	1.24972	210.27812	190.30593	79.90249	0.31584	 	3.76713E28	 	5.61196E-29	 	154.43199	24.14741	 
155.0	1.0	0.0	8.16657	7.09049	-10.23886	12.3189	13.18541	0.79555	1.25699	210.58404	190.43396	80.02749	0.3157	 	9.07119E28	 	2.30366E-29	 	33.92813	24.10077	 
150.0	1.0	0.0	8.16814	7.08913	-10.25617	12.29504	13.10847	0.79088	1.26442	210.8893	190.56122	80.15227	0.31555	 	2.23017E29	 	9.26069E-30	 	-86.34092	24.05381	 
145.0	1.0	0.0	8.16971	7.08776	-10.27341	12.27118	13.03139	0.78615	1.27202	211.19389	190.68772	80.27681	0.31541	 	5.6021400000000005E29	 	3.64305E-30	 	-206.37344	24.00651	 
140.0	1.0	0.0	8.17127	7.08641	-10.29059	12.24734	12.95417	0.78138	1.27978	211.49781	190.81345	80.40113	0.31527	 	1.43897E30	 	1.40133E-30	 	-326.16763	23.95884	 
135.0	1.0	0.0	8.17283	7.08505	-10.3077	12.2235	12.8768	0.77657	1.28772	211.80107	190.93841	80.52521	0.31512	 	3.78259E30	 	5.26644E-31	 	-445.72157	23.91079	 
130.0	1.0	0.0	8.17439	7.08371	-10.32475	12.19966	12.79928	0.7717	1.29584	212.10366	191.06261	80.64907	0.31498	 	1.01844E31	 	1.93204E-31	 	-565.03318	23.86232	 
125.0	1.0	0.0	8.17594	7.08237	-10.34174	12.17583	12.7216	0.76678	1.30415	212.40558	191.18605	80.7727	0.31484	 	2.81118E31	 	6.91266E-32	 	-684.10031	23.81343	 
120.0	1.0	0.0	8.17748	7.08103	-10.35866	12.152	12.64375	0.76181	1.31266	212.70683	191.30873	80.8961	0.31469	 	7.96262E31	 	2.40985E-32	 	-802.92064	23.76407	 
115.0	1.0	0.0	8.17902	7.0797	-10.37552	12.12819	12.56573	0.75679	1.32136	213.00742	191.43066	81.01927	0.31455	 	2.31671E32	 	8.17737E-33	 	-921.4917	23.71421	 
110.0	1.0	0.0	8.18055	7.07837	-10.39231	12.10437	12.48754	0.75172	1.33028	213.30734	191.55183	81.14222	0.3144	 	6.93098E32	 	2.69812E-33	 	-1039.81088	23.66384	 
105.0	1.0	0.0	8.18208	7.07705	-10.40904	12.08057	12.40916	0.7466	1.33941	213.60659	191.67225	81.26493	0.31426	 	2.13453E33	 	8.64667E-34	 	-1157.87541	23.61291	 
100.0	1.0	0.0	8.1836	7.07573	-10.42571	12.05677	12.3306	0.74142	1.34876	213.90518	191.79192	81.38742	0.31412	 	6.77487E33	 	2.68825E-34	 	-1275.68233	23.56138	 
95.0	1.0	0.0	8.18512	7.07442	-10.44231	12.03297	12.25184	0.73619	1.35835	214.20311	191.91084	81.50968	0.31397	 	2.21883E34	 	8.09816E-35	 	-1393.22849	23.50923	 
90.0	1.0	0.0	8.18663	7.07311	-10.45885	12.00918	12.17287	0.7309	1.36817	214.50036	192.02901	81.63171	0.31383	 	7.508210000000001E34	 	2.36068E-35	 	-1510.51054	23.45641	 
85.0	1.0	0.0	8.18814	7.07181	-10.47532	11.9854	12.09369	0.72556	1.37825	214.79696	192.14644	81.75351	0.31369	 	2.6286299999999997E35	 	6.65E-36	 	-1627.52493	23.40288	 
80.0	1.0	0.0	8.18964	7.07052	-10.49173	11.96162	12.01429	0.72016	1.38859	215.09289	192.26313	81.87509	0.31354	 	9.535269999999999E35	 	1.80764E-36	 	-1744.26785	23.34858	 
75.0	1.0	0.0	8.19113	7.06923	-10.50808	11.93785	11.93466	0.7147	1.39919	215.38815	192.37908	81.99643	0.3134	 	3.5893E36	 	4.73417E-37	 	-1860.73529	23.29349	 
70.0	1.0	0.0	8.19262	7.06794	-10.52436	11.91408	11.85479	0.70918	1.41008	215.68276	192.49429	82.11755	0.31326	 	1.4043099999999999E37	 	1.19264E-37	 	-1976.92291	23.23753	 
65.0	1.0	0.0	8.19411	7.06666	-10.54058	11.89032	11.77467	0.7036	1.42126	215.9767	192.60877	82.23844	0.31311	 	5.720519999999999E37	 	2.8851E-38	 	-2092.82614	23.18065	 
60.0	1.0	0.0	8.19559	7.06538	-10.55674	11.86657	11.6943	0.69796	1.43274	216.26997	192.72251	82.3591	0.31297	 	2.43063E38	 	6.68972E-39	 	-2208.4401	23.12279	 
55.0	1.0	0.0	8.19706	7.06411	-10.57283	11.84282	11.61365	0.69226	1.44454	216.56259	192.83553	82.47954	0.31283	 	1.0793100000000001E39	 	1.48393E-39	 	-2323.75954	23.06389	 
50.0	1.0	0.0	8.19853	7.06284	-10.58886	11.81908	11.53271	0.6865	1.45667	216.85455	192.94781	82.59975	0.31268	 	5.0189300000000004E39	 	3.14253E-40	 	-2438.77889	23.00387	 
45.0	1.0	0.0	8.2	7.06158	-10.60482	11.79534	11.45148	0.68067	1.46914	217.14584	193.05937	82.71972	0.31254	 	2.44937E40	 	6.33964E-41	 	-2553.49221	22.94266	 
40.0	1.0	0.0	8.20146	7.06033	-10.62072	11.77161	11.36994	0.67478	1.48197	217.43648	193.1702	82.83948	0.3124	 	1.2574200000000001E41	 	1.21551E-41	 	-2667.89309	22.88018	 
35.0	1.0	0.0	8.20291	7.05908	-10.63656	11.74788	11.28808	0.66882	1.49517	217.72645	193.28032	82.959	0.31225	 	6.80713E41	 	2.20945E-42	 	-2781.97473	22.81633	 
30.0	1.0	0.0	8.20436	7.05783	-10.65234	11.72416	11.20588	0.66279	1.50877	218.01577	193.38971	83.0783	0.31211	 	3.8962E42	 	3.79754E-43	 	-2895.72983	22.75102	 
25.0	1.0	0.0	8.2058	7.05659	-10.66805	 	11.12332	0.6567	1.52277	218.30443	193.49839	83.19737	0.31197	 	2.3644600000000003E43	 	6.15445E-44	 	-3009.15055	 	 
