T (C)	Fraction solid (wt)-TOTAL	Fraction liquid (wt)-LIQUID	Density (g/(cm)^3)-TOTAL	Molar volume (cm^3)-TOTAL	Volume change (%)-  	Average expansion coeff. (10e-6 1/K)-  	Thermal conductivity (W/(m*K))-TOTAL	Electrical resistivity (10e-6 Ohm*m)-TOTAL	Electrical conductivity (10e6 1/(Ohm*m))-TOTAL	Young's modulus (GPa)-TOTAL	Bulk modulus (GPa)-TOTAL	Shear modulus(GPa)-TOTAL	Poisson's ratio-TOTAL	Liquid viscosity (mPa s)-  	Total viscosity (mPa s)-  	Liquid diffusivity (10e-9 (m^2)/s)-  	Total diffusivity (10e-9 (m^2)/s)-  	Surface Tension (mN/m)-  	Enthalpy (J/mole)-TOTAL	Specific heat (J/(mole K))-TOTAL	Latent heat (J/mole)-TOTAL
1400.0	0.0	1.0	7.288	7.87751	0.0	31.12987	29.14783	1.40635	0.71106	0.0	123.72877	0.0	0.5	6.97155	6.97155	1.17136	1.17136	1763.4787	46395.49	 	0.0
1395.0	0.0	1.0	7.292	7.87319	-0.054807	31.09301	29.06709	1.40605	0.71121	0.0	123.87333	0.0	0.5	7.04667	7.04667	1.15541	1.15541	1766.2121	46191.672	40.7636	0.0
1390.0	0.0	1.0	7.29599	7.86889	-0.10946	31.05631	28.98635	1.40574	0.71137	0.0	124.01789	0.0	0.5	7.12306	7.12306	1.1396	1.1396	1768.97882	45988.324	40.6696	0.0
1385.0	0.0	1.0	7.29997	7.8646	-0.16395	31.01977	28.90562	1.40542	0.71153	0.0	124.16245	0.0	0.5	7.20075	7.20075	1.12391	1.12391	1771.7792	45785.444	40.576	0.0
1380.0	0.0	1.0	7.30394	7.86032	-0.21829	30.9834	28.82488	1.40511	0.71169	0.0	124.30701	0.0	0.5	7.27975	7.27975	1.10836	1.10836	1774.61358	45583.029	40.483	0.0
1375.0	0.0	1.0	7.30791	7.85605	-0.27247	30.9472	28.74414	1.4048	0.71185	0.0	124.45157	0.0	0.5	7.36012	7.36012	1.09295	1.09295	1777.48223	45381.076	40.3906	0.0
1370.0	0.0	1.0	7.31187	7.85179	-0.32649	30.91117	28.66341	1.40448	0.71201	0.0	124.59613	0.0	0.5	7.44186	7.44186	1.07766	1.07766	1780.38546	45179.583	40.2986	0.0
1365.0	0.0	1.0	7.31583	7.84755	-0.38036	30.87531	28.58267	1.40416	0.71217	0.0	124.7407	0.0	0.5	7.52503	7.52503	1.06251	1.06251	1783.32352	44978.547	40.2072	0.0
1360.0	0.0	1.0	7.31977	7.84332	-0.43406	30.83962	28.50194	1.40384	0.71233	0.0	124.88526	0.0	0.5	7.60964	7.60964	1.04749	1.04749	1786.29664	44777.967	40.116	0.0
1355.0	0.0	1.0	7.32371	7.8391	-0.48762	30.8041	28.4212	1.40352	0.7125	0.0	125.02982	0.0	0.5	7.69573	7.69573	1.0326	1.0326	1789.30506	44577.838	40.0258	0.0
1350.0	0.0	1.0	7.32764	7.83489	-0.54101	30.76877	28.34046	1.40319	0.71266	0.0	125.17438	0.0	0.5	7.78333	7.78333	1.01784	1.01784	1792.34896	44378.16	39.9356	0.0
1345.0	0.0	1.0	7.33157	7.8307	-0.59425	30.73361	28.25973	1.40287	0.71283	0.0	125.31894	0.0	0.5	7.87248	7.87248	1.00321	1.00321	1795.42853	44178.929	39.8462	0.0
1341.58	0.0	1.0	7.33425	7.82784	-0.63057	30.70967	28.20451	1.40264	0.71294	0.0	125.41781	0.0	0.5	7.93436	7.93436	0.99329	0.99329	1797.5553	44042.932	39.77021	0.0
1340.0	0.05257	0.94743	7.3494	7.81175	-0.83477	30.16249	28.35241	1.39396	0.71738	7.08187E-4	126.03234	2.37134E-4	0.49322	7.96226	8.74841	0.98884	0.89998	1796.85503	43225.485	517.23075	754.658
1335.0	0.20367	0.79633	7.39327	7.76535	-1.42388	28.58612	28.78501	1.36876	0.73059	0.16427	127.76524	0.0557413	0.47348	8.05271	62.39474	0.9747	0.1258	1794.72683	40873.02	470.493	2908.778
1330.0	0.32517	0.67483	7.42922	7.72779	-1.90067	27.32142	29.13525	1.3481	0.74179	1.09308	129.18608	0.37502	0.45736	8.14614	370.59278	0.96053	0.0211137	1792.73662	38957.307	383.1426	4626.59
1325.0	0.42374	0.57626	7.45896	7.69702	-2.29124	26.29645	29.42082	1.33085	0.7514	3.21607	130.37128	1.11353	0.44409	8.24254	1111.93702	0.94633	0.00701494	1790.88632	37377.7	315.9214	6008.731
1320.0	0.50438	0.49562	7.48379	7.67144	-2.61592	25.45492	29.65346	1.31628	0.75972	6.56881	131.37691	2.29186	0.43308	8.34202	2359.15187	0.93212	0.003296	1789.17695	36059.318	263.6764	7130.085
1315.0	0.57088	0.42912	7.50473	7.65005	-2.8875	24.76171	29.84197	1.30386	0.76695	10.94352	132.24695	3.84283	0.42389	8.44468	4108.88247	0.9179	0.00188649	1787.60614	34945.846	222.6944	8046.961
1310.0	0.62611	0.37389	7.52253	7.63193	-3.11752	24.18476	29.99281	1.29322	0.77327	16.04431	133.01167	5.66471	0.41616	8.55063	6320.09874	0.90367	0.0012226	1786.17208	33994.513	190.2666	8802.13
1305.0	0.67231	0.32769	7.53783	7.61645	-3.31404	23.70174	30.11183	1.28404	0.77879	21.58181	133.69547	7.65514	0.40963	8.65997	8941.61283	0.88944	8.61428E-4	1784.8715	33172.523	164.398	9428.383
1300.0	0.7112	0.2888	7.55109	7.60306	-3.48394	23.29349	30.20363	1.27608	0.78365	27.31226	134.31494	9.72616	0.40406	8.77282	11924.93657	0.87522	6.43874E-4	1783.7012	32454.515	143.6016	9951.082
1295.0	0.74414	0.25586	7.56269	7.5914	-3.632	22.94667	30.27232	1.26914	0.78794	33.04997	134.88407	11.80953	0.39929	8.88928	15231.46515	0.86101	5.02496E-4	1782.65692	31820.709	126.7612	10390.002
1290.0	0.77221	0.22779	7.57293	7.58115	-3.76213	22.65043	30.32148	1.26304	0.79174	38.66355	135.4135	13.85611	0.39518	9.00951	18834.02944	0.84681	4.05083E-4	1781.73414	31255.561	113.0296	10760.688
1285.0	0.79625	0.20375	7.58204	7.57204	-3.8778	22.39503	30.35378	1.25766	0.79513	44.06225	135.9103	15.83133	0.39162	9.1336	22714.34569	0.83263	3.34808E-4	1780.92931	30746.764	101.7594	11075.441
1280.0	0.81696	0.18304	7.59021	7.56388	-3.98142	22.17369	30.37187	1.25288	0.79816	49.19419	136.38106	17.71479	0.38851	9.26168	26866.17499	0.81848	2.82159E-4	1780.23784	30284.507	92.4514	11344.072
1275.0	0.83488	0.16512	7.59761	7.55652	-4.07478	21.98145	30.37777	1.2486	0.8009	54.03351	136.83072	19.49572	0.38578	9.39393	31292.46268	0.80436	2.41468E-4	1779.65465	29860.917	84.718	11574.45
1270.0	0.85047	0.14953	7.60436	7.54982	-4.15985	21.81273	30.37326	1.24475	0.80337	58.56939	137.26267	21.16904	0.38337	9.53041	36001.12008	0.79028	2.09208E-4	1779.17619	29469.638	78.2558	11772.93
1265.0	0.86408	0.13592	7.61055	7.54366	-4.23798	21.66368	30.35975	1.24127	0.80563	62.80282	137.67978	22.7342	0.38124	9.67134	41006.26084	0.77624	1.83078E-4	1778.79864	29105.507	72.8262	11944.674
1260.0	0.87602	0.12398	7.61628	7.53799	-4.30997	21.53212	30.33848	1.2381	0.80769	66.74297	138.08474	24.19376	0.37934	9.81687	46327.79903	0.76225	1.61521E-4	1778.517	28764.306	68.2402	12093.896
1255.0	0.88654	0.11346	7.62161	7.53272	-4.37687	21.41508	30.31057	1.2352	0.80958	70.40879	138.47947	25.5541	0.37764	9.96717	51993.18365	0.74831	1.43452E-4	1778.32762	28442.572	64.3468	12224.057
1250.0	0.89584	0.10416	7.6266	7.5278	-4.43943	21.31039	30.27684	1.23253	0.81134	73.81292	138.86522	26.81936	0.37611	10.12235	58028.16271	0.73443	1.28112E-4	1778.22699	28137.447	61.025	12338.014
1245.0	0.9041	0.095899	7.63131	7.52315	-4.49837	21.216	30.23812	1.23006	0.81297	76.97937	139.24337	27.99802	0.37473	10.28272	64469.71906	0.7206	1.14933E-4	1778.21175	27846.56	58.1774	12438.135
1242.12	0.90839	0.091609	7.63388	7.52061	-4.53066	21.16638	30.21352	1.22873	0.81385	78.68257	139.45781	28.6327	0.374	10.37717	68360.08315	0.71269	1.08187E-4	1778.23896	27685.391	 	12489.709
1240.0	0.91248	0.08752	7.63587	7.51865	-4.55552	21.12639	30.1991	1.22759	0.8146	80.30395	139.635	29.23726	0.37332	10.45403	71687.35953	0.70646	1.03021E-4	1778.47326	27552.572	58.7976	12541.756
1235.0	0.92139	0.07861	7.64038	7.51422	-4.6118	21.03874	30.16185	1.22505	0.8163	83.95156	140.04275	30.5989	0.37181	10.63901	79933.61771	0.69188	9.20877E-5	1779.06241	27249.986	60.5172	12654.373
1230.0	0.92911	0.070887	7.6446	7.51007	-4.66449	20.96156	30.11888	1.22273	0.81784	87.26236	140.43725	31.83665	0.37047	10.82916	88683.51425	0.67748	8.27268E-5	1779.69113	26963.92	57.2132	12750.867
1225.0	0.93584	0.064161	7.64859	7.50615	-4.7142	20.89311	30.07106	1.2206	0.81927	90.27309	140.82074	32.96375	0.36928	11.02458	97992.08957	0.66325	7.46193E-5	1780.35696	26691.689	54.4462	12833.918
1220.0	0.94173	0.058275	7.65237	7.50245	-4.76121	20.83255	30.01908	1.21863	0.82059	93.01731	141.19512	33.99234	0.36821	11.22537	107920.3713	0.64922	6.75284E-5	1781.05607	26431.121	52.1136	12905.699
1215.0	0.9469	0.053102	7.65598	7.4989	-4.80619	20.77792	29.96354	1.2168	0.82183	95.52677	141.56142	34.93405	0.36724	11.43174	118534.3598	0.63536	6.12758E-5	1781.7882	26180.443	50.1356	12967.978
1210.0	0.95146	0.048537	7.65945	7.49551	-4.84929	20.72877	29.90494	1.21509	0.82298	97.82766	141.92097	35.79841	0.36637	11.64373	129905.3403	0.6217	5.57243E-5	1782.54991	25938.203	48.448	13022.206
1205.0	0.95551	0.044493	7.66279	7.49224	-4.89074	20.68448	29.84366	1.21348	0.82408	99.94373	142.27456	36.59415	0.36557	11.86151	142111.0256	0.60823	5.07665E-5	1783.3387	25703.201	47.0004	13069.582
1202.88	0.95705	0.042948	7.66417	7.49089	-4.90788	20.66696	29.81682	1.21283	0.82452	100.77695	142.42276	36.90771	0.36526	11.95551	147536.4603	0.60258	4.88296E-5	1783.67935	25605.925	 	13087.45
1200.0	0.95911	0.040886	7.66623	7.48888	-4.93338	20.63601	29.77345	1.21223	0.82493	101.93301	142.64669	37.34281	0.36483	12.14084	155255.4722	0.59222	4.63113E-5	1784.48865	25466.351	47.37	13119.189
1195.0	0.96242	0.037585	7.6697	7.48549	-4.97643	20.58579	29.69858	1.21116	0.82566	103.83251	143.02845	38.05825	0.36413	12.47431	169481.3613	0.57443	4.228E-5	1785.90079	25228.656	47.539	13170.021
1190.0	0.96535	0.03465	7.67305	7.48222	-5.018	20.53994	29.62342	1.2101	0.82638	105.58717	143.40137	38.71975	0.36348	12.82316	184807.7641	0.5569	3.86416E-5	1787.31927	24997.009	46.3294	13215.184
1189.95	0.96538	0.034621	7.67309	7.48219	-5.0184	20.53959	29.62262	1.21008	0.82639	105.60429	143.40541	38.72621	0.36347	12.82696	184976.8503	0.55672	3.86049E-5	1787.33399	24994.573	 	13215.626
1189.95	0.96538	0.034621	7.67309	7.48219	-5.0184	20.53959	29.62262	1.21008	0.82639	105.60429	143.40541	38.72621	0.36347	12.82696	184976.8503	0.55672	3.86049E-5	1787.33399	24994.573	 	13215.626
1189.46	0.96853	0.031473	7.67456	7.48076	-5.03657	20.4894	29.61768	1.20989	0.82652	107.18839	143.57589	39.32207	0.36295	12.86178	188749.4674	0.55503	3.78208E-5	1787.32506	24905.472	 	13286.785
1186.14	1.0	-5.0341E-10	7.68793	7.46774	-5.20175	20.01296	29.60332	1.20772	0.828	123.75273	145.15482	45.56745	0.35791	 	225303.3359	 	3.16127E-5	 	24049.72	 	14018.799
1185.0	1.0	0.0	7.68849	7.46721	-5.20855	20.01059	29.58469	1.20754	0.82813	123.85288	145.22807	45.60578	0.35786	 	229169.9955	 	3.1055E-5	 	24009.93033	197.41573	 
1180.0	1.0	0.0	7.69093	7.46484	-5.23858	19.99941	29.50302	1.20673	0.82869	124.2905	145.54594	45.77335	0.35767	 	246990.9104	 	2.87155E-5	 	23835.79499	34.82707	 
1175.0	1.0	0.0	7.69336	7.46248	-5.26856	19.98831	29.42134	1.20592	0.82925	124.72729	145.86212	45.94066	0.35748	 	266335.3236	 	2.65382E-5	 	23661.91876	34.77525	 
1170.0	1.0	0.0	7.69579	7.46012	-5.29849	19.97729	29.33966	1.2051	0.82981	125.16326	146.17661	46.10771	0.35729	 	287344.8965	 	2.45129E-5	 	23488.30126	34.7235	 
1165.0	1.0	0.0	7.69822	7.45777	-5.32836	19.96634	29.25798	1.20428	0.83037	125.5984	146.48943	46.27449	0.3571	 	310175.4934	 	2.26299E-5	 	23314.94208	34.67184	 
1162.39	1.0	0.0	7.69948	7.45654	-5.34392	19.96067	29.21536	1.20385	0.83067	125.82507	146.65196	46.36139	0.357	 	322864.945	 	2.17011E-5	 	23224.6079	 	 
1160.0	1.0	0.0	7.70206	7.45405	-5.37555	19.89792	29.09027	1.20701	0.8285	126.3781	146.99253	46.57532	0.35671	 	337036.433	 	2.0754E-5	 	23054.42438	52.10354	 
1155.0	1.0	0.0	7.70736	7.44893	-5.44061	19.7694	28.83968	1.21325	0.82423	127.47432	147.64467	47.00026	0.3561	 	368879.5972	 	1.88963E-5	 	22704.15656	70.05356	 
1150.0	1.0	0.0	7.71255	7.44391	-5.50424	19.64453	28.60015	1.21913	0.82026	128.5239	148.25785	47.40768	0.35552	 	403991.9895	 	1.71935E-5	 	22361.05055	68.6212	 
1145.0	1.0	0.0	7.71763	7.43901	-5.56649	19.52317	28.37032	1.22468	0.81654	129.53723	148.8442	47.80141	0.35495	 	442733.9836	 	1.56339E-5	 	22024.76551	67.25701	 
1140.0	1.0	0.0	7.72261	7.43421	-5.62742	19.40516	28.14948	1.22994	0.81305	130.51845	149.4081	48.18295	0.3544	 	485508.0676	 	1.42062E-5	 	21694.98432	65.95624	 
1135.0	1.0	0.0	7.7275	7.42951	-5.6871	19.29034	27.93705	1.23491	0.80978	131.47017	149.95206	48.55328	0.35388	 	532764.077	 	1.29003E-5	 	21371.41135	64.71459	 
1130.0	1.0	0.0	7.7323	7.4249	-5.74558	19.17856	27.73254	1.2396	0.80671	132.3944	150.47792	48.91314	0.35336	 	585005.1169	 	1.17066E-5	 	21053.77049	63.52817	 
1125.0	1.0	0.0	7.737	7.42039	-5.80292	19.06968	27.53551	1.24402	0.80385	133.29285	150.98713	49.26317	0.35287	 	642794.1749	 	1.06162E-5	 	20741.80343	62.39341	 
1120.0	1.0	0.0	7.74162	7.41596	-5.85916	18.96357	27.34554	1.24818	0.80117	134.16703	151.48094	49.60393	0.35238	 	706761.6115	 	9.62081E-6	 	20435.26819	61.30705	 
1115.0	1.0	0.0	7.74617	7.41161	-5.91435	18.8601	27.16223	1.25209	0.79866	135.01829	151.96042	49.93594	0.35192	 	777613.7458	 	8.71283E-6	 	20133.93772	60.26609	 
1110.0	1.0	0.0	7.75063	7.40734	-5.96854	18.75916	26.98522	1.25577	0.79633	135.84788	152.42653	50.25965	0.35146	 	856142.3333	 	7.88515E-6	 	19837.59852	59.26784	 
1105.34	1.0	0.0	7.75473	7.40343	-6.01822	18.66718	26.82548	1.25899	0.79429	136.60319	152.85002	50.5545	0.35105	 	937094.7196	 	7.17969E-6	 	19565.49597	 	 
1105.0	1.0	0.0	7.75502	7.40315	-6.02175	18.66067	26.81416	1.25921	0.79415	136.65698	152.8802	50.5755	0.35102	 	943238.586	 	7.13118E-6	 	19546.02704	58.3143	 
1100.0	1.0	0.0	7.75932	7.39904	-6.0739	18.56499	26.64877	1.26243	0.79212	137.44716	153.3231	50.88408	0.35059	 	1039946.322	 	6.44457E-6	 	19258.74515	57.45638	 
1095.0	1.0	0.0	7.76356	7.395	-6.12518	18.47152	26.4887	1.26543	0.79024	138.2188	153.75492	51.18555	0.35017	 	1147344.332	 	5.82005E-6	 	18975.91335	56.56636	 
1090.0	1.0	0.0	7.76773	7.39103	-6.1756	18.38015	26.33367	1.26823	0.7885	138.97283	154.1763	51.48025	0.34977	 	1266692.897	 	5.25241E-6	 	18697.35852	55.71097	 
1085.0	1.0	0.0	7.77184	7.38712	-6.22521	18.29081	26.18341	1.27083	0.78689	139.71012	154.58787	51.76851	0.34937	 	1399409.533	 	4.73685E-6	 	18422.91645	54.88841	 
1080.0	1.0	0.0	7.77589	7.38327	-6.27404	18.20341	26.03765	1.27324	0.7854	140.4315	154.99018	52.05066	0.34899	 	1547089.895	 	4.26891E-6	 	18152.43108	54.09707	 
1075.0	1.0	0.0	7.77988	7.37949	-6.32211	18.11789	25.89616	1.27547	0.78403	141.13775	155.38375	52.32697	0.34861	 	1711531.26	 	3.8445E-6	 	17885.7538	53.33546	 
1070.0	1.0	0.0	7.78382	7.37576	-6.36946	18.03416	25.7587	1.27752	0.78277	141.82958	155.76908	52.59773	0.34825	 	1894759.405	 	3.45985E-6	 	17622.74289	52.60218	 
1065.0	1.0	0.0	7.7877	7.37208	-6.4161	17.95215	25.62506	1.2794	0.78162	142.5077	156.1466	52.86321	0.34789	 	2099059.605	 	3.11148E-6	 	17363.26295	51.89599	 
1060.0	1.0	0.0	7.79152	7.36846	-6.46207	17.87181	25.49503	1.28112	0.78057	143.17277	156.51675	53.12365	0.34754	 	2327011.438	 	2.79619E-6	 	17107.18442	51.2157	 
1055.0	1.0	0.0	7.7953	7.36489	-6.50739	17.79307	25.36841	1.28268	0.77961	143.8254	156.87991	53.37929	0.3472	 	2581528.904	 	2.51106E-6	 	16854.38322	50.56024	 
1050.0	1.0	0.0	7.79903	7.36137	-6.55209	17.71586	25.24502	1.2841	0.77875	144.46618	157.23646	53.63036	0.34687	 	2865906.52	 	2.25338E-6	 	16604.74028	49.92859	 
1045.0	1.0	0.0	7.80271	7.3579	-6.59617	17.64013	25.12469	1.28538	0.77798	145.09569	157.58674	53.87706	0.34654	 	3183871.692	 	2.02067E-6	 	16358.14131	49.31979	 
1040.0	1.0	0.0	7.80635	7.35447	-6.63967	17.56582	25.00725	1.28651	0.77729	145.71444	157.93108	54.11962	0.34623	 	3539644.8	 	1.81068E-6	 	16114.47654	48.73295	 
1035.0	1.0	0.0	7.80994	7.35109	-6.68261	17.49288	24.89255	1.28752	0.77669	146.32296	158.26977	54.35821	0.34591	 	3938008.326	 	1.62132E-6	 	15873.64036	48.16724	 
1030.0	1.0	0.0	7.81349	7.34775	-6.725	17.42124	24.78043	1.2884	0.77615	146.92172	158.60312	54.59304	0.34561	 	4384386.063	 	1.45068E-6	 	15635.53124	47.62182	 
1025.0	1.0	0.0	7.817	7.34445	-6.76687	17.35087	24.67077	1.28916	0.7757	147.51118	158.93138	54.82426	0.34531	 	4884934.055	 	1.29704E-6	 	15400.05145	47.09596	 
1020.0	1.0	0.0	7.82047	7.34119	-6.80823	17.28172	24.56341	1.28981	0.77531	148.09178	159.2548	55.05206	0.34502	 	5446644.986	 	1.15879E-6	 	15167.10693	46.5889	 
1015.0	1.0	0.0	7.8239	7.33797	-6.8491	17.21372	24.45825	1.29035	0.77498	148.66394	159.57363	55.27658	0.34473	 	6077469.166	 	1.0345E-6	 	14936.60717	46.09995	 
1010.0	1.0	0.0	7.82729	7.33479	-6.88949	17.14685	24.35517	1.29078	0.77473	149.22804	159.88809	55.49799	0.34445	 	6786452.617	 	9.22829E-7	 	14708.46505	45.62842	 
1005.0	1.0	0.0	7.83065	7.33165	-6.92943	17.08105	24.25405	1.29111	0.77453	149.78446	160.19839	55.71643	0.34417	 	7583897.155	 	8.22576E-7	 	14482.59669	45.17367	 
1000.0	1.0	0.0	7.83397	7.32853	-6.96892	17.01628	24.15478	1.29135	0.77439	150.33357	160.50472	55.93204	0.34389	 	8481544.905	 	7.32641E-7	 	14258.92142	44.73505	 
995.0	1.0	0.0	7.83727	7.32546	-7.00799	16.95251	24.05728	1.29149	0.7743	150.87569	160.80727	56.14494	0.34363	 	9492791.716	 	6.52024E-7	 	14037.36161	44.31196	 
990.0	1.0	0.0	7.84052	7.32241	-7.04664	16.88968	23.96144	1.29154	0.77427	151.41115	161.10622	56.35526	0.34336	 	1.063293337E7	 	5.79814E-7	 	13817.84261	43.9038	 
985.0	1.0	0.0	7.84375	7.3194	-7.0849	16.82776	23.86718	1.29151	0.77429	151.94026	161.40173	56.56313	0.3431	 	1.191944985E7	 	5.15185E-7	 	13600.29264	43.50999	 
980.0	1.0	0.0	7.84695	7.31642	-7.12277	16.76671	23.77441	1.2914	0.77436	152.4633	161.69396	56.76864	0.34285	 	1.337233724E7	 	4.57386E-7	 	13384.64271	43.12999	 
975.0	1.0	0.0	7.85012	7.31346	-7.16026	16.7065	23.68306	1.2912	0.77447	152.98055	161.98304	56.97192	0.3426	 	1.501448988E7	 	4.05735E-7	 	13170.82654	42.76323	 
970.0	1.0	0.0	7.85326	7.31054	-7.1974	16.64709	23.59305	1.29094	0.77463	153.49228	162.26912	57.17306	0.34235	 	1.687214547E7	 	3.59617E-7	 	12958.78048	42.40921	 
965.0	1.0	0.0	7.85637	7.30764	-7.23418	16.58845	23.50431	1.2906	0.77483	153.99871	162.55232	57.37215	0.3421	 	1.897540044E7	 	3.1847E-7	 	12748.44337	42.06742	 
960.0	1.0	0.0	7.85946	7.30477	-7.27063	16.53054	23.41678	1.29019	0.77508	154.5001	162.83276	57.56929	0.34186	 	2.135881208E7	 	2.8179E-7	 	12539.75657	41.73736	 
955.0	1.0	0.0	7.86253	7.30192	-7.30674	16.47334	23.33039	1.28972	0.77536	154.99666	163.11056	57.76456	0.34162	 	2.406209652E7	 	2.49118E-7	 	12332.66378	41.41856	 
950.0	1.0	0.0	7.86556	7.2991	-7.34254	16.41681	23.2451	1.28918	0.77569	155.48861	163.38582	57.95805	0.34139	 	2.713094704E7	 	2.2004E-7	 	12127.11097	41.11056	 
945.0	1.0	0.0	7.86858	7.29631	-7.37804	16.36092	23.16083	1.28858	0.77605	155.97613	163.65864	58.14984	0.34116	 	3.061798005E7	 	1.94183E-7	 	11923.04636	40.81292	 
940.0	1.0	0.0	7.87157	7.29353	-7.41323	16.30565	23.07754	1.28793	0.77644	156.45942	163.92912	58.33999	0.34093	 	3.458385088E7	 	1.71209E-7	 	11720.4203	40.52521	 
935.0	1.0	0.0	7.87454	7.29078	-7.44814	16.25097	22.99519	1.28721	0.77687	156.93866	164.19733	58.52858	0.3407	 	3.90985496E7	 	1.50816E-7	 	11519.18519	40.24702	 
930.0	1.0	0.0	7.87748	7.28806	-7.48276	16.19685	22.91372	1.28644	0.77734	157.41401	164.46337	58.71566	0.34048	 	4.424291928E7	 	1.32728E-7	 	11319.29541	39.97796	 
925.0	1.0	0.0	7.88041	7.28535	-7.51711	16.14326	22.83309	1.28562	0.77783	157.88564	164.72731	58.90132	0.34026	 	5.011044232E7	 	1.167E-7	 	11120.70723	39.71763	 
920.0	1.0	0.0	7.88332	7.28267	-7.5512	16.09019	22.75327	1.28475	0.77836	158.35369	164.98923	59.0856	0.34004	 	5.680932575E7	 	1.02509E-7	 	10923.37878	39.46569	 
915.0	1.0	0.0	7.8862	7.28	-7.58503	16.03761	22.6742	1.28382	0.77892	158.81831	165.24918	59.26855	0.33982	 	6.446495383E7	 	8.99569E-8	 	10727.26991	39.22177	 
910.0	1.0	0.0	7.88907	7.27735	-7.61861	15.98549	22.59587	1.28285	0.77951	159.27963	165.50725	59.45024	0.3396	 	7.32227762E7	 	7.88643E-8	 	10532.34219	38.98554	 
905.0	1.0	0.0	7.89192	7.27473	-7.65195	15.93382	22.51822	1.28184	0.78013	159.73778	165.76347	59.63071	0.33939	 	8.325169866E7	 	6.90708E-8	 	10338.55878	38.75668	 
900.0	1.0	0.0	7.89475	7.27212	-7.68505	15.88257	22.44124	1.28077	0.78078	160.19289	166.01793	59.81001	0.33918	 	9.474809148E7	 	6.04324E-8	 	10145.88439	38.53488	 
895.0	1.0	0.0	7.89756	7.26953	-7.71793	15.83172	22.36489	1.27967	0.78145	160.64505	166.27066	59.98819	0.33897	 	1.079405018E8	 	5.28203E-8	 	9954.28525	38.31983	 
890.0	1.0	0.0	7.90035	7.26696	-7.75058	15.78126	22.28914	1.27852	0.78215	161.0944	166.52172	60.16528	0.33877	 	1.230952314E8	 	4.61191E-8	 	9763.72894	38.11126	 
885.0	1.0	0.0	7.90313	7.2644	-7.78301	15.73117	22.21396	1.27734	0.78288	161.54101	166.77115	60.34133	0.33856	 	1.405229374E8	 	4.02258E-8	 	9574.18446	37.9089	 
880.0	1.0	0.0	7.90589	7.26187	-7.81523	15.68142	22.13933	1.27611	0.78363	161.985	167.019	60.51638	0.33836	 	1.605864347E8	 	3.5048E-8	 	9385.62171	37.71255	 
875.0	1.0	0.0	7.90864	7.25934	-7.84724	15.632	22.06522	1.27484	0.78441	162.42646	167.26532	60.69046	0.33815	 	1.837099628E8	 	3.05037E-8	 	9198.01201	37.52194	 
870.0	1.0	0.0	7.91137	7.25684	-7.87905	15.58289	21.99162	1.27354	0.78521	162.86546	167.51013	60.8636	0.33795	 	2.103901587E8	 	2.65194E-8	 	9011.32883	37.33663	 
865.0	1.0	0.0	7.91409	7.25435	-7.91067	15.53409	21.9185	1.2722	0.78604	163.3021	167.75349	61.03584	0.33776	 	2.412091467E8	 	2.30299E-8	 	8825.54605	37.15656	 
860.0	1.0	0.0	7.91679	7.25187	-7.94209	15.48556	21.84583	1.27082	0.78689	163.73645	167.99542	61.20721	0.33756	 	2.768500502E8	 	1.9977E-8	 	8640.63862	36.98149	 
855.0	1.0	0.0	7.91948	7.24941	-7.97332	15.4373	21.77361	1.26941	0.78777	164.16859	168.23596	61.37773	0.33736	 	3.181155495E8	 	1.73089E-8	 	8456.5825	36.81122	 
850.0	1.0	0.0	7.92215	7.24697	-8.00437	15.38929	21.70181	1.26797	0.78866	164.59858	168.47514	61.54744	0.33717	 	3.659499719E8	 	1.49797E-8	 	8273.35468	36.64557	 
845.0	1.0	0.0	7.92435	7.24495	-8.02994	15.36585	21.63648	1.26613	0.78981	164.9646	168.69759	61.69109	0.33702	 	4.16880352E8	 	1.30911E-8	 	8118.80939	30.90906	 
840.0	1.0	0.0	7.92655	7.24294	-8.05545	15.34239	21.57115	1.26429	0.79096	165.32999	168.91903	61.83452	0.33687	 	4.754550999E8	 	1.1427E-8	 	7961.33699	31.49448	 
835.0	1.0	0.0	7.92874	7.24094	-8.0809	15.31894	21.5058	1.26243	0.79212	165.69474	169.13945	61.97775	0.33673	 	5.429037598E8	 	9.96236E-9	 	7804.09316	31.44877	 
830.0	1.0	0.0	7.93093	7.23894	-8.10628	15.29547	21.44045	1.26057	0.79329	166.05886	169.35886	62.12077	0.33658	 	6.206667076E8	 	8.67487E-9	 	7647.07731	31.40317	 
825.0	1.0	0.0	7.93312	7.23694	-8.13161	15.272	21.37508	1.25869	0.79447	166.42233	169.57727	62.26358	0.33643	 	7.104335254E8	 	7.5444E-9	 	7490.2888	31.3577	 
820.0	1.0	0.0	7.9353	7.23495	-8.15687	15.24852	21.30971	1.25681	0.79567	166.78518	169.79466	62.40618	0.33629	 	8.141887641E8	 	6.55302E-9	 	7333.72698	31.31236	 
815.0	1.0	0.0	7.93748	7.23297	-8.18207	15.22503	21.24432	1.25491	0.79687	167.14738	170.01105	62.54857	0.33614	 	9.342665928E8	 	5.68466E-9	 	7177.39121	31.26715	 
810.0	1.0	0.0	7.93965	7.23099	-8.20721	15.20153	21.17893	1.253	0.79809	167.50895	170.22645	62.69076	0.33599	 	1.073416155E9	 	4.92501E-9	 	7021.28081	31.22208	 
805.0	1.0	0.0	7.94182	7.22901	-8.2323	15.17803	21.11353	1.25108	0.79931	167.86989	170.44084	62.83274	0.33585	 	1.23487984E9	 	4.26129E-9	 	6865.39509	31.17715	 
800.0	1.0	0.0	7.94399	7.22704	-8.25732	15.15452	21.04811	1.24915	0.80055	168.23019	170.65424	62.97451	0.3357	 	1.42248717E9	 	3.68213E-9	 	6709.73333	31.13235	 
795.0	1.0	0.0	7.94615	7.22507	-8.28228	15.131	20.98268	1.2472	0.80179	168.58985	170.86665	63.11607	0.33555	 	1.640767565E9	 	3.1774E-9	 	6554.29482	31.0877	 
790.0	1.0	0.0	7.94831	7.22311	-8.30717	15.10748	20.91725	1.24525	0.80305	168.94888	171.07808	63.25742	0.33541	 	1.895086017E9	 	2.73812E-9	 	6399.0788	31.04321	 
785.0	1.0	0.0	7.95046	7.22116	-8.33201	15.08394	20.8518	1.24328	0.80432	169.30727	171.28851	63.39856	0.33526	 	2.191806543E9	 	2.35631E-9	 	6244.08447	30.99886	 
780.0	1.0	0.0	7.95261	7.21921	-8.35679	15.0604	20.78634	1.2413	0.8056	169.66503	171.49797	63.5395	0.33511	 	2.538489445E9	 	2.02489E-9	 	6089.31105	30.95468	 
775.0	1.0	0.0	7.95476	7.21726	-8.3815	15.03685	20.72087	1.23931	0.8069	170.02215	171.70644	63.68023	0.33497	 	2.944129711E9	 	1.73761E-9	 	5934.75772	30.91067	 
770.0	1.0	0.0	7.9569	7.21532	-8.40616	15.0133	20.65539	1.23731	0.8082	170.37864	171.91394	63.82075	0.33482	 	3.419445627E9	 	1.48894E-9	 	5780.4236	30.86682	 
765.0	1.0	0.0	7.95904	7.21338	-8.43075	14.98974	20.5899	1.2353	0.80952	170.7345	172.12046	63.96106	0.33468	 	3.977228717E9	 	1.27399E-9	 	5626.30782	30.82316	 
760.0	1.0	0.0	7.96117	7.21145	-8.45528	14.96617	20.5244	1.23327	0.81085	171.08971	172.32601	64.10116	0.33453	 	4.632768754E9	 	1.08845E-9	 	5472.40946	30.77967	 
755.0	1.0	0.0	7.9633	7.20952	-8.47975	14.94259	20.45888	1.23123	0.81219	171.4443	172.53059	64.24105	0.33438	 	5.404370791E9	 	9.28535E-10	 	5318.72756	30.73638	 
750.0	1.0	0.0	7.96542	7.2076	-8.50416	14.919	20.39335	1.22918	0.81355	171.79825	172.73421	64.38074	0.33424	 	6.313985214E9	 	7.90902E-10	 	5165.26114	30.69328	 
745.0	1.0	0.0	7.96754	7.20568	-8.52851	14.89541	20.32781	1.22712	0.81492	172.15156	172.93686	64.52021	0.33409	 	7.387976817E9	 	6.72625E-10	 	5012.00917	30.65039	 
740.0	1.0	0.0	7.96966	7.20376	-8.5528	14.87181	20.26226	1.22504	0.8163	172.50424	173.13855	64.65948	0.33394	 	8.658065206E9	 	5.71136E-10	 	4858.97057	30.60772	 
735.0	1.0	0.0	7.97177	7.20186	-8.57702	14.8482	20.1967	1.22296	0.81769	172.85629	173.33929	64.79854	0.3338	 	1.01625E10	 	4.84186E-10	 	4706.14425	30.56526	 
730.0	1.0	0.0	7.97388	7.19995	-8.60119	14.82459	20.13112	1.22085	0.8191	173.2077	173.53907	64.93739	0.33365	 	1.1947399999999998E10	 	4.09808E-10	 	4553.52903	30.52304	 
725.0	1.0	0.0	7.97598	7.19805	-8.62529	14.80096	20.06553	1.21874	0.82052	173.55848	173.7379	65.07603	0.33351	 	1.4068499999999998E10	 	3.46285E-10	 	4401.12371	30.48106	 
720.0	1.0	0.0	7.97808	7.19616	-8.64933	14.77733	19.99993	1.21661	0.82195	173.90862	173.93578	65.21446	0.33336	 	1.6593499999999998E10	 	2.92121E-10	 	4248.92702	30.43934	 
715.0	1.0	0.0	7.98018	7.19427	-8.67331	14.7537	19.93431	1.21447	0.8234	174.25813	174.13271	65.35268	0.33321	 	1.96045E10	 	2.46011E-10	 	4096.93764	30.39787	 
710.0	1.0	0.0	7.98227	7.19239	-8.69723	14.73005	19.86868	1.21232	0.82487	174.60701	174.3287	65.4907	0.33307	 	2.32011E10	 	2.06822E-10	 	3945.15419	30.35669	 
705.0	1.0	0.0	7.98435	7.19051	-8.72108	14.7064	19.80304	1.21015	0.82634	174.95525	174.52374	65.6285	0.33292	 	2.7504899999999996E10	 	1.73573E-10	 	3793.57523	30.31579	 
700.0	1.0	0.0	7.98643	7.18863	-8.74488	14.68274	19.73738	1.20797	0.82783	175.30286	174.71785	65.7661	0.33278	 	3.2664099999999996E10	 	1.45411E-10	 	3642.19923	30.2752	 
695.0	1.0	0.0	7.98851	7.18676	-8.76861	14.65907	19.6717	1.20578	0.82934	175.64984	174.91103	65.90349	0.33263	 	3.88599E10	 	1.21598E-10	 	3491.0246	30.23493	 
690.0	1.0	0.0	7.99059	7.1849	-8.79228	14.6354	19.60602	1.20357	0.83086	175.99618	175.10326	66.04066	0.33248	 	4.63144E10	 	1.015E-10	 	3340.04967	30.19499	 
685.0	1.0	0.0	7.99265	7.18304	-8.8159	14.61172	19.54032	1.20135	0.8324	176.34189	175.29457	66.17763	0.33234	 	5.530019999999999E10	 	8.45656E-11	 	3189.27268	30.1554	 
680.0	1.0	0.0	7.99472	7.18118	-8.83944	14.58803	19.4746	1.19911	0.83395	176.68696	175.48495	66.31439	0.33219	 	6.615219999999999E10	 	7.0324E-11	 	3038.69178	30.11618	 
675.0	1.0	0.0	7.99678	7.17933	-8.86293	14.56433	19.40887	1.19686	0.83552	177.03141	175.67441	66.45094	0.33205	 	7.92836E10	 	5.83688E-11	 	2888.30502	30.07735	 
670.0	1.0	0.0	7.99884	7.17749	-8.88636	14.54062	19.34312	1.19459	0.8371	177.37521	175.86294	66.58728	0.3319	 	9.520419999999998E10	 	4.83517E-11	 	2738.11036	30.03893	 
665.0	1.0	0.0	8.00089	7.17565	-8.90972	14.51691	19.27736	1.19231	0.83871	177.71839	176.05055	66.72341	0.33175	 	1.14545E11	 	3.99745E-11	 	2588.10562	30.00095	 
660.0	1.0	0.0	8.00293	7.17381	-8.93302	14.49319	19.21158	1.19002	0.84032	178.06093	176.23725	66.85933	0.33161	 	1.38088E11	 	3.29824E-11	 	2438.29408	29.96231	 
655.0	1.0	0.0	8.00498	7.17198	-8.95626	14.46947	19.14579	1.18771	0.84196	178.40284	176.42302	66.99504	0.33146	 	1.66806E11	 	2.71577E-11	 	2288.7065	29.91752	 
650.0	1.0	0.0	8.00702	7.17016	-8.97944	14.44573	19.07998	1.18539	0.84361	178.74412	176.60789	67.13055	0.33132	 	2.01909E11	 	2.23154E-11	 	2139.38373	29.86455	 
645.0	1.0	0.0	8.00905	7.16833	-9.00256	14.42199	19.01416	1.18305	0.84527	179.08476	176.79185	67.26584	0.33117	 	2.44908E11	 	1.82978E-11	 	1990.32495	29.81175	 
640.0	1.0	0.0	8.01108	7.16652	-9.02561	14.39824	18.94831	1.18069	0.84696	179.42477	176.97489	67.40092	0.33103	 	2.97693E11	 	1.49713E-11	 	1841.52932	29.75913	 
635.0	1.0	0.0	8.0131	7.16471	-9.0486	14.37448	18.88245	1.17833	0.84866	179.76415	177.15704	67.53579	0.33088	 	3.62633E11	 	1.2223E-11	 	1692.99602	29.70666	 
630.0	1.0	0.0	8.01513	7.1629	-9.07153	14.35072	18.81658	1.17594	0.85038	180.1029	177.33828	67.67046	0.33074	 	4.42706E11	 	9.95707E-12	 	1544.72422	29.65436	 
625.0	1.0	0.0	8.01714	7.1611	-9.0944	14.32695	18.75068	1.17354	0.85212	180.44225	177.51983	67.80537	0.33059	 	5.41661E11	 	8.09297E-12	 	1396.7126	29.60232	 
620.0	1.0	0.0	8.01915	7.1593	-9.11721	14.30317	18.68477	1.17112	0.85388	180.77971	177.69926	67.93961	0.33044	 	6.64234E11	 	6.56281E-12	 	1248.95908	29.5507	 
615.0	1.0	0.0	8.02116	7.15751	-9.13995	14.27938	18.61884	1.16869	0.85566	181.11655	177.87779	68.07364	0.3303	 	8.16417E11	 	5.30959E-12	 	1101.46351	29.49912	 
610.0	1.0	0.0	8.02316	7.15572	-9.16263	14.25559	18.55289	1.16624	0.85745	181.45275	178.05543	68.20746	0.33015	 	1.00581E12	 	4.28552E-12	 	954.22508	29.44769	 
605.0	1.0	0.0	8.02516	7.15394	-9.18525	14.23178	18.48692	1.16378	0.85927	181.78832	178.23219	68.34107	0.33001	 	1.2421E12	 	3.45065E-12	 	807.24299	29.39642	 
600.0	1.0	0.0	8.02716	7.15217	-9.20781	14.20797	18.42094	1.1613	0.86111	182.12326	178.40805	68.47446	0.32986	 	1.53759E12	 	2.77162E-12	 	660.51645	29.34531	 
595.0	1.0	0.0	8.02915	7.15039	-9.23031	14.18416	18.35493	1.1588	0.86296	182.45757	178.58303	68.60765	0.32972	 	1.90808E12	 	2.22068E-12	 	514.04466	29.29436	 
590.0	1.0	0.0	8.03113	7.14863	-9.25274	14.16033	18.28891	1.15628	0.86484	182.79124	178.75712	68.74063	0.32957	 	2.37376E12	 	1.77475E-12	 	367.82685	29.24356	 
585.0	1.0	0.0	8.03311	7.14686	-9.27511	14.1365	18.22286	1.15375	0.86674	183.12428	178.93034	68.8734	0.32943	 	2.96062E12	 	1.41471E-12	 	221.86223	29.19292	 
580.0	1.0	0.0	8.03509	7.14511	-9.29742	14.11266	18.15679	1.1512	0.86866	183.45669	179.10267	69.00595	0.32928	 	3.70214E12	 	1.12476E-12	 	76.15	29.14245	 
575.0	1.0	0.0	8.03706	7.14335	-9.31967	14.08882	18.09071	1.14864	0.8706	183.78847	179.27413	69.1383	0.32914	 	4.6416E12	 	8.9185E-13	 	-69.3106	29.09212	 
570.0	1.0	0.0	8.03902	7.14161	-9.34185	14.06496	18.0246	1.14605	0.87256	184.11962	179.44472	69.27044	0.32899	 	5.83509E12	 	7.05252E-13	 	-214.52038	29.04195	 
565.0	1.0	0.0	8.04099	7.13986	-9.36398	14.0411	17.95847	1.14345	0.87454	184.45013	179.61444	69.40236	0.32885	 	7.35551E12	 	5.56155E-13	 	-359.48008	28.99194	 
560.0	1.0	0.0	8.04294	7.13813	-9.38604	14.01723	17.89232	1.14083	0.87655	184.78002	179.78329	69.53408	0.3287	 	9.29791E12	 	4.37345E-13	 	-504.1905	28.94208	 
555.0	1.0	0.0	8.0449	7.13639	-9.40803	13.99336	17.82615	1.1382	0.87858	185.10927	179.95127	69.66558	0.32856	 	1.17865E13	 	3.42933E-13	 	-648.65241	28.89238	 
550.0	1.0	0.0	8.04685	7.13467	-9.42997	13.96947	17.75996	1.13554	0.88064	185.43789	180.11839	69.79687	0.32841	 	1.49844E13	 	2.68118E-13	 	-792.86656	28.84283	 
545.0	1.0	0.0	8.04879	7.13294	-9.45184	13.94558	17.69374	1.13287	0.88272	185.76587	180.28464	69.92796	0.32827	 	1.91058E13	 	2.09003E-13	 	-936.83373	28.79343	 
540.0	1.0	0.0	8.05073	7.13122	-9.47365	13.92168	17.6275	1.13018	0.88482	186.09323	180.45004	70.05883	0.32812	 	2.44338E13	 	1.6243E-13	 	-1080.55468	28.74419	 
535.0	1.0	0.0	8.05266	7.12951	-9.4954	13.89778	17.56124	1.12746	0.88695	186.41995	180.61458	70.18949	0.32798	 	3.13428E13	 	1.25846E-13	 	-1224.03015	28.69509	 
530.0	1.0	0.0	8.05459	7.1278	-9.51708	13.87386	17.49495	1.12473	0.8891	186.74605	180.77827	70.31994	0.32783	 	4.03302E13	 	9.7197E-14	 	-1367.26091	28.64615	 
525.0	1.0	0.0	8.05652	7.1261	-9.53871	13.84994	17.42864	1.12199	0.89128	187.07151	180.9411	70.45018	0.32769	 	5.2059E13	 	7.483E-14	 	-1510.24772	28.59736	 
520.0	1.0	0.0	8.05844	7.1244	-9.56027	13.82601	17.3623	1.11922	0.89348	187.39634	181.10309	70.58021	0.32754	 	6.74153E13	 	5.74227E-14	 	-1652.99132	28.54872	 
515.0	1.0	0.0	8.06035	7.12271	-9.58176	13.80208	17.29594	1.11643	0.89571	187.72054	181.26422	70.71002	0.3274	 	8.75881E13	 	4.39188E-14	 	-1795.49245	28.50023	 
510.0	1.0	0.0	8.06227	7.12102	-9.6032	13.77813	17.22955	1.11362	0.89797	188.04411	181.42452	70.83963	0.32725	 	1.14178E14	 	3.34771E-14	 	-1937.75185	28.45188	 
505.0	1.0	0.0	8.06417	7.11934	-9.62457	13.75418	17.16314	1.11079	0.90026	188.36705	181.58396	70.96902	0.32711	 	1.49349E14	 	2.54301E-14	 	-2079.77026	28.40368	 
500.0	1.0	0.0	8.06607	7.11766	-9.64588	13.73022	17.0967	1.10794	0.90257	188.68935	181.74257	71.09821	0.32696	 	1.96033E14	 	1.92496E-14	 	-2221.54841	28.35563	 
495.0	1.0	0.0	8.06797	7.11598	-9.66713	13.70626	17.03023	1.10507	0.90492	189.01103	181.90034	71.22718	0.32682	 	2.5822199999999997E14	 	1.45191E-14	 	-2363.08703	28.30772	 
490.0	1.0	0.0	8.06986	7.11431	-9.68831	13.68228	16.96374	1.10218	0.90729	189.33207	182.05727	71.35594	0.32667	 	3.41371E14	 	1.09111E-14	 	-2504.38686	28.25997	 
485.0	1.0	0.0	8.07175	7.11265	-9.70943	13.6583	16.89722	1.09927	0.90969	189.65249	182.21337	71.48449	0.32653	 	4.52958E14	 	8.16928E-15	 	-2645.44859	28.21235	 
480.0	1.0	0.0	8.07363	7.11099	-9.73049	13.63432	16.83067	1.09634	0.91212	189.97227	182.36864	71.61283	0.32638	 	6.03282E14	 	6.09323E-15	 	-2786.27295	28.16487	 
475.0	1.0	0.0	8.07551	7.10934	-9.75148	13.61032	16.76409	1.09339	0.91459	190.29142	182.52308	71.74095	0.32624	 	8.06578E14	 	4.52719E-15	 	-2926.86067	28.11754	 
470.0	1.0	0.0	8.07739	7.10769	-9.77241	13.58632	16.69748	1.09041	0.91708	190.60994	182.67669	71.86887	0.3261	 	1.0826E15	 	3.35037E-15	 	-3067.21241	28.07035	 
465.0	1.0	0.0	8.07925	7.10604	-9.79328	13.56231	16.63084	1.08742	0.91961	190.92783	182.82947	71.99657	0.32595	 	1.4589E15	 	2.46948E-15	 	-3207.32891	28.0233	 
460.0	1.0	0.0	8.08112	7.10441	-9.81409	13.53829	16.56417	1.0844	0.92217	191.24509	182.98143	72.12406	0.32581	 	1.974E15	 	1.81273E-15	 	-3347.21086	27.97639	 
455.0	1.0	0.0	8.08298	7.10277	-9.83483	13.51426	16.49747	1.08136	0.92476	191.56172	183.13257	72.25134	0.32566	 	2.68209E15	 	1.32506E-15	 	-3486.85893	27.92962	 
450.0	1.0	0.0	8.08483	7.10114	-9.85551	13.49023	16.43074	1.07829	0.92739	191.87772	183.28289	72.37841	0.32552	 	3.65965E15	 	9.64442E-16	 	-3626.27384	27.88298	 
445.0	1.0	0.0	8.08668	7.09952	-9.87613	13.46619	16.36397	1.07521	0.93005	192.19308	183.4324	72.50526	0.32537	 	5.01516E15	 	6.98903E-16	 	-3765.45623	27.83648	 
440.0	1.0	0.0	8.08853	7.0979	-9.89668	13.44214	16.29717	1.0721	0.93275	192.50782	183.58109	72.6319	0.32523	 	6.90319E15	 	5.04217E-16	 	-3904.40679	27.79011	 
435.0	1.0	0.0	8.09037	7.09629	-9.91717	13.41808	16.23034	1.06897	0.93548	192.82193	183.72897	72.75833	0.32508	 	9.54496E15	 	3.62108E-16	 	-4043.1262	27.74388	 
430.0	1.0	0.0	8.0922	7.09468	-9.9376	13.39402	16.16347	1.06581	0.93825	193.1354	183.87603	72.88455	0.32494	 	1.32587E16	 	2.58842E-16	 	-4181.61511	27.69778	 
425.0	1.0	0.0	8.09403	7.09307	-9.95797	13.36995	16.09657	1.06263	0.94106	193.44825	184.02229	73.01056	0.3248	 	1.85042E16	 	1.84147E-16	 	-4319.87409	27.65179	 
420.0	1.0	0.0	8.09586	7.09147	-9.97827	13.34587	16.02963	1.05942	0.94391	193.76046	184.16775	73.13635	0.32465	 	2.59495E16	 	1.30372E-16	 	-4457.90392	27.60597	 
415.0	1.0	0.0	8.09768	7.08988	-9.99851	13.32179	15.96266	1.05619	0.9468	194.07205	184.3124	73.26194	0.32451	 	3.65697E16	 	9.18436E-17	 	-4595.7049	27.5602	 
410.0	1.0	0.0	8.09949	7.08829	-10.01868	13.29769	15.89565	1.05294	0.94972	194.383	184.45625	73.38731	0.32436	 	5.17958E16	 	6.43736E-17	 	-4733.27723	27.51447	 
405.0	1.0	0.0	8.1013	7.0867	-10.03879	13.27359	15.8286	1.04966	0.95269	194.69333	184.5993	73.51246	0.32422	 	7.37391E16	 	4.48864E-17	 	-4870.62105	27.46876	 
400.0	1.0	0.0	8.10311	7.08513	-10.05884	13.24949	15.76152	1.04636	0.9557	195.00302	184.74155	73.63741	0.32408	 	1.05531E17	 	3.11329E-17	 	-5007.73655	27.4231	 
395.0	1.0	0.0	8.10491	7.08355	-10.07882	13.22537	15.69439	1.04303	0.95875	195.31208	184.883	73.76214	0.32393	 	1.51842E17	 	2.14768E-17	 	-5144.62386	27.37746	 
390.0	1.0	0.0	8.10671	7.08198	-10.09875	13.20125	15.62722	1.03967	0.96184	195.62052	185.02366	73.88666	0.32379	 	2.19678E17	 	1.47337E-17	 	-5281.28313	27.33185	 
385.0	1.0	0.0	8.1085	7.08042	-10.1186	13.17712	15.56002	1.03629	0.96498	195.92832	185.16354	74.01096	0.32364	 	3.19608E17	 	1.00507E-17	 	-5417.71451	27.28628	 
380.0	1.0	0.0	8.11028	7.07886	-10.1384	13.15298	15.49277	1.03288	0.96817	196.2355	185.30262	74.13506	0.3235	 	4.67672E17	 	6.81644E-18	 	-5553.91811	27.24072	 
375.0	1.0	0.0	8.11206	7.0773	-10.15813	13.12884	15.42547	1.02944	0.9714	196.54204	185.44091	74.25894	0.32336	 	6.88362E17	 	4.59563E-18	 	-5689.89405	27.19519	 
370.0	1.0	0.0	8.11384	7.07575	-10.1778	13.10468	15.35814	1.02598	0.97468	196.84795	185.57842	74.38261	0.32321	 	1.0193E18	 	3.07961E-18	 	-5825.64245	27.14968	 
365.0	1.0	0.0	8.11561	7.07421	-10.1974	13.08052	15.29076	1.02249	0.978	197.15324	185.71515	74.50606	0.32307	 	1.51866E18	 	2.05093E-18	 	-5961.16339	27.10419	 
360.0	1.0	0.0	8.11738	7.07267	-10.21694	13.05636	15.22333	1.01897	0.98138	197.45789	185.85109	74.6293	0.32292	 	2.27694E18	 	1.35719E-18	 	-6096.45696	27.05872	 
355.0	1.0	0.0	8.11914	7.07114	-10.23642	13.03218	15.15586	1.01543	0.98481	197.76191	185.98626	74.75233	0.32278	 	3.43593E18	 	8.92291E-19	 	-6231.52326	27.01326	 
350.0	1.0	0.0	8.1209	7.06961	-10.25583	13.008	15.08834	1.01185	0.98829	198.06531	186.12064	74.87515	0.32264	 	5.21919E18	 	5.82742E-19	 	-6366.36233	26.96781	 
345.0	1.0	0.0	8.12265	7.06808	-10.27518	12.98381	15.02077	1.00825	0.99182	198.36807	186.25426	74.99775	0.32249	 	7.98179E18	 	3.7799E-19	 	-6500.97424	26.92238	 
340.0	1.0	0.0	8.12439	7.06656	-10.29447	12.95961	14.95315	1.00462	0.99541	198.67021	186.3871	75.12014	0.32235	 	1.22915E19	 	2.43471E-19	 	-6635.35901	26.87695	 
335.0	1.0	0.0	8.12613	7.06505	-10.31369	12.93541	14.88548	1.00095	0.99905	198.97171	186.51917	75.24232	0.32221	 	1.90632E19	 	1.55705E-19	 	-6769.5167	26.83154	 
330.0	1.0	0.0	8.12787	7.06354	-10.33285	12.91119	14.81776	0.99726	1.00275	199.27259	186.65046	75.36428	0.32206	 	2.97813E19	 	9.88481E-20	 	-6903.4473	26.78612	 
325.0	1.0	0.0	8.1296	7.06204	-10.35194	12.88697	14.74998	0.99354	1.0065	199.57283	186.781	75.48603	0.32192	 	4.6874E19	 	6.22823E-20	 	-7037.15082	26.74071	 
320.0	1.0	0.0	8.13133	7.06054	-10.37097	12.86275	14.68216	0.98978	1.01032	199.87245	186.91076	75.60756	0.32178	 	7.43432E19	 	3.89413E-20	 	-7170.62726	26.69529	 
315.0	1.0	0.0	8.13305	7.05904	-10.38994	12.83851	14.61427	0.986	1.0142	200.17143	187.03977	75.72888	0.32163	 	1.1883799999999998E20	 	2.41557E-20	 	-7303.87656	26.64986	 
310.0	1.0	0.0	8.13477	7.05755	-10.40884	12.81427	14.54633	0.98218	1.01814	200.46979	187.16801	75.84999	0.32149	 	1.91498E20	 	1.48629E-20	 	-7436.89871	26.60443	 
305.0	1.0	0.0	8.13648	7.05607	-10.42768	12.79002	14.47833	0.97834	1.02214	200.76751	187.29549	75.97088	0.32135	 	3.1114E20	 	9.06924E-21	 	-7569.69364	26.55899	 
300.0	1.0	0.0	8.13818	7.05459	-10.44646	12.76576	14.41027	0.97446	1.02621	201.06461	187.42222	76.09156	0.3212	 	5.0983099999999997E20	 	5.48692E-21	 	-7702.26128	26.51353	 
295.0	1.0	0.0	8.13988	7.05312	-10.46517	12.7415	14.34215	0.97054	1.03035	201.36108	187.54818	76.21203	0.32106	 	8.42696E20	 	3.29063E-21	 	-7834.60151	26.46805	 
290.0	1.0	0.0	8.14158	7.05165	-10.48382	12.71723	14.27397	0.9666	1.03456	201.65692	187.6734	76.33228	0.32092	 	1.40537E21	 	1.95578E-21	 	-7966.71425	26.42255	 
285.0	1.0	0.0	8.14327	7.05018	-10.5024	12.69295	14.20572	0.96262	1.03883	201.95213	187.79786	76.45232	0.32077	 	2.36533E21	 	1.15172E-21	 	-8098.59936	26.37702	 
280.0	1.0	0.0	8.14495	7.04873	-10.52092	12.66866	14.13741	0.9586	1.04318	202.2467	187.92158	76.57214	0.32063	 	4.01863E21	 	6.71817E-22	 	-8230.25668	26.33147	 
275.0	1.0	0.0	8.14663	7.04727	-10.53937	12.64437	14.06903	0.95456	1.04761	202.54065	188.04454	76.69175	0.32049	 	6.8939E21	 	3.8808E-22	 	-8361.68604	26.28587	 
270.0	1.0	0.0	8.14831	7.04582	-10.55777	12.62006	14.00058	0.95047	1.05211	202.83397	188.16676	76.81115	0.32034	 	1.1944499999999999E22	 	2.21942E-22	 	-8492.88725	26.24024	 
265.0	1.0	0.0	8.14998	7.04438	-10.57609	12.59575	13.93206	0.94636	1.05669	203.12667	188.28823	76.93033	0.3202	 	2.09076E22	 	1.25628E-22	 	-8623.86009	26.19457	 
260.0	1.0	0.0	8.15164	7.04294	-10.59436	12.57144	13.86346	0.9422	1.06134	203.41873	188.40897	77.0493	0.32006	 	3.6983099999999995E22	 	7.03612E-23	 	-8754.60433	26.14885	 
255.0	1.0	0.0	8.1533	7.04151	-10.61255	12.54711	13.7948	0.93801	1.06609	203.71016	188.52896	77.16805	0.31991	 	6.61288E22	 	3.8981E-23	 	-8885.11967	26.10307	 
250.0	1.0	0.0	8.15496	7.04008	-10.63069	12.52278	13.72605	0.93378	1.07091	204.00096	188.64821	77.28659	0.31977	 	1.19565E23	 	2.13555E-23	 	-9015.40586	26.05724	 
245.0	1.0	0.0	8.15661	7.03865	-10.64876	12.49844	13.65723	0.92952	1.07582	204.29113	188.76673	77.40491	0.31963	 	2.1866499999999998E23	 	1.15655E-23	 	-9145.46255	26.01134	 
240.0	1.0	0.0	8.15825	7.03724	-10.66676	12.4741	13.58833	0.92522	1.08083	204.58068	188.88451	77.52302	0.31948	 	4.04636E23	 	6.18965E-24	 	-9275.2894	25.96537	 
235.0	1.0	0.0	8.15989	7.03582	-10.68471	12.44974	13.51934	0.92088	1.08592	204.86959	189.00155	77.64091	0.31934	 	7.578969999999999E23	 	3.27241E-24	 	-9404.88603	25.91932	 
230.0	1.0	0.0	8.16152	7.03441	-10.70258	12.42538	13.45027	0.9165	1.09111	205.15788	189.11787	77.75859	0.3192	 	1.43738E24	 	1.70849E-24	 	-9534.25203	25.8732	 
225.0	1.0	0.0	8.16315	7.03301	-10.7204	12.40101	13.38111	0.91208	1.09639	205.44554	189.23346	77.87605	0.31905	 	2.76131E24	 	8.80505E-25	 	-9663.38694	25.82698	 
220.0	1.0	0.0	8.16478	7.03161	-10.73814	12.37663	13.31186	0.90762	1.10178	205.73256	189.34832	77.9933	0.31891	 	5.375350000000001E24	 	4.47774E-25	 	-9792.29029	25.78067	 
215.0	1.0	0.0	8.16639	7.03022	-10.75583	12.35225	13.24252	0.90313	1.10726	206.01896	189.46245	78.11034	0.31877	 	1.0607800000000001E25	 	2.24603E-25	 	-9920.96158	25.73426	 
210.0	1.0	0.0	8.16801	7.02883	-10.77345	12.32786	13.17308	0.89859	1.11286	206.30473	189.57586	78.22716	0.31863	 	2.12302E25	 	1.11075E-25	 	-10049.40023	25.68773	 
205.0	1.0	0.0	8.16961	7.02745	-10.791	12.30346	13.10355	0.89401	1.11856	206.58987	189.68854	78.34376	0.31848	 	4.311050000000001E25	 	5.41337E-26	 	-10177.60564	25.64108	 
200.0	1.0	0.0	8.17122	7.02607	-10.80849	12.27905	13.03391	0.88939	1.12437	206.87438	189.80051	78.46015	0.31834	 	8.886190000000001E25	 	2.59878E-26	 	-10305.57718	25.59431	 
195.0	1.0	0.0	8.17281	7.0247	-10.82592	12.25464	12.96417	0.88472	1.1303	207.15826	189.91175	78.57632	0.3182	 	1.86019E26	 	1.22833E-26	 	-10433.31416	25.5474	 
190.0	1.0	0.0	8.1744	7.02333	-10.84328	12.23022	12.89433	0.88001	1.13635	207.44152	190.02228	78.69228	0.31806	 	3.9566500000000004E26	 	5.71322E-27	 	-10560.81586	25.50034	 
185.0	1.0	0.0	8.17599	7.02197	-10.86058	12.20579	12.82437	0.87526	1.14252	207.72414	190.1321	78.80802	0.31791	 	8.555610000000001E26	 	2.61363E-27	 	-10688.08147	25.45312	 
180.0	1.0	0.0	8.17757	7.02061	-10.87781	12.18135	12.7543	0.87047	1.14881	208.00613	190.2412	78.92355	0.31777	 	1.8817699999999998E27	 	1.17534E-27	 	-10815.11017	25.40574	 
175.0	1.0	0.0	8.17915	7.01926	-10.89498	12.15691	12.68411	0.86562	1.15524	208.2875	190.34959	79.03886	0.31763	 	4.2123E27	 	5.19268E-28	 	-10941.90107	25.35818	 
170.0	1.0	0.0	8.18072	7.01791	-10.91208	12.13246	12.61381	0.86074	1.16179	208.56824	190.45726	79.15395	0.31748	 	9.602159999999999E27	 	2.25252E-28	 	-11068.4532	25.31043	 
165.0	1.0	0.0	8.18228	7.01657	-10.92912	12.108	12.54337	0.8558	1.16849	208.84834	190.56424	79.26883	0.31734	 	2.23042E28	 	9.58789E-29	 	-11194.76556	25.26247	 
160.0	1.0	0.0	8.18384	7.01523	-10.94609	12.08353	12.47281	0.85082	1.17533	209.12782	190.6705	79.3835	0.3172	 	5.28267E28	 	4.00195E-29	 	-11320.83706	25.2143	 
155.0	1.0	0.0	8.1854	7.0139	-10.963	12.05906	12.40212	0.8458	1.18232	209.40667	190.77606	79.49794	0.31706	 	1.2766400000000001E29	 	1.63687E-29	 	-11446.66655	25.1659	 
150.0	1.0	0.0	8.18694	7.01257	-10.97984	12.03458	12.33128	0.84072	1.18945	209.68489	190.88091	79.61218	0.31691	 	3.1502000000000002E29	 	6.55607E-30	 	-11572.2528	25.11725	 
145.0	1.0	0.0	8.18849	7.01125	-10.99662	12.01009	12.26031	0.8356	1.19675	209.96249	190.98507	79.72619	0.31677	 	7.94307E29	 	2.56939E-30	 	-11697.59451	25.06834	 
140.0	1.0	0.0	8.19003	7.00994	-11.01334	11.98559	12.18919	0.83042	1.20421	210.23945	191.08852	79.83999	0.31663	 	2.04815E30	 	9.8454E-31	 	-11822.6903	25.01916	 
135.0	1.0	0.0	8.19156	7.00862	-11.02999	11.96109	12.11792	0.8252	1.21183	210.51578	191.19128	79.95357	0.31649	 	5.40521E30	 	3.68548E-31	 	-11947.53867	24.96968	 
130.0	1.0	0.0	8.19309	7.00732	-11.04657	11.93658	12.04648	0.81992	1.21963	210.79149	191.29334	80.06694	0.31635	 	1.46123E31	 	1.34659E-31	 	-12072.13807	24.91988	 
125.0	1.0	0.0	8.19461	7.00602	-11.06309	11.91206	11.97489	0.81459	1.22761	211.06656	191.3947	80.18009	0.3162	 	4.05016E31	 	4.79802E-32	 	-12196.48682	24.86975	 
120.0	1.0	0.0	8.19612	7.00472	-11.07954	11.88753	11.90313	0.80921	1.23577	211.34101	191.49537	80.29303	0.31606	 	1.15209E32	 	1.66555E-32	 	-12320.58315	24.81927	 
115.0	1.0	0.0	8.19763	7.00343	-11.09593	11.863	11.83119	0.80378	1.24412	211.61483	191.59536	80.40574	0.31592	 	3.36666E32	 	5.62714E-33	 	-12444.42515	24.7684	 
110.0	1.0	0.0	8.19914	7.00214	-11.11226	11.83846	11.75907	0.79829	1.25267	211.88802	191.69465	80.51825	0.31578	 	1.01173E33	 	1.84837E-33	 	-12568.01084	24.71714	 
105.0	1.0	0.0	8.20064	7.00086	-11.12852	11.81391	11.68676	0.79275	1.26143	212.16058	191.79325	80.63053	0.31563	 	3.13018E33	 	5.89632E-34	 	-12691.33805	24.66544	 
100.0	1.0	0.0	8.20213	6.99959	-11.14471	11.78936	11.61425	0.78715	1.2704	212.43251	191.89117	80.7426	0.31549	 	9.98201E33	 	1.82453E-34	 	-12814.40452	24.61329	 
95.0	1.0	0.0	8.20362	6.99832	-11.16084	11.76479	11.54154	0.7815	1.2796	212.70382	191.9884	80.85445	0.31535	 	3.28509E34	 	5.46971E-35	 	-12937.20783	24.56066	 
90.0	1.0	0.0	8.20511	6.99705	-11.1769	11.74022	11.46862	0.77578	1.28902	212.97449	192.08495	80.96608	0.31521	 	1.11718E35	 	1.58654E-35	 	-13059.74539	24.50751	 
85.0	1.0	0.0	8.20659	6.99579	-11.1929	11.71565	11.39548	0.77001	1.29868	213.24454	192.18082	81.0775	0.31507	 	3.9313299999999995E35	 	4.44644E-36	 	-13182.01445	24.45381	 
80.0	1.0	0.0	8.20806	6.99453	-11.20883	11.69106	11.32211	0.76418	1.30859	213.51395	192.276	81.1887	0.31492	 	1.4335999999999997E36	 	1.20231E-36	 	-13304.01211	24.39953	 
75.0	1.0	0.0	8.20953	6.99328	-11.2247	11.66647	11.2485	0.75829	1.31875	213.78274	192.37051	81.29968	0.31478	 	5.42573E36	 	3.13181E-37	 	-13425.73523	24.34462	 
70.0	1.0	0.0	8.21099	6.99204	-11.2405	11.64187	11.17465	0.75234	1.32918	214.0509	192.46435	81.41045	0.31464	 	2.1346799999999997E37	 	7.84583E-38	 	-13547.18049	24.28905	 
65.0	1.0	0.0	8.21244	6.9908	-11.25624	11.61726	11.10053	0.74633	1.33989	214.31843	192.5575	81.521	0.3145	 	8.74577E37	 	1.88711E-38	 	-13668.34435	24.23277	 
60.0	1.0	0.0	8.21389	6.98957	-11.27191	11.59264	11.02614	0.74026	1.35088	214.58534	192.64999	81.63133	0.31436	 	3.73807E38	 	4.34989E-39	 	-13789.22302	24.17573	 
55.0	1.0	0.0	8.21534	6.98834	-11.28752	11.56802	10.95147	0.73412	1.36218	214.85161	192.7418	81.74144	0.31421	 	1.6700200000000003E39	 	9.5904E-40	 	-13909.81248	24.11789	 
50.0	1.0	0.0	8.21678	6.98711	-11.30306	11.54339	10.8765	0.72792	1.37379	215.11725	192.83294	81.85134	0.31407	 	7.814720000000001E39	 	2.01826E-40	 	-14030.1084	24.05918	 
45.0	1.0	0.0	8.21821	6.98589	-11.31854	11.51875	10.80123	0.72165	1.38572	215.38227	192.92342	81.96102	0.31393	 	3.83857E40	 	4.04528E-41	 	-14150.10617	23.99955	 
40.0	1.0	0.0	8.21964	6.98468	-11.33395	11.49411	10.72562	0.71531	1.39799	215.64666	193.01323	82.07048	0.31379	 	1.9838100000000003E41	 	7.70439E-42	 	-14269.80087	23.93894	 
35.0	1.0	0.0	8.22106	6.98347	-11.34929	11.46945	10.64968	0.70891	1.41061	215.91042	193.10237	82.17973	0.31365	 	1.08138E42	 	1.39081E-42	 	-14389.18721	23.87727	 
30.0	1.0	0.0	8.22248	6.98227	-11.36457	11.44479	10.57339	0.70244	1.42361	216.17355	193.19085	82.28875	0.31351	 	6.23382E42	 	2.37351E-43	 	-14508.25954	23.81447	 
25.0	1.0	0.0	8.22389	6.98107	-11.37978	 	10.49672	0.6959	1.43699	216.43605	193.27866	82.39756	0.31336	 	3.81105E43	 	3.81836E-44	 	-14627.01179	 	 
