T (C)	Fraction solid (wt)-TOTAL	Fraction liquid (wt)-LIQUID	Density (g/(cm)^3)-TOTAL	Molar volume (cm^3)-TOTAL	Volume change (%)-  	Average expansion coeff. (10e-6 1/K)-  	Thermal conductivity (W/(m*K))-TOTAL	Electrical resistivity (10e-6 Ohm*m)-TOTAL	Electrical conductivity (10e6 1/(Ohm*m))-TOTAL	Young's modulus (GPa)-TOTAL	Bulk modulus (GPa)-TOTAL	Shear modulus(GPa)-TOTAL	Poisson's ratio-TOTAL	Liquid viscosity (mPa s)-  	Total viscosity (mPa s)-  	Liquid diffusivity (10e-9 (m^2)/s)-  	Total diffusivity (10e-9 (m^2)/s)-  	Surface Tension (mN/m)-  	Enthalpy (J/mole)-TOTAL	Specific heat (J/(mole K))-TOTAL	Latent heat (J/mole)-TOTAL
1400.0	0.0	1.0	6.81295	7.97162	0.0	34.67881	30.09724	1.36199	0.73422	0.0	118.69024	0.0	0.5	5.96588	5.96588	1.36882	1.36882	1736.92377	40584.07	 	0.0
1395.0	0.0	1.0	6.81689	7.96701	-0.0578292	34.64455	30.01317	1.36172	0.73436	0.0	118.82753	0.0	0.5	6.02775	6.02775	1.35072	1.35072	1739.06874	40383.176	40.1788	0.0
1390.0	0.0	1.0	6.82083	7.96241	-0.1155	34.61048	29.9291	1.36146	0.73451	0.0	118.96481	0.0	0.5	6.09063	6.09063	1.33277	1.33277	1741.23256	40182.727	40.0898	0.0
1385.0	0.0	1.0	6.82476	7.95783	-0.173	34.57662	29.84503	1.36119	0.73465	0.0	119.10209	0.0	0.5	6.15456	6.15456	1.31496	1.31496	1743.41542	39982.718	40.0018	0.0
1380.0	0.0	1.0	6.82868	7.95326	-0.23034	34.54297	29.76095	1.36092	0.7348	0.0	119.23937	0.0	0.5	6.21955	6.21955	1.2973	1.2973	1745.61743	39783.147	39.9142	0.0
1375.0	0.0	1.0	6.83259	7.9487	-0.28752	34.50953	29.67688	1.36064	0.73495	0.0	119.37666	0.0	0.5	6.28563	6.28563	1.27978	1.27978	1747.83869	39584.011	39.8272	0.0
1370.0	0.0	1.0	6.8365	7.94416	-0.34454	34.4763	29.59281	1.36037	0.73509	0.0	119.51394	0.0	0.5	6.35282	6.35282	1.2624	1.2624	1750.07929	39385.309	39.7404	0.0
1365.0	0.0	1.0	6.84041	7.93962	-0.40139	34.44329	29.50874	1.36009	0.73524	0.0	119.65122	0.0	0.5	6.42115	6.42115	1.24517	1.24517	1752.33931	39187.037	39.6544	0.0
1360.0	0.0	1.0	6.8443	7.93511	-0.45808	34.41049	29.42467	1.35982	0.73539	0.0	119.78851	0.0	0.5	6.49064	6.49064	1.22808	1.22808	1754.61879	38989.193	39.5688	0.0
1355.0	0.0	1.0	6.84819	7.9306	-0.51461	34.37792	29.34059	1.35954	0.73554	0.0	119.92579	0.0	0.5	6.56131	6.56131	1.21113	1.21113	1756.91778	38791.774	39.4838	0.0
1350.0	0.0	1.0	6.85207	7.92611	-0.57097	34.34556	29.25652	1.35926	0.7357	0.0	120.06307	0.0	0.5	6.63319	6.63319	1.19433	1.19433	1759.23632	38594.779	39.399	0.0
1345.0	0.0	1.0	6.85595	7.92163	-0.62718	34.31343	29.17245	1.35898	0.73585	0.0	120.20036	0.0	0.5	6.70631	6.70631	1.17767	1.17767	1761.5744	38398.204	39.315	0.0
1340.0	0.0	1.0	6.85982	7.91716	-0.68322	34.28152	29.08838	1.35869	0.736	0.0	120.33764	0.0	0.5	6.7807	6.7807	1.16115	1.16115	1763.93202	38202.047	39.2314	0.0
1335.0	0.0	1.0	6.86368	7.9127	-0.73909	34.24985	29.00431	1.35841	0.73616	0.0	120.47492	0.0	0.5	6.85638	6.85638	1.14477	1.14477	1766.30916	38006.306	39.1482	0.0
1334.86	0.0	1.0	6.86379	7.91258	-0.74066	34.24896	29.00194	1.3584	0.73616	0.0	120.47879	0.0	0.5	6.85854	6.85854	1.14431	1.14431	1766.37641	38000.796	39.11408	0.0020
1330.0	0.14969	0.85031	6.91019	7.85937	-1.40814	32.42767	29.48789	1.33198	0.75076	0.0421585	122.01888	0.0142261	0.48173	6.93632	16.0361	1.12806	0.48794	1765.01633	35823.132	448.15924	1987.846
1325.0	0.27596	0.72404	6.95012	7.81427	-1.97386	30.89433	29.90469	1.30932	0.76376	0.50094	123.40529	0.17085	0.46606	7.01807	102.43715	1.11144	0.0761459	1763.68201	33966.275	371.3714	3649.787
1320.0	0.37985	0.62015	6.98368	7.77673	-2.44477	29.6281	30.25354	1.29017	0.77509	1.84242	124.62568	0.63403	0.45295	7.10177	361.00216	1.09491	0.0215394	1762.41404	32418.285	309.598	5003.269
1315.0	0.46605	0.53395	7.0121	7.74523	-2.84002	28.57552	30.54713	1.27376	0.78508	4.26433	125.7139	1.4787	0.44192	7.18739	848.02765	1.07847	0.00914046	1761.20972	31114.082	260.8406	6113.371
1310.0	0.53811	0.46189	7.03636	7.71857	-3.17442	27.69518	30.79379	1.25958	0.79392	7.71993	126.69565	2.69441	0.43258	7.2751	1580.4989	1.06211	0.00488894	1760.06658	30003.893	222.0378	7029.862
1305.0	0.59874	0.40126	7.05725	7.69574	-3.46083	26.95081	31.00009	1.24724	0.80177	12.0285	127.58908	4.22166	0.42462	7.36501	2551.31382	1.04583	0.00301906	1758.98377	29049.297	190.9192	7791.163
1300.0	0.65007	0.34993	7.07538	7.67604	-3.70795	26.318	31.17134	1.23646	0.80876	16.96175	128.4103	5.98176	0.41779	7.45727	3741.85774	1.02962	0.00205196	1757.95986	28220.372	165.785	8427.192
1295.0	0.69374	0.30626	7.09122	7.65891	-3.9228	25.77704	31.31194	1.227	0.815	22.29479	129.17085	7.89529	0.4119	7.55201	5130.20974	1.01347	0.0014919	1756.99364	27493.625	145.3494	8961.44
1290.0	0.7311	0.2689	7.10515	7.64392	-4.11089	25.31239	31.42587	1.21865	0.82058	27.83358	129.88111	9.89245	0.40681	7.64935	6696.14002	0.99738	0.00113936	1756.08464	26850.477	128.6296	9412.485
1285.0	0.76322	0.23678	7.11748	7.63072	-4.27648	24.9121	31.51657	1.21126	0.82559	33.42201	130.54889	11.9162	0.40238	7.74941	8423.14209	0.98136	9.02863E-4	1755.23194	26276.125	114.8704	9795.127
1280.0	0.79092	0.20908	7.12847	7.619	-4.4234	24.56531	31.58701	1.20468	0.8301	38.94099	131.18034	13.92239	0.3985	7.85238	10298.62173	0.96538	7.36073E-4	1754.43619	25758.701	103.4848	10121.23
1275.0	0.81494	0.18506	7.13834	7.60849	-4.5553	24.26154	31.63989	1.19879	0.83417	44.311	131.7801	15.88101	0.39509	7.95841	12315.76605	0.94945	6.13534E-4	1753.69971	25288.631	94.014	10400.368
1270.82	0.83247	0.16753	7.1458	7.60055	-4.65491	24.03821	31.67143	1.19437	0.83726	48.60874	132.25907	17.45286	0.39257	8.04935	14098.43336	0.93619	5.3451E-4	1753.13557	24927.974	 	10601.881
1270.0	0.8367	0.1633	7.14742	7.59883	-4.67646	23.98817	31.68153	1.19335	0.83798	49.6841	132.36943	17.84672	0.39197	8.06854	14529.62048	0.93347	5.18371E-4	1753.30048	24846.364	88.4534	10652.09
1265.0	0.86109	0.13891	7.15692	7.58871	-4.80343	23.69476	31.7386	1.18735	0.84221	56.29079	133.02238	20.27126	0.38844	8.18737	17311.41881	0.91694	4.33663E-4	1754.31891	24368.645	95.5438	10939.648
1260.0	0.88163	0.11837	7.1653	7.57976	-4.91569	23.44436	31.77638	1.18208	0.84597	62.42319	133.63082	22.5287	0.38541	8.30902	20222.65429	0.90058	3.70027E-4	1755.35621	23940.088	85.7114	11178.426
1255.0	0.89904	0.10096	7.17279	7.5718	-5.0156	23.23016	31.79787	1.17743	0.84931	68.06648	134.20328	24.61165	0.38281	8.43388	23263.42915	0.88435	3.20611E-4	1756.41014	23551.278	77.762	11377.835
1250.0	0.91385	0.0861478	7.17954	7.5646	-5.1059	23.0441	31.80572	1.17329	0.85231	73.23428	134.74523	26.52364	0.38055	8.56194	26440.59964	0.86828	2.81163E-4	1757.48294	23194.854	71.2848	11545.238
1245.0	0.92652	0.0734816	7.18565	7.55807	-5.1878	22.88277	31.80194	1.16957	0.85501	77.94883	135.26191	28.27158	0.37857	8.6934	29764.48821	0.85234	2.48945E-4	1758.57126	22865.006	65.9696	11686.44
1240.0	0.9374	0.0625962	7.19126	7.55208	-5.2629	22.74145	31.78832	1.16622	0.85747	82.24403	135.75721	29.86703	0.37684	8.82848	33250.12266	0.83653	2.22114E-4	1759.67495	22557.112	61.5788	11806.061
1235.0	0.9468	0.0532041	7.19643	7.54654	-5.33237	22.61665	31.76633	1.16317	0.85972	86.15448	136.23427	31.32204	0.3753	8.96724	36914.28966	0.82087	1.99405E-4	1760.79417	22267.468	57.9288	11907.802
1230.0	0.95493	0.0450714	7.20123	7.5414	-5.39693	22.50636	31.73715	1.16038	0.86179	89.71478	136.69593	32.64879	0.37394	9.10981	40776.62746	0.80534	1.79919E-4	1761.92596	21993.082	54.8772	11994.656
1225.0	0.962	0.0380004	7.20572	7.53657	-5.45748	22.40789	31.70178	1.15781	0.8637	92.96051	137.14381	33.86005	0.37272	9.2563	44858.77989	0.78996	1.63003E-4	1763.0711	21731.535	52.3094	12069.038
1220.0	0.96817	0.0318323	7.20994	7.53202	-5.51453	22.31973	31.66106	1.15543	0.86548	95.92317	137.57998	34.96712	0.37162	9.40695	49184.43959	0.77471	1.48171E-4	1764.22791	21480.838	50.1394	12132.935
1215.0	0.97357	0.0264349	7.21394	7.52771	-5.56862	22.24032	31.61572	1.15321	0.86714	98.633	138.00594	35.98095	0.37063	9.56209	53779.93915	0.75959	1.35056E-4	1765.39527	21239.361	48.2954	12187.974
1210.0	0.9783	0.0216958	7.21682	7.52142	-5.64753	22.08045	31.39491	1.15742	0.86399	101.55425	138.69407	37.0791	0.36943	9.7215	58673.06943	0.74463	1.23377E-4	1767.25317	20866.37577	74.59705	12235.501
1205.0	0.98248	0.017523	7.22515	7.51409	-5.73948	21.87711	31.04305	1.1666	0.8572	104.78881	139.53021	38.30498	0.36782	9.88566	64398.616	0.72979	1.12029E-4	1769.11492	20421.11203	89.05275	12276.634
1200.0	0.98616	0.0138371	7.2331	7.50676	-5.83143	21.67205	30.70757	1.17535	0.85081	107.81057	140.33074	39.45246	0.36634	10.05468	70584.75157	0.7151	1.01864E-4	1770.97904	19991.68889	85.88463	12312.302
1195.0	0.98943	0.0105747	7.24065	7.49948	-5.92282	21.46705	30.3872	1.18371	0.8448	110.63733	141.09807	40.52785	0.36495	10.22874	77275.34769	0.70054	9.27291E-5	1772.84563	19576.74504	82.98877	12343.286
1190.0	0.99232	0.00767711	7.24782	7.49227	-6.01324	21.26346	30.08097	1.19169	0.83914	113.28559	141.83437	41.53707	0.36367	10.40793	84518.54292	0.68614	8.44935E-5	1774.71433	19175.08873	80.33126	12370.242
1185.0	0.9949	0.00509862	7.25461	7.48516	-6.10239	21.06229	29.78795	1.1993	0.83382	115.77109	142.54145	42.48577	0.36247	10.5925	92366.94843	0.67188	7.70499E-5	1776.58696	18785.66498	77.88475	12393.724
1180.0	0.99739	0.00261381	7.26093	7.47816	-6.19022	20.86371	29.51133	1.20639	0.82892	118.10926	143.22602	43.38046	0.36132	10.81758	100958.8833	0.65564	7.0251E-5	1778.47149	18404.34202	76.26459	12417.398
1175.0	1.0	0.0	7.2667	7.47124	-6.27699	20.66695	29.25475	1.21278	0.82455	120.7124	143.8932	44.37359	0.36018	 	110463.6444	 	6.39854E-5	 	18027.42837	75.38273	12444.524
1170.0	1.0	0.0	7.27198	7.46582	-6.34503	20.53078	28.98253	1.21995	0.81971	121.82685	144.46792	44.80729	0.35945	 	119830.5569	 	5.87801E-5	 	17664.49803	72.58607	 
1168.35	1.0	0.0	7.2737	7.46406	-6.36711	20.48679	28.89537	1.22223	0.81818	122.18613	144.6522	44.9472	0.35922	 	123111.6559	 	5.71482E-5	 	17554.8277	 	 
1165.0	1.0	0.0	7.27714	7.46053	-6.41137	20.39911	28.72198	1.22675	0.81516	122.90488	145.01988	45.22721	0.35875	 	130101.0496	 	5.39523E-5	 	17334.03493	66.09262	 
1160.0	1.0	0.0	7.28218	7.45537	-6.47611	20.27163	28.47238	1.2332	0.8109	123.94845	145.55066	45.63406	0.35807	 	141369.7581	 	4.94791E-5	 	17010.15199	64.77659	 
1155.0	1.0	0.0	7.28711	7.45033	-6.5394	20.14794	28.23305	1.23932	0.8069	124.95935	146.06159	46.02851	0.35741	 	153741.4545	 	4.53388E-5	 	16692.56663	63.51707	 
1150.0	1.0	0.0	7.29194	7.44539	-6.60129	20.02785	28.00341	1.2451	0.80315	125.93934	146.55408	46.41121	0.35678	 	167334.2641	 	4.151E-5	 	16380.97003	62.31932	 
1145.0	1.0	0.0	7.29667	7.44056	-6.66187	19.91119	27.78286	1.25058	0.79963	126.89006	147.02942	46.78276	0.35616	 	182279.9242	 	3.79726E-5	 	16075.07238	61.17953	 
1140.0	1.0	0.0	7.30131	7.43583	-6.72118	19.79779	27.57089	1.25575	0.79634	127.81302	147.48875	47.14373	0.35557	 	198725.4654	 	3.47073E-5	 	15774.6013	60.09422	 
1135.0	1.0	0.0	7.30586	7.4312	-6.7793	19.68749	27.36699	1.26063	0.79325	128.70966	147.93311	47.49465	0.35499	 	216835.0691	 	3.16961E-5	 	15479.30048	59.06016	 
1130.84	1.0	0.0	7.30958	7.42742	-6.82672	19.59806	27.20331	1.26447	0.79084	129.43581	148.29175	47.77901	0.35453	 	233283.6083	 	2.93743E-5	 	15237.63486	 	 
1130.81	1.0	0.0	7.30964	7.42736	-6.82745	19.59616	27.20131	1.26454	0.7908	129.44258	148.29479	47.78168	0.35452	 	233424.6768	 	2.93559E-5	 	15234.91498	 	 
1130.0	1.0	0.0	7.31035	7.42663	-6.83661	19.57895	27.16993	1.26527	0.79035	129.58248	148.36382	47.83648	0.35443	 	236799.2116	 	2.89208E-5	 	15188.06398	58.2473	 
1125.0	1.0	0.0	7.31474	7.42218	-6.89246	19.47451	26.98069	1.2696	0.78765	130.43077	148.78155	48.16889	0.35389	 	258817.6606	 	2.63661E-5	 	14902.13575	57.18565	 
1120.0	1.0	0.0	7.31905	7.41781	-6.94726	19.37274	26.79819	1.27367	0.78513	131.25646	149.18693	48.49264	0.35336	 	283119.504	 	2.40168E-5	 	14620.72228	56.28269	 
1115.0	1.0	0.0	7.32328	7.41352	-7.00107	19.2735	26.62205	1.2775	0.78278	132.06069	149.58071	48.80816	0.35285	 	309962.1023	 	2.18582E-5	 	14343.61661	55.42114	 
1110.0	1.0	0.0	7.32745	7.40931	-7.05393	19.17668	26.45189	1.28109	0.78059	132.84453	149.9636	49.11585	0.35236	 	339633.8945	 	1.98767E-5	 	14070.62292	54.59874	 
1105.0	1.0	0.0	7.33155	7.40517	-7.10589	19.08217	26.28737	1.28444	0.77855	133.60901	150.33627	49.41609	0.35188	 	372458.4371	 	1.80595E-5	 	13801.55583	53.81342	 
1100.0	1.0	0.0	7.33558	7.40109	-7.15698	18.98985	26.12817	1.28758	0.77665	134.35508	150.69932	49.70925	0.35141	 	408798.9195	 	1.63944E-5	 	13536.23958	53.06325	 
1095.0	1.0	0.0	7.33955	7.39709	-7.20723	18.89963	25.97397	1.29051	0.77489	135.08368	151.05335	49.99567	0.35095	 	449063.3707	 	1.48701E-5	 	13274.50737	52.34644	 
1090.0	1.0	0.0	7.34347	7.39314	-7.2567	18.8114	25.82451	1.29324	0.77325	135.79567	151.39888	50.2757	0.35051	 	493710.5132	 	1.34759E-5	 	13016.20079	51.66132	 
1085.0	1.0	0.0	7.34733	7.38926	-7.3054	18.72507	25.6795	1.29577	0.77174	136.49188	151.73641	50.54963	0.35008	 	543256.5193	 	1.2202E-5	 	12761.16926	51.00631	 
1080.0	1.0	0.0	7.35113	7.38544	-7.35338	18.64055	25.5387	1.29812	0.77035	137.17312	152.06644	50.81779	0.34966	 	598282.6419	 	1.10389E-5	 	12509.26956	50.37994	 
1075.0	1.0	0.0	7.35488	7.38167	-7.40065	18.55775	25.40187	1.30029	0.76906	137.84013	152.38939	51.08044	0.34925	 	659443.9796	 	9.97808E-6	 	12260.36536	49.78084	 
1070.0	1.0	0.0	7.35859	7.37795	-7.44726	18.47661	25.26879	1.30229	0.76788	138.49363	152.70568	51.33787	0.34884	 	727479.4316	 	9.01136E-6	 	12014.32686	49.2077	 
1065.0	1.0	0.0	7.36224	7.37429	-7.49323	18.39702	25.13925	1.30412	0.7668	139.1343	153.01571	51.59033	0.34845	 	803223.1688	 	8.13121E-6	 	11771.03039	48.65929	 
1060.0	1.0	0.0	7.36586	7.37067	-7.53859	18.31893	25.01305	1.30581	0.76581	139.76278	153.31985	51.83808	0.34807	 	887617.7248	 	7.3306E-6	 	11530.35814	48.13445	 
1055.0	1.0	0.0	7.36942	7.36711	-7.58335	18.24226	24.89002	1.30734	0.76491	140.3797	153.61843	52.08135	0.3477	 	981728.8905	 	6.60301E-6	 	11292.1978	47.63207	 
1050.0	1.0	0.0	7.37295	7.36358	-7.62756	18.16693	24.76999	1.30873	0.7641	140.98565	153.91179	52.32036	0.34733	 	1086763.028	 	5.94239E-6	 	11056.4423	47.1511	 
1045.0	1.0	0.0	7.37644	7.3601	-7.67122	18.0929	24.65278	1.30998	0.76337	141.58117	154.20023	52.55533	0.34697	 	1204086.715	 	5.34311E-6	 	10822.98958	46.69054	 
1040.0	1.0	0.0	7.37989	7.35666	-7.71436	18.02008	24.53733	1.31115	0.76269	142.1668	154.48403	52.78646	0.34662	 	1335249.499	 	4.79997E-6	 	10591.74234	46.24945	 
1035.0	1.0	0.0	7.3833	7.35326	-7.757	17.94842	24.42533	1.31215	0.76211	142.74303	154.76346	53.01394	0.34628	 	1482009.832	 	4.30817E-6	 	10362.6078	45.82691	 
1030.0	1.0	0.0	7.38667	7.3499	-7.79916	17.87787	24.31573	1.31303	0.7616	143.31035	155.03877	53.23796	0.34594	 	1646365.305	 	3.86327E-6	 	10135.49748	45.42206	 
1025.0	1.0	0.0	7.39002	7.34658	-7.84087	17.80836	24.20841	1.31379	0.76116	143.86921	155.31021	53.4587	0.34561	 	1830586.999	 	3.46116E-6	 	9910.32707	45.03408	 
1020.0	1.0	0.0	7.39333	7.34329	-7.88213	17.73985	24.10326	1.31444	0.76078	144.42004	155.57799	53.67631	0.34529	 	2037259.637	 	3.09806E-6	 	9687.01618	44.66218	 
1015.0	1.0	0.0	7.3966	7.34003	-7.92296	17.67227	24.00016	1.31498	0.76047	144.96324	155.84233	53.89096	0.34497	 	2269327.352	 	2.77049E-6	 	9465.48818	44.3056	 
1010.0	1.0	0.0	7.39985	7.33681	-7.96339	17.6056	23.89901	1.31542	0.76021	145.4992	156.10341	54.10279	0.34466	 	2530147.324	 	2.47525E-6	 	9245.67003	43.96363	 
1005.0	1.0	0.0	7.40307	7.33362	-8.00343	17.53976	23.79971	1.31576	0.76002	146.02828	156.36142	54.31195	0.34435	 	2823551.099	 	2.20939E-6	 	9027.49213	43.63558	 
1000.0	1.0	0.0	7.40627	7.33046	-8.04309	17.47473	23.70217	1.31601	0.75988	146.55083	156.61653	54.51857	0.34404	 	3153915.956	 	1.97023E-6	 	8810.88813	43.3208	 
995.0	1.0	0.0	7.40943	7.32732	-8.08238	17.41046	23.60631	1.31616	0.75979	147.06717	156.86891	54.72278	0.34375	 	3526247.887	 	1.75527E-6	 	8595.79483	43.01866	 
990.0	1.0	0.0	7.41257	7.32422	-8.12132	17.34691	23.51204	1.31623	0.75975	147.57762	157.11871	54.92469	0.34345	 	3946277.386	 	1.56226E-6	 	8382.15199	42.72857	 
985.0	1.0	0.0	7.41569	7.32114	-8.15993	17.28403	23.41929	1.31621	0.75976	148.08247	157.36606	55.12443	0.34317	 	4420571.033	 	1.38912E-6	 	8169.90223	42.44995	 
980.0	1.0	0.0	7.41878	7.31809	-8.19821	17.22179	23.32799	1.31611	0.75982	148.582	157.61111	55.32209	0.34288	 	4956661.37	 	1.23396E-6	 	7958.99085	42.18228	 
975.0	1.0	0.0	7.42185	7.31506	-8.23618	17.16016	23.23808	1.31593	0.75992	149.07646	157.85397	55.51779	0.3426	 	5563197.994	 	1.09504E-6	 	7749.36575	41.92502	 
970.0	1.0	0.0	7.4249	7.31206	-8.27384	17.09909	23.14948	1.31567	0.76007	149.56611	158.09476	55.71161	0.34232	 	6250123.814	 	9.70782E-7	 	7540.97728	41.67769	 
965.0	1.0	0.0	7.42793	7.30908	-8.31122	17.03855	23.06215	1.31534	0.76026	150.05118	158.3336	55.90365	0.34205	 	7028880.054	 	8.59753E-7	 	7333.77813	41.43983	 
960.0	1.0	0.0	7.43093	7.30613	-8.34831	16.97852	22.97602	1.31494	0.76049	150.5319	158.57059	56.094	0.34178	 	7912647.281	 	7.60643E-7	 	7127.72324	41.21098	 
955.0	1.0	0.0	7.43392	7.30319	-8.38513	16.91896	22.89105	1.31447	0.76076	151.00847	158.80583	56.28274	0.34152	 	8916625.337	 	6.72261E-7	 	6922.76961	40.99073	 
950.0	1.0	0.0	7.43689	7.30028	-8.42168	16.85984	22.80719	1.31394	0.76107	151.48109	159.0394	56.46995	0.34125	 	1.005836311E7	 	5.93525E-7	 	6718.87632	40.77866	 
945.0	1.0	0.0	7.43983	7.29738	-8.45798	16.80113	22.72438	1.31333	0.76142	151.94996	159.27139	56.65569	0.34099	 	1.135814371E7	 	5.23456E-7	 	6516.00431	40.5744	 
940.0	1.0	0.0	7.44277	7.29451	-8.49404	16.74281	22.64259	1.31267	0.76181	152.41524	159.50189	56.84004	0.34074	 	1.283943671E7	 	4.61164E-7	 	6314.1164	40.37758	 
935.0	1.0	0.0	7.44568	7.29165	-8.52985	16.68484	22.56179	1.31194	0.76223	152.87712	159.73097	57.02307	0.34048	 	1.452943047E7	 	4.05844E-7	 	6113.17709	40.18786	 
930.0	1.0	0.0	7.44858	7.28882	-8.56544	16.62721	22.48192	1.31115	0.76269	153.33574	159.9587	57.20484	0.34023	 	1.645965836E7	 	3.56768E-7	 	5913.15255	40.00491	 
925.0	1.0	0.0	7.45146	7.286	-8.60079	16.56989	22.40295	1.3103	0.76318	153.79126	160.18514	57.3854	0.33999	 	1.866673474E7	 	3.13278E-7	 	5714.0105	39.82841	 
920.0	1.0	0.0	7.45433	7.2832	-8.63594	16.51286	22.32485	1.3094	0.76371	154.24382	160.41037	57.56482	0.33974	 	2.119322522E7	 	2.7478E-7	 	5515.72015	39.65807	 
915.0	1.0	0.0	7.45718	7.28041	-8.67087	16.45609	22.2476	1.30844	0.76427	154.69356	160.63444	57.74314	0.3395	 	2.408867241E7	 	2.40738E-7	 	5318.25214	39.4936	 
910.0	1.0	0.0	7.46001	7.27764	-8.70559	16.39956	22.17115	1.30743	0.76486	155.1406	160.85741	57.92041	0.33926	 	2.741080995E7	 	2.10671E-7	 	5121.57844	39.33474	 
905.0	1.0	0.0	7.46283	7.27489	-8.74012	16.34326	22.09548	1.30636	0.76549	155.58506	161.07933	58.0967	0.33902	 	3.122700066E7	 	1.84144E-7	 	4925.67228	39.18123	 
900.0	1.0	0.0	7.46564	7.27216	-8.77445	16.28715	22.02056	1.30524	0.76614	156.02707	161.30025	58.27203	0.33878	 	3.561593762E7	 	1.60767E-7	 	4730.50813	39.03283	 
895.0	1.0	0.0	7.46844	7.26943	-8.80859	16.23123	21.94637	1.30407	0.76683	156.46673	161.52022	58.44645	0.33855	 	4.066966965E7	 	1.40189E-7	 	4536.06159	38.88931	 
890.0	1.0	0.0	7.47122	7.26673	-8.84255	16.17547	21.87289	1.30285	0.76755	156.90414	161.73929	58.62	0.33832	 	4.649599835E7	 	1.22098E-7	 	4342.30937	38.75044	 
885.0	1.0	0.0	7.47399	7.26403	-8.87633	16.11986	21.80009	1.30159	0.76829	157.3394	161.95749	58.79272	0.33809	 	5.322134107E7	 	1.0621E-7	 	4149.22922	38.61603	 
880.0	1.0	0.0	7.47675	7.26136	-8.90993	16.06438	21.72795	1.30027	0.76907	157.7726	162.17486	58.96465	0.33786	 	6.099413926E7	 	9.22751E-8	 	3956.79955	38.48594	 
875.0	1.0	0.0	7.47949	7.25869	-8.94336	16.00901	21.65645	1.29891	0.76988	158.20383	162.39145	59.13582	0.33763	 	6.998891993E7	 	8.00675E-8	 	3764.99996	38.35992	 
870.0	1.0	0.0	7.48223	7.25604	-8.97663	15.95374	21.58558	1.29749	0.77072	158.63318	162.60729	59.30626	0.33741	 	8.041115802E7	 	6.93863E-8	 	3573.81168	38.23765	 
865.0	1.0	0.0	7.48495	7.2534	-9.00973	15.89855	21.51531	1.29604	0.77158	159.06071	162.82241	59.47601	0.33718	 	9.250307663E7	 	6.00524E-8	 	3383.21623	38.11909	 
860.0	1.0	0.0	7.48766	7.25077	-9.04268	15.84342	21.44562	1.29454	0.77248	159.48651	163.03685	59.64509	0.33696	 	1.065506265E8	 	5.19061E-8	 	3193.19593	38.00406	 
855.0	1.0	0.0	7.49036	7.24816	-9.07547	15.78835	21.37651	1.29299	0.7734	159.91065	163.25063	59.81353	0.33674	 	1.228918319E8	 	4.48054E-8	 	3003.73388	37.89241	 
850.0	1.0	0.0	7.49305	7.24556	-9.1081	15.73332	21.30795	1.2914	0.77435	160.33319	163.46379	59.98136	0.33653	 	1.419268154E8	 	3.86242E-8	 	2814.81393	37.78399	 
845.0	1.0	0.0	7.49519	7.24349	-9.13401	15.70884	21.24675	1.28936	0.77558	160.69387	163.68171	60.12302	0.33638	 	1.61004258E8	 	3.38961E-8	 	2654.60099	32.04259	 
840.0	1.0	0.0	7.49732	7.24143	-9.15986	15.68437	21.18553	1.2873	0.77682	161.05393	163.89869	60.26447	0.33623	 	1.828530963E8	 	2.97124E-8	 	2491.33024	32.65415	 
835.0	1.0	0.0	7.49945	7.23938	-9.18565	15.65989	21.12431	1.28523	0.77807	161.41338	164.11472	60.40573	0.33608	 	2.079055052E8	 	2.60147E-8	 	2328.27273	32.6115	 
830.0	1.0	0.0	7.50157	7.23733	-9.21137	15.63541	21.06309	1.28315	0.77933	161.77222	164.32979	60.54679	0.33593	 	2.3666561E8	 	2.27502E-8	 	2165.42767	32.56901	 
825.0	1.0	0.0	7.50369	7.23528	-9.23703	15.61093	21.00185	1.28106	0.7806	162.13045	164.54393	60.68765	0.33578	 	2.697222166E8	 	1.98715E-8	 	2002.79426	32.52668	 
820.0	1.0	0.0	7.50581	7.23324	-9.26262	15.58645	20.94061	1.27896	0.78189	162.48807	164.75713	60.82831	0.33563	 	3.077639278E8	 	1.7336E-8	 	1840.37164	32.48453	 
815.0	1.0	0.0	7.50792	7.2312	-9.28815	15.56196	20.87937	1.27684	0.78318	162.84508	164.96939	60.96877	0.33548	 	3.515971149E8	 	1.51053E-8	 	1678.15894	32.44254	 
810.0	1.0	0.0	7.51003	7.22917	-9.31362	15.53747	20.81811	1.27472	0.78449	163.20148	165.18071	61.10903	0.33533	 	4.021673162E8	 	1.31452E-8	 	1516.15526	32.40074	 
805.0	1.0	0.0	7.51213	7.22715	-9.33902	15.51298	20.75685	1.27258	0.78581	163.55727	165.39111	61.24908	0.33518	 	4.605847502E8	 	1.1425E-8	 	1354.35966	32.35912	 
800.0	1.0	0.0	7.51423	7.22513	-9.36436	15.48849	20.69558	1.27042	0.78714	163.91245	165.60058	61.38894	0.33503	 	5.281547785E8	 	9.91713E-9	 	1192.77116	32.3177	 
795.0	1.0	0.0	7.51633	7.22311	-9.38964	15.46399	20.6343	1.26826	0.78848	164.26701	165.80912	61.5286	0.33488	 	6.064143331E8	 	8.59705E-9	 	1031.38876	32.27648	 
790.0	1.0	0.0	7.51842	7.22111	-9.41485	15.43949	20.57301	1.26608	0.78984	164.62097	166.01674	61.66806	0.33473	 	6.971755373E8	 	7.44285E-9	 	870.21139	32.23547	 
785.0	1.0	0.0	7.52051	7.2191	-9.44	15.41499	20.51171	1.2639	0.7912	164.97433	166.22344	61.80731	0.33459	 	8.025780205E8	 	6.43497E-9	 	709.23796	32.19469	 
780.0	1.0	0.0	7.52259	7.2171	-9.46508	15.39048	20.45041	1.26169	0.79258	165.32707	166.42923	61.94637	0.33444	 	9.25151754E8	 	5.55602E-9	 	548.46733	32.15413	 
775.0	1.0	0.0	7.52467	7.21511	-9.49011	15.36598	20.38909	1.25948	0.79398	165.6792	166.6341	62.08523	0.33429	 	1.067892638E9	 	4.79052E-9	 	387.89828	32.11381	 
770.0	1.0	0.0	7.52675	7.21312	-9.51506	15.34147	20.32777	1.25725	0.79538	166.03073	166.83806	62.22389	0.33414	 	1.234353573E9	 	4.12471E-9	 	227.52958	32.07374	 
765.0	1.0	0.0	7.52882	7.21113	-9.53995	15.31695	20.26644	1.25501	0.7968	166.38165	167.04112	62.36234	0.33399	 	1.428754348E9	 	3.54641E-9	 	67.35993	32.03393	 
760.0	1.0	0.0	7.53089	7.20915	-9.56478	15.29244	20.2051	1.25276	0.79824	166.73196	167.24327	62.5006	0.33384	 	1.656114468E9	 	3.04481E-9	 	-92.61205	31.99439	 
755.0	1.0	0.0	7.53295	7.20718	-9.58955	15.26792	20.14375	1.2505	0.79968	167.08166	167.44453	62.63866	0.33369	 	1.922413935E9	 	2.61034E-9	 	-252.38777	31.95515	 
750.0	1.0	0.0	7.53501	7.20521	-9.61425	15.2434	20.08239	1.24822	0.80114	167.43076	167.64488	62.77651	0.33355	 	2.234788224E9	 	2.23455E-9	 	-411.96875	31.9162	 
745.0	1.0	0.0	7.53706	7.20325	-9.63889	15.21888	20.02102	1.24592	0.80262	167.77925	167.84434	62.91417	0.3334	 	2.601765081E9	 	1.90999E-9	 	-571.35653	31.87756	 
740.0	1.0	0.0	7.53911	7.20129	-9.66346	15.19436	19.95965	1.24362	0.80411	168.12713	168.0429	63.05163	0.33325	 	3.033552627E9	 	1.63008E-9	 	-730.55277	31.83925	 
735.0	1.0	0.0	7.54116	7.19933	-9.68797	15.16983	19.89826	1.2413	0.80561	168.47441	168.24058	63.18888	0.3331	 	3.542390467E9	 	1.38904E-9	 	-889.5592	31.80129	 
730.0	1.0	0.0	7.5432	7.19738	-9.71242	15.1453	19.83686	1.23897	0.80713	168.82108	168.43737	63.32594	0.33295	 	4.142978328E9	 	1.18179E-9	 	-1048.37763	31.76369	 
725.0	1.0	0.0	7.54524	7.19544	-9.7368	15.12077	19.77545	1.23662	0.80866	169.16714	168.63327	63.46279	0.33281	 	4.85300027E9	 	1.00386E-9	 	-1207.00997	31.72647	 
720.0	1.0	0.0	7.54727	7.1935	-9.76112	15.09623	19.71403	1.23426	0.8102	169.5126	168.8283	63.59945	0.33266	 	5.693766911E9	 	8.51338E-10	 	-1365.45822	31.68965	 
715.0	1.0	0.0	7.5493	7.19157	-9.78537	15.07169	19.6526	1.23188	0.81177	169.85746	169.02244	63.7359	0.33251	 	6.691003668E9	 	7.20806E-10	 	-1523.72452	31.65326	 
710.0	1.0	0.0	7.55133	7.18964	-9.80956	15.04715	19.59116	1.22949	0.81334	170.2017	169.21571	63.87216	0.33236	 	7.875819972E9	 	6.09271E-10	 	-1681.81108	31.61731	 
705.0	1.0	0.0	7.55335	7.18772	-9.83369	15.02261	19.52971	1.22709	0.81494	170.54535	169.40811	64.00822	0.33221	 	9.285903245E9	 	5.14124E-10	 	-1839.72026	31.58184	 
700.0	1.0	0.0	7.55536	7.1858	-9.85775	14.99807	19.46824	1.22467	0.81655	170.88838	169.59964	64.14407	0.33207	 	1.0967E10	 	4.33091E-10	 	-1997.45452	31.54685	 
695.0	1.0	0.0	7.55738	7.18389	-9.88175	14.97352	19.40677	1.22224	0.81817	171.23082	169.7903	64.27973	0.33192	 	1.2974699999999998E10	 	3.64193E-10	 	-2155.0165	31.5124	 
690.0	1.0	0.0	7.55938	7.18198	-9.90568	14.94897	19.34528	1.21979	0.81981	171.57264	169.98009	64.41518	0.33177	 	1.5376799999999998E10	 	3.05714E-10	 	-2312.40896	31.47849	 
685.0	1.0	0.0	7.56139	7.18008	-9.92955	14.92442	19.28378	1.21733	0.82147	171.91387	170.16902	64.55043	0.33162	 	1.82559E10	 	2.56164E-10	 	-2469.63485	31.44518	 
680.0	1.0	0.0	7.56339	7.17818	-9.95336	14.89986	19.22226	1.21485	0.82315	172.25449	170.3571	64.68549	0.33148	 	2.17131E10	 	2.14252E-10	 	-2626.69724	31.41248	 
675.0	1.0	0.0	7.56538	7.17628	-9.9771	14.8753	19.16074	1.21236	0.82484	172.5945	170.54431	64.82034	0.33133	 	2.5872399999999996E10	 	1.78866E-10	 	-2783.59941	31.38043	 
670.0	1.0	0.0	7.56737	7.1744	-10.00078	14.85074	19.0992	1.20985	0.82655	172.93391	170.73068	64.955	0.33118	 	3.0885699999999996E10	 	1.49042E-10	 	-2940.34484	31.34909	 
665.0	1.0	0.0	7.56936	7.17251	-10.02439	14.82618	19.03765	1.20733	0.82828	173.27272	170.91619	65.08945	0.33104	 	3.69402E10	 	1.23954E-10	 	-3096.93723	31.31848	 
660.0	1.0	0.0	7.57134	7.17064	-10.04794	14.80162	18.97609	1.20479	0.83002	173.61093	171.10085	65.2237	0.33089	 	4.42663E10	 	1.02888E-10	 	-3253.37022	31.2866	 
655.0	1.0	0.0	7.57332	7.16877	-10.07143	14.77705	18.91451	1.20223	0.83178	173.94853	171.28466	65.35776	0.33074	 	5.314889999999999E10	 	8.52336E-11	 	-3409.58679	31.24331	 
650.0	1.0	0.0	7.57529	7.1669	-10.09485	14.75248	18.85292	1.19966	0.83357	174.28553	171.46764	65.49161	0.33059	 	6.394029999999999E10	 	7.04667E-11	 	-3565.51132	31.18491	 
645.0	1.0	0.0	7.57726	7.16504	-10.11821	14.7279	18.79131	1.19708	0.83537	174.62192	171.64977	65.62526	0.33045	 	7.7078E10	 	5.81393E-11	 	-3721.14503	31.12674	 
640.0	1.0	0.0	7.57922	7.16318	-10.1415	14.70333	18.72969	1.19448	0.83719	174.95771	171.83106	65.75871	0.3303	 	9.31054E10	 	4.7869E-11	 	-3876.48916	31.06883	 
635.0	1.0	0.0	7.58118	7.16133	-10.16473	14.67875	18.66806	1.19186	0.83903	175.2929	172.01152	65.89196	0.33015	 	1.127E11	 	3.93298E-11	 	-4031.54492	31.01115	 
630.0	1.0	0.0	7.58314	7.15948	-10.1879	14.65417	18.60641	1.18922	0.84088	175.62749	172.19114	66.02501	0.33001	 	1.36706E11	 	3.22447E-11	 	-4186.31354	30.95372	 
625.0	1.0	0.0	7.58509	7.15764	-10.211	14.62959	18.54474	1.18657	0.84276	175.96148	172.36994	66.15786	0.32986	 	1.66184E11	 	2.63783E-11	 	-4340.79669	30.89663	 
620.0	1.0	0.0	7.58703	7.1558	-10.23404	14.605	18.48306	1.1839	0.84466	176.29486	172.5479	66.29051	0.32971	 	2.02459E11	 	2.15315E-11	 	-4494.99669	30.84	 
615.0	1.0	0.0	7.58898	7.15397	-10.25701	14.58041	18.42137	1.18122	0.84658	176.62764	172.72504	66.42296	0.32957	 	2.47202E11	 	1.75356E-11	 	-4648.91417	30.7835	 
610.0	1.0	0.0	7.59091	7.15215	-10.27992	14.55582	18.35965	1.17852	0.84852	176.95982	172.90136	66.55521	0.32942	 	3.02516E11	 	1.42486E-11	 	-4802.55034	30.72724	 
605.0	1.0	0.0	7.59285	7.15032	-10.30276	14.53123	18.29792	1.1758	0.85049	177.2914	173.07685	66.68726	0.32927	 	3.7106E11	 	1.15508E-11	 	-4955.90639	30.67121	 
600.0	1.0	0.0	7.59478	7.14851	-10.32555	14.50664	18.23618	1.17306	0.85247	177.62238	173.25153	66.81911	0.32913	 	4.562E11	 	9.34158E-12	 	-5108.98352	30.61543	 
595.0	1.0	0.0	7.5967	7.1467	-10.34826	14.48204	18.17442	1.17031	0.85448	177.95275	173.42539	66.95076	0.32898	 	5.62211E11	 	7.53671E-12	 	-5261.78292	30.55988	 
590.0	1.0	0.0	7.59862	7.14489	-10.37091	14.45744	18.11264	1.16754	0.8565	178.28253	173.59844	67.0822	0.32884	 	6.94537E11	 	6.06566E-12	 	-5414.30576	30.50457	 
585.0	1.0	0.0	7.60054	7.14309	-10.3935	14.43283	18.05084	1.16475	0.85855	178.6117	173.77068	67.21345	0.32869	 	8.60123E11	 	4.86956E-12	 	-5566.55326	30.4495	 
580.0	1.0	0.0	7.60245	7.1413	-10.41603	14.40823	17.98902	1.16194	0.86063	178.94028	173.9421	67.34449	0.32854	 	1.06786E12	 	3.8994E-12	 	-5718.52657	30.39466	 
575.0	1.0	0.0	7.60435	7.1395	-10.43849	14.38362	17.92719	1.15912	0.86273	179.26825	174.11273	67.47534	0.3284	 	1.32916E12	 	3.11446E-12	 	-5870.22689	30.34006	 
570.0	1.0	0.0	7.60626	7.13772	-10.46088	14.35901	17.86533	1.15627	0.86485	179.59562	174.28254	67.60598	0.32825	 	1.65869E12	 	2.481E-12	 	-6021.6554	30.2857	 
565.0	1.0	0.0	7.60815	7.13594	-10.48321	14.3344	17.80346	1.15341	0.86699	179.92239	174.45156	67.73642	0.32811	 	2.0754E12	 	1.97109E-12	 	-6172.81326	30.23157	 
560.0	1.0	0.0	7.61005	7.13416	-10.50548	14.30978	17.74157	1.15053	0.86917	180.24856	174.61978	67.86667	0.32796	 	2.6038E12	 	1.56172E-12	 	-6323.70165	30.17768	 
555.0	1.0	0.0	7.61193	7.13239	-10.52768	14.28516	17.67965	1.14763	0.87136	180.57413	174.7872	67.99671	0.32782	 	3.27568E12	 	1.23394E-12	 	-6474.32173	30.12402	 
550.0	1.0	0.0	7.61382	7.13063	-10.54982	14.26054	17.61772	1.14471	0.87358	180.89911	174.95383	68.12655	0.32767	 	4.13245E12	 	9.72206E-13	 	-6624.67469	30.07059	 
545.0	1.0	0.0	7.6157	7.12887	-10.5719	14.23592	17.55577	1.14177	0.87583	181.22348	175.11966	68.25619	0.32752	 	5.22813E12	 	7.63789E-13	 	-6774.76167	30.0174	 
540.0	1.0	0.0	7.61757	7.12712	-10.59391	14.21129	17.49379	1.13881	0.87811	181.54725	175.28471	68.38563	0.32738	 	6.63348E12	 	5.98296E-13	 	-6924.58384	29.96443	 
535.0	1.0	0.0	7.61944	7.12537	-10.61585	14.18666	17.43179	1.13584	0.88041	181.87042	175.44897	68.51486	0.32723	 	8.44143E12	 	4.67264E-13	 	-7074.14235	29.9117	 
530.0	1.0	0.0	7.62131	7.12362	-10.63773	14.16203	17.36977	1.13284	0.88274	182.19299	175.61244	68.6439	0.32709	 	1.07744E13	 	3.63822E-13	 	-7223.43835	29.8592	 
525.0	1.0	0.0	7.62317	7.12188	-10.65955	14.1374	17.30773	1.12982	0.88509	182.51497	175.77513	68.77274	0.32694	 	1.37943E13	 	2.82405E-13	 	-7372.47299	29.80693	 
520.0	1.0	0.0	7.62503	7.12015	-10.6813	14.11276	17.24567	1.12679	0.88748	182.83634	175.93704	68.90137	0.3268	 	1.77157E13	 	2.18516E-13	 	-7521.24742	29.75489	 
515.0	1.0	0.0	7.62688	7.11842	-10.70299	14.08812	17.18358	1.12373	0.88989	183.15712	176.09818	69.0298	0.32665	 	2.28242E13	 	1.68539E-13	 	-7669.76284	29.70308	 
510.0	1.0	0.0	7.62873	7.1167	-10.72462	14.06348	17.12147	1.12065	0.89234	183.4773	176.25853	69.15804	0.32651	 	2.9501E13	 	1.29567E-13	 	-7818.02056	29.65154	 
505.0	1.0	0.0	7.63057	7.11498	-10.74618	14.03884	17.05933	1.11755	0.89481	183.79687	176.41812	69.28607	0.32636	 	3.82571E13	 	9.92746E-14	 	-7966.02163	29.60022	 
500.0	1.0	0.0	7.63241	7.11326	-10.76767	14.01419	16.99717	1.11443	0.89732	184.11585	176.57693	69.4139	0.32622	 	4.9779E13	 	7.58061E-14	 	-8113.76719	29.54911	 
495.0	1.0	0.0	7.63424	7.11155	-10.7891	13.98955	16.93498	1.11129	0.89985	184.43424	176.73497	69.54153	0.32607	 	6.49933E13	 	5.76851E-14	 	-8261.25833	29.49823	 
490.0	1.0	0.0	7.63607	7.10985	-10.81047	13.96489	16.87276	1.10813	0.90242	184.75202	176.89225	69.66895	0.32593	 	8.51548E13	 	4.37409E-14	 	-8408.49615	29.44756	 
485.0	1.0	0.0	7.63789	7.10815	-10.83177	13.94024	16.81052	1.10494	0.90502	185.0692	177.04876	69.79618	0.32578	 	1.11969E14	 	3.30479E-14	 	-8555.48176	29.39712	 
480.0	1.0	0.0	7.63971	7.10646	-10.85301	13.91558	16.74825	1.10174	0.90766	185.38579	177.20451	69.9232	0.32564	 	1.47762E14	 	2.48773E-14	 	-8702.21625	29.3469	 
475.0	1.0	0.0	7.64153	7.10477	-10.87418	13.89093	16.68595	1.09851	0.91032	185.70178	177.35949	70.05003	0.32549	 	1.95723E14	 	1.86567E-14	 	-8848.70072	29.29689	 
470.0	1.0	0.0	7.64334	7.10309	-10.89529	13.86626	16.62363	1.09526	0.91303	186.01717	177.51372	70.17665	0.32535	 	2.6023199999999997E14	 	1.39381E-14	 	-8994.93624	29.2471	 
465.0	1.0	0.0	7.64514	7.10141	-10.91634	13.8416	16.56127	1.09199	0.91576	186.33196	177.6672	70.30307	0.32521	 	3.47341E14	 	1.03723E-14	 	-9140.92389	29.19753	 
460.0	1.0	0.0	7.64694	7.09974	-10.93732	13.81693	16.49889	1.08869	0.91854	186.64616	177.81992	70.42929	0.32506	 	4.65438E14	 	7.68807E-15	 	-9286.66476	29.14817	 
455.0	1.0	0.0	7.64874	7.09807	-10.95823	13.79227	16.43648	1.08537	0.92134	186.95976	177.97189	70.5553	0.32492	 	6.26201E14	 	5.67536E-15	 	-9432.1599	29.09903	 
450.0	1.0	0.0	7.65053	7.09641	-10.97908	13.76759	16.37403	1.08203	0.92419	187.27276	178.12311	70.68112	0.32477	 	8.45955E14	 	4.17223E-15	 	-9577.41038	29.0501	 
445.0	1.0	0.0	7.65232	7.09475	-10.99987	13.74292	16.31155	1.07866	0.92707	187.58516	178.27358	70.80673	0.32463	 	1.14762E15	 	3.05423E-15	 	-9722.41726	29.00138	 
440.0	1.0	0.0	7.6541	7.0931	-11.02059	13.71824	16.24904	1.07527	0.93	187.89696	178.42331	70.93214	0.32448	 	1.56354E15	 	2.22617E-15	 	-9867.18157	28.95286	 
435.0	1.0	0.0	7.65588	7.09145	-11.04125	13.69356	16.1865	1.07186	0.93296	188.20817	178.57229	71.05735	0.32434	 	2.13952E15	 	1.61546E-15	 	-10011.70437	28.90456	 
430.0	1.0	0.0	7.65765	7.08981	-11.06184	13.66888	16.12392	1.06842	0.93596	188.51878	178.72053	71.18236	0.3242	 	2.94076E15	 	1.16701E-15	 	-10155.98669	28.85646	 
425.0	1.0	0.0	7.65942	7.08818	-11.08237	13.6442	16.0613	1.06496	0.939	188.8288	178.86804	71.30717	0.32405	 	4.06052E15	 	8.39178E-16	 	-10300.02941	28.80854	 
420.0	1.0	0.0	7.66118	7.08655	-11.10284	13.61951	15.99866	1.06148	0.94209	189.13822	179.0148	71.43177	0.32391	 	5.63281E15	 	6.00605E-16	 	-10443.83379	28.76087	 
415.0	1.0	0.0	7.66294	7.08492	-11.12324	13.59482	15.93597	1.05796	0.94521	189.44704	179.16083	71.55617	0.32376	 	7.85117E15	 	4.27795E-16	 	-10587.40023	28.71329	 
410.0	1.0	0.0	7.6647	7.0833	-11.14357	13.57013	15.87325	1.05443	0.94838	189.75526	179.30613	71.68037	0.32362	 	1.09965E16	 	3.03213E-16	 	-10730.7289	28.66573	 
405.0	1.0	0.0	7.66644	7.08168	-11.16384	13.54544	15.81049	1.05086	0.9516	190.06289	179.4507	71.80437	0.32348	 	1.54786E16	 	2.13836E-16	 	-10873.81994	28.61821	 
400.0	1.0	0.0	7.66819	7.08007	-11.18405	13.52074	15.74769	1.04728	0.95486	190.36992	179.59454	71.92817	0.32333	 	2.18986E16	 	1.50031E-16	 	-11016.6735	28.57071	 
395.0	1.0	0.0	7.66993	7.07847	-11.20419	13.49604	15.68485	1.04366	0.95816	190.67636	179.73765	72.05176	0.32319	 	3.11426E16	 	1.04714E-16	 	-11159.28974	28.52325	 
390.0	1.0	0.0	7.67166	7.07687	-11.22427	13.47134	15.62196	1.04002	0.96152	190.9822	179.88004	72.17515	0.32305	 	4.45246E16	 	7.2694E-17	 	-11301.66875	28.4758	 
385.0	1.0	0.0	7.67339	7.07527	-11.24428	13.44664	15.55904	1.03635	0.96492	191.28744	180.02171	72.29834	0.3229	 	6.40035E16	 	5.01889E-17	 	-11443.81067	28.42839	 
380.0	1.0	0.0	7.67512	7.07368	-11.26423	13.42193	15.49607	1.03266	0.96837	191.59209	180.16265	72.42133	0.32276	 	9.25169E16	 	3.44571E-17	 	-11585.71562	28.38099	 
375.0	1.0	0.0	7.67684	7.07209	-11.28411	13.39722	15.43306	1.02894	0.97188	191.89614	180.30288	72.54412	0.32262	 	1.34495E17	 	2.3521E-17	 	-11727.38368	28.33361	 
370.0	1.0	0.0	7.67855	7.07052	-11.30393	13.37251	15.37001	1.02519	0.97543	192.1996	180.44239	72.6667	0.32247	 	1.96661E17	 	1.59617E-17	 	-11868.81494	28.28625	 
365.0	1.0	0.0	7.68026	7.06894	-11.32368	13.34779	15.30691	1.02141	0.97904	192.50246	180.58118	72.78908	0.32233	 	2.89279E17	 	1.0767E-17	 	-12010.00949	28.23891	 
360.0	1.0	0.0	7.68197	7.06737	-11.34337	13.32308	15.24376	1.01761	0.9827	192.80472	180.71927	72.91126	0.32219	 	4.28116E17	 	7.21825E-18	 	-12150.96739	28.19158	 
355.0	1.0	0.0	7.68367	7.06581	-11.363	13.29836	15.18056	1.01378	0.98641	193.10639	180.85664	73.03323	0.32204	 	6.37554E17	 	4.80876E-18	 	-12291.68868	28.14426	 
350.0	1.0	0.0	7.68537	7.06425	-11.38256	13.27363	15.11731	1.00991	0.99018	193.40746	180.9933	73.155	0.3219	 	9.55537E17	 	3.18296E-18	 	-12432.17342	28.09695	 
345.0	1.0	0.0	7.68706	7.06269	-11.40205	13.24891	15.05401	1.00602	0.99401	193.70794	181.12926	73.27657	0.32176	 	1.44152E18	 	2.09295E-18	 	-12572.42164	28.04964	 
340.0	1.0	0.0	7.68874	7.06114	-11.42148	13.22418	14.99066	1.0021	0.9979	194.00782	181.26451	73.39794	0.32162	 	2.18931E18	 	1.36693E-18	 	-12712.43334	28.00234	 
335.0	1.0	0.0	7.69042	7.0596	-11.44085	13.19945	14.92725	0.99815	1.00185	194.30711	181.39905	73.5191	0.32147	 	3.34794E18	 	8.86585E-19	 	-12852.20854	27.95504	 
330.0	1.0	0.0	7.6921	7.05806	-11.46015	13.17472	14.86379	0.99417	1.00586	194.6058	181.5329	73.64006	0.32133	 	5.15591E18	 	5.70961E-19	 	-12991.74722	27.90774	 
325.0	1.0	0.0	7.69377	7.05653	-11.47938	13.14999	14.80027	0.99016	1.00994	194.9039	181.66605	73.76082	0.32119	 	7.99778E18	 	3.65029E-19	 	-13131.04935	27.86042	 
320.0	1.0	0.0	7.69544	7.055	-11.49856	13.12525	14.7367	0.98612	1.01407	195.2014	181.7985	73.88138	0.32105	 	1.24982E19	 	2.31635E-19	 	-13270.11489	27.81311	 
315.0	1.0	0.0	7.6971	7.05348	-11.51766	13.10051	14.67306	0.98205	1.01828	195.49831	181.93025	74.00173	0.3209	 	1.96799E19	 	1.45865E-19	 	-13408.94377	27.76578	 
310.0	1.0	0.0	7.69876	7.05196	-11.53671	13.07577	14.60936	0.97795	1.02255	195.79462	182.06132	74.12188	0.32076	 	3.12304E19	 	9.11358E-20	 	-13547.53593	27.71843	 
305.0	1.0	0.0	7.70041	7.05045	-11.55568	13.05102	14.5456	0.97381	1.02689	196.09033	182.19169	74.24183	0.32062	 	4.99577E19	 	5.64839E-20	 	-13685.89127	27.67107	 
300.0	1.0	0.0	7.70206	7.04894	-11.5746	13.02628	14.48178	0.96964	1.03131	196.38546	182.32137	74.36157	0.32048	 	8.05726E19	 	3.4719E-20	 	-13824.00968	27.62368	 
295.0	1.0	0.0	7.7037	7.04744	-11.59344	13.00153	14.41789	0.96544	1.03579	196.67999	182.45036	74.48111	0.32033	 	1.3104599999999998E20	 	2.11604E-20	 	-13961.89102	27.57627	 
290.0	1.0	0.0	7.70534	7.04594	-11.61223	12.97677	14.35393	0.96121	1.04035	196.97392	182.57866	74.60045	0.32019	 	2.1498799999999997E20	 	1.27849E-20	 	-14099.53515	27.52883	 
285.0	1.0	0.0	7.70697	7.04445	-11.63094	12.95202	14.28989	0.95695	1.04499	197.26726	182.70628	74.71958	0.32005	 	3.5584099999999997E20	 	7.65565E-21	 	-14236.94189	27.48135	 
280.0	1.0	0.0	7.70859	7.04296	-11.6496	12.92726	14.22579	0.95265	1.04971	197.56	182.83322	74.83851	0.31991	 	5.94364E20	 	4.54231E-21	 	-14374.11104	27.43383	 
275.0	1.0	0.0	7.71022	7.04148	-11.66819	12.9025	14.16161	0.94832	1.0545	197.85215	182.95948	74.95724	0.31977	 	1.0021100000000001E21	 	2.66976E-21	 	-14511.04239	27.38627	 
270.0	1.0	0.0	7.71183	7.04	-11.68671	12.87774	14.09736	0.94395	1.05938	198.14371	183.08506	75.07576	0.31963	 	1.7059000000000001E21	 	1.55401E-21	 	-14647.7357	27.33866	 
265.0	1.0	0.0	7.71345	7.03853	-11.70517	12.85297	14.03303	0.93955	1.06434	198.43467	183.20996	75.19408	0.31948	 	2.93281E21	 	8.95582E-22	 	-14784.1907	27.291	 
260.0	1.0	0.0	7.71505	7.03706	-11.72356	12.82821	13.96861	0.93511	1.06939	198.72504	183.33419	75.31219	0.31934	 	5.09366E21	 	5.10865E-22	 	-14920.4071	27.24328	 
255.0	1.0	0.0	7.71666	7.0356	-11.74189	12.80344	13.90412	0.93064	1.07453	199.01481	183.45774	75.43011	0.3192	 	8.93954E21	 	2.88356E-22	 	-15056.38457	27.19549	 
250.0	1.0	0.0	7.71825	7.03415	-11.76016	12.77866	13.83953	0.92613	1.07976	199.30399	183.58063	75.54781	0.31906	 	1.5858799999999998E22	 	1.61006E-22	 	-15192.12277	27.14764	 
245.0	1.0	0.0	7.71985	7.0327	-11.77836	12.75389	13.77486	0.92158	1.08509	199.59258	183.70284	75.66532	0.31892	 	2.8446499999999997E22	 	8.89023E-23	 	-15327.62132	27.09971	 
240.0	1.0	0.0	7.72143	7.03125	-11.79649	12.72911	13.7101	0.917	1.09051	199.88057	183.82438	75.78262	0.31878	 	5.161E22	 	4.85286E-23	 	-15462.8798	27.0517	 
235.0	1.0	0.0	7.72301	7.02981	-11.81456	12.70433	13.64524	0.91238	1.09603	200.16797	183.94526	75.89972	0.31863	 	9.4739E22	 	2.61788E-23	 	-15597.89778	27.0036	 
230.0	1.0	0.0	7.72459	7.02837	-11.83257	12.67955	13.58029	0.90773	1.10165	200.45477	184.06547	76.01661	0.31849	 	1.76022E23	 	1.39514E-23	 	-15732.67477	26.9554	 
225.0	1.0	0.0	7.72616	7.02694	-11.85051	12.65476	13.51523	0.90303	1.10738	200.74098	184.18502	76.1333	0.31835	 	3.3113599999999997E23	 	7.34244E-24	 	-15867.21025	26.9071	 
220.0	1.0	0.0	7.72773	7.02552	-11.86838	12.62998	13.45007	0.8983	1.11322	201.0266	184.30391	76.24978	0.31821	 	6.309729999999999E23	 	3.81465E-24	 	-16001.50367	26.85868	 
215.0	1.0	0.0	7.72929	7.0241	-11.88619	12.60519	13.38481	0.89353	1.11916	201.31162	184.42214	76.36606	0.31807	 	1.21829E24	 	1.95564E-24	 	-16135.55444	26.81015	 
210.0	1.0	0.0	7.73085	7.02268	-11.90394	12.58039	13.31943	0.88871	1.12522	201.59605	184.53972	76.48214	0.31793	 	2.38454E24	 	9.88926E-25	 	-16269.36192	26.7615	 
205.0	1.0	0.0	7.7324	7.02128	-11.92162	12.5556	13.25395	0.88386	1.1314	201.87989	184.65663	76.59801	0.31779	 	4.73324E24	 	4.93051E-25	 	-16402.92542	26.7127	 
200.0	1.0	0.0	7.73395	7.01987	-11.93923	12.5308	13.18834	0.87897	1.13769	202.16313	184.77289	76.71368	0.31765	 	9.53248E24	 	2.42259E-25	 	-16536.24422	26.66376	 
195.0	1.0	0.0	7.73549	7.01847	-11.95678	12.506	13.12261	0.87404	1.14411	202.44578	184.8885	76.82914	0.31751	 	1.94871E25	 	1.17253E-25	 	-16669.31754	26.61466	 
190.0	1.0	0.0	7.73703	7.01708	-11.97427	12.4812	13.05676	0.86907	1.15066	202.72784	185.00346	76.9444	0.31737	 	4.0457E25	 	5.58746E-26	 	-16802.14455	26.5654	 
185.0	1.0	0.0	7.73856	7.01569	-11.99169	12.45639	12.99078	0.86405	1.15734	203.0093	185.11777	77.05946	0.31723	 	8.53424E25	 	2.62017E-26	 	-16934.72435	26.51596	 
180.0	1.0	0.0	7.74008	7.01431	-12.00905	12.43158	12.92466	0.85899	1.16416	203.29017	185.23143	77.17431	0.31708	 	1.83016E26	 	1.20848E-26	 	-17067.05602	26.46633	 
175.0	1.0	0.0	7.74161	7.01293	-12.02634	12.40677	12.85841	0.85389	1.17111	203.57045	185.34445	77.28895	0.31694	 	3.9921600000000006E26	 	5.47901E-27	 	-17199.13853	26.4165	 
170.0	1.0	0.0	7.74312	7.01155	-12.04356	12.38196	12.79201	0.84875	1.17821	203.85013	185.45682	77.40339	0.3168	 	8.862760000000001E26	 	2.44044E-27	 	-17330.97082	26.36646	 
165.0	1.0	0.0	7.74463	7.01019	-12.06072	12.35714	12.72546	0.84356	1.18545	204.12922	185.56855	77.51763	0.31666	 	2.00371E27	 	1.06727E-27	 	-17462.55176	26.31619	 
160.0	1.0	0.0	7.74614	7.00882	-12.07782	12.33233	12.65876	0.83833	1.19285	204.40772	185.67964	77.63166	0.31652	 	4.6161599999999995E27	 	4.57978E-28	 	-17593.88013	26.26567	 
155.0	1.0	0.0	7.74764	7.00747	-12.09485	12.30751	12.59189	0.83305	1.20041	204.68563	185.79008	77.74549	0.31638	 	1.0844E28	 	1.92704E-28	 	-17724.95464	26.2149	 
150.0	1.0	0.0	7.74914	7.00611	-12.11181	12.28268	12.52487	0.82773	1.20813	204.96294	185.89989	77.85911	0.31624	 	2.59937E28	 	7.94536E-29	 	-17855.77392	26.16386	 
145.0	1.0	0.0	7.75063	7.00477	-12.12871	12.25786	12.45766	0.82236	1.21601	205.23966	186.00907	77.97252	0.3161	 	6.36244E28	 	3.20771E-29	 	-17986.33653	26.11252	 
140.0	1.0	0.0	7.75211	7.00342	-12.14555	12.23303	12.39029	0.81694	1.22407	205.51579	186.11761	78.08573	0.31596	 	1.5914400000000002E29	 	1.26708E-29	 	-18116.6409	26.06087	 
135.0	1.0	0.0	7.75359	7.00209	-12.16232	12.2082	12.32272	0.81148	1.23231	205.79132	186.22552	78.19874	0.31582	 	4.0710800000000005E29	 	4.89324E-30	 	-18246.68541	26.0089	 
130.0	1.0	0.0	7.75507	7.00076	-12.17902	12.18337	12.25496	0.80597	1.24074	206.06626	186.33279	78.31154	0.31568	 	1.06598E30	 	1.84588E-30	 	-18376.46829	25.95658	 
125.0	1.0	0.0	7.75654	6.99943	-12.19566	12.15853	12.187	0.80042	1.24935	206.34061	186.43944	78.42414	0.31554	 	2.85949E30	 	6.79587E-31	 	-18505.98772	25.90389	 
120.0	1.0	0.0	7.758	6.99811	-12.21224	12.13369	12.11883	0.79481	1.25816	206.61437	186.54546	78.53653	0.3154	 	7.86552E30	 	2.43959E-31	 	-18635.2417	25.8508	 
115.0	1.0	0.0	7.75946	6.99679	-12.22875	12.10885	12.05045	0.78916	1.26718	206.88753	186.65085	78.64871	0.31526	 	2.22069E31	 	8.53097E-32	 	-18764.22815	25.79729	 
110.0	1.0	0.0	7.76091	6.99548	-12.24519	12.08401	11.98184	0.78345	1.2764	207.1601	186.75562	78.76069	0.31512	 	6.44188E31	 	2.90297E-32	 	-18892.94485	25.74334	 
105.0	1.0	0.0	7.76236	6.99418	-12.26157	12.05916	11.91299	0.7777	1.28585	207.43208	186.85976	78.87246	0.31498	 	1.9220699999999998E32	 	9.60245E-33	 	-19021.38942	25.68891	 
100.0	1.0	0.0	7.76381	6.99287	-12.27789	12.03431	11.8439	0.77189	1.29552	207.70347	186.96329	78.98403	0.31484	 	5.9053799999999995E32	 	3.08406E-33	 	-19149.55935	25.63399	 
95.0	1.0	0.0	7.76524	6.99158	-12.29413	12.00946	11.77455	0.76603	1.30543	207.97426	187.06619	79.09539	0.31471	 	1.87055E33	 	9.60601E-34	 	-19277.45197	25.57852	 
90.0	1.0	0.0	7.76668	6.99029	-12.31032	11.98461	11.70493	0.76012	1.31558	208.24446	187.16847	79.20655	0.31457	 	6.116140000000001E33	 	2.89798E-34	 	-19405.06444	25.52249	 
85.0	1.0	0.0	7.7681	6.989	-12.32644	11.95975	11.63503	0.75416	1.32598	208.51407	187.27014	79.3175	0.31443	 	2.06705E34	 	8.45668E-35	 	-19532.39372	25.46586	 
80.0	1.0	0.0	7.76953	6.98772	-12.34249	11.93489	11.56484	0.74814	1.33664	208.78309	187.37119	79.42825	0.31429	 	7.23106E34	 	2.38366E-35	 	-19659.4366	25.40858	 
75.0	1.0	0.0	7.77094	6.98645	-12.35848	11.91003	11.49435	0.74208	1.34757	209.05152	187.47163	79.53878	0.31415	 	2.6222499999999996E35	 	6.48007E-36	 	-19786.18965	25.35061	 
70.0	1.0	0.0	7.77236	6.98518	-12.3744	11.88517	11.42354	0.73595	1.35878	209.31935	187.57145	79.64912	0.31401	 	9.872999999999999E35	 	1.69637E-36	 	-19912.64922	25.29191	 
65.0	1.0	0.0	7.77376	6.98392	-12.39026	11.8603	11.35239	0.72977	1.37029	209.58659	187.67066	79.75924	0.31387	 	3.86591E36	 	4.26918E-37	 	-20038.81141	25.23244	 
60.0	1.0	0.0	7.77517	6.98266	-12.40605	11.83543	11.28089	0.72354	1.38209	209.85324	187.76927	79.86917	0.31373	 	1.57706E37	 	1.03105E-37	 	-20164.67205	25.17213	 
55.0	1.0	0.0	7.77656	6.9814	-12.42178	11.81056	11.20902	0.71725	1.39421	210.1193	187.86726	79.97888	0.31359	 	6.7151E37	 	2.3851E-38	 	-20290.22673	25.11094	 
50.0	1.0	0.0	7.77795	6.98016	-12.43744	11.78569	11.13677	0.7109	1.40666	210.38476	187.96465	80.08839	0.31345	 	2.99038E38	 	5.27429E-39	 	-20415.47072	25.0488	 
45.0	1.0	0.0	7.77934	6.97891	-12.45304	11.76081	11.06411	0.7045	1.41945	210.64964	188.06144	80.19769	0.31331	 	1.3957E39	 	1.11257E-39	 	-20540.39895	24.98565	 
40.0	1.0	0.0	7.78072	6.97767	-12.46857	11.73594	10.99103	0.69804	1.43258	210.91392	188.15762	80.30679	0.31318	 	6.842580000000001E39	 	2.23367E-40	 	-20665.00603	24.92142	 
35.0	1.0	0.0	7.78209	6.97644	-12.48403	11.71106	10.9175	0.69152	1.44609	211.17768	188.25326	80.4157	0.31304	 	3.53228E40	 	4.25788E-41	 	-20789.28618	24.85603	 
30.0	1.0	0.0	7.78346	6.97521	-12.49944	11.68617	10.84349	0.68494	1.45997	211.44078	188.34824	80.52438	0.3129	 	1.92488E41	 	7.6867E-42	 	-20913.23322	24.78941	 
25.0	1.0	0.0	7.78483	6.97399	-12.51477	 	10.76898	0.67831	1.47426	211.70328	188.44262	80.63286	0.31276	 	1.11033E42	 	1.3106E-42	 	-21036.84052	 	 
