T (C)	Fraction solid (wt)-TOTAL	Fraction liquid (wt)-LIQUID	Density (g/(cm)^3)-TOTAL	Molar volume (cm^3)-TOTAL	Volume change (%)-  	Average expansion coeff. (10e-6 1/K)-  	Thermal conductivity (W/(m*K))-TOTAL	Electrical resistivity (10e-6 Ohm*m)-TOTAL	Electrical conductivity (10e6 1/(Ohm*m))-TOTAL	Young's modulus (GPa)-TOTAL	Bulk modulus (GPa)-TOTAL	Shear modulus(GPa)-TOTAL	Poisson's ratio-TOTAL	Liquid viscosity (mPa s)-  	Total viscosity (mPa s)-  	Liquid diffusivity (10e-9 (m^2)/s)-  	Total diffusivity (10e-9 (m^2)/s)-  	Surface Tension (mN/m)-  	Enthalpy (J/mole)-TOTAL	Specific heat (J/(mole K))-TOTAL	Latent heat (J/mole)-TOTAL
1400.0	0.0	1.0	7.45274	7.98974	0.0	33.85992	31.537	1.29981	0.76934	0.0	123.03126	0.0	0.5	7.03012	7.03012	1.16161	1.16161	1807.82103	41240.714	 	0.0
1395.0	0.0	1.0	7.45697	7.9852	-0.0567648	33.82609	31.45197	1.29943	0.76957	0.0	123.16786	0.0	0.5	7.10631	7.10631	1.14572	1.14572	1811.42369	41040.705	40.0018	0.0
1390.0	0.0	1.0	7.4612	7.98068	-0.11337	33.79246	31.36694	1.29905	0.76979	0.0	123.30446	0.0	0.5	7.1838	7.1838	1.12996	1.12996	1815.05807	40841.141	39.9128	0.0
1385.0	0.0	1.0	7.46542	7.97617	-0.16981	33.75903	31.2819	1.29866	0.77002	0.0	123.44106	0.0	0.5	7.26261	7.26261	1.11434	1.11434	1818.724	40642.017	39.8248	0.0
1380.0	0.0	1.0	7.46963	7.97167	-0.2261	33.7258	31.19687	1.29828	0.77025	0.0	123.57766	0.0	0.5	7.34276	7.34276	1.09885	1.09885	1822.42122	40443.333	39.7368	0.0
1375.0	0.0	1.0	7.47383	7.96719	-0.28222	33.69278	31.11184	1.29789	0.77048	0.0	123.71425	0.0	0.5	7.4243	7.4243	1.0835	1.0835	1826.14946	40245.084	39.6498	0.0
1370.0	0.0	1.0	7.47803	7.96272	-0.33818	33.65997	31.02681	1.2975	0.77071	0.0	123.85085	0.0	0.5	7.50724	7.50724	1.06828	1.06828	1829.90844	40047.268	39.5632	0.0
1365.0	0.0	1.0	7.48222	7.95826	-0.39399	33.62736	30.94177	1.2971	0.77095	0.0	123.98745	0.0	0.5	7.59163	7.59163	1.05319	1.05319	1833.69787	39849.882	39.4772	0.0
1360.0	0.0	1.0	7.4864	7.95381	-0.44963	33.59497	30.85674	1.29671	0.77118	0.0	124.12405	0.0	0.5	7.67749	7.67749	1.03823	1.03823	1837.51742	39652.924	39.3916	0.0
1355.0	0.0	1.0	7.49058	7.94938	-0.50511	33.56279	30.77171	1.29631	0.77142	0.0	124.26065	0.0	0.5	7.76485	7.76485	1.02341	1.02341	1841.36677	39456.391	39.3066	0.0
1350.0	0.0	1.0	7.49474	7.94496	-0.56043	33.53083	30.68668	1.29591	0.77166	0.0	124.39724	0.0	0.5	7.85376	7.85376	1.00871	1.00871	1845.24557	39260.28	39.2222	0.0
1345.0	0.0	1.0	7.4989	7.94055	-0.6156	33.49908	30.60165	1.29551	0.7719	0.0	124.53384	0.0	0.5	7.94425	7.94425	0.99415	0.99415	1849.15348	39064.589	39.1382	0.0
1344.95	0.0	1.0	7.49895	7.94051	-0.6162	33.49874	30.60072	1.2955	0.7719	0.0	124.53533	0.0	0.5	7.94524	7.94524	0.99399	0.99399	1849.19632	39062.453	39.11372	0.0010
1340.0	0.11918	0.88082	7.54054	7.89665	-1.16504	32.03916	30.92582	1.27797	0.78249	0.0203146	127.71639	0.00683867	0.48527	8.04138	13.09407	0.97911	0.60129	1848.59566	37119.413	392.89925	1749.901
1335.0	0.21999	0.78001	7.5764	7.8593	-1.63255	30.80572	31.1979	1.2629	0.79183	0.24104	130.43467	0.0818407	0.47263	8.14189	55.85906	0.96402	0.14051	1848.01302	35455.02	332.8786	3219.434
1330.0	0.30497	0.69503	7.60716	7.8275	-2.03054	29.76518	31.42332	1.24994	0.80004	0.90687	132.75078	0.31018	0.46184	8.24563	187.35923	0.94894	0.0417624	1847.46058	34032.044	284.5952	4447.962
1325.0	0.37723	0.62277	7.63378	7.80022	-2.37205	28.88169	31.61049	1.23866	0.80732	2.15664	134.74523	0.74236	0.45255	8.35266	445.69359	0.93385	0.0175012	1846.94123	32803.218	245.7652	5482.749
1320.0	0.43915	0.56085	7.65702	7.77647	-2.66927	28.1213	31.76527	1.22877	0.81382	4.01595	136.47793	1.39008	0.44451	8.46302	852.04274	0.91879	0.00912603	1846.46284	31731.864	214.2708	6360.471
1315.0	0.49258	0.50742	7.67742	7.75572	-2.929	27.46542	31.89252	1.22003	0.81966	6.43459	137.99743	2.23813	0.43749	8.57666	1415.01733	0.90377	0.00547793	1846.02145	30789.258	188.5212	7109.851
1310.0	0.53899	0.46101	7.69551	7.73738	-3.15847	26.89388	31.99619	1.21224	0.82492	9.32492	139.34202	3.25742	0.43134	8.69379	2135.89303	0.88879	0.00361767	1845.6228	29952.712	167.3092	7753.571
1305.0	0.57955	0.42045	7.71155	7.72115	-3.36168	26.39583	32.07918	1.20529	0.82968	12.58452	140.54034	4.4128	0.42591	8.81412	3011.9579	0.87389	0.00255733	1845.26616	29204.159	149.7106	8309.697
1300.0	0.61519	0.38481	7.72597	7.70657	-3.54419	25.95554	32.14436	1.19903	0.834	16.11685	141.61753	5.67056	0.4211	8.93801	4039.8706	0.85905	0.00190059	1844.95628	28529.102	135.0114	8792.724
1295.0	0.64666	0.35334	7.73893	7.69348	-3.70805	25.5676	32.1939	1.19338	0.83795	19.8329	142.59246	6.99914	0.41681	9.06528	5216.37597	0.84429	0.00146725	1844.69072	27915.822	122.656	9214.37
1290.0	0.67457	0.32543	7.75068	7.68161	-3.85655	25.22269	32.22973	1.18826	0.84157	23.65821	143.48098	8.37181	0.41297	9.19607	6539.48283	0.82963	0.00116666	1844.47185	27354.782	112.208	9584.168
1285.0	0.69945	0.30055	7.76139	7.67076	-3.99231	24.91346	32.2535	1.18358	0.84489	27.53246	144.29528	9.76667	0.40951	9.33046	8008.96514	0.81507	9.49554E-4	1844.30148	26838.168	103.3228	9909.929
1280.0	0.72171	0.27829	7.77117	7.66084	-4.11653	24.63672	32.26661	1.1793	0.84796	31.40393	145.04613	11.16473	0.40639	9.46844	9625.55812	0.80061	7.87543E-4	1844.17831	26359.54	95.7256	10198.092
1275.0	0.74169	0.25831	7.78019	7.65166	-4.23139	24.38619	32.27039	1.17537	0.8508	35.24054	145.74271	12.55403	0.40356	9.61016	11394.00581	0.78627	6.63168E-4	1844.10476	25913.558	89.1964	10453.993
1270.0	0.75971	0.24029	7.78849	7.64319	-4.33741	24.16061	32.26582	1.17174	0.85343	39.00888	146.39185	13.92204	0.40098	9.75553	13318.21831	0.77205	5.65521E-4	1844.07826	25495.772	83.5572	10682.082
1265.0	0.77601	0.22399	7.79622	7.63529	-4.4363	23.95507	32.2539	1.16838	0.85589	42.69216	147.00025	15.26228	0.39862	9.90492	15406.10466	0.75794	4.87296E-4	1844.10176	25102.449	78.6646	10886.089
1260.0	0.7908	0.2092	7.80339	7.62793	-4.52838	23.76882	32.23545	1.16524	0.85819	46.27367	147.57248	16.56828	0.39645	10.05795	17666.16976	0.74398	4.23574E-4	1844.17182	24730.446	74.4006	11069.154
1255.0	0.80426	0.19574	7.8101	7.62101	-4.61501	23.59788	32.21108	1.16232	0.86035	49.74399	148.1128	17.83627	0.39446	10.21505	20108.53476	0.73015	3.70913E-4	1844.29234	24377.102	70.6688	11233.936
1250.0	0.81655	0.18345	7.8164	7.61449	-4.69666	23.44099	32.18156	1.15958	0.86238	53.10048	148.62564	19.06493	0.39262	10.3763	22747.00161	0.71645	3.26817E-4	1844.46167	24040.155	67.3894	11382.696
1246.54	0.82439	0.17561	7.82052	7.61021	-4.75026	23.34066	32.15818	1.15779	0.86371	55.34115	148.96475	19.88636	0.39143	10.49	24689.10081	0.70708	3.00426E-4	1844.60402	23816.168	 	11476.768
1245.0	0.82845	0.17155	7.82241	7.60821	-4.77523	23.2924	32.14989	1.15691	0.86437	56.52599	149.13739	20.32107	0.39082	10.54411	25676.51508	0.70273	2.88579E-4	1845.27111	23707.472	66.5366	11527.563
1240.0	0.84089	0.15911	7.82829	7.60194	-4.85375	23.14274	32.11976	1.15419	0.86641	60.2843	149.67501	21.70171	0.38893	10.72189	29046.32053	0.68881	2.5426E-4	1847.46095	23365.753	68.3438	11681.835
1235.0	0.85208	0.14792	7.83377	7.59607	-4.92723	23.00767	32.0842	1.15165	0.86832	63.84682	150.18019	23.01276	0.3872	10.90376	32659.82893	0.67508	2.25381E-4	1849.65517	23041.518	64.847	11818.991
1230.0	0.86219	0.13781	7.83891	7.5905	-4.99684	22.88369	32.04382	1.14928	0.87011	67.22335	150.65683	24.25744	0.38562	11.08957	36538.14369	0.66157	2.0079E-4	1851.85931	22732.382	61.8272	11941.414
1225.0	0.87136	0.12864	7.84374	7.58524	-5.06276	22.77037	31.9993	1.14705	0.8718	70.42584	151.10927	25.4398	0.38417	11.27947	40706.33616	0.64827	1.7963E-4	1854.06952	22436.356	59.2052	12051.088
1220.0	0.87969	0.12031	7.84831	7.58022	-5.1255	22.66616	31.95101	1.14495	0.8734	73.45642	151.53985	26.56032	0.38282	11.47372	45185.03973	0.63516	1.61286E-4	1856.28893	22151.774	56.9164	12149.681
1215.0	0.88731	0.11269	7.85265	7.57542	-5.1856	22.56956	31.89945	1.14296	0.87492	76.33245	151.95135	27.62516	0.38157	11.67222	50006.28978	0.62227	1.45248E-4	1858.51789	21877.229	54.909	12238.595
1210.0	0.89428	0.10572	7.85678	7.57082	-5.24324	22.48001	31.84497	1.14106	0.87637	79.06235	152.34616	28.63722	0.38041	11.87519	55200.52116	0.60958	1.31138E-4	1860.75541	21611.527	53.1404	12319.023
1205.0	0.90068	0.0993234	7.86073	7.56639	-5.29864	22.3969	31.78789	1.13926	0.87776	81.6547	152.72603	29.59946	0.37933	12.08273	60801.66984	0.59709	1.18656E-4	1863.00084	21353.651	51.5752	12391.979
1200.34	0.90617	0.0938256	7.86426	7.56241	-5.34852	22.32447	31.73252	1.13765	0.879	83.95045	153.06751	30.45259	0.37838	12.28037	66416.40436	0.58563	1.08283E-4	1865.1013	21119.657	 	12453.955
1200.0	0.90654	0.0934573	7.86453	7.5621	-5.3524	22.31839	31.72664	1.1376	0.87904	84.11401	153.09353	30.51345	0.37831	12.29685	66843.41601	0.58471	1.07566E-4	1865.31117	21102.089	50.3124	12458.975
1195.0	0.91183	0.0881684	7.86784	7.55702	-5.41595	22.20742	31.58105	1.13896	0.87799	86.53097	153.44278	31.41529	0.37721	12.54386	73390.89531	0.57125	9.76371E-5	1868.96072	20806.10522	59.19676	12530.297
1190.0	0.91673	0.0832743	7.87877	7.54935	-5.51189	21.98991	31.184	1.14954	0.86992	89.42466	153.76639	32.51006	0.37534	12.79654	82586.11538	0.55806	8.64706E-5	1872.6191	20374.67848	86.28535	12595.724
1185.0	0.92127	0.0787296	7.88894	7.5419	-5.60512	21.77934	30.80915	1.15955	0.86241	92.17195	154.06118	33.55168	0.37358	13.05532	92784.59437	0.54513	7.67031E-5	1876.28704	19956.34275	83.66715	12655.896
1180.0	0.92549	0.0745105	7.89843	7.53467	-5.6957	21.57573	30.45531	1.169	0.85543	94.78331	154.33239	34.54372	0.37193	13.32025	104093.3079	0.53246	6.81356E-5	1879.96341	19550.16594	81.23536	12711.363
1175.0	0.92942	0.0705799	7.90728	7.52763	-5.78372	21.37877	30.12123	1.1779	0.84897	97.26884	154.58427	35.48969	0.37038	13.59126	116631.6421	0.52004	6.06016E-5	1883.64809	19155.31049	78.97109	12762.606
1170.0	0.93309	0.0669125	7.91556	7.5208	-5.86932	21.18811	29.80476	1.18629	0.84296	99.63809	154.82035	36.39293	0.36892	13.86895	130532.685	0.50787	5.39609E-5	1887.3412	18771.01506	76.85909	12810.046
1165.0	0.93652	0.0634816	7.92331	7.51414	-5.95263	21.00341	29.50425	1.19422	0.83736	101.89832	155.04323	37.25598	0.36754	14.15312	145942.7245	0.49595	4.80959E-5	1891.04304	18396.5913	74.88475	12854.054
1160.0	0.93973	0.0602673	7.93057	7.50767	-6.03366	20.82475	29.2183	1.20172	0.83214	104.05782	155.25522	38.08175	0.36624	14.44416	163025.0651	0.48427	4.29066E-5	1894.75117	18031.41026	73.03621	12894.959
1155.0	0.94275	0.0572503	7.93739	7.50135	-6.11264	20.65137	28.94572	1.2088	0.82726	106.12363	155.45805	38.87277	0.36501	14.74239	181960.7387	0.47282	3.83074E-5	1898.46866	17674.89824	71.3024	12933.048
1150.0	0.94559	0.0544135	7.94381	7.49521	-6.18951	20.48357	28.68545	1.2155	0.82271	108.10174	155.65343	39.63116	0.36385	15.04782	202951.4168	0.4616	3.42251E-5	1902.19107	17326.52954	69.67374	12968.582
1145.0	0.94826	0.0517422	7.94986	7.48923	-6.26445	20.32083	28.43654	1.22183	0.81844	109.99775	155.84238	40.35892	0.36274	15.36065	226219.1719	0.45061	3.0597E-5	1905.92059	16985.8236	68.14119	13001.788
1140.0	0.95078	0.0492212	7.95557	7.48338	-6.33761	20.1627	28.19814	1.22782	0.81445	111.81826	156.02604	41.05848	0.3617	15.6814	252014.3764	0.43984	2.73684E-5	1909.65806	16652.33549	66.69762	13032.872
1135.0	0.95316	0.046841	7.96097	7.47768	-6.40896	20.00932	27.96952	1.23347	0.81072	113.56704	156.2054	41.73114	0.3607	16.01008	280613.5043	0.42928	2.44922E-5	1913.39969	16325.63825	65.33945	13062.017
1130.0	0.95541	0.0445899	7.96608	7.47211	-6.47868	19.86016	27.74999	1.23882	0.80722	115.24941	156.38103	42.37889	0.35975	16.34685	312322.2927	0.41894	2.19274E-5	1917.14771	16005.28054	64.07154	13089.39
1125.0	0.95755	0.042446	7.97095	7.46665	-6.54696	19.71464	27.53881	1.24387	0.80394	116.87428	156.55407	43.00502	0.35884	16.69075	347499.3862	0.40885	1.96375E-5	1920.89811	15690.64802	62.9265	13115.502
1120.0	0.95965	0.040347	7.97564	7.46125	-6.61454	19.5702	27.3348	1.24867	0.80085	118.4743	156.72689	43.62186	0.35797	17.03694	386613.8601	0.39911	1.75876E-5	1924.64116	15379.65321	62.19896	13142.248
1115.0	0.96164	0.038361	7.9801	7.45598	-6.68057	19.42982	27.13813	1.25321	0.79795	120.01409	156.8972	44.21599	0.35713	17.39199	429994.6167	0.38956	1.57565E-5	1928.38945	15074.37671	61.0553	13167.37
1110.0	0.96352	0.0364796	7.98436	7.45082	-6.74513	19.29332	26.94836	1.25749	0.79524	121.498	157.06562	44.78901	0.35634	17.75621	478120.657	0.38019	1.41195E-5	1932.14093	14774.5076	59.97382	13191.004
1105.0	0.96663	0.0333695	7.98866	7.4451	-6.81673	19.1308	26.76331	1.2616	0.79264	123.66787	157.28773	45.62203	0.35535	18.16086	534383.6717	0.37038	1.25872E-5	1935.78141	14445.19124	65.86327	13247.203
1100.0	0.96943	0.030575	7.99266	7.43961	-6.88548	18.97683	26.58643	1.26539	0.79027	125.67961	157.50095	46.39548	0.35444	18.57619	596578.4398	0.36078	1.12341E-5	1939.42989	14126.05042	63.82816	13297.243
1095.0	0.97194	0.0280593	7.99644	7.43431	-6.95172	18.83032	26.41455	1.26899	0.78803	127.54619	157.70615	47.11416	0.35359	19.00219	665380.5821	0.35141	1.00358E-5	1943.0865	13815.90531	62.02902	13341.766
1090.0	0.97422	0.0257844	8.00002	7.4292	-7.01574	18.69036	26.24811	1.27237	0.78594	129.28545	157.90465	47.78473	0.35279	19.43899	741552.6772	0.34226	8.97198E-6	1946.75188	13513.81676	60.41771	13381.568
1085.0	0.97628	0.0237188	8.00342	7.42424	-7.07776	18.55626	26.08677	1.27554	0.78398	130.91283	158.09761	48.41297	0.35204	19.88688	825946.8427	0.33332	8.02569E-6	1950.4251	13218.99463	58.96443	13417.306
1080.0	0.97816	0.0218396	8.00668	7.41944	-7.13789	18.42768	25.93023	1.27851	0.78216	132.43651	158.28568	49.00191	0.35134	20.34342	919483.4587	0.32465	7.18272E-6	1954.10639	12930.85732	57.62746	13449.429
1075.0	0.97989	0.0201074	8.00982	7.41476	-7.19641	18.30371	25.77813	1.28131	0.78045	133.8765	158.47039	49.5591	0.35068	20.80626	1023272.097	0.31625	6.43034E-6	1957.79636	12648.54038	56.46339	13478.684
1070.0	0.98148	0.0185158	8.01284	7.41021	-7.25342	18.18405	25.6303	1.28392	0.77887	135.23719	158.65187	50.08618	0.35005	21.28112	1138474.19	0.30805	5.75822E-6	1961.4927	12371.7421	55.35966	13505.255
1065.0	0.98295	0.0170473	8.01575	7.40577	-7.30904	18.0683	25.48648	1.28636	0.77739	136.52739	158.83072	50.58644	0.34945	21.76841	1266423.248	0.30003	5.15718E-6	1965.19389	12100.02921	54.34258	13529.462
1060.0	0.98431	0.0156909	8.01857	7.40142	-7.36337	17.95615	25.34645	1.28863	0.77602	137.75313	159.0073	51.06217	0.34888	22.26841	1408598.688	0.2922	4.61932E-6	1968.90064	11833.02549	53.40074	13551.577
1055.0	0.98557	0.0144325	8.0213	7.39718	-7.41652	17.8473	25.21	1.29074	0.77475	138.9207	159.18199	51.51573	0.34833	22.78193	1566669.396	0.28454	4.13768E-6	1972.61254	11570.39254	52.52659	13571.838
1050.0	0.98674	0.0132621	8.02396	7.39302	-7.46859	17.74139	25.07693	1.29271	0.77357	140.03661	159.3552	51.94958	0.34781	23.30887	1742520.716	0.27706	3.70611E-6	1976.32899	11311.83355	51.7118	13590.444
1045.0	0.98783	0.012171	8.02656	7.38894	-7.5196	17.63834	24.94705	1.29453	0.77248	141.10417	159.52714	52.36497	0.34731	23.8502	1938243.352	0.26975	3.31928E-6	1980.0485	11057.07992	50.95073	13607.571
1040.0	0.98885	0.0111527	8.02909	7.38494	-7.56966	17.53786	24.8202	1.29621	0.77148	142.12829	159.69807	52.76376	0.34684	24.40566	2156211.645	0.26261	2.97242E-6	1983.77098	10805.89119	50.23775	13623.372
1035.0	0.9898	0.0101982	8.03158	7.38101	-7.61882	17.43979	24.69621	1.29776	0.77056	143.11258	159.86817	53.14731	0.34638	24.97687	2399088.701	0.25563	2.66133E-6	1987.49537	10558.0507	49.5681	13637.978
1030.0	0.9907	0.00930337	8.03402	7.37715	-7.66716	17.34385	24.57492	1.29918	0.76972	144.06095	160.03764	53.51712	0.34593	25.56335	2669882.187	0.24881	2.38226E-6	1991.2242	10313.36051	48.93804	13651.508
1025.0	0.99154	0.00846146	8.03642	7.37336	-7.71467	17.25006	24.45269	1.30066	0.76884	144.97562	160.20663	53.87402	0.34551	26.16626	2971966.891	0.24214	2.1319E-6	1994.95111	10071.63911	48.34428	13664.064
1020.0	0.99234	0.00765812	8.03878	7.36961	-7.76161	17.15753	24.336	1.30186	0.76813	145.86838	160.37665	54.2225	0.34509	26.78367	3309312.749	0.23565	1.90721E-6	1998.6754	9832.49343	47.82914	13675.967
1015.0	0.99311	0.0068934	8.04111	7.36591	-7.80792	17.06649	24.22155	1.30296	0.76748	146.73692	160.54695	54.56169	0.34469	27.4164	3686187.175	0.22932	1.70559E-6	2002.39913	9595.92148	47.31439	13687.148
1010.0	0.99383	0.00617397	8.04341	7.36226	-7.85351	16.9773	24.10937	1.30394	0.76691	147.57675	160.71686	54.88987	0.3443	28.06712	4107340.877	0.22313	1.52477E-6	2006.12207	9361.91931	46.80043	13697.544
1005.0	0.99451	0.0054943	8.04569	7.35867	-7.89845	16.88971	23.99932	1.30482	0.76639	148.39133	160.88656	55.20836	0.34392	28.73523	4578305.666	0.2171	1.36259E-6	2009.84394	9130.34974	46.31391	13707.229
1000.0	0.99515	0.00485111	8.04794	7.35513	-7.94276	16.80365	23.89118	1.30559	0.76593	149.18201	161.05607	55.51767	0.34355	29.42204	5105293.493	0.2112	1.21715E-6	2013.56769	8901.08678	45.85259	13716.265
995.0	0.99576	0.00424218	8.05019	7.35164	-7.98649	16.71901	23.78503	1.30627	0.76554	149.95074	161.2255	55.81855	0.3432	30.12818	5695364.874	0.20544	1.08677E-6	2017.28938	8674.01264	45.41483	13724.711
990.0	0.99634	0.0036642	8.05241	7.34819	-8.02967	16.63564	23.6807	1.30685	0.7652	150.69967	161.39492	56.11182	0.34285	30.85422	6356532.758	0.19981	9.69887E-7	2021.01127	8449.02223	44.99808	13732.619
985.0	0.99703	0.00297295	8.05463	7.34481	-8.07193	16.55508	23.57883	1.3073	0.76493	151.42528	161.56443	56.39688	0.3425	31.59914	7100636.314	0.19433	8.64812E-7	2024.74959	8224.00687	45.00307	13742.042
980.0	0.99809	0.00191084	8.05684	7.34157	-8.11247	16.4805	23.48142	1.30751	0.76481	152.14893	161.73402	56.68301	0.3421	32.36358	7944488.116	0.18899	7.69881E-7	2028.54254	7995.29219	45.74294	13756.602
975.0	0.99908	9.22799E-4	8.05903	7.33838	-8.15245	16.40735	23.38562	1.30763	0.76474	153.18032	161.90329	57.08339	0.34172	33.15358	8891994.424	0.18375	6.85101E-7	2032.33112	7769.11905	45.23463	13770.009
970.0	1.0	0.0	8.06121	7.33522	-8.19194	16.33542	23.29126	1.30767	0.76472	154.2692	162.0724	57.50487	0.34136	 	9956748.778	 	6.09386E-7	 	7545.31342	44.76113	13782.391
965.0	1.0	0.0	8.06437	7.33235	-8.22795	16.27678	23.19611	1.30775	0.76467	154.65467	162.20415	57.66004	0.34109	 	1.122491053E7	 	5.38365E-7	 	7563.72723	-3.68276	 
960.0	1.0	0.0	8.06751	7.32949	-8.26367	16.21869	23.10236	1.30775	0.76467	155.03731	162.33668	57.81405	0.34083	 	1.266637914E7	 	4.75171E-7	 	7368.58062	39.02932	 
955.0	1.0	0.0	8.07063	7.32666	-8.29911	16.16112	23.00993	1.30768	0.76471	155.4173	162.47	57.96695	0.34057	 	1.430642035E7	 	4.18993E-7	 	7174.53257	38.80961	 
950.0	1.0	0.0	8.07373	7.32385	-8.33428	16.10405	22.91878	1.30754	0.7648	155.79478	162.60411	58.11881	0.34031	 	1.617421067E7	 	3.69099E-7	 	6981.54653	38.59721	 
945.0	1.0	0.0	8.0768	7.32106	-8.36918	16.04744	22.82884	1.30732	0.76492	156.1699	162.739	58.2697	0.34006	 	1.830347888E7	 	3.24828E-7	 	6789.58754	38.3918	 
940.0	1.0	0.0	8.07986	7.31829	-8.40383	15.99128	22.74008	1.30704	0.76509	156.54114	162.87295	58.41904	0.33981	 	2.073325812E7	 	2.85584E-7	 	6598.62213	38.19308	 
935.0	1.0	0.0	8.08289	7.31555	-8.43823	15.93555	22.65243	1.30669	0.76529	156.91198	163.00945	58.56814	0.33957	 	2.350876837E7	 	2.50829E-7	 	6408.61833	38.00076	 
930.0	1.0	0.0	8.08591	7.31282	-8.47238	15.88021	22.56585	1.30627	0.76554	157.28085	163.14673	58.71643	0.33933	 	2.668245151E7	 	2.2008E-7	 	6219.54552	37.81456	 
925.0	1.0	0.0	8.08891	7.31011	-8.50631	15.82524	22.48031	1.30579	0.76582	157.64786	163.28477	58.86394	0.33909	 	3.031519264E7	 	1.92902E-7	 	6031.37445	37.63421	 
920.0	1.0	0.0	8.09189	7.30741	-8.54	15.77063	22.39575	1.30526	0.76613	158.01312	163.42358	59.01071	0.33885	 	3.447775921E7	 	1.68905E-7	 	5844.0771	37.45947	 
915.0	1.0	0.0	8.09485	7.30474	-8.57347	15.71635	22.31214	1.30466	0.76649	158.37674	163.56314	59.1568	0.33862	 	3.925249297E7	 	1.47737E-7	 	5657.62668	37.29008	 
910.0	1.0	0.0	8.0978	7.30208	-8.60673	15.66239	22.22945	1.304	0.76687	158.73881	163.70346	59.30224	0.33839	 	4.473531333E7	 	1.29085E-7	 	5471.99755	37.12583	 
905.0	1.0	0.0	8.10072	7.29944	-8.63978	15.60872	22.14763	1.30328	0.76729	159.09942	163.84453	59.44708	0.33816	 	5.103808686E7	 	1.12666E-7	 	5287.16517	36.96648	 
900.0	1.0	0.0	8.10364	7.29682	-8.67262	15.55533	22.06666	1.30252	0.76774	159.45866	163.98633	59.59133	0.33794	 	5.82914231E7	 	9.82281E-8	 	5103.10607	36.81182	 
895.0	1.0	0.0	8.10653	7.29421	-8.70526	15.5022	21.9865	1.30169	0.76823	159.81661	164.12887	59.73505	0.33771	 	6.664799682E7	 	8.55457E-8	 	4919.79775	36.66167	 
890.0	1.0	0.0	8.10942	7.29162	-8.7377	15.44931	21.90713	1.30082	0.76875	160.17336	164.27214	59.87826	0.33749	 	7.628649005E7	 	7.44175E-8	 	4737.21869	36.51581	 
885.0	1.0	0.0	8.11228	7.28904	-8.76996	15.39665	21.82851	1.29989	0.7693	160.52896	164.41613	60.02098	0.33727	 	8.74162628E7	 	6.46635E-8	 	4555.3483	36.37408	 
880.0	1.0	0.0	8.11514	7.28648	-8.80203	15.3442	21.75063	1.29891	0.76987	160.8835	164.56083	60.16326	0.33706	 	1.002829292E8	 	5.61236E-8	 	4374.16662	36.23634	 
875.0	1.0	0.0	8.11798	7.28393	-8.83392	15.29194	21.67345	1.29789	0.77048	161.23704	164.70624	60.30511	0.33684	 	1.151749763E8	 	4.8655E-8	 	4193.65468	36.10239	 
870.0	1.0	0.0	8.1208	7.2814	-8.86563	15.23986	21.59695	1.29681	0.77112	161.58964	164.85235	60.44657	0.33663	 	1.324316797E8	 	4.21306E-8	 	4013.79474	35.97199	 
865.0	1.0	0.0	8.12361	7.27888	-8.89717	15.18795	21.52111	1.29569	0.77179	161.94135	164.99915	60.58765	0.33642	 	1.524525267E8	 	3.64378E-8	 	3834.56946	35.84506	 
860.0	1.0	0.0	8.12641	7.27637	-8.92853	15.13619	21.44591	1.29452	0.77249	162.29224	165.14664	60.72839	0.33621	 	1.757085231E8	 	3.14761E-8	 	3655.96219	35.72145	 
855.0	1.0	0.0	8.12919	7.27388	-8.95973	15.08457	21.37132	1.29331	0.77321	162.64236	165.29481	60.86879	0.33601	 	2.027556795E8	 	2.71569E-8	 	3477.95702	35.60103	 
850.0	1.0	0.0	8.13197	7.2714	-8.99077	15.03307	21.29734	1.29205	0.77397	162.99175	165.44364	61.00889	0.3358	 	2.342512283E8	 	2.34014E-8	 	3300.53865	35.48367	 
845.0	1.0	0.0	8.13418	7.26942	-9.01552	15.01009	21.23632	1.28999	0.7752	163.31869	165.63212	61.13777	0.33566	 	2.663213224E8	 	2.04918E-8	 	3150.07807	30.09212	 
840.0	1.0	0.0	8.13639	7.26745	-9.04021	14.98709	21.1753	1.28792	0.77644	163.64507	165.81977	61.26646	0.33552	 	3.031311719E8	 	1.7923E-8	 	2996.74436	30.66674	 
835.0	1.0	0.0	8.13859	7.26548	-9.06484	14.96409	21.11427	1.28584	0.7777	163.9709	166.00658	61.39498	0.33538	 	3.454320519E8	 	1.56575E-8	 	2843.60948	30.62698	 
830.0	1.0	0.0	8.14079	7.26352	-9.08941	14.94109	21.05323	1.28375	0.77897	164.29618	166.19256	61.52331	0.33524	 	3.941022726E8	 	1.36619E-8	 	2690.67277	30.58734	 
825.0	1.0	0.0	8.14298	7.26156	-9.11392	14.91807	20.99218	1.28165	0.78024	164.6209	166.37771	61.65146	0.33509	 	4.501699941E8	 	1.19062E-8	 	2537.93353	30.54785	 
820.0	1.0	0.0	8.14518	7.25961	-9.13837	14.89505	20.93112	1.27954	0.78153	164.94507	166.56204	61.77943	0.33495	 	5.148403767E8	 	1.03632E-8	 	2385.39102	30.5085	 
815.0	1.0	0.0	8.14736	7.25766	-9.16276	14.87202	20.87004	1.27741	0.78283	165.26868	166.74554	61.90722	0.33481	 	5.895279366E8	 	9.00889E-9	 	2233.04449	30.46931	 
810.0	1.0	0.0	8.14955	7.25571	-9.1871	14.84899	20.80896	1.27528	0.78414	165.59174	166.92822	62.03482	0.33467	 	6.75895159E8	 	7.82161E-9	 	2080.89318	30.43026	 
805.0	1.0	0.0	8.15173	7.25377	-9.21137	14.82594	20.74787	1.27313	0.78547	165.91425	167.11008	62.16224	0.33453	 	7.758986439E8	 	6.78205E-9	 	1928.93624	30.39139	 
800.0	1.0	0.0	8.1539	7.25184	-9.23559	14.8029	20.68677	1.27097	0.7868	166.23621	167.29113	62.28948	0.33438	 	8.918443364E8	 	5.87297E-9	 	1777.17286	30.35268	 
795.0	1.0	0.0	8.15607	7.24991	-9.25974	14.77984	20.62566	1.26879	0.78815	166.55761	167.47136	62.41653	0.33424	 	1.026453725E9	 	5.07902E-9	 	1625.60214	30.31414	 
790.0	1.0	0.0	8.15824	7.24798	-9.28384	14.75678	20.56454	1.26661	0.78951	166.87846	167.65078	62.54341	0.3341	 	1.182943308E9	 	4.38649E-9	 	1474.22317	30.27579	 
785.0	1.0	0.0	8.1604	7.24606	-9.30788	14.73371	20.5034	1.26441	0.79088	167.19876	167.82939	62.6701	0.33396	 	1.365120122E9	 	3.78323E-9	 	1323.035	30.23763	 
780.0	1.0	0.0	8.16256	7.24415	-9.33186	14.71063	20.44226	1.2622	0.79227	167.5185	168.00719	62.7966	0.33382	 	1.577496775E9	 	3.25843E-9	 	1172.03662	30.19967	 
775.0	1.0	0.0	8.16471	7.24224	-9.35578	14.68754	20.3811	1.25997	0.79367	167.83769	168.18419	62.92293	0.33368	 	1.825430151E9	 	2.8025E-9	 	1021.22702	30.16192	 
770.0	1.0	0.0	8.16686	7.24033	-9.37964	14.66445	20.31994	1.25774	0.79508	168.15633	168.36038	63.04907	0.33354	 	2.11528896E9	 	2.40693E-9	 	870.60508	30.12439	 
765.0	1.0	0.0	8.16901	7.23843	-9.40344	14.64136	20.25876	1.25549	0.7965	168.47441	168.53577	63.17503	0.33339	 	2.454656408E9	 	2.06422E-9	 	720.16968	30.08708	 
760.0	1.0	0.0	8.17115	7.23653	-9.42718	14.61825	20.19757	1.25323	0.79794	168.79194	168.71037	63.3008	0.33325	 	2.852575797E9	 	1.76772E-9	 	569.91964	30.05001	 
755.0	1.0	0.0	8.17329	7.23464	-9.45086	14.59514	20.13637	1.25095	0.79939	169.10892	168.88416	63.42639	0.33311	 	3.319848588E9	 	1.51156E-9	 	419.85369	30.01319	 
750.0	1.0	0.0	8.17542	7.23275	-9.47448	14.57202	20.07515	1.24867	0.80085	169.42534	169.05717	63.5518	0.33297	 	3.869396773E9	 	1.29057E-9	 	269.97053	29.97663	 
745.0	1.0	0.0	8.17755	7.23087	-9.49804	14.54889	20.01392	1.24637	0.80233	169.74121	169.22938	63.67703	0.33283	 	4.516704145E9	 	1.10021E-9	 	120.26881	29.94034	 
740.0	1.0	0.0	8.17967	7.22899	-9.52154	14.52576	19.95268	1.24405	0.80382	170.05653	169.4008	63.80207	0.33269	 	5.280354592E9	 	9.36478E-10	 	-29.25294	29.90435	 
735.0	1.0	0.0	8.18179	7.22712	-9.54499	14.50262	19.89143	1.24172	0.80533	170.3713	169.57143	63.92693	0.33255	 	6.182689855E9	 	7.95856E-10	 	-178.5962	29.86865	 
730.0	1.0	0.0	8.18391	7.22525	-9.56837	14.47947	19.83017	1.23938	0.80685	170.68551	169.74128	64.0516	0.33241	 	7.250614702E9	 	6.7527E-10	 	-327.76258	29.83328	 
725.0	1.0	0.0	8.18602	7.22339	-9.5917	14.45632	19.76889	1.23703	0.80839	170.99917	169.91034	64.17609	0.33227	 	8.516584297E9	 	5.72028E-10	 	-476.75375	29.79823	 
720.0	1.0	0.0	8.18812	7.22153	-9.61496	14.43316	19.7076	1.23466	0.80994	171.31227	170.07863	64.3004	0.33212	 	1.00198E10	 	4.83773E-10	 	-625.57147	29.76354	 
715.0	1.0	0.0	8.19023	7.21967	-9.63816	14.40999	19.64629	1.23228	0.81151	171.62483	170.24613	64.42453	0.33198	 	1.1807799999999998E10	 	4.08452E-10	 	-774.21759	29.72922	 
710.0	1.0	0.0	8.19233	7.21783	-9.66131	14.38682	19.58497	1.22988	0.81309	171.93683	170.41286	64.54847	0.33184	 	1.3938099999999998E10	 	3.44274E-10	 	-922.69409	29.6953	 
705.0	1.0	0.0	8.19442	7.21598	-9.68439	14.36364	19.52364	1.22747	0.81468	172.24828	170.57881	64.67222	0.3317	 	1.6480599999999998E10	 	2.8968E-10	 	-1071.003	29.66178	 
700.0	1.0	0.0	8.19651	7.21414	-9.70742	14.34045	19.4623	1.22504	0.8163	172.55917	170.74399	64.7958	0.33156	 	1.95205E10	 	2.43318E-10	 	-1219.14652	29.6287	 
695.0	1.0	0.0	8.19859	7.21231	-9.73038	14.31725	19.40093	1.2226	0.81793	172.86951	170.9084	64.91918	0.33142	 	2.31616E10	 	2.04014E-10	 	-1367.12696	29.59609	 
690.0	1.0	0.0	8.20068	7.21048	-9.75329	14.29405	19.33956	1.22015	0.81957	173.1793	171.07204	65.04239	0.33128	 	2.7530699999999996E10	 	1.70751E-10	 	-1514.94673	29.56395	 
685.0	1.0	0.0	8.20275	7.20865	-9.77614	14.27084	19.27817	1.21768	0.82123	173.48854	171.23491	65.16541	0.33114	 	3.2783099999999996E10	 	1.42649E-10	 	-1662.60843	29.53234	 
680.0	1.0	0.0	8.20482	7.20683	-9.79892	14.24762	19.21676	1.2152	0.82291	173.79722	171.39702	65.28824	0.331	 	3.91091E10	 	1.18952E-10	 	-1810.11478	29.50127	 
675.0	1.0	0.0	8.20689	7.20501	-9.82165	14.2244	19.15534	1.2127	0.82461	174.10536	171.55836	65.4109	0.33086	 	4.674269999999999E10	 	9.90034E-11	 	-1957.46867	29.47078	 
670.0	1.0	0.0	8.20896	7.2032	-9.84431	14.20117	19.0939	1.21019	0.82632	174.41293	171.71895	65.53336	0.33072	 	5.597199999999999E10	 	8.22426E-11	 	-2104.67314	29.4409	 
665.0	1.0	0.0	8.21101	7.2014	-9.86692	14.17793	19.03245	1.20766	0.82805	174.71996	171.87877	65.65565	0.33058	 	6.715239999999999E10	 	6.81863E-11	 	-2251.73147	29.41166	 
660.0	1.0	0.0	8.21307	7.1996	-9.88946	14.15469	18.97098	1.20511	0.8298	175.02643	172.03785	65.77775	0.33044	 	8.07236E10	 	5.64206E-11	 	-2398.638	29.38131	 
655.0	1.0	0.0	8.21512	7.1978	-9.91195	14.13144	18.90949	1.20255	0.83156	175.33235	172.19616	65.89966	0.3303	 	9.722999999999998E10	 	4.65913E-11	 	-2545.34222	29.34084	 
650.0	1.0	0.0	8.21716	7.19601	-9.93438	14.10818	18.84799	1.19998	0.83335	175.63772	172.35373	66.02139	0.33016	 	1.17348E11	 	3.83958E-11	 	-2691.77711	29.28698	 
645.0	1.0	0.0	8.21921	7.19422	-9.95674	14.08491	18.78647	1.19739	0.83515	175.94253	172.51054	66.14293	0.33002	 	1.41919E11	 	3.15762E-11	 	-2837.94375	29.23333	 
640.0	1.0	0.0	8.22124	7.19244	-9.97905	14.06164	18.72493	1.19478	0.83697	176.2468	172.66661	66.26429	0.32988	 	1.71992E11	 	2.59131E-11	 	-2983.8432	29.17989	 
635.0	1.0	0.0	8.22327	7.19066	-10.00129	14.03836	18.66338	1.19216	0.83882	176.55051	172.82193	66.38547	0.32974	 	2.0888E11	 	2.12201E-11	 	-3129.47654	29.12667	 
630.0	1.0	0.0	8.2253	7.18889	-10.02348	14.01508	18.60181	1.18952	0.84068	176.85366	172.9765	66.50646	0.3296	 	2.54226E11	 	1.73391E-11	 	-3274.84484	29.07366	 
625.0	1.0	0.0	8.22732	7.18712	-10.0456	13.99178	18.54022	1.18686	0.84256	177.15627	173.13033	66.62727	0.32946	 	3.10093E11	 	1.41366E-11	 	-3419.9494	29.02091	 
620.0	1.0	0.0	8.22934	7.18536	-10.06767	13.96848	18.47861	1.18419	0.84446	177.45832	173.28343	66.74789	0.32932	 	3.79079E11	 	1.14996E-11	 	-3564.7919	28.9685	 
615.0	1.0	0.0	8.23136	7.1836	-10.08967	13.94518	18.41698	1.1815	0.84638	177.75982	173.43578	66.86832	0.32918	 	4.64463E11	 	9.33302E-12	 	-3709.37308	28.91624	 
610.0	1.0	0.0	8.23337	7.18185	-10.11162	13.92186	18.35533	1.1788	0.84832	178.06076	173.5874	66.98857	0.32904	 	5.70388E11	 	7.55703E-12	 	-3853.694	28.86418	 
605.0	1.0	0.0	8.23537	7.1801	-10.1335	13.89854	18.29366	1.17607	0.85029	178.36115	173.73828	67.10864	0.3289	 	7.02111E11	 	6.10449E-12	 	-3997.7557	28.81234	 
600.0	1.0	0.0	8.23737	7.17835	-10.15532	13.87521	18.23198	1.17333	0.85227	178.66099	173.88843	67.22852	0.32876	 	8.66313E11	 	4.91927E-12	 	-4141.55924	28.76071	 
595.0	1.0	0.0	8.23937	7.17662	-10.17709	13.85188	18.17027	1.17058	0.85428	178.96028	174.03785	67.34821	0.32862	 	1.07151E12	 	3.95445E-12	 	-4285.10567	28.70929	 
590.0	1.0	0.0	8.24136	7.17488	-10.19879	13.82854	18.10854	1.1678	0.85631	179.25902	174.18654	67.46772	0.32848	 	1.32857E12	 	3.17094E-12	 	-4428.39603	28.65807	 
585.0	1.0	0.0	8.24335	7.17315	-10.22043	13.80519	18.04679	1.16501	0.85836	179.5572	174.33451	67.58705	0.32834	 	1.65144E12	 	2.53622E-12	 	-4571.43134	28.60706	 
580.0	1.0	0.0	8.24533	7.17143	-10.24202	13.78183	17.98502	1.1622	0.86044	179.85483	174.48175	67.70618	0.3282	 	2.05801E12	 	2.02332E-12	 	-4714.21268	28.55627	 
575.0	1.0	0.0	8.24731	7.16971	-10.26354	13.75847	17.92323	1.15937	0.86254	180.15191	174.62826	67.82514	0.32806	 	2.57135E12	 	1.6099E-12	 	-4856.74106	28.50568	 
570.0	1.0	0.0	8.24928	7.16799	-10.285	13.7351	17.86142	1.15652	0.86466	180.44843	174.77406	67.9439	0.32792	 	3.22122E12	 	1.27753E-12	 	-4999.01753	28.45529	 
565.0	1.0	0.0	8.25125	7.16628	-10.3064	13.71172	17.79958	1.15366	0.86681	180.7444	174.91913	68.06248	0.32778	 	4.0462E12	 	1.01102E-12	 	-5141.04311	28.40512	 
560.0	1.0	0.0	8.25321	7.16458	-10.32774	13.68834	17.73772	1.15078	0.86898	181.03982	175.06349	68.18088	0.32764	 	5.0964E12	 	7.97897E-13	 	-5282.81885	28.35515	 
555.0	1.0	0.0	8.25517	7.16288	-10.34902	13.66495	17.67584	1.14788	0.87117	181.33469	175.20713	68.29909	0.3275	 	6.43708E12	 	6.27924E-13	 	-5424.34578	28.30539	 
550.0	1.0	0.0	8.25712	7.16118	-10.37024	13.64155	17.61393	1.14496	0.8734	181.629	175.35006	68.41711	0.32737	 	8.15355E12	 	4.92741E-13	 	-5565.62491	28.25583	 
545.0	1.0	0.0	8.25907	7.15949	-10.3914	13.61815	17.552	1.14202	0.87564	181.92276	175.49228	68.53495	0.32723	 	1.03576E13	 	3.85532E-13	 	-5706.65728	28.20647	 
540.0	1.0	0.0	8.26102	7.15781	-10.41249	13.59473	17.49005	1.13906	0.87792	182.21597	175.63379	68.6526	0.32709	 	1.31962E13	 	3.00751E-13	 	-5847.4439	28.15732	 
535.0	1.0	0.0	8.26296	7.15613	-10.43353	13.57132	17.42807	1.13608	0.88022	182.50863	175.77459	68.77006	0.32695	 	1.68633E13	 	2.33903E-13	 	-5987.9858	28.10838	 
530.0	1.0	0.0	8.26489	7.15445	-10.45451	13.54789	17.36606	1.13308	0.88255	182.80073	175.91468	68.88734	0.32681	 	2.16153E13	 	1.81352E-13	 	-6128.28398	28.05964	 
525.0	1.0	0.0	8.26682	7.15278	-10.47542	13.52446	17.30403	1.13006	0.88491	183.09228	176.05407	69.00443	0.32667	 	2.77926E13	 	1.40166E-13	 	-6268.33948	28.0111	 
520.0	1.0	0.0	8.26875	7.15111	-10.49628	13.50102	17.24197	1.12703	0.88729	183.38328	176.19275	69.12134	0.32653	 	3.58488E13	 	1.07986E-13	 	-6408.15328	27.96276	 
515.0	1.0	0.0	8.27067	7.14945	-10.51707	13.47757	17.17989	1.12397	0.8897	183.67372	176.33074	69.23806	0.32639	 	4.63899E13	 	8.29225E-14	 	-6547.72648	27.91464	 
510.0	1.0	0.0	8.27259	7.1478	-10.5378	13.45412	17.11778	1.12089	0.89215	183.96361	176.46802	69.35459	0.32625	 	6.02283E13	 	6.34645E-14	 	-6687.06025	27.86675	 
505.0	1.0	0.0	8.2745	7.14614	-10.55848	13.43066	17.05564	1.11779	0.89462	184.25295	176.60461	69.47093	0.32612	 	7.84576E13	 	4.84078E-14	 	-6826.15551	27.81905	 
500.0	1.0	0.0	8.27641	7.1445	-10.57909	13.40719	16.99347	1.11467	0.89712	184.54174	176.7405	69.58709	0.32598	 	1.02555E14	 	3.67956E-14	 	-6965.01326	27.77155	 
495.0	1.0	0.0	8.27831	7.14286	-10.59964	13.38372	16.93127	1.11153	0.89966	184.82997	176.8757	69.70307	0.32584	 	1.3452099999999998E14	 	2.78704E-14	 	-7103.63447	27.72424	 
490.0	1.0	0.0	8.28021	7.14122	-10.62013	13.36024	16.86904	1.10837	0.90222	185.11765	177.01021	69.81885	0.3257	 	1.77079E14	 	2.10344E-14	 	-7242.02011	27.67713	 
485.0	1.0	0.0	8.2821	7.13959	-10.64055	13.33675	16.80678	1.10519	0.90482	185.40478	177.14402	69.93445	0.32556	 	2.33948E14	 	1.58169E-14	 	-7380.17117	27.63021	 
480.0	1.0	0.0	8.28399	7.13796	-10.66092	13.31325	16.74449	1.10198	0.90745	185.69135	177.27715	70.04986	0.32542	 	3.10226E14	 	1.18492E-14	 	-7518.0886	27.58349	 
475.0	1.0	0.0	8.28587	7.13634	-10.68123	13.28975	16.68217	1.09876	0.91012	185.97738	177.40959	70.16508	0.32528	 	4.12929E14	 	8.84301E-15	 	-7655.77336	27.53695	 
470.0	1.0	0.0	8.28775	7.13472	-10.70147	13.26624	16.61981	1.09551	0.91282	186.26285	177.54135	70.28012	0.32515	 	5.5175099999999994E14	 	6.57385E-15	 	-7793.22643	27.49061	 
465.0	1.0	0.0	8.28963	7.13311	-10.72166	13.24273	16.55743	1.09224	0.91555	186.54776	177.67242	70.39497	0.32501	 	7.40144E14	 	4.8676E-15	 	-7930.44874	27.44446	 
460.0	1.0	0.0	8.29149	7.1315	-10.74178	13.2192	16.49501	1.08895	0.91832	186.83213	177.80281	70.50963	0.32487	 	9.9685E14	 	3.58963E-15	 	-8067.44126	27.3985	 
455.0	1.0	0.0	8.29336	7.1299	-10.76184	13.19567	16.43255	1.08563	0.92112	187.11594	177.93252	70.62411	0.32473	 	1.34809E15	 	2.63626E-15	 	-8204.20494	27.35274	 
450.0	1.0	0.0	8.29522	7.1283	-10.78184	13.17214	16.37006	1.08229	0.92397	187.3992	178.06155	70.73839	0.32459	 	1.83072E15	 	1.92794E-15	 	-8340.7407	27.30715	 
445.0	1.0	0.0	8.29707	7.1267	-10.80178	13.14859	16.30754	1.07893	0.92685	187.6819	178.18991	70.85249	0.32446	 	2.49674E15	 	1.40388E-15	 	-8477.04949	27.26176	 
440.0	1.0	0.0	8.29892	7.12512	-10.82166	13.12504	16.24498	1.07554	0.92976	187.96405	178.31759	70.9664	0.32432	 	3.41992E15	 	1.01778E-15	 	-8613.13224	27.21655	 
435.0	1.0	0.0	8.30077	7.12353	-10.84148	13.10148	16.18238	1.07213	0.93272	188.24565	178.44459	71.08013	0.32418	 	4.7053E15	 	7.34556E-16	 	-8748.98989	27.17153	 
430.0	1.0	0.0	8.30261	7.12195	-10.86124	13.07792	16.11974	1.0687	0.93572	188.5267	178.57093	71.19367	0.32404	 	6.50324E15	 	5.27722E-16	 	-8884.62334	27.12669	 
425.0	1.0	0.0	8.30444	7.12038	-10.88093	13.05435	16.05707	1.06524	0.93875	188.80719	178.6966	71.30701	0.3239	 	9.02994E15	 	3.77355E-16	 	-9020.03338	27.08201	 
420.0	1.0	0.0	8.30627	7.11881	-10.90056	13.03077	15.99435	1.06176	0.94183	189.08713	178.82159	71.42017	0.32377	 	1.25979E16	 	2.68545E-16	 	-9155.22114	27.03755	 
415.0	1.0	0.0	8.3081	7.11725	-10.92014	13.00718	15.9316	1.05825	0.94495	189.36652	178.94593	71.53315	0.32363	 	1.7660800000000002E16	 	1.90178E-16	 	-9290.18696	26.99317	 
410.0	1.0	0.0	8.30992	7.11569	-10.93965	12.98359	15.8688	1.05472	0.94812	189.64536	179.06959	71.64593	0.32349	 	2.48812E16	 	1.34008E-16	 	-9424.93102	26.94881	 
405.0	1.0	0.0	8.31173	7.11414	-10.9591	12.95999	15.80596	1.05116	0.95133	189.92364	179.1926	71.75853	0.32335	 	3.5231300000000004E16	 	9.39473E-17	 	-9559.45344	26.90448	 
400.0	1.0	0.0	8.31354	7.11259	-10.97848	12.93639	15.74308	1.04758	0.95458	190.20137	179.31494	71.87093	0.32321	 	5.01451E16	 	6.55194E-17	 	-9693.75438	26.86019	 
395.0	1.0	0.0	8.31535	7.11104	-10.99781	12.91277	15.68016	1.04397	0.95788	190.47854	179.43662	71.98315	0.32308	 	7.1750200000000008E16	 	4.54504E-17	 	-9827.83396	26.81592	 
390.0	1.0	0.0	8.31715	7.1095	-11.01707	12.88915	15.61719	1.04034	0.96122	190.75517	179.55764	72.09518	0.32294	 	1.0322E17	 	3.1357E-17	 	-9961.6923	26.77167	 
385.0	1.0	0.0	8.31894	7.10797	-11.03628	12.86552	15.55417	1.03668	0.96462	191.03124	179.67801	72.20703	0.3228	 	1.49315E17	 	2.15133E-17	 	-10095.32951	26.72744	 
380.0	1.0	0.0	8.32073	7.10644	-11.05542	12.84189	15.4911	1.03299	0.96806	191.30675	179.79772	72.31868	0.32266	 	2.1722E17	 	1.46757E-17	 	-10228.74573	26.68324	 
375.0	1.0	0.0	8.32252	7.10491	-11.0745	12.81825	15.42799	1.02928	0.97156	191.58172	179.91678	72.43015	0.32253	 	3.17839E17	 	9.95301E-18	 	-10361.94103	26.63906	 
370.0	1.0	0.0	8.3243	7.1034	-11.09352	12.7946	15.36483	1.02554	0.9751	191.85613	180.03519	72.54142	0.32239	 	4.67827E17	 	6.70986E-18	 	-10494.91551	26.5949	 
365.0	1.0	0.0	8.32607	7.10188	-11.11248	12.77094	15.30162	1.02177	0.9787	192.12998	180.15294	72.65251	0.32225	 	6.92777E17	 	4.49589E-18	 	-10627.66927	26.55075	 
360.0	1.0	0.0	8.32784	7.10037	-11.13137	12.74728	15.23835	1.01797	0.98235	192.40329	180.27005	72.76341	0.32212	 	1.03227E18	 	2.99363E-18	 	-10760.20237	26.50662	 
355.0	1.0	0.0	8.32961	7.09887	-11.1502	12.72361	15.17504	1.01414	0.98605	192.67604	180.38651	72.87412	0.32198	 	1.54794E18	 	1.9806E-18	 	-10892.51489	26.4625	 
350.0	1.0	0.0	8.33137	7.09737	-11.16898	12.69994	15.11167	1.01029	0.98981	192.94824	180.50233	72.98464	0.32184	 	2.33634E18	 	1.3018E-18	 	-11024.60686	26.41839	 
345.0	1.0	0.0	8.33312	7.09587	-11.18769	12.67625	15.04824	1.00641	0.99363	193.21988	180.6175	73.09497	0.3217	 	3.54985E18	 	8.49904E-19	 	-11156.47836	26.3743	 
340.0	1.0	0.0	8.33487	7.09438	-11.20634	12.65256	14.98476	1.0025	0.99751	193.49097	180.73203	73.20511	0.32157	 	5.4306E18	 	5.51068E-19	 	-11288.1294	26.33021	 
335.0	1.0	0.0	8.33662	7.0929	-11.22492	12.62887	14.92122	0.99856	1.00145	193.76151	180.84591	73.31506	0.32143	 	8.36607E18	 	3.54794E-19	 	-11419.56002	26.28612	 
330.0	1.0	0.0	8.33836	7.09142	-11.24345	12.60516	14.85762	0.99459	1.00544	194.03149	180.95916	73.42483	0.32129	 	1.2981E19	 	2.2678E-19	 	-11550.77024	26.24204	 
325.0	1.0	0.0	8.34009	7.08994	-11.26191	12.58145	14.79395	0.99059	1.0095	194.30092	181.07177	73.5344	0.32116	 	2.029E19	 	1.43885E-19	 	-11681.76004	26.19796	 
320.0	1.0	0.0	8.34182	7.08847	-11.28031	12.55773	14.73023	0.98655	1.01363	194.5698	181.18375	73.64379	0.32102	 	3.19541E19	 	9.05993E-20	 	-11812.52944	26.15388	 
315.0	1.0	0.0	8.34355	7.08701	-11.29865	12.53401	14.66644	0.98249	1.01782	194.83813	181.29509	73.75298	0.32088	 	5.07137E19	 	5.66043E-20	 	-11943.07839	26.10979	 
310.0	1.0	0.0	8.34527	7.08555	-11.31693	12.51028	14.60259	0.9784	1.02208	195.1059	181.40579	73.86199	0.32075	 	8.11267E19	 	3.50835E-20	 	-12073.40687	26.0657	 
305.0	1.0	0.0	8.34698	7.08409	-11.33514	12.48654	14.53866	0.97428	1.0264	195.37312	181.51587	73.9708	0.32061	 	1.3083699999999998E20	 	2.15673E-20	 	-12203.51483	26.02159	 
300.0	1.0	0.0	8.34869	7.08264	-11.3533	12.46279	14.47467	0.97012	1.0308	195.63978	181.62531	74.07943	0.32047	 	2.1277499999999997E20	 	1.31472E-20	 	-12333.4022	25.97747	 
295.0	1.0	0.0	8.3504	7.08119	-11.37139	12.43904	14.41061	0.96593	1.03527	195.90589	181.73413	74.18786	0.32034	 	3.4900099999999997E20	 	7.94553E-21	 	-12463.06891	25.93334	 
290.0	1.0	0.0	8.35209	7.07975	-11.38942	12.41528	14.34647	0.96171	1.03981	196.17145	181.84232	74.29611	0.3202	 	5.7749699999999997E20	 	4.7595E-21	 	-12592.51485	25.88919	 
285.0	1.0	0.0	8.35379	7.07832	-11.40738	12.39151	14.28226	0.95746	1.04443	196.43645	181.94988	74.40416	0.32006	 	9.64253E20	 	2.82518E-21	 	-12721.73993	25.84502	 
280.0	1.0	0.0	8.35548	7.07689	-11.42529	12.36774	14.21798	0.95317	1.04913	196.7009	182.05682	74.51203	0.31993	 	1.62501E21	 	1.66139E-21	 	-12850.74401	25.80082	 
275.0	1.0	0.0	8.35716	7.07546	-11.44313	12.34396	14.15361	0.94885	1.05391	196.9648	182.16313	74.6197	0.31979	 	2.76477E21	 	9.67671E-22	 	-12979.52695	25.75659	 
270.0	1.0	0.0	8.35884	7.07404	-11.46091	12.32017	14.08916	0.9445	1.05876	197.22814	182.26883	74.72719	0.31965	 	4.75017E21	 	5.58081E-22	 	-13108.08857	25.71233	 
265.0	1.0	0.0	8.36051	7.07263	-11.47863	12.29638	14.02463	0.94011	1.06371	197.49093	182.3739	74.83448	0.31952	 	8.2438E21	 	3.18612E-22	 	-13236.42871	25.66803	 
260.0	1.0	0.0	8.36218	7.07122	-11.49629	12.27257	13.96002	0.93568	1.06874	197.75317	182.47836	74.94158	0.31938	 	1.4455599999999998E22	 	1.80011E-22	 	-13364.54715	25.62369	 
255.0	1.0	0.0	8.36384	7.06981	-11.51388	12.24877	13.89531	0.93123	1.07385	198.01485	182.5822	75.0485	0.31925	 	2.5619099999999996E22	 	1.00619E-22	 	-13492.44365	25.5793	 
250.0	1.0	0.0	8.3655	7.06841	-11.53141	12.22495	13.83052	0.92673	1.07906	198.27598	182.68542	75.15522	0.31911	 	4.590299999999999E22	 	5.56252E-23	 	-13620.118	25.53487	 
245.0	1.0	0.0	8.36715	7.06701	-11.54888	12.20113	13.76563	0.9222	1.08436	198.53655	182.78803	75.26175	0.31897	 	8.317769999999999E22	 	3.04043E-23	 	-13747.56989	25.49038	 
240.0	1.0	0.0	8.3688	7.06562	-11.56629	12.1773	13.70064	0.91763	1.08976	198.79657	182.89003	75.36809	0.31884	 	1.52477E23	 	1.64258E-23	 	-13874.79905	25.44583	 
235.0	1.0	0.0	8.37044	7.06424	-11.58364	12.15346	13.63556	0.91303	1.09525	199.05604	182.99142	75.47424	0.3187	 	2.82866E23	 	8.76795E-24	 	-14001.80515	25.40122	 
230.0	1.0	0.0	8.37208	7.06286	-11.60092	12.12962	13.57038	0.90839	1.10085	199.31495	183.0922	75.5802	0.31857	 	5.3123999999999994E23	 	4.62268E-24	 	-14128.58782	25.35653	 
225.0	1.0	0.0	8.37371	7.06148	-11.61814	12.10577	13.50509	0.90371	1.10655	199.57331	183.19236	75.68597	0.31843	 	1.01041E24	 	2.40631E-24	 	-14255.14672	25.31178	 
220.0	1.0	0.0	8.37534	7.06011	-11.6353	12.08191	13.43969	0.89899	1.11236	199.83112	183.29193	75.79154	0.31829	 	1.9469800000000001E24	 	1.23624E-24	 	-14381.4814	25.26694	 
215.0	1.0	0.0	8.37696	7.05874	-11.65239	12.05805	13.37418	0.89424	1.11827	200.08837	183.39088	75.89693	0.31816	 	3.80246E24	 	6.26579E-25	 	-14507.59145	25.22201	 
210.0	1.0	0.0	8.37857	7.05738	-11.66942	12.03418	13.30855	0.88944	1.1243	200.34507	183.48924	76.00212	0.31802	 	7.5298E24	 	3.13174E-25	 	-14633.47638	25.17699	 
205.0	1.0	0.0	8.38018	7.05603	-11.6864	12.0103	13.24281	0.88461	1.13045	200.60121	183.58699	76.10712	0.31789	 	1.5125400000000001E25	 	1.54292E-25	 	-14759.1357	25.13186	 
200.0	1.0	0.0	8.38179	7.05468	-11.7033	11.98641	13.17695	0.87973	1.13671	200.8568	183.68414	76.21193	0.31775	 	3.0834300000000003E25	 	7.48947E-26	 	-14884.56884	25.08663	 
195.0	1.0	0.0	8.38339	7.05333	-11.72015	11.96252	13.11096	0.87482	1.1431	201.11183	183.78068	76.31655	0.31762	 	6.3821800000000006E25	 	3.58016E-26	 	-15009.77523	25.04128	 
190.0	1.0	0.0	8.38498	7.05199	-11.73693	11.93862	13.04484	0.86986	1.14961	201.36632	183.87664	76.42098	0.31748	 	1.3419100000000002E26	 	1.68455E-26	 	-15134.75425	24.9958	 
185.0	1.0	0.0	8.38657	7.05065	-11.75365	11.91472	12.97858	0.86486	1.15625	201.62024	183.97199	76.52521	0.31735	 	2.8676400000000004E26	 	7.79775E-27	 	-15259.50522	24.95019	 
180.0	1.0	0.0	8.38815	7.04932	-11.77031	11.8908	12.91219	0.85982	1.16303	201.87362	184.06675	76.62926	0.31721	 	6.23166E26	 	3.54916E-27	 	-15384.02745	24.90444	 
175.0	1.0	0.0	8.38973	7.048	-11.7869	11.86688	12.84565	0.85474	1.16995	202.12643	184.16091	76.73311	0.31707	 	1.3778499999999998E27	 	1.58747E-27	 	-15508.32016	24.85854	 
170.0	1.0	0.0	8.3913	7.04667	-11.80344	11.84296	12.77896	0.84961	1.17701	202.3787	184.25448	76.83677	0.31694	 	3.10155E27	 	6.97362E-28	 	-15632.38254	24.81248	 
165.0	1.0	0.0	8.39287	7.04536	-11.8199	11.81902	12.71212	0.84444	1.18421	202.63041	184.34746	76.94024	0.3168	 	7.1121E27	 	3.00685E-28	 	-15756.21373	24.76624	 
160.0	1.0	0.0	8.39443	7.04405	-11.83631	11.79508	12.64512	0.83923	1.19157	202.88228	184.4405	77.04378	0.31667	 	1.66241E28	 	1.27171E-28	 	-15879.81281	24.71982	 
155.0	1.0	0.0	8.39599	7.04274	-11.85266	11.77113	12.57796	0.83397	1.19908	203.13288	184.5323	77.14687	0.31653	 	3.96359E28	 	5.27222E-29	 	-16003.1788	24.6732	 
150.0	1.0	0.0	8.39754	7.04144	-11.86894	11.74718	12.51063	0.82867	1.20675	203.38293	184.62351	77.24976	0.3164	 	9.64625E28	 	2.14103E-29	 	-16126.31066	24.62637	 
145.0	1.0	0.0	8.39908	7.04015	-11.88515	11.72322	12.44311	0.82332	1.21459	203.63242	184.71413	77.35245	0.31626	 	2.39809E29	 	8.51047E-30	 	-16249.20727	24.57932	 
140.0	1.0	0.0	8.40062	7.03885	-11.90131	11.69925	12.37542	0.81793	1.2226	203.88135	184.80417	77.45496	0.31613	 	6.0946000000000006E29	 	3.30864E-30	 	-16371.86745	24.53204	 
135.0	1.0	0.0	8.40216	7.03757	-11.9174	11.67527	12.30754	0.81248	1.23079	204.12973	184.89363	77.55727	0.31599	 	1.58471E30	 	1.25706E-30	 	-16494.28995	24.4845	 
130.0	1.0	0.0	8.40369	7.03629	-11.93343	11.65129	12.23945	0.80699	1.23917	204.37756	184.9825	77.65939	0.31586	 	4.21938E30	 	4.66342E-31	 	-16616.47342	24.43669	 
125.0	1.0	0.0	8.40521	7.03501	-11.9494	11.6273	12.17117	0.80146	1.24773	204.62483	185.07079	77.76132	0.31572	 	1.15141E31	 	1.68773E-31	 	-16738.41645	24.38861	 
120.0	1.0	0.0	8.40673	7.03374	-11.9653	11.6033	12.10267	0.79587	1.25648	204.87155	185.1585	77.86305	0.31559	 	3.2232899999999997E31	 	5.95313E-32	 	-16860.11753	24.34021	 
115.0	1.0	0.0	8.40824	7.03248	-11.98114	11.5793	12.03395	0.79024	1.26544	205.11771	185.24564	77.96459	0.31545	 	9.2659E31	 	2.04455E-32	 	-16981.57502	24.2915	 
110.0	1.0	0.0	8.40975	7.03122	-11.99692	11.55529	11.965	0.78455	1.27461	205.36332	185.33219	78.06594	0.31532	 	2.73807E32	 	6.82985E-33	 	-17102.78725	24.24244	 
105.0	1.0	0.0	8.41125	7.02996	-12.01263	11.53127	11.89581	0.77882	1.284	205.60837	185.41817	78.16709	0.31518	 	8.32617E32	 	2.21669E-33	 	-17223.75237	24.19302	 
100.0	1.0	0.0	8.41275	7.02871	-12.02829	11.50725	11.82636	0.77303	1.29361	205.85287	185.50358	78.26805	0.31505	 	2.60849E33	 	6.98201E-34	 	-17344.46845	24.14322	 
95.0	1.0	0.0	8.41424	7.02746	-12.04387	11.48322	11.75666	0.7672	1.30345	206.09681	185.58841	78.36882	0.31492	 	8.42957E33	 	2.1316E-34	 	-17464.93343	24.09299	 
90.0	1.0	0.0	8.41573	7.02622	-12.0594	11.45918	11.68669	0.76131	1.31353	206.3402	185.67268	78.46939	0.31478	 	2.8135100000000004E34	 	6.29976E-35	 	-17585.1451	24.04234	 
85.0	1.0	0.0	8.41721	7.02499	-12.07486	11.43513	11.61644	0.75537	1.32386	206.58303	185.75637	78.56978	0.31465	 	9.711970000000001E34	 	1.79988E-35	 	-17705.10115	23.99121	 
80.0	1.0	0.0	8.41868	7.02376	-12.09026	11.41108	11.54589	0.74937	1.33445	206.82531	185.83949	78.66996	0.31451	 	3.47218E35	 	4.96414E-36	 	-17824.79906	23.93958	 
75.0	1.0	0.0	8.42015	7.02253	-12.1056	11.38702	11.47503	0.74332	1.34531	207.06704	185.92204	78.76996	0.31438	 	1.2876199999999999E36	 	1.31967E-36	 	-17944.23619	23.88743	 
70.0	1.0	0.0	8.42161	7.02131	-12.12087	11.36295	11.40385	0.73722	1.35644	207.30821	186.00403	78.86976	0.31424	 	4.96093E36	 	3.37604E-37	 	-18063.40972	23.8347	 
65.0	1.0	0.0	8.42307	7.0201	-12.13608	11.33888	11.33234	0.73106	1.36787	207.54882	186.08545	78.96936	0.31411	 	1.98912E37	 	8.29729E-38	 	-18182.3166	23.78138	 
60.0	1.0	0.0	8.42452	7.01889	-12.15122	11.3148	11.26047	0.72485	1.37959	207.78888	186.16631	79.06878	0.31398	 	8.31496E37	 	1.95554E-38	 	-18300.95364	23.72741	 
55.0	1.0	0.0	8.42597	7.01768	-12.1663	11.29071	11.18823	0.71858	1.39163	208.02838	186.2466	79.16799	0.31384	 	3.6307E38	 	4.41132E-39	 	-18419.31741	23.67275	 
50.0	1.0	0.0	8.42741	7.01648	-12.18132	11.26662	11.1156	0.71226	1.40399	208.26733	186.32634	79.26702	0.31371	 	1.65932E39	 	9.5052E-40	 	-18537.4042	23.61736	 
45.0	1.0	0.0	8.42885	7.01529	-12.19628	11.24252	11.04257	0.70588	1.41668	208.50572	186.40551	79.36585	0.31357	 	7.95448E39	 	1.95212E-40	 	-18655.21011	23.56118	 
40.0	1.0	0.0	8.43028	7.0141	-12.21117	11.21841	10.96911	0.69943	1.42973	208.74356	186.48412	79.46448	0.31344	 	4.00895E40	 	3.81248E-41	 	-18772.73095	23.50417	 
35.0	1.0	0.0	8.4317	7.01291	-12.226	11.1943	10.8952	0.69294	1.44313	208.98085	186.56218	79.56292	0.31331	 	2.12934E41	 	7.06324E-42	 	-18889.96221	23.44625	 
30.0	1.0	0.0	8.43312	7.01173	-12.24077	11.17018	10.82081	0.68638	1.45692	209.21757	186.63968	79.66117	0.31317	 	1.1950399999999999E42	 	1.23812E-42	 	-19006.89908	23.38737	 
25.0	1.0	0.0	8.43453	7.01056	-12.25547	 	10.74593	0.67976	1.4711	209.45374	186.71662	79.75922	0.31304	 	7.1063E42	 	2.04776E-43	 	-19123.53641	 	 
