T (C)	Fraction solid (wt)-TOTAL	Fraction liquid (wt)-LIQUID	Density (g/(cm)^3)-TOTAL	Molar volume (cm^3)-TOTAL	Volume change (%)-  	Average expansion coeff. (10e-6 1/K)-  	Thermal conductivity (W/(m*K))-TOTAL	Electrical resistivity (10e-6 Ohm*m)-TOTAL	Electrical conductivity (10e6 1/(Ohm*m))-TOTAL	Young's modulus (GPa)-TOTAL	Bulk modulus (GPa)-TOTAL	Shear modulus(GPa)-TOTAL	Poisson's ratio-TOTAL	Liquid viscosity (mPa s)-  	Total viscosity (mPa s)-  	Liquid diffusivity (10e-9 (m^2)/s)-  	Total diffusivity (10e-9 (m^2)/s)-  	Surface Tension (mN/m)-  	Enthalpy (J/mole)-TOTAL	Specific heat (J/(mole K))-TOTAL	Latent heat (J/mole)-TOTAL
1400.0	0.0	1.0	7.43193	7.82958	0.0	30.11393	29.56416	1.38655	0.72121	0.0	126.01751	0.0	0.5	7.18712	7.18712	1.13623	1.13623	1774.77016	51287.649	 	0.0
1395.0	0.0	1.0	7.43597	7.82534	-0.0542102	30.07555	29.48204	1.38626	0.72137	0.0	126.16753	0.0	0.5	7.26477	7.26477	1.12073	1.12073	1777.56216	51083.641	40.8016	0.0
1390.0	0.0	1.0	7.43999	7.8211	-0.10826	30.03732	29.39992	1.38596	0.72152	0.0	126.31754	0.0	0.5	7.34373	7.34373	1.10535	1.10535	1780.38059	50880.104	40.7074	0.0
1385.0	0.0	1.0	7.44401	7.81688	-0.16216	29.99925	29.31779	1.38567	0.72167	0.0	126.46756	0.0	0.5	7.42404	7.42404	1.09011	1.09011	1783.22549	50677.036	40.6136	0.0
1380.0	0.0	1.0	7.44802	7.81268	-0.2159	29.96132	29.23567	1.38537	0.72183	0.0	126.61757	0.0	0.5	7.50572	7.50572	1.075	1.075	1786.09686	50474.435	40.5202	0.0
1375.0	0.0	1.0	7.45202	7.80848	-0.26948	29.92355	29.15355	1.38507	0.72199	0.0	126.76759	0.0	0.5	7.5888	7.5888	1.06001	1.06001	1788.99466	50272.297	40.4276	0.0
1370.0	0.0	1.0	7.45601	7.8043	-0.32291	29.88593	29.07143	1.38477	0.72214	0.0	126.9176	0.0	0.5	7.67331	7.67331	1.04516	1.04516	1791.91886	50070.621	40.3352	0.0
1365.0	0.0	1.0	7.46	7.80013	-0.37618	29.84847	28.9893	1.38446	0.7223	0.0	127.06762	0.0	0.5	7.75929	7.75929	1.03043	1.03043	1794.86938	49869.403	40.2436	0.0
1360.0	0.0	1.0	7.46398	7.79597	-0.42929	29.81118	28.90718	1.38416	0.72246	0.0	127.21763	0.0	0.5	7.84677	7.84677	1.01583	1.01583	1797.84615	49668.641	40.1524	0.0
1355.0	0.0	1.0	7.46795	7.79182	-0.48225	29.77404	28.82506	1.38385	0.72262	0.0	127.36764	0.0	0.5	7.93579	7.93579	1.00136	1.00136	1800.84908	49468.333	40.0616	0.0
1351.55	0.0	1.0	7.47069	7.78897	-0.5187	29.74851	28.76839	1.38364	0.72273	0.0	127.47116	0.0	0.5	7.99812	7.99812	0.99145	0.99145	1802.93632	49330.382	39.9851	0.0
1350.0	0.0491001	0.9509	7.48461	7.77443	-0.70441	29.25808	28.91077	1.37551	0.727	5.65491E-4	127.99597	1.89318E-4	0.49349	8.03145	8.75534	0.9864	0.90484	1802.42237	48520.182	522.72991	748.292
1345.0	0.19183	0.80817	7.52544	7.73232	-1.24227	27.84196	29.32965	1.35169	0.73981	0.1352	129.51533	0.0458484	0.47439	8.14078	56.44915	0.97015	0.13991	1800.84627	46158.98	472.2404	2910.086
1340.0	0.30667	0.69333	7.55894	7.69803	-1.68022	26.69976	29.66591	1.33224	0.75061	0.9022	130.77757	0.30923	0.45878	8.25264	331.52433	0.95404	0.023749	1799.39311	44234.768	384.8424	4635.336
1335.0	0.40023	0.59977	7.58676	7.66981	-2.04053	25.77098	29.93845	1.31602	0.75987	2.66479	131.85112	0.92149	0.44591	8.36711	998.50937	0.93808	0.0078607	1798.06154	42643.604	318.2328	6027.981
1330.0	0.4773	0.5227	7.6102	7.64624	-2.34166	25.00501	30.16018	1.30229	0.76788	5.47477	132.78238	1.90735	0.43518	8.48427	2133.67405	0.92224	0.00366718	1796.85004	41309.622	266.7964	7163.887
1325.0	0.54144	0.45856	7.63015	7.62622	-2.59728	24.3643	30.34001	1.29053	0.77488	9.19026	133.6036	3.22206	0.42614	8.60418	3749.26007	0.90656	0.00208046	1795.75615	40176.642	226.596	8099.23
1320.0	0.59528	0.40472	7.64732	7.60911	-2.81589	23.82578	30.48469	1.28039	0.78101	13.59122	134.34102	4.79075	0.41849	8.72698	5823.80581	0.891	0.00133517	1794.77549	39202.506	194.8272	8876.165
1315.0	0.64087	0.35913	7.66225	7.59425	-3.00569	23.36678	30.59985	1.27156	0.78643	18.45646	135.01206	6.53588	0.41193	8.85272	8325.70969	0.87559	9.31016E-4	1793.90472	38355.192	169.4628	9526.711
1310.0	0.67974	0.32026	7.67537	7.58129	-3.17116	22.97515	30.68994	1.26384	0.79124	23.58894	135.63184	8.38691	0.40629	8.98154	11222.44732	0.86032	6.88527E-4	1793.13838	37610.1	149.0184	10075.469
1305.0	0.71312	0.28688	7.68699	7.5698	-3.31788	22.63533	30.75854	1.25704	0.79552	28.83233	136.20903	10.28697	0.4014	9.11352	14487.31064	0.84518	5.31676E-4	1792.47333	36948.13	132.394	10541.535
1300.0	0.74195	0.25805	7.69738	7.5596	-3.44823	22.34099	30.80901	1.251	0.79936	34.06657	136.75331	12.19159	0.39713	9.24867	18101.53002	0.83019	4.24172E-4	1791.90379	36354.308	118.7644	10939.879
1295.0	0.76701	0.23299	7.70673	7.55042	-3.56542	22.08316	30.84371	1.24562	0.80281	39.20602	137.26969	14.06859	0.39339	9.38722	22054.31223	0.81534	3.47041E-4	1791.4258	35816.791	107.5034	11282.344
1290.0	0.7889	0.2111	7.71522	7.54209	-3.67185	21.85514	30.86498	1.2408	0.80593	44.19527	137.76319	15.89667	0.39008	9.52923	26344.69455	0.80063	2.89597E-4	1791.03552	35326.127	98.1328	11578.381
1285.0	0.80813	0.19187	7.72298	7.5345	-3.76875	21.65368	30.8746	1.23644	0.80877	48.99386	138.23802	17.65997	0.38714	9.67485	30976.39982	0.78605	2.45508E-4	1790.72781	34874.716	90.2822	11835.583
1280.0	0.82509	0.17491	7.73012	7.52752	-3.85789	21.4738	30.87414	1.23249	0.81136	53.57872	138.69684	19.34911	0.38453	9.82416	35959.41366	0.77162	2.10808E-4	1790.49946	34456.401	83.663	12060.109
1275.0	0.84011	0.15989	7.73673	7.52108	-3.9402	21.31291	30.865	1.22889	0.81374	57.94308	139.14237	20.96077	0.38218	9.97727	41313.47783	0.75733	1.82898E-4	1790.34581	34066.157	78.0488	12256.979
1270.0	0.85348	0.14652	7.74288	7.51507	-4.01699	21.16737	30.8482	1.22559	0.81593	62.08155	139.57609	22.49225	0.38007	10.13436	47058.43115	0.74319	1.60051E-4	1790.26442	33699.858	73.2598	12430.318
1265.0	0.86541	0.13459	7.74864	7.50947	-4.0885	21.03662	30.82479	1.22254	0.81797	65.99635	140.00039	23.94372	0.37816	10.29546	53221.73161	0.72919	1.41058E-4	1790.25025	33354.095	69.1526	12583.533
1260.0	0.87612	0.12388	7.75407	7.50419	-4.15593	20.91719	30.79556	1.21973	0.81986	69.69896	140.41594	25.31894	0.37642	10.46083	59837.98523	0.71533	1.25053E-4	1790.3016	33026.035	65.612	12719.456
1255.0	0.88575	0.11425	7.75919	7.4992	-4.21966	20.80806	30.76119	1.21711	0.82162	73.19517	140.82384	26.61959	0.37484	10.63052	66941.52805	0.70161	1.11418E-4	1790.41504	32713.308	62.5454	12840.453
1250.0	0.89443	0.10557	7.76406	7.49447	-4.28005	20.70824	30.72224	1.21466	0.82327	76.4936	141.22509	27.84849	0.37339	10.80468	74571.82531	0.68805	9.96907E-5	1790.5874	32413.924	59.8768	12948.511
1245.0	0.9023	0.0977032	7.7687	7.48998	-4.33743	20.61686	30.67935	1.21237	0.82483	79.61103	141.62073	29.01153	0.37206	10.98355	82780.62464	0.67462	8.95102E-5	1790.81536	32126.204	57.544	13045.309
1240.0	0.90944	0.0905609	7.77314	7.48566	-4.39257	20.53164	30.63286	1.21021	0.8263	82.55805	142.01066	30.11244	0.37083	11.16722	91617.21278	0.66134	8.06105E-5	1791.09863	31848.723	55.4962	13132.27
1235.0	0.91594	0.0840624	7.77739	7.48153	-4.44526	20.45329	30.58316	1.20817	0.8277	85.34014	142.39596	31.15295	0.3697	11.35584	101133.3668	0.6482	7.27841E-5	1791.43275	31580.266	53.6914	13210.606
1230.0	0.92187	0.0781286	7.78149	7.47756	-4.49598	20.38042	30.53063	1.20624	0.82902	87.97411	142.77689	32.13917	0.36864	11.5497	111396.69	0.63521	6.58592E-5	1791.81643	31319.794	52.0944	13281.353
1225.0	0.9273	0.072699	7.78545	7.47373	-4.54493	20.31248	30.47557	1.2044	0.83029	90.46924	143.15384	33.0744	0.36766	11.74875	122474.801	0.62237	5.97029E-5	1792.24759	31066.415	50.6758	13345.402
1220.0	0.93228	0.067717	7.78928	7.47002	-4.59228	20.24899	30.4182	1.20264	0.8315	92.83521	143.52702	33.96209	0.36675	11.95341	134442.2142	0.60967	5.42069E-5	1792.72429	30819.358	49.4114	13403.521
1216.08	0.93589	0.0641053	7.79221	7.46719	-4.62843	20.20195	30.37165	1.20132	0.83242	94.60166	143.8173	34.62542	0.36607	12.11787	144499.2828	0.59982	5.03016E-5	1793.12859	30629.669	 	13445.245
1215.0	0.93718	0.0628249	7.79302	7.46638	-4.63875	20.18773	30.36016	1.20091	0.83271	95.21787	143.90414	34.8569	0.36584	12.16784	147590.0987	0.59693	4.92126E-5	1793.3158	30573.207	49.2302	13461.125
1210.0	0.94289	0.0571117	7.79673	7.46269	-4.68599	20.12352	30.30569	1.19902	0.83401	98.01865	144.3029	35.90974	0.36479	12.40365	162705.2909	0.58361	4.44908E-5	1794.19864	30314.647	51.712	13531.528
1205.0	0.94804	0.0519574	7.80032	7.4591	-4.73176	20.06345	30.24849	1.19724	0.83525	100.63688	144.69414	36.89502	0.36383	12.64538	179008.8666	0.57052	4.03024E-5	1795.09234	30064.07	50.1154	13594.332
1202.93	0.95	0.0500049	7.80176	7.45766	-4.75015	20.04014	30.22396	1.19654	0.83575	101.65491	144.85376	37.27839	0.36346	12.74698	186093.2732	0.56518	3.87139E-5	1795.46209	29963.018	 	13617.898
1200.0	0.95375	0.0462533	7.80413	7.45525	-4.78101	19.99174	30.18698	1.19562	0.83639	103.09196	145.10541	37.82395	0.36279	12.95812	197496.0496	0.55487	3.64062E-5	1796.48049	29796.088	53.5964	13674.927
1195.0	0.95954	0.0404585	7.80798	7.45128	-4.83161	19.91511	30.12274	1.1941	0.83745	105.37519	145.52238	38.69158	0.36173	13.32866	218056.9722	0.53761	3.28615E-5	1798.22208	29521.042	55.0092	13762.969
1190.0	0.96459	0.0354065	7.81163	7.44751	-4.87976	19.8457	30.05633	1.19267	0.83846	107.45682	145.92594	39.48332	0.36079	13.71287	240087.3986	0.52077	2.97445E-5	1799.96285	29257.885	52.6314	13839.501
1185.0	0.96902	0.0309786	7.8151	7.4439	-4.92587	19.78228	29.98804	1.1913	0.83942	109.38502	146.31827	40.21702	0.35993	14.11112	263750.4557	0.50434	2.69833E-5	1801.70164	29004.81	50.615	13906.33
1182.12	0.9713	0.0287	7.81703	7.44189	-4.95154	19.74836	29.94789	1.19054	0.83996	110.43811	146.53942	40.61768	0.35948	14.34683	278154.2635	0.49508	2.55355E-5	1802.69869	28863.539	 	13940.55
1180.93	0.97615	0.0238499	7.81906	7.4398	-4.97831	19.68192	29.93856	1.18994	0.84038	112.37021	146.78679	41.35216	0.3587	14.43896	288894.7362	0.49152	2.45661E-5	1803.91169	28721.329	 	14038.525
1180.93	0.97615	0.0238499	7.81906	7.4398	-4.97831	19.68192	29.93856	1.18994	0.84038	112.37021	146.78679	41.35216	0.3587	14.43896	288894.7801	0.49152	2.45661E-5	1803.9117	28721.328	 	14038.525
1180.0	0.97994	0.0200578	7.82088	7.43798	-5.00148	19.62261	29.92797	1.1896	0.84062	114.17142	146.97466	42.0339	0.35809	14.48817	297528.8875	0.48953	2.38379E-5	1804.75377	28607.001	79.5618	14118.269
1175.0	0.99355	0.00645361	7.82839	7.43044	-5.09779	19.39409	29.85981	1.18821	0.8416	124.76011	147.77882	46.00851	0.35584	14.75335	339003.2564	0.47908	2.08495E-5	1809.15207	28135.4	94.3202	14404.375
1170.0	1.0	0.0	7.83336	7.42536	-5.1627	19.26634	29.78597	1.18704	0.84243	129.35144	148.34417	47.74272	0.35467	 	375481.6626	 	1.8759E-5	 	27816.622	63.7556	14538.03
1165.0	1.0	0.0	7.83586	7.42298	-5.19314	19.25077	29.70245	1.18625	0.84299	129.7972	148.67259	47.91356	0.35449	 	405694.8268	 	1.73018E-5	 	27626.85374	37.95365	 
1160.0	1.0	0.0	7.83836	7.42061	-5.22334	19.23587	29.61893	1.18546	0.84355	130.24239	149.00038	48.08422	0.35432	 	438572.6297	 	1.59491E-5	 	27451.48558	35.07363	 
1155.0	1.0	0.0	7.84085	7.41825	-5.25348	19.22103	29.5354	1.18467	0.84412	130.68675	149.3265	48.25461	0.35414	 	474373.6244	 	1.4694E-5	 	27276.38787	35.01954	 
1150.0	1.0	0.0	7.84334	7.4159	-5.28356	19.20625	29.45187	1.18387	0.84469	131.13027	149.65096	48.42472	0.35396	 	513380.0577	 	1.353E-5	 	27101.56016	34.96554	 
1145.0	1.0	0.0	7.84583	7.41355	-5.31359	19.19153	29.36834	1.18307	0.84526	131.57294	149.97377	48.59457	0.35378	 	555903.5659	 	1.24511E-5	 	26927.002	34.91163	 
1140.0	1.0	0.0	7.84831	7.4112	-5.34356	19.17687	29.2848	1.18226	0.84584	132.01478	150.29493	48.76415	0.3536	 	602288.3573	 	1.14517E-5	 	26752.71295	34.85781	 
1135.0	1.0	0.0	7.85079	7.40886	-5.37347	19.16228	29.20126	1.18144	0.84642	132.45577	150.61446	48.93346	0.35343	 	652915.013	 	1.05264E-5	 	26578.69253	34.80408	 
1130.0	1.0	0.0	7.85327	7.40652	-5.40332	19.14775	29.11772	1.18063	0.84701	132.89593	150.93235	49.1025	0.35325	 	708204.4346	 	9.67013E-6	 	26404.9403	34.75045	 
1125.0	1.0	0.0	7.85574	7.40419	-5.43311	19.13328	29.03416	1.17981	0.8476	133.33524	151.24861	49.27128	0.35307	 	768622.5279	 	8.87825E-6	 	26231.4558	34.6969	 
1120.0	1.0	0.0	7.85822	7.40186	-5.46285	19.11889	28.95061	1.17898	0.84819	133.77371	151.56325	49.43978	0.3529	 	834685.36	 	8.14633E-6	 	26058.23859	34.64344	 
1115.0	1.0	0.0	7.86068	7.39954	-5.49253	19.10455	28.86705	1.17815	0.84879	134.21135	151.87628	49.60801	0.35272	 	906964.816	 	7.47021E-6	 	25885.28819	34.59008	 
1110.0	1.0	0.0	7.86315	7.39722	-5.52215	19.09029	28.78348	1.17731	0.84939	134.64814	152.1877	49.77597	0.35254	 	986095.2325	 	6.846E-6	 	25712.60416	34.53681	 
1105.0	1.0	0.0	7.86561	7.3949	-5.55171	19.0761	28.69991	1.17647	0.85	135.08409	152.49753	49.94366	0.35236	 	1072780.498	 	6.27007E-6	 	25540.18605	34.48362	 
1101.18	1.0	0.0	7.86749	7.39314	-5.57427	19.06529	28.636	1.17583	0.85046	135.41689	152.73336	50.07171	0.35223	 	1144646.217	 	5.86011E-6	 	25408.52247	 	 
1100.0	1.0	0.0	7.86859	7.3921	-5.58746	19.0402	28.58919	1.17674	0.8498	135.62107	152.8565	50.15105	0.35213	 	1171340.667	 	5.72165E-6	 	25336.01298	40.83461	 
1095.0	1.0	0.0	7.87321	7.38777	-5.64286	18.93513	28.39435	1.18051	0.84709	136.47587	153.3711	50.4833	0.35169	 	1292402.759	 	5.16681E-6	 	25030.97902	61.00679	 
1090.0	1.0	0.0	7.87775	7.38351	-5.69728	18.83254	28.20583	1.18405	0.84456	137.31067	153.87235	50.80793	0.35127	 	1426888.054	 	4.66273E-6	 	24730.79956	60.03589	 
1085.0	1.0	0.0	7.88222	7.37932	-5.75076	18.73233	28.02327	1.18739	0.84218	138.1265	154.36109	51.12532	0.35086	 	1576379.205	 	4.20507E-6	 	24435.29513	59.10088	 
1080.0	1.0	0.0	7.88662	7.3752	-5.80332	18.6344	27.84636	1.19054	0.83996	138.92433	154.83806	51.43582	0.35046	 	1742656.395	 	3.78984E-6	 	24144.29496	58.20003	 
1075.0	1.0	0.0	7.89095	7.37116	-5.85501	18.53866	27.67479	1.19349	0.83788	139.70502	155.30397	51.73978	0.35007	 	1927723.36	 	3.41335E-6	 	23857.6362	57.33175	 
1070.0	1.0	0.0	7.89521	7.36718	-5.90585	18.44505	27.50829	1.19626	0.83594	140.46943	155.75943	52.03751	0.34969	 	2133837.001	 	3.0722E-6	 	23575.1634	56.49456	 
1068.64	1.0	0.0	7.89636	7.36611	-5.91948	18.42005	27.464	1.19698	0.83543	140.67394	155.88119	52.11718	0.34959	 	2193661.207	 	2.9854E-6	 	23499.29106	 	 
1065.0	1.0	0.0	7.8994	7.36327	-5.95575	18.35393	27.34661	1.19886	0.83413	141.21882	156.20588	52.32947	0.34932	 	2363626.109	 	2.7632E-6	 	23296.47957	55.73677	 
1060.0	1.0	0.0	7.90353	7.35943	-6.00483	18.26488	27.18949	1.20128	0.83245	141.95355	156.64323	52.61581	0.34896	 	2619918.787	 	2.48358E-6	 	23021.62573	54.97077	 
1055.0	1.0	0.0	7.90759	7.35564	-6.05317	18.17768	27.0367	1.20354	0.83088	142.67417	157.07168	52.89674	0.34861	 	2905930.967	 	2.23074E-6	 	22750.55446	54.21425	 
1050.0	1.0	0.0	7.9116	7.35191	-6.10078	18.09227	26.88802	1.20564	0.82944	143.38133	157.49168	53.1725	0.34827	 	3225324.655	 	2.00227E-6	 	22483.13294	53.4843	 
1045.0	1.0	0.0	7.91556	7.34824	-6.1477	18.00858	26.74325	1.20758	0.8281	144.07564	157.90368	53.44334	0.34793	 	3582239.601	 	1.79596E-6	 	22219.2337	52.77985	 
1040.0	1.0	0.0	7.91946	7.34462	-6.19395	17.92655	26.60219	1.20938	0.82687	144.7577	158.30808	53.70948	0.3476	 	3981359.46	 	1.60979E-6	 	21958.73433	52.09988	 
1035.0	1.0	0.0	7.92331	7.34105	-6.23955	17.84611	26.46463	1.21104	0.82574	145.42807	158.70524	53.97113	0.34728	 	4427987.406	 	1.44191E-6	 	21701.51717	51.44343	 
1030.0	1.0	0.0	7.92711	7.33753	-6.28452	17.76721	26.33041	1.21256	0.8247	146.08728	159.09553	54.22849	0.34696	 	4928133.185	 	1.29062E-6	 	21447.46911	50.80961	 
1025.0	1.0	0.0	7.93087	7.33405	-6.32889	17.68978	26.19936	1.21395	0.82376	146.73582	159.47926	54.48175	0.34665	 	5488611.582	 	1.15438E-6	 	21196.4813	50.19756	 
1020.0	1.0	0.0	7.93458	7.33063	-6.37267	17.61379	26.0713	1.21521	0.8229	147.37417	159.85675	54.7311	0.34635	 	6117158.122	 	1.03178E-6	 	20948.44899	49.60646	 
1015.0	1.0	0.0	7.93824	7.32724	-6.41589	17.53916	25.9461	1.21636	0.82213	148.0028	160.22827	54.97671	0.34605	 	6822559.13	 	9.21522E-7	 	20703.27136	49.03553	 
1010.0	1.0	0.0	7.94186	7.3239	-6.45856	17.46585	25.82359	1.21738	0.82143	148.62211	160.59411	55.21874	0.34576	 	7614804.055	 	8.22442E-7	 	20460.8513	48.48401	 
1005.0	1.0	0.0	7.94544	7.3206	-6.5007	17.39381	25.70365	1.2183	0.82082	149.23253	160.95452	55.45735	0.34547	 	8505259.115	 	7.33468E-7	 	20221.09534	47.95119	 
1000.0	1.0	0.0	7.94898	7.31734	-6.54233	17.32299	25.58614	1.2191	0.82027	149.83445	161.30973	55.69268	0.34519	 	9506868.037	 	6.53625E-7	 	19983.91342	47.43638	 
995.0	1.0	0.0	7.95248	7.31412	-6.58347	17.25336	25.47094	1.21981	0.8198	150.42822	161.65996	55.92489	0.34491	 	1.063438451E7	 	5.82029E-7	 	19749.21886	46.93891	 
990.0	1.0	0.0	7.95595	7.31094	-6.62413	17.18485	25.35792	1.22041	0.81939	151.01421	162.00544	56.15411	0.34464	 	1.190463872E7	 	5.17876E-7	 	19516.9282	46.45813	 
985.0	1.0	0.0	7.95937	7.30779	-6.66433	17.11743	25.24699	1.22092	0.81905	151.59274	162.34635	56.38046	0.34437	 	1.333684802E7	 	4.60432E-7	 	19286.96106	45.99343	 
980.0	1.0	0.0	7.96276	7.30468	-6.70409	17.05106	25.13802	1.22134	0.81877	152.16414	162.68289	56.60406	0.34411	 	1.495297521E7	 	4.09037E-7	 	19059.24008	45.5442	 
975.0	1.0	0.0	7.96612	7.3016	-6.74341	16.9857	25.03093	1.22168	0.81855	152.72869	163.01523	56.82504	0.34385	 	1.67781419E7	 	3.63086E-7	 	18833.6908	45.10986	 
970.0	1.0	0.0	7.96945	7.29855	-6.78231	16.92131	24.92562	1.22192	0.81838	153.2867	163.34354	57.0435	0.34359	 	1.884111147E7	 	3.22035E-7	 	18610.24157	44.68985	 
965.0	1.0	0.0	7.97274	7.29554	-6.8208	16.85785	24.82199	1.22209	0.81827	153.83843	163.66797	57.25955	0.34334	 	2.117484645E7	 	2.85391E-7	 	18388.82345	44.28363	 
960.0	1.0	0.0	7.976	7.29256	-6.85891	16.79528	24.71996	1.22218	0.81821	154.38413	163.98867	57.47329	0.34309	 	2.381715815E7	 	2.52704E-7	 	18169.3701	43.89067	 
955.0	1.0	0.0	7.97923	7.2896	-6.89663	16.73358	24.61946	1.22219	0.8182	154.92406	164.30578	57.68481	0.34285	 	2.681146079E7	 	2.23572E-7	 	17951.81774	43.51047	 
950.0	1.0	0.0	7.98243	7.28668	-6.93398	16.6727	24.5204	1.22213	0.81824	155.45845	164.61944	57.8942	0.34261	 	3.020764999E7	 	1.97628E-7	 	17736.10503	43.14254	 
945.0	1.0	0.0	7.98561	7.28378	-6.97098	16.61262	24.42271	1.22201	0.81833	155.98752	164.92976	58.10155	0.34237	 	3.406312843E7	 	1.74543E-7	 	17522.173	42.78641	 
940.0	1.0	0.0	7.98876	7.28091	-7.00763	16.5533	24.32633	1.22181	0.81846	156.51148	165.23687	58.30694	0.34213	 	3.844399763E7	 	1.54018E-7	 	17309.9649	42.44162	 
935.0	1.0	0.0	7.99188	7.27807	-7.04394	16.49471	24.23119	1.22155	0.81863	157.03052	165.54087	58.51045	0.3419	 	4.342645619E7	 	1.35785E-7	 	17099.42625	42.10773	 
930.0	1.0	0.0	7.99497	7.27525	-7.07993	16.43684	24.13724	1.22123	0.81884	157.54484	165.84187	58.71215	0.34167	 	4.909843326E7	 	1.19602E-7	 	16890.50466	41.78432	 
925.0	1.0	0.0	7.99804	7.27246	-7.1156	16.37963	24.0444	1.22085	0.8191	158.05462	166.13997	58.91211	0.34144	 	5.556149297E7	 	1.0525E-7	 	16683.14975	41.47098	 
920.0	1.0	0.0	8.00109	7.26969	-7.15096	16.32308	23.95264	1.22042	0.81939	158.56003	166.43525	59.1104	0.34122	 	6.293307475E7	 	9.25343E-8	 	16477.31314	41.16732	 
915.0	1.0	0.0	8.00411	7.26694	-7.18602	16.26715	23.86189	1.21992	0.81972	159.06123	166.72781	59.30707	0.341	 	7.134912542E7	 	8.12773E-8	 	16272.94833	40.87296	 
910.0	1.0	0.0	8.00711	7.26422	-7.22079	16.21182	23.77211	1.21938	0.82009	159.55837	167.01774	59.5022	0.34078	 	8.096717059E7	 	7.1321E-8	 	16070.0106	40.58755	 
905.0	1.0	0.0	8.01009	7.26152	-7.25528	16.15706	23.68325	1.21878	0.82049	160.05161	167.3051	59.69584	0.34056	 	9.196995336E7	 	6.25232E-8	 	15868.45702	40.31072	 
900.0	1.0	0.0	8.01304	7.25884	-7.2895	16.10286	23.59527	1.21813	0.82093	160.54107	167.58997	59.88804	0.34034	 	1.045696993E8	 	5.47563E-8	 	15668.2463	40.04214	 
895.0	1.0	0.0	8.01598	7.25618	-7.32344	16.04918	23.50813	1.21744	0.8214	161.02689	167.87243	60.07885	0.34013	 	1.190131332E8	 	4.79061E-8	 	15469.33878	39.7815	 
890.0	1.0	0.0	8.01889	7.25355	-7.35713	15.99601	23.42179	1.2167	0.8219	161.5092	168.15254	60.26832	0.33992	 	1.355874475E8	 	4.187E-8	 	15271.69633	39.52849	 
885.0	1.0	0.0	8.02179	7.25093	-7.39056	15.94332	23.33621	1.21591	0.82243	161.98812	168.43036	60.4565	0.33971	 	1.546272756E8	 	3.65566E-8	 	15075.28231	39.2828	 
880.0	1.0	0.0	8.02466	7.24833	-7.42375	15.8911	23.25135	1.21508	0.82299	162.46375	168.70595	60.64343	0.3395	 	1.765230237E8	 	3.18839E-8	 	14880.06128	39.04421	 
875.0	1.0	0.0	8.02752	7.24575	-7.4567	15.83932	23.16719	1.2142	0.82359	162.93621	168.97938	60.82915	0.33929	 	2.017306829E8	 	2.77788E-8	 	14685.99909	38.81244	 
870.0	1.0	0.0	8.03036	7.24319	-7.48941	15.78797	23.08369	1.21329	0.82421	163.4056	169.25068	61.01371	0.33909	 	2.307834639E8	 	2.4176E-8	 	14493.06383	38.58705	 
865.0	1.0	0.0	8.03318	7.24065	-7.5219	15.73702	23.00082	1.21233	0.82486	163.87201	169.51992	61.19714	0.33889	 	2.643056553E8	 	2.10174E-8	 	14301.22421	38.36792	 
860.0	1.0	0.0	8.03598	7.23812	-7.55416	15.68647	22.91856	1.21134	0.82553	164.33553	169.78714	61.37947	0.33868	 	3.030290692E8	 	1.82511E-8	 	14110.45015	38.15481	 
855.0	1.0	0.0	8.03877	7.23561	-7.5862	15.63629	22.83687	1.21031	0.82624	164.79495	170.05104	61.56026	0.33848	 	3.478125842E8	 	1.5831E-8	 	13920.7127	37.94749	 
850.0	1.0	0.0	8.04154	7.23312	-7.61803	15.58647	22.75574	1.20924	0.82696	165.25314	170.31454	61.74058	0.33829	 	3.996655329E8	 	1.3716E-8	 	13731.98402	37.74574	 
845.0	1.0	0.0	8.04381	7.23108	-7.64405	15.5626	22.68398	1.20767	0.82804	165.63415	170.54925	61.88985	0.33814	 	4.554675304E8	 	1.1982E-8	 	13575.91766	31.21327	 
840.0	1.0	0.0	8.04607	7.22905	-7.67001	15.53873	22.61222	1.20608	0.82913	166.01443	170.78282	62.03889	0.33799	 	5.19670494E8	 	1.04547E-8	 	13416.90343	31.80285	 
835.0	1.0	0.0	8.04832	7.22702	-7.6959	15.51486	22.54044	1.20449	0.83023	166.39399	171.01525	62.18769	0.33784	 	5.936295465E8	 	9.11108E-9	 	13258.12817	31.75505	 
830.0	1.0	0.0	8.05058	7.225	-7.72173	15.49098	22.46865	1.20288	0.83134	166.77284	171.24654	62.33625	0.33769	 	6.789328133E8	 	7.93039E-9	 	13099.5913	31.70737	 
825.0	1.0	0.0	8.05283	7.22298	-7.7475	15.46709	22.39686	1.20127	0.83245	167.15096	171.47671	62.48458	0.33754	 	7.774439438E8	 	6.89413E-9	 	12941.2922	31.65982	 
820.0	1.0	0.0	8.05507	7.22097	-7.77321	15.4432	22.32505	1.19965	0.83358	167.52836	171.70574	62.63267	0.33739	 	8.9135284E8	 	5.98573E-9	 	12783.23024	31.61239	 
815.0	1.0	0.0	8.05731	7.21896	-7.79885	15.41931	22.25324	1.19801	0.83472	167.90505	171.93366	62.78052	0.33724	 	1.023236262E9	 	5.19038E-9	 	12625.4048	31.56509	 
810.0	1.0	0.0	8.05955	7.21696	-7.82443	15.3954	22.18141	1.19637	0.83586	168.28101	172.16045	62.92813	0.33709	 	1.176130334E9	 	4.4949E-9	 	12467.81524	31.51791	 
805.0	1.0	0.0	8.06178	7.21496	-7.84995	15.3715	22.10957	1.19472	0.83702	168.65626	172.38612	63.07551	0.33694	 	1.353617426E9	 	3.8875E-9	 	12310.46091	31.47087	 
800.0	1.0	0.0	8.06401	7.21297	-7.8754	15.34758	22.03772	1.19305	0.83819	169.03079	172.61068	63.22264	0.33679	 	1.559930393E9	 	3.3577E-9	 	12153.34114	31.42395	 
795.0	1.0	0.0	8.06623	7.21098	-7.90079	15.32366	21.96586	1.19138	0.83936	169.4046	172.83413	63.36954	0.33664	 	1.800077848E9	 	2.89619E-9	 	11996.45524	31.37718	 
790.0	1.0	0.0	8.06845	7.209	-7.92612	15.29974	21.89399	1.18969	0.84055	169.77769	173.05647	63.51621	0.33649	 	2.079994938E9	 	2.4947E-9	 	11839.80252	31.33054	 
785.0	1.0	0.0	8.07066	7.20702	-7.95139	15.27581	21.82211	1.188	0.84175	170.15006	173.2777	63.66263	0.33634	 	2.406725077E9	 	2.14589E-9	 	11683.38225	31.28405	 
780.0	1.0	0.0	8.07287	7.20505	-7.97659	15.25187	21.75022	1.18629	0.84296	170.52171	173.49784	63.80882	0.33619	 	2.788639353E9	 	1.84325E-9	 	11527.19372	31.23771	 
775.0	1.0	0.0	8.07508	7.20308	-8.00174	15.22793	21.67832	1.18458	0.84418	170.89264	173.71688	63.95477	0.33604	 	3.235701829E9	 	1.58104E-9	 	11371.23617	31.19151	 
770.0	1.0	0.0	8.07728	7.20111	-8.02681	15.20399	21.6064	1.18285	0.84541	171.26286	173.93482	64.10048	0.33589	 	3.75979085E9	 	1.35416E-9	 	11215.50882	31.14547	 
765.0	1.0	0.0	8.07948	7.19916	-8.05183	15.18003	21.53447	1.18111	0.84666	171.63235	174.15167	64.24596	0.33574	 	4.375088804E9	 	1.15814E-9	 	11060.01089	31.09959	 
760.0	1.0	0.0	8.08167	7.1972	-8.07678	15.15607	21.46253	1.17937	0.84791	172.00113	174.36743	64.39119	0.3356	 	5.098555725E9	 	9.89015E-10	 	10904.74156	31.05387	 
755.0	1.0	0.0	8.08386	7.19525	-8.10167	15.13211	21.39058	1.17761	0.84918	172.36919	174.58211	64.53619	0.33545	 	5.950505688E9	 	8.43314E-10	 	10749.69999	31.00831	 
750.0	1.0	0.0	8.08605	7.19331	-8.1265	15.10814	21.31862	1.17583	0.85046	172.73653	174.7957	64.68095	0.3353	 	6.955309535E9	 	7.17975E-10	 	10594.88532	30.96293	 
745.0	1.0	0.0	8.08823	7.19137	-8.15127	15.08417	21.24664	1.17405	0.85175	173.10315	175.00822	64.82547	0.33515	 	8.142253063E9	 	6.10315E-10	 	10440.29666	30.91773	 
740.0	1.0	0.0	8.0904	7.18944	-8.17597	15.06019	21.17465	1.17226	0.85305	173.46906	175.21966	64.96976	0.335	 	9.546586894E9	 	5.17979E-10	 	10285.93308	30.87272	 
735.0	1.0	0.0	8.09257	7.18751	-8.20061	15.0362	21.10265	1.17045	0.85437	173.83425	175.43003	65.1138	0.33485	 	1.12108E10	 	4.38909E-10	 	10131.79363	30.82789	 
730.0	1.0	0.0	8.09474	7.18558	-8.22518	15.01221	21.03063	1.16864	0.8557	174.19872	175.63932	65.25761	0.3347	 	1.3186299999999998E10	 	3.71305E-10	 	9977.87732	30.78326	 
725.0	1.0	0.0	8.0969	7.18366	-8.24969	14.98821	20.95861	1.16681	0.85704	174.56247	175.84755	65.40118	0.33455	 	1.5534999999999998E10	 	3.13596E-10	 	9824.18313	30.73884	 
720.0	1.0	0.0	8.09906	7.18175	-8.27414	14.96421	20.88656	1.16497	0.85839	174.9255	176.05472	65.54451	0.3344	 	1.83324E10	 	2.64412E-10	 	9670.71001	30.69462	 
715.0	1.0	0.0	8.10122	7.17984	-8.29853	14.9402	20.81451	1.16312	0.85976	175.28782	176.26083	65.6876	0.33425	 	2.16698E10	 	2.22564E-10	 	9517.45684	30.65063	 
710.0	1.0	0.0	8.10336	7.17793	-8.32285	14.91619	20.74244	1.16125	0.86114	175.64941	176.46588	65.83046	0.3341	 	2.5658399999999996E10	 	1.87015E-10	 	9364.42249	30.60687	 
705.0	1.0	0.0	8.10551	7.17604	-8.34712	14.89217	20.67035	1.15937	0.86253	176.0103	176.66988	65.97307	0.33396	 	3.0433699999999996E10	 	1.56869E-10	 	9211.60577	30.56335	 
700.0	1.0	0.0	8.10765	7.17414	-8.37131	14.86814	20.59825	1.15749	0.86394	176.37046	176.87282	66.11545	0.33381	 	3.6161E10	 	1.31349E-10	 	9059.00543	30.52007	 
695.0	1.0	0.0	8.10979	7.17225	-8.39545	14.84411	20.52614	1.15558	0.86536	176.7299	177.07472	66.25759	0.33366	 	4.30427E10	 	1.09782E-10	 	8906.62017	30.47705	 
690.0	1.0	0.0	8.11192	7.17037	-8.41952	14.82008	20.45401	1.15367	0.8668	177.08863	177.27557	66.39949	0.33351	 	5.132679999999999E10	 	9.15875E-11	 	8754.44864	30.4343	 
685.0	1.0	0.0	8.11404	7.16849	-8.44353	14.79604	20.38187	1.15174	0.86825	177.44664	177.47538	66.54115	0.33336	 	6.131789999999999E10	 	7.62663E-11	 	8602.48944	30.39184	 
680.0	1.0	0.0	8.11617	7.16661	-8.46747	14.77199	20.30971	1.1498	0.86971	177.80394	177.67415	66.68257	0.33321	 	7.33906E10	 	6.3388E-11	 	8450.74108	30.34967	 
675.0	1.0	0.0	8.11829	7.16474	-8.49135	14.74794	20.23754	1.14785	0.87119	178.16052	177.87188	66.82375	0.33306	 	8.8007E10	 	5.25832E-11	 	8299.20201	30.30781	 
670.0	1.0	0.0	8.1204	7.16288	-8.51517	14.72388	20.16535	1.14589	0.87269	178.51638	178.06859	66.96469	0.33291	 	1.05738E11	 	4.35349E-11	 	8147.87061	30.26628	 
665.0	1.0	0.0	8.12251	7.16102	-8.53893	14.69981	20.09314	1.14391	0.8742	178.87152	178.26426	67.10539	0.33277	 	1.27289E11	 	3.59722E-11	 	7996.74518	30.22509	 
660.0	1.0	0.0	8.12461	7.15916	-8.56262	14.67574	20.02092	1.14191	0.87572	179.22595	178.4589	67.24586	0.33262	 	1.53539E11	 	2.96633E-11	 	7845.82793	30.18345	 
655.0	1.0	0.0	8.12671	7.15731	-8.58625	14.65167	19.94868	1.13991	0.87726	179.57966	178.65252	67.38608	0.33247	 	1.85576E11	 	2.44109E-11	 	7695.14092	30.1374	 
650.0	1.0	0.0	8.12881	7.15547	-8.60981	14.62759	19.87643	1.13789	0.87882	179.93265	178.84512	67.52607	0.33232	 	2.24758E11	 	2.00467E-11	 	7544.71347	30.08549	 
645.0	1.0	0.0	8.1309	7.15363	-8.63331	14.6035	19.80416	1.13586	0.88039	180.28493	179.03669	67.66582	0.33217	 	2.72783E11	 	1.6428E-11	 	7394.54485	30.03372	 
640.0	1.0	0.0	8.13299	7.15179	-8.65675	14.57941	19.73187	1.13381	0.88198	180.63648	179.22726	67.80532	0.33202	 	3.31771E11	 	1.34335E-11	 	7244.63432	29.98211	 
635.0	1.0	0.0	8.13507	7.14996	-8.68013	14.55531	19.65956	1.13175	0.88359	180.98733	179.41681	67.94459	0.33187	 	4.04386E11	 	1.09609E-11	 	7094.98114	29.93064	 
630.0	1.0	0.0	8.13714	7.14814	-8.70344	14.53121	19.58724	1.12967	0.88521	181.33745	179.60535	68.08362	0.33173	 	4.93976E11	 	8.92361E-12	 	6945.58458	29.87931	 
625.0	1.0	0.0	8.13922	7.14632	-8.72669	14.5071	19.5149	1.12758	0.88685	181.68686	179.79288	68.22241	0.33158	 	6.0476E11	 	7.24857E-12	 	6796.44354	29.82821	 
620.0	1.0	0.0	8.14129	7.1445	-8.74987	14.48299	19.44254	1.12548	0.88851	182.03556	179.97941	68.36096	0.33143	 	7.4207E11	 	5.87444E-12	 	6647.55636	29.77744	 
615.0	1.0	0.0	8.14335	7.14269	-8.773	14.45887	19.37016	1.12336	0.89019	182.38354	180.16493	68.49927	0.33128	 	9.12655E11	 	4.7497E-12	 	6498.92279	29.72671	 
610.0	1.0	0.0	8.14541	7.14089	-8.79605	14.43474	19.29776	1.12123	0.89188	182.7308	180.34946	68.63734	0.33113	 	1.12509E12	 	3.83121E-12	 	6350.54212	29.67613	 
605.0	1.0	0.0	8.14746	7.13909	-8.81905	14.41061	19.22534	1.11908	0.89359	183.07734	180.53299	68.77516	0.33098	 	1.39027E12	 	3.08287E-12	 	6202.41365	29.62569	 
600.0	1.0	0.0	8.14951	7.13729	-8.84198	14.38647	19.15291	1.11692	0.89532	183.42317	180.71553	68.91275	0.33084	 	1.72213E12	 	2.47462E-12	 	6054.53668	29.5754	 
595.0	1.0	0.0	8.15156	7.1355	-8.86485	14.36233	19.08045	1.11474	0.89707	183.76828	180.89708	69.0501	0.33069	 	2.13848E12	 	1.98142E-12	 	5906.91049	29.52524	 
590.0	1.0	0.0	8.1536	7.13371	-8.88765	14.33818	19.00797	1.11254	0.89884	184.11268	181.07764	69.18721	0.33054	 	2.66215E12	 	1.58249E-12	 	5759.5344	29.47522	 
585.0	1.0	0.0	8.15563	7.13193	-8.91039	14.31403	18.93548	1.11033	0.90063	184.45636	181.25721	69.32408	0.33039	 	3.32252E12	 	1.26061E-12	 	5612.4077	29.42534	 
580.0	1.0	0.0	8.15766	7.13016	-8.93307	14.28987	18.86296	1.10811	0.90244	184.79933	181.4358	69.46071	0.33024	 	4.15749E12	 	1.00157E-12	 	5465.52969	29.3756	 
575.0	1.0	0.0	8.15969	7.12839	-8.95568	14.26571	18.79042	1.10587	0.90427	185.14158	181.61342	69.5971	0.3301	 	5.21606E12	 	7.93627E-13	 	5318.89969	29.326	 
570.0	1.0	0.0	8.16171	7.12662	-8.97823	14.24154	18.71786	1.10361	0.90612	185.48311	181.79005	69.73324	0.32995	 	6.5618E12	 	6.27146E-13	 	5172.51701	29.27654	 
565.0	1.0	0.0	8.16373	7.12486	-9.00072	14.21736	18.64528	1.10133	0.90799	185.82393	181.96572	69.86915	0.3298	 	8.27737E12	 	4.94215E-13	 	5026.38097	29.22721	 
560.0	1.0	0.0	8.16574	7.12311	-9.02314	14.19318	18.57268	1.09904	0.90988	186.16403	182.14041	70.00482	0.32965	 	1.04706E13	 	3.88363E-13	 	4880.49087	29.17802	 
555.0	1.0	0.0	8.16775	7.12136	-9.0455	14.16899	18.50005	1.09674	0.9118	186.50341	182.31413	70.14024	0.3295	 	1.32827E13	 	3.04306E-13	 	4734.84606	29.12896	 
550.0	1.0	0.0	8.16975	7.11961	-9.06779	14.1448	18.4274	1.09441	0.91373	186.84208	182.48689	70.27543	0.32936	 	1.68987E13	 	2.37746E-13	 	4589.44583	29.08005	 
545.0	1.0	0.0	8.17175	7.11787	-9.09002	14.1206	18.35473	1.09207	0.91569	187.18004	182.65868	70.41037	0.32921	 	2.15625E13	 	1.85192E-13	 	4444.28953	29.03126	 
540.0	1.0	0.0	8.17374	7.11613	-9.11219	14.0964	18.28203	1.08971	0.91767	187.51728	182.82951	70.54508	0.32906	 	2.7596E13	 	1.43817E-13	 	4299.37648	28.98261	 
535.0	1.0	0.0	8.17573	7.1144	-9.13429	14.07219	18.20931	1.08734	0.91968	187.8538	182.99939	70.67954	0.32891	 	3.54258E13	 	1.11342E-13	 	4154.70602	28.93409	 
530.0	1.0	0.0	8.17771	7.11268	-9.15633	14.04798	18.13656	1.08494	0.92171	188.18961	183.16831	70.81376	0.32876	 	4.56188E13	 	8.5929E-14	 	4010.27749	28.88571	 
525.0	1.0	0.0	8.17969	7.11096	-9.1783	14.02376	18.0638	1.08253	0.92376	188.52471	183.33627	70.94774	0.32862	 	5.89309E13	 	6.6104E-14	 	3866.09023	28.83745	 
520.0	1.0	0.0	8.18166	7.10924	-9.20022	13.99953	17.991	1.08011	0.92584	188.85908	183.50329	71.08148	0.32847	 	7.6374E13	 	5.0687E-14	 	3722.14359	28.78933	 
515.0	1.0	0.0	8.18363	7.10753	-9.22206	13.9753	17.91818	1.07766	0.92794	189.19275	183.66935	71.21498	0.32832	 	9.93061E13	 	3.87364E-14	 	3578.4369	28.74134	 
510.0	1.0	0.0	8.1856	7.10583	-9.24385	13.95106	17.84533	1.07519	0.93007	189.52569	183.83448	71.34824	0.32817	 	1.2955799999999998E14	 	2.95032E-14	 	3434.96955	28.69347	 
505.0	1.0	0.0	8.18756	7.10412	-9.26557	13.92682	17.77246	1.07271	0.93222	189.85793	183.99866	71.48125	0.32803	 	1.69603E14	 	2.23932E-14	 	3291.74088	28.64574	 
500.0	1.0	0.0	8.18951	7.10243	-9.28722	13.90257	17.69956	1.07021	0.9344	190.18944	184.1619	71.61403	0.32788	 	2.22801E14	 	1.69369E-14	 	3148.75024	28.59813	 
495.0	1.0	0.0	8.19146	7.10074	-9.30881	13.87832	17.62663	1.06768	0.93661	190.52024	184.3242	71.74656	0.32773	 	2.93727E14	 	1.27641E-14	 	3005.99701	28.55065	 
490.0	1.0	0.0	8.19341	7.09905	-9.33034	13.85406	17.55367	1.06514	0.93884	190.85033	184.48557	71.87885	0.32758	 	3.88635E14	 	9.58416E-15	 	2863.48057	28.50329	 
485.0	1.0	0.0	8.19535	7.09737	-9.3518	13.8298	17.48069	1.06258	0.9411	191.1797	184.64601	72.0109	0.32744	 	5.1611299999999994E14	 	7.16963E-15	 	2721.20028	28.45606	 
480.0	1.0	0.0	8.19728	7.0957	-9.3732	13.80553	17.40767	1.06	0.94339	191.50836	184.80551	72.14271	0.32729	 	6.87993E14	 	5.34299E-15	 	2579.15554	28.40895	 
475.0	1.0	0.0	8.19921	7.09403	-9.39454	13.78125	17.33463	1.0574	0.94571	191.8363	184.96409	72.27428	0.32714	 	9.20643E14	 	3.96629E-15	 	2437.34573	28.36196	 
470.0	1.0	0.0	8.20114	7.09236	-9.41581	13.75697	17.26155	1.05478	0.94806	192.16353	185.12175	72.4056	0.32699	 	1.2368E15	 	2.93266E-15	 	2295.77024	28.3151	 
465.0	1.0	0.0	8.20306	7.0907	-9.43702	13.73268	17.18845	1.05214	0.95044	192.49004	185.27848	72.53668	0.32685	 	1.6682E15	 	2.15965E-15	 	2154.42848	28.26835	 
460.0	1.0	0.0	8.20497	7.08905	-9.45816	13.70839	17.11531	1.04948	0.95285	192.81584	185.43429	72.66752	0.3267	 	2.25926E15	 	1.58385E-15	 	2013.31983	28.22173	 
455.0	1.0	0.0	8.20688	7.0874	-9.47924	13.68409	17.04214	1.0468	0.95529	193.14092	185.58918	72.79812	0.32655	 	3.07252E15	 	1.15668E-15	 	1872.44372	28.17522	 
450.0	1.0	0.0	8.20879	7.08575	-9.50025	13.65979	16.96894	1.04409	0.95777	193.46529	185.74316	72.92848	0.3264	 	4.19632E15	 	8.41098E-16	 	1731.79957	28.12883	 
445.0	1.0	0.0	8.21069	7.08411	-9.5212	13.63548	16.89571	1.04137	0.96027	193.78894	185.89623	73.05859	0.32626	 	5.7561E15	 	6.08939E-16	 	1591.38679	28.08256	 
440.0	1.0	0.0	8.21259	7.08247	-9.54209	13.61116	16.82244	1.03862	0.96281	194.11188	186.04839	73.18846	0.32611	 	7.93071E15	 	4.3889E-16	 	1451.20481	28.0364	 
435.0	1.0	0.0	8.21448	7.08084	-9.56291	13.58684	16.74914	1.03585	0.96539	194.43411	186.19964	73.31809	0.32596	 	1.09764E16	 	3.14884E-16	 	1311.25307	27.99035	 
430.0	1.0	0.0	8.21636	7.07922	-9.58367	13.56252	16.6758	1.03306	0.96799	194.75562	186.34998	73.44748	0.32582	 	1.52623E16	 	2.24862E-16	 	1171.53101	27.94441	 
425.0	1.0	0.0	8.21824	7.0776	-9.60436	13.53818	16.60243	1.03025	0.97064	195.07641	186.49942	73.57662	0.32567	 	2.13219E16	 	1.59812E-16	 	1032.03814	27.89857	 
420.0	1.0	0.0	8.22012	7.07598	-9.62499	13.51385	16.52902	1.02742	0.97332	195.39649	186.64797	73.70552	0.32552	 	2.99315E16	 	1.13028E-16	 	892.77383	27.85286	 
415.0	1.0	0.0	8.22199	7.07437	-9.64555	13.4895	16.45558	1.02456	0.97603	195.71586	186.79561	73.83418	0.32537	 	4.22252E16	 	7.95423E-17	 	753.73778	27.80721	 
410.0	1.0	0.0	8.22386	7.07277	-9.66605	13.46516	16.38209	1.02167	0.97878	196.03451	186.94236	73.9626	0.32523	 	5.9869E16	 	5.5693E-17	 	614.92979	27.7616	 
405.0	1.0	0.0	8.22572	7.07117	-9.68649	13.4408	16.30857	1.01877	0.98158	196.35245	187.08821	74.09077	0.32508	 	8.53235E16	 	3.87922E-17	 	476.34967	27.71602	 
400.0	1.0	0.0	8.22757	7.06957	-9.70686	13.41644	16.23501	1.01584	0.98441	196.66967	187.23318	74.2187	0.32493	 	1.22242E17	 	2.68768E-17	 	337.99725	27.67048	 
395.0	1.0	0.0	8.22942	7.06798	-9.72717	13.39208	16.16141	1.01289	0.98728	196.98618	187.37725	74.34639	0.32479	 	1.7608E17	 	1.85204E-17	 	199.87235	27.62498	 
390.0	1.0	0.0	8.23127	7.0664	-9.74741	13.36771	16.08777	1.00991	0.99019	197.30197	187.52044	74.47383	0.32464	 	2.55029E17	 	1.26914E-17	 	61.97482	27.57951	 
385.0	1.0	0.0	8.23311	7.06482	-9.76759	13.34333	16.01408	1.00691	0.99314	197.61705	187.66275	74.60103	0.32449	 	3.71461E17	 	8.64766E-18	 	-75.6955	27.53406	 
380.0	1.0	0.0	8.23495	7.06324	-9.7877	13.31895	15.94035	1.00388	0.99614	197.93142	187.80417	74.72799	0.32435	 	5.44173E17	 	5.85818E-18	 	-213.13875	27.48865	 
375.0	1.0	0.0	8.23678	7.06167	-9.80775	13.29456	15.86658	1.00083	0.99918	198.24507	187.94472	74.8547	0.3242	 	8.01899E17	 	3.94496E-18	 	-350.35506	27.44326	 
370.0	1.0	0.0	8.2386	7.06011	-9.82773	13.27017	15.79277	0.99775	1.00226	198.558	188.08438	74.98117	0.32405	 	1.18883E18	 	2.64045E-18	 	-487.34457	27.3979	 
365.0	1.0	0.0	8.24042	7.05855	-9.84765	13.24577	15.71891	0.99464	1.00539	198.87023	188.22318	75.1074	0.32391	 	1.77338E18	 	1.75634E-18	 	-624.10736	27.35256	 
360.0	1.0	0.0	8.24224	7.057	-9.86751	13.22137	15.645	0.99151	1.00856	199.18174	188.3611	75.23339	0.32376	 	2.6621E18	 	1.16083E-18	 	-760.64354	27.30724	 
355.0	1.0	0.0	8.24405	7.05545	-9.8873	13.19696	15.57105	0.98835	1.01179	199.49253	188.49815	75.35913	0.32361	 	4.02213E18	 	7.62243E-19	 	-896.95319	27.26193	 
350.0	1.0	0.0	8.24585	7.0539	-9.90702	13.17254	15.49705	0.98517	1.01506	199.80261	188.63434	75.48462	0.32347	 	6.11737E18	 	4.97181E-19	 	-1033.03639	27.21664	 
345.0	1.0	0.0	8.24765	7.05236	-9.92668	13.14812	15.423	0.98195	1.01838	200.11198	188.76965	75.60987	0.32332	 	9.3674E18	 	3.22078E-19	 	-1168.89321	27.17136	 
340.0	1.0	0.0	8.24945	7.05083	-9.94628	13.12369	15.3489	0.97871	1.02175	200.42063	188.90411	75.73488	0.32317	 	1.44441E19	 	2.07187E-19	 	-1304.52367	27.12609	 
335.0	1.0	0.0	8.25124	7.0493	-9.96581	13.09926	15.27474	0.97545	1.02517	200.72857	189.0377	75.85965	0.32303	 	2.24314E19	 	1.32325E-19	 	-1439.92783	27.08083	 
330.0	1.0	0.0	8.25302	7.04777	-9.98528	13.07482	15.20054	0.97215	1.02865	201.03579	189.17044	75.98417	0.32288	 	3.50906E19	 	8.38921E-20	 	-1575.10569	27.03557	 
325.0	1.0	0.0	8.2548	7.04626	-10.00468	13.05038	15.12628	0.96882	1.03218	201.3423	189.30232	76.10844	0.32273	 	5.53063E19	 	5.27865E-20	 	-1710.05725	26.99031	 
320.0	1.0	0.0	8.25657	7.04474	-10.02402	13.02593	15.05196	0.96547	1.03577	201.6481	189.43334	76.23248	0.32259	 	8.78393E19	 	3.29581E-20	 	-1844.78253	26.94505	 
315.0	1.0	0.0	8.25834	7.04323	-10.04329	13.00148	14.97759	0.96208	1.03941	201.95318	189.56352	76.35626	0.32244	 	1.4061099999999998E20	 	2.04153E-20	 	-1979.28145	26.89978	 
310.0	1.0	0.0	8.26011	7.04173	-10.0625	12.97702	14.90316	0.95867	1.04311	202.25755	189.69284	76.47981	0.32229	 	2.2690999999999997E20	 	1.25433E-20	 	-2113.554	26.85451	 
305.0	1.0	0.0	8.26186	7.04023	-10.08164	12.95255	14.82868	0.95522	1.04688	202.5612	189.82131	76.60311	0.32215	 	3.69218E20	 	7.64266E-21	 	-2247.60009	26.80922	 
300.0	1.0	0.0	8.26362	7.03874	-10.10072	12.92808	14.75413	0.95175	1.0507	202.86415	189.94894	76.72616	0.322	 	6.059E20	 	4.61694E-21	 	-2381.41964	26.76391	 
295.0	1.0	0.0	8.26537	7.03725	-10.11973	12.9036	14.67952	0.94824	1.05459	203.16637	190.07573	76.84897	0.32185	 	1.0030100000000001E21	 	2.76468E-21	 	-2515.01257	26.71858	 
290.0	1.0	0.0	8.26711	7.03576	-10.13868	12.87912	14.60484	0.9447	1.05854	203.46789	190.20168	76.97153	0.32171	 	1.67532E21	 	1.64064E-21	 	-2648.37872	26.67323	 
285.0	1.0	0.0	8.26885	7.03429	-10.15756	12.85463	14.53011	0.94113	1.06256	203.76869	190.32678	77.09386	0.32156	 	2.8241E21	 	9.64623E-22	 	-2781.51797	26.62785	 
280.0	1.0	0.0	8.27058	7.03281	-10.17638	12.83014	14.4553	0.93752	1.06664	204.06877	190.45105	77.21593	0.32142	 	4.80577E21	 	5.61781E-22	 	-2914.43014	26.58243	 
275.0	1.0	0.0	8.27231	7.03134	-10.19513	12.80564	14.38043	0.93389	1.0708	204.36814	190.57449	77.33776	0.32127	 	8.257680000000001E21	 	3.23987E-22	 	-3047.11505	26.53698	 
270.0	1.0	0.0	8.27403	7.02988	-10.21382	12.78114	14.30549	0.93021	1.07502	204.6668	190.69709	77.45935	0.32112	 	1.43312E22	 	1.8498E-22	 	-3179.57246	26.49148	 
265.0	1.0	0.0	8.27574	7.02842	-10.23245	12.75663	14.23048	0.92651	1.07932	204.96475	190.81886	77.58069	0.32098	 	2.51278E22	 	1.04529E-22	 	-3311.80215	26.44594	 
260.0	1.0	0.0	8.27746	7.02697	-10.251	12.73211	14.15539	0.92277	1.08369	205.26198	190.9398	77.70178	0.32083	 	4.452459999999999E22	 	5.84434E-23	 	-3443.80383	26.40034	 
255.0	1.0	0.0	8.27916	7.02552	-10.2695	12.70759	14.08023	0.919	1.08814	205.55849	191.05992	77.82263	0.32069	 	7.97537E22	 	3.23216E-23	 	-3575.57723	26.35468	 
250.0	1.0	0.0	8.28086	7.02408	-10.28792	12.68306	14.00499	0.91519	1.09267	205.8543	191.17921	77.94324	0.32054	 	1.4445799999999998E23	 	1.76755E-23	 	-3707.12199	26.30895	 
245.0	1.0	0.0	8.28256	7.02264	-10.30629	12.65853	13.92967	0.91134	1.09728	206.14939	191.29769	78.06359	0.32039	 	2.64673E23	 	9.55505E-24	 	-3838.43778	26.26316	 
240.0	1.0	0.0	8.28425	7.02121	-10.32458	12.63399	13.85427	0.90746	1.10198	206.44376	191.41534	78.18371	0.32025	 	4.90685E23	 	5.10421E-24	 	-3969.52419	26.21728	 
235.0	1.0	0.0	8.28593	7.01978	-10.34282	12.60945	13.77879	0.90354	1.10676	206.73743	191.53217	78.30358	0.3201	 	9.208139999999999E23	 	2.69344E-24	 	-4100.38082	26.17133	 
230.0	1.0	0.0	8.28761	7.01836	-10.36098	12.5849	13.70322	0.89958	1.11163	207.03038	191.64819	78.4232	0.31996	 	1.74974E24	 	1.40349E-24	 	-4231.00719	26.12527	 
225.0	1.0	0.0	8.28929	7.01694	-10.37909	12.56035	13.62757	0.89559	1.11659	207.32261	191.76339	78.54257	0.31981	 	3.36801E24	 	7.21894E-25	 	-4361.40281	26.07912	 
220.0	1.0	0.0	8.29095	7.01553	-10.39712	12.53579	13.55182	0.89155	1.12164	207.61413	191.87779	78.6617	0.31966	 	6.5696E24	 	3.66376E-25	 	-4491.56714	26.03287	 
215.0	1.0	0.0	8.29262	7.01412	-10.41509	12.51122	13.47598	0.88748	1.12678	207.90494	191.99137	78.78059	0.31952	 	1.2991200000000002E25	 	1.83396E-25	 	-4621.49961	25.98649	 
210.0	1.0	0.0	8.29428	7.01272	-10.433	12.48665	13.40004	0.88337	1.13203	208.19504	192.10414	78.89923	0.31937	 	2.6054800000000003E25	 	9.05066E-26	 	-4751.19959	25.94	 
205.0	1.0	0.0	8.29593	7.01132	-10.45084	12.46207	13.32401	0.87922	1.13738	208.48442	192.21611	79.01762	0.31923	 	5.3021100000000004E25	 	4.40152E-26	 	-4880.66642	25.89337	 
200.0	1.0	0.0	8.29757	7.00993	-10.46862	12.43749	13.24788	0.87502	1.14283	208.77309	192.32728	79.13577	0.31908	 	1.09529E26	 	2.10841E-26	 	-5009.8994	25.84659	 
195.0	1.0	0.0	8.29922	7.00854	-10.48633	12.4129	13.17164	0.87079	1.14839	209.06104	192.43764	79.25367	0.31894	 	2.2979600000000003E26	 	9.94329E-27	 	-5138.89772	25.79967	 
190.0	1.0	0.0	8.30085	7.00716	-10.50397	12.38831	13.09529	0.86651	1.15406	209.34828	192.54721	79.37132	0.31879	 	4.8989300000000006E26	 	4.61431E-27	 	-5267.6606	25.75258	 
185.0	1.0	0.0	8.30248	7.00579	-10.52155	12.36371	13.01884	0.86219	1.15984	209.63481	192.65598	79.48873	0.31864	 	1.0617899999999999E27	 	2.10599E-27	 	-5396.18716	25.70531	 
180.0	1.0	0.0	8.30411	7.00441	-10.53907	12.3391	12.94227	0.85782	1.16574	209.92063	192.76395	79.60589	0.3185	 	2.3409199999999998E27	 	9.44804E-28	 	-5524.47646	25.65786	 
175.0	1.0	0.0	8.30573	7.00305	-10.55651	12.31449	12.86558	0.85341	1.17176	210.20573	192.87113	79.7228	0.31835	 	5.25288E27	 	4.16402E-28	 	-5652.5275	25.61021	 
170.0	1.0	0.0	8.30734	7.00169	-10.5739	12.28988	12.78877	0.84896	1.17791	210.49011	192.97751	79.83947	0.31821	 	1.20041E28	 	1.80181E-28	 	-5780.33922	25.56234	 
165.0	1.0	0.0	8.30895	7.00033	-10.59122	12.26525	12.71184	0.84446	1.18418	210.77379	193.08311	79.95589	0.31806	 	2.79546E28	 	7.64992E-29	 	-5907.9105	25.51425	 
160.0	1.0	0.0	8.31056	6.99898	-10.60847	12.24063	12.63478	0.83992	1.19059	211.05675	193.18792	80.07206	0.31792	 	6.63822E28	 	3.18473E-29	 	-6035.2401	25.46592	 
155.0	1.0	0.0	8.31215	6.99764	-10.62565	12.21599	12.55759	0.83533	1.19714	211.339	193.29194	80.18799	0.31777	 	1.60851E29	 	1.29915E-29	 	-6162.32676	25.41733	 
150.0	1.0	0.0	8.31375	6.99629	-10.64278	12.19136	12.48025	0.83069	1.20382	211.62053	193.39519	80.30366	0.31763	 	3.97996E29	 	5.18922E-30	 	-6289.16911	25.36847	 
145.0	1.0	0.0	8.31533	6.99496	-10.65983	12.16671	12.40278	0.826	1.21066	211.90135	193.49764	80.4191	0.31748	 	1.00634E30	 	2.02803E-30	 	-6415.76569	25.31932	 
140.0	1.0	0.0	8.31692	6.99363	-10.67682	12.14206	12.32516	0.82126	1.21764	212.18146	193.59932	80.53428	0.31734	 	2.60231E30	 	7.74881E-31	 	-6542.11495	25.26985	 
135.0	1.0	0.0	8.31849	6.9923	-10.69375	12.11741	12.24739	0.81647	1.22478	212.46085	193.70022	80.64922	0.31719	 	6.887869999999999E30	 	2.89216E-31	 	-6668.21524	25.22006	 
130.0	1.0	0.0	8.32006	6.99098	-10.7106	12.09275	12.16947	0.81164	1.23208	212.73953	193.80035	80.76391	0.31705	 	1.86765E31	 	1.05356E-31	 	-6794.06481	25.16991	 
125.0	1.0	0.0	8.32163	6.98967	-10.7274	12.06808	12.09138	0.80675	1.23955	213.0175	193.8997	80.87835	0.3169	 	5.1926299999999995E31	 	3.74237E-32	 	-6919.6618	25.1194	 
120.0	1.0	0.0	8.32319	6.98836	-10.74412	12.04341	12.01312	0.8018	1.24719	213.29475	193.99828	80.99255	0.31676	 	1.4817499999999999E32	 	1.295E-32	 	-7045.00422	25.06848	 
115.0	1.0	0.0	8.32474	6.98706	-10.76079	12.01873	11.93469	0.79681	1.255	213.5713	194.09608	81.10649	0.31661	 	4.34404E32	 	4.36107E-33	 	-7170.08996	25.01715	 
110.0	1.0	0.0	8.32629	6.98576	-10.77738	11.99405	11.85607	0.79176	1.26301	213.84712	194.19312	81.22019	0.31647	 	1.3098E33	 	1.42775E-33	 	-7294.91677	24.96536	 
105.0	1.0	0.0	8.32783	6.98446	-10.79391	11.96936	11.77728	0.78666	1.2712	214.12224	194.2894	81.33364	0.31632	 	4.06622E33	 	4.539E-34	 	-7419.48228	24.9131	 
100.0	1.0	0.0	8.32937	6.98317	-10.81038	11.94467	11.69828	0.7815	1.2796	214.39664	194.38491	81.44685	0.31618	 	1.30125E34	 	1.39962E-34	 	-7543.78393	24.86033	 
95.0	1.0	0.0	8.3309	6.98189	-10.82678	11.91997	11.61909	0.77628	1.28819	214.67033	194.47965	81.5598	0.31603	 	4.29788E34	 	4.18078E-35	 	-7667.81904	24.80702	 
90.0	1.0	0.0	8.33243	6.98061	-10.84311	11.89526	11.53968	0.77101	1.29701	214.9433	194.57364	81.67251	0.31589	 	1.4670199999999999E35	 	1.2082E-35	 	-7791.58471	24.75313	 
85.0	1.0	0.0	8.33395	6.97934	-10.85938	11.87055	11.46006	0.76567	1.30604	215.21556	194.66686	81.78497	0.31574	 	5.1820799999999996E35	 	3.37324E-36	 	-7915.07788	24.69863	 
80.0	1.0	0.0	8.33546	6.97807	-10.87558	11.84583	11.38021	0.76028	1.3153	215.48711	194.75933	81.89718	0.3156	 	1.8971099999999997E36	 	9.08561E-37	 	-8038.29529	24.64348	 
75.0	1.0	0.0	8.33697	6.9768	-10.89171	11.82111	11.30013	0.75483	1.3248	215.75794	194.85104	82.00914	0.31545	 	7.208879999999999E36	 	2.35714E-37	 	-8161.23346	24.58763	 
70.0	1.0	0.0	8.33848	6.97555	-10.90778	11.79638	11.2198	0.74932	1.33455	216.02807	194.942	82.12086	0.31531	 	2.84799E37	 	5.88073E-38	 	-8283.88868	24.53104	 
65.0	1.0	0.0	8.33997	6.97429	-10.92378	11.77165	11.13921	0.74374	1.34456	216.29747	195.03221	82.23232	0.31516	 	1.1718099999999999E38	 	1.40845E-38	 	-8406.257	24.47366	 
60.0	1.0	0.0	8.34147	6.97305	-10.93972	11.74691	11.05836	0.7381	1.35483	216.56617	195.12167	82.34354	0.31502	 	5.03051E38	 	3.23232E-39	 	-8528.33417	24.41544	 
55.0	1.0	0.0	8.34295	6.9718	-10.95559	11.72217	10.97723	0.7324	1.36538	216.83415	195.21038	82.45451	0.31487	 	2.2576200000000002E39	 	7.09427E-40	 	-8650.11572	24.35631	 
50.0	1.0	0.0	8.34443	6.97057	-10.9714	11.69742	10.8958	0.72663	1.37622	217.10142	195.29834	82.56523	0.31473	 	1.06137E40	 	1.48601E-40	 	-8771.59683	24.29622	 
45.0	1.0	0.0	8.34591	6.96933	-10.98714	11.67266	10.81408	0.72079	1.38737	217.36798	195.38556	82.6757	0.31458	 	5.23858E40	 	2.96419E-41	 	-8892.77233	24.2351	 
40.0	1.0	0.0	8.34738	6.96811	-11.00281	11.6479	10.73203	0.71489	1.39883	217.63382	195.47203	82.78592	0.31444	 	2.7208200000000002E41	 	5.61745E-42	 	-9013.63673	24.17288	 
35.0	1.0	0.0	8.34884	6.96688	-11.01842	11.62313	10.64966	0.70891	1.41061	217.89895	195.55777	82.89589	0.31429	 	1.49075E42	 	1.00889E-42	 	-9134.18414	24.10948	 
30.0	1.0	0.0	8.3503	6.96567	-11.03396	11.59836	10.56693	0.70287	1.42274	218.16336	195.64276	83.00562	0.31415	 	8.63929E42	 	1.71264E-43	 	-9254.40826	24.04482	 
25.0	1.0	0.0	8.35176	6.96446	-11.04944	 	10.48384	0.69676	1.43522	218.42707	195.72702	83.11509	0.314	 	5.31061E43	 	2.74017E-44	 	-9374.30229	 	 
