T (C)	Fraction solid (wt)-TOTAL	Fraction liquid (wt)-LIQUID	Density (g/(cm)^3)-TOTAL	Molar volume (cm^3)-TOTAL	Volume change (%)-  	Average expansion coeff. (10e-6 1/K)-  	Thermal conductivity (W/(m*K))-TOTAL	Electrical resistivity (10e-6 Ohm*m)-TOTAL	Electrical conductivity (10e6 1/(Ohm*m))-TOTAL	Young's modulus (GPa)-TOTAL	Bulk modulus (GPa)-TOTAL	Shear modulus(GPa)-TOTAL	Poisson's ratio-TOTAL	Liquid viscosity (mPa s)-  	Total viscosity (mPa s)-  	Liquid diffusivity (10e-9 (m^2)/s)-  	Total diffusivity (10e-9 (m^2)/s)-  	Surface Tension (mN/m)-  	Enthalpy (J/mole)-TOTAL	Specific heat (J/(mole K))-TOTAL	Latent heat (J/mole)-TOTAL
1400.0	0.0	1.0	7.16671	7.93382	0.0	34.17935	30.50509	1.34378	0.74417	0.0	122.25278	0.0	0.5	6.43375	6.43375	1.26928	1.26928	1783.59715	42402.086	 	0.0
1395.0	0.0	1.0	7.17084	7.92925	-0.0576396	34.14407	30.41855	1.34358	0.74428	0.0	122.38919	0.0	0.5	6.50202	6.50202	1.2522	1.2522	1786.76718	42201.91	40.0352	0.0
1390.0	0.0	1.0	7.17497	7.92469	-0.11512	34.109	30.33201	1.34337	0.7444	0.0	122.5256	0.0	0.5	6.57143	6.57143	1.23526	1.23526	1789.9672	42002.177	39.9466	0.0
1385.0	0.0	1.0	7.17909	7.92014	-0.17243	34.07411	30.24547	1.34317	0.74451	0.0	122.66201	0.0	0.5	6.64201	6.64201	1.21846	1.21846	1793.19715	41802.884	39.8586	0.0
1380.0	0.0	1.0	7.1832	7.91561	-0.22958	34.03943	30.15893	1.34296	0.74462	0.0	122.79842	0.0	0.5	6.71378	6.71378	1.2018	1.2018	1796.45689	41604.028	39.7712	0.0
1375.0	0.0	1.0	7.1873	7.91109	-0.28657	34.00495	30.07239	1.34275	0.74474	0.0	122.93482	0.0	0.5	6.78677	6.78677	1.18528	1.18528	1799.74625	41405.607	39.6842	0.0
1370.0	0.0	1.0	7.1914	7.90658	-0.3434	33.97067	29.98585	1.34254	0.74486	0.0	123.07123	0.0	0.5	6.86101	6.86101	1.1689	1.1689	1803.06507	41207.617	39.598	0.0
1365.0	0.0	1.0	7.19549	7.90208	-0.40007	33.93659	29.89931	1.34233	0.74497	0.0	123.20764	0.0	0.5	6.93652	6.93652	1.15265	1.15265	1806.41314	41010.056	39.5122	0.0
1362.87	0.0	1.0	7.19724	7.90017	-0.42421	33.92211	29.86237	1.34224	0.74502	0.0	123.26587	0.0	0.5	6.96914	6.96914	1.14576	1.14576	1807.85121	40925.855	39.45005	0.0
1360.0	0.10726	0.89274	7.23327	7.86075	-0.921	32.57961	30.18372	1.32562	0.75436	0.0118518	125.49815	0.00398485	0.4871	7.00959	9.69704	1.13716	0.822	1806.54308	39288.143	571.50155	1524.779
1355.0	0.26725	0.73275	7.288	7.80177	-1.66448	30.576	30.67602	1.30035	0.76902	0.47356	128.85829	0.16135	0.46752	7.08218	75.94798	1.12205	0.10463	1804.20556	36833.629	490.9028	3782.583
1350.0	0.39308	0.60692	7.33204	7.75487	-2.25556	28.99475	31.0723	1.27983	0.78136	2.28243	131.5612	0.78606	0.45181	7.1569	335.97618	1.10693	0.0235796	1801.8514	34879.008	390.9242	5540.914
1345.0	0.49324	0.50676	7.36799	7.71713	-2.73131	27.7338	31.39398	1.26281	0.79188	5.79835	133.77202	2.01459	0.43909	7.23399	858.68236	1.09176	0.00919757	1799.49164	33299.831	315.8354	6924.221
1340.0	0.57381	0.42619	7.3976	7.68629	-3.11994	26.71524	31.6544	1.24855	0.80093	10.841	135.60593	3.79406	0.42868	7.31342	1644.87815	1.07657	0.00478661	1797.13898	32005.797	258.8068	8022.8
1335.0	0.63921	0.36079	7.42226	7.66084	-3.44075	25.88579	31.86365	1.23651	0.80873	16.99389	137.14987	5.98331	0.42011	7.39535	2662.133	1.06134	0.00294838	1794.80277	30930.582	215.043	8902.975
1330.0	0.69276	0.30724	7.44305	7.6395	-3.70976	25.20099	32.02984	1.22627	0.81548	23.80811	138.46682	8.42478	0.41298	7.48003	3868.66554	1.04606	0.00202255	1792.49694	30024.915	181.1334	9614.012
1325.0	0.73694	0.26306	7.46072	7.62154	-3.93614	24.63559	32.15973	1.21751	0.82135	30.90298	139.6071	10.98172	0.40702	7.56745	5226.76234	1.03075	0.00149235	1790.22643	29251.814	154.6202	10192.892
1320.0	0.77365	0.22635	7.4759	7.60615	-4.13013	24.16099	32.25896	1.20996	0.82647	37.99017	140.60529	13.54867	0.40199	7.65795	6705.98883	1.01538	0.00115953	1788.00666	28583.249	133.713	10667.642
1315.0	0.80437	0.19563	7.48905	7.5929	-4.29706	23.76249	32.33246	1.20342	0.83096	44.87344	141.49119	16.05239	0.39772	7.75152	8285.40887	0.99998	9.35544E-4	1785.84264	27997.777	117.0944	11059.703
1310.0	0.83022	0.16978	7.50055	7.58138	-4.44228	23.42513	32.38422	1.19772	0.83492	51.42659	142.28585	18.44479	0.39407	7.84837	9951.22643	0.98453	7.76483E-4	1783.74425	27478.858	103.7838	11385.612
1305.0	0.85211	0.14789	7.51068	7.57125	-4.57002	23.13708	32.41768	1.1927	0.83843	57.58342	143.0062	20.69968	0.39093	7.94866	11696.72338	0.96904	6.58523E-4	1781.72082	27013.629	93.0458	11658.229
1302.03	0.86337	0.13663	7.51611	7.56584	-4.63817	22.98792	32.42902	1.19004	0.84031	60.98666	143.40218	21.94892	0.38929	8.00978	12760.95317	0.95983	6.02468E-4	1780.56987	26760.674	 	11796.94
1300.0	0.87424	0.12576	7.52064	7.56129	-4.69546	22.85363	32.453	1.18763	0.84201	64.39292	143.75453	23.20108	0.38771	8.05571	13734.66618	0.95313	5.59035E-4	1780.80649	26543.105	94.1048	11936.538
1295.0	0.89826	0.10174	7.53091	7.55098	-4.82548	22.55421	32.50034	1.18213	0.84593	72.4805	144.55677	26.1814	0.3842	8.17152	16224.50148	0.93664	4.7174E-4	1781.38313	26046.269	99.3672	12241.553
1290.0	0.91751	0.0824855	7.53969	7.54218	-4.93638	22.30994	32.52465	1.17748	0.84927	79.59521	145.25837	28.81134	0.38132	8.2905	18738.30316	0.92025	4.07152E-4	1781.94928	25613.984	86.457	12482.409
1285.0	0.93311	0.0668908	7.5473	7.53455	-5.03248	22.10838	32.53064	1.1735	0.85215	85.81937	145.88282	31.1181	0.37893	8.41285	21285.41268	0.90397	3.57284E-4	1782.51038	25230.972	76.6024	12674.381
1280.0	0.94585	0.0541531	7.554	7.52783	-5.1173	21.93943	32.52202	1.17004	0.85467	91.25426	146.44746	33.1369	0.37693	8.5386	23880.68537	0.8878	3.17434E-4	1783.07604	24886.04	68.9864	12828.66
1275.0	0.95633	0.0436674	7.55997	7.52182	-5.19295	21.79702	32.50156	1.16701	0.85689	96.00082	146.96553	34.90348	0.37523	8.66798	26541.37225	0.87173	2.84693E-4	1783.64558	24570.878	63.0324	12953.555
1270.0	0.96503	0.0349725	7.56537	7.51638	-5.26153	21.67503	32.47148	1.16432	0.85887	100.15492	147.44635	36.45228	0.37378	8.80119	29286.05325	0.85576	2.57178E-4	1784.22755	24279.233	58.329	13055.314
1265.0	0.97229	0.0277136	7.57031	7.5114	-5.32431	21.5699	32.43353	1.1619	0.86066	103.80188	147.89754	37.81415	0.37253	8.93841	32134.47297	0.8399	2.33622E-4	1784.82127	24006.347	54.5772	13138.694
1260.0	0.97838	0.0216161	7.57486	7.50679	-5.38238	21.47839	32.38903	1.15972	0.86228	107.01531	148.32446	39.01589	0.37143	9.07972	35106.23981	0.82414	2.13151E-4	1785.42924	23748.562	51.557	13207.352
1255.0	0.98354	0.0164642	7.5791	7.50249	-5.43667	21.39781	32.33913	1.15772	0.86377	109.86031	148.73185	40.08128	0.37047	9.22541	38222.42208	0.80848	1.95135E-4	1786.05342	23503.03	49.1064	13264.133
1250.0	0.98791	0.0120883	7.58308	7.49843	-5.48782	21.32634	32.28468	1.15588	0.86514	112.39175	149.12271	41.03048	0.36961	9.37551	41503.78587	0.79293	1.79119E-4	1786.69531	23267.534	47.0992	13311.252
1245.0	0.99165	0.00835285	7.58685	7.49458	-5.53637	21.2624	32.22637	1.15417	0.86642	114.65481	149.49992	41.88009	0.36885	9.53025	44971.97789	0.77749	1.64763E-4	1787.35469	23040.308	45.4452	13350.471
1240.0	0.99485	0.0051486	7.59044	7.4909	-5.58275	21.20472	32.1648	1.15257	0.86763	116.69007	149.86556	42.64508	0.36815	9.68986	48649.98651	0.76217	1.51805E-4	1788.03075	22819.95	44.0716	13383.192
1235.0	0.99761	0.00238845	7.59387	7.48736	-5.6273	21.1523	32.10055	1.15106	0.86876	118.52961	150.22111	43.33731	0.36752	9.85447	52560.97962	0.74696	1.40045E-4	1788.72652	22605.335	42.923	13410.537
1230.0	1.0	0.0	7.59718	7.48395	-5.67035	21.10419	32.03591	1.14956	0.8699	120.20182	150.56822	43.96728	0.36695	 	56730.42271	 	1.29322E-4	 	22395.553	41.9564	13433.414
1225.0	1.0	0.0	7.59967	7.48151	-5.70112	21.09461	31.95044	1.1488	0.87047	120.64598	150.87012	44.13699	0.36672	 	60721.26755	 	1.20421E-4	 	22191.42731	40.82514	 
1220.0	1.0	0.0	7.60215	7.47906	-5.73196	21.08472	31.86496	1.14804	0.87105	121.08897	151.16931	44.30633	0.3665	 	65022.31377	 	1.1208E-4	 	22011.01246	36.08297	 
1215.0	1.0	0.0	7.60464	7.47662	-5.76275	21.07491	31.77948	1.14727	0.87163	121.531	151.46657	44.47537	0.36627	 	69660.04198	 	1.04268E-4	 	21830.83915	36.03466	 
1210.0	1.0	0.0	7.60712	7.47418	-5.79349	21.06518	31.69399	1.1465	0.87222	121.97209	151.7619	44.64412	0.36605	 	74663.2288	 	9.69538E-5	 	21650.90707	35.98642	 
1205.0	1.0	0.0	7.6096	7.47174	-5.82417	21.05553	31.6085	1.14573	0.87281	122.41223	152.05532	44.81256	0.36582	 	80063.32097	 	9.01097E-5	 	21471.21592	35.93823	 
1203.1	1.0	0.0	7.61054	7.47082	-5.83582	21.05189	31.57602	1.14543	0.87303	122.57919	152.16629	44.87648	0.36574	 	82225.90371	 	8.7627E-5	 	21403.0138	 	 
1200.0	1.0	0.0	7.61431	7.46712	-5.88245	20.95651	31.36062	1.15088	0.8689	123.3126	152.43295	45.16373	0.36517	 	86456.60304	 	8.3164E-5	 	21180.07088	58.22901	 
1195.0	1.0	0.0	7.62027	7.46128	-5.95604	20.80684	31.02787	1.15927	0.86261	124.45351	152.83852	45.61121	0.36429	 	93793.71679	 	7.63982E-5	 	20827.03424	70.60733	 
1190.0	1.0	0.0	7.62608	7.45559	-6.02774	20.66206	30.70875	1.16733	0.85666	125.54661	153.21737	46.04062	0.36343	 	101822.444	 	7.01346E-5	 	20481.59909	69.08703	 
1185.0	1.0	0.0	7.63176	7.45005	-6.09766	20.52189	30.40256	1.17506	0.85102	126.59572	153.57286	46.45337	0.36261	 	110613.6569	 	6.43399E-5	 	20143.3341	67.653	 
1180.0	1.0	0.0	7.63731	7.44463	-6.16588	20.38608	30.10853	1.18246	0.84569	127.60424	153.9078	46.85071	0.36182	 	120246.0234	 	5.89829E-5	 	19811.84004	66.29881	 
1176.89	1.0	0.0	7.6407	7.44133	-6.2075	20.30369	29.93151	1.18691	0.84252	128.21226	154.10677	47.09052	0.36134	 	126698.1723	 	5.58594E-5	 	19608.95077	 	 
1175.0	1.0	0.0	7.64273	7.43935	-6.23244	20.25458	29.82601	1.18956	0.84065	128.57534	154.2249	47.23381	0.36105	 	130808.3887	 	5.40337E-5	 	19486.68636	65.03074	 
1170.0	1.0	0.0	7.64802	7.4342	-6.29737	20.12735	29.55435	1.19634	0.83588	129.51181	154.52644	47.60367	0.36031	 	142399.6274	 	4.9464E-5	 	19167.4922	63.83883	 
1165.0	1.0	0.0	7.65321	7.42916	-6.36088	20.00376	29.29286	1.20284	0.83136	130.41579	154.81355	47.96112	0.3596	 	155125.5778	 	4.52488E-5	 	18854.04592	62.68926	 
1160.0	1.0	0.0	7.65829	7.42423	-6.42302	19.88363	29.04098	1.20906	0.82709	131.28945	155.08774	48.30695	0.35891	 	169106.7602	 	4.13635E-5	 	18546.04946	61.59929	 
1155.0	1.0	0.0	7.66328	7.4194	-6.48388	19.76677	28.79813	1.215	0.82305	132.13479	155.35032	48.64192	0.35824	 	184477.4858	 	3.77848E-5	 	18243.22402	60.56509	 
1152.08	1.0	0.0	7.66615	7.41663	-6.51888	19.69992	28.66019	1.21835	0.82078	132.61646	155.49887	48.83292	0.35786	 	194163.4509	 	3.58264E-5	 	18068.52521	 	 
1152.05	1.0	0.0	7.6662	7.41657	-6.51954	19.69819	28.65821	1.21841	0.82074	132.62195	155.50008	48.83512	0.35785	 	194264.6324	 	3.58071E-5	 	18066.10436	 	 
1150.0	1.0	0.0	7.66819	7.41465	-6.54382	19.65198	28.56311	1.22071	0.8192	132.95477	155.60251	48.96715	0.35759	 	201396.8627	 	3.44893E-5	 	17944.39028	59.76675	 
1145.0	1.0	0.0	7.67299	7.41001	-6.60226	19.54129	28.33675	1.22613	0.81557	133.74926	155.84578	49.28253	0.35696	 	220022.5944	 	3.14588E-5	 	17650.77441	58.72317	 
1140.0	1.0	0.0	7.6777	7.40546	-6.65959	19.43337	28.11803	1.23132	0.81214	134.52029	156.0804	49.58887	0.35636	 	240542.3226	 	2.86737E-5	 	17361.64147	57.82659	 
1135.0	1.0	0.0	7.68233	7.401	-6.71586	19.32808	27.90652	1.23626	0.80889	135.26928	156.30714	49.88668	0.35577	 	263164.6996	 	2.61161E-5	 	17076.77507	56.97328	 
1130.0	1.0	0.0	7.68689	7.39661	-6.77113	19.2253	27.70182	1.24097	0.80582	135.9975	156.52671	50.17645	0.35519	 	288123.0479	 	2.37691E-5	 	16795.97277	56.16046	 
1125.0	1.0	0.0	7.69137	7.3923	-6.82545	19.1249	27.50357	1.24546	0.80291	136.70616	156.73976	50.45864	0.35464	 	315678.4775	 	2.1617E-5	 	16519.045	55.38556	 
1120.0	1.0	0.0	7.69578	7.38807	-6.87884	19.02676	27.31141	1.24974	0.80017	137.39637	156.94683	50.73367	0.35409	 	346123.4629	 	1.96451E-5	 	16245.81404	54.64619	 
1115.0	1.0	0.0	7.70012	7.3839	-6.93136	18.93078	27.12503	1.25381	0.79757	138.06917	157.14845	51.00192	0.35357	 	379785.7725	 	1.78396E-5	 	15976.11309	53.94019	 
1110.0	1.0	0.0	7.7044	7.3798	-6.98305	18.83685	26.94411	1.25768	0.79511	138.7255	157.34507	51.26377	0.35306	 	417033.1034	 	1.61877E-5	 	15709.78549	53.26552	 
1105.0	1.0	0.0	7.70862	7.37576	-7.03393	18.74488	26.76837	1.26136	0.79279	139.36627	157.53712	51.51955	0.35256	 	458278.2054	 	1.46776E-5	 	15446.6839	52.62032	 
1100.0	1.0	0.0	7.71278	7.37179	-7.08404	18.65477	26.59755	1.26486	0.7906	139.99231	157.72497	51.76958	0.35207	 	503984.7751	 	1.3298E-5	 	15186.66964	52.00285	 
1095.0	1.0	0.0	7.71688	7.36787	-7.13341	18.56645	26.43138	1.26818	0.78853	140.60442	157.90896	52.01416	0.3516	 	554674.1473	 	1.20388E-5	 	14929.61205	51.41152	 
1090.0	1.0	0.0	7.72092	7.36401	-7.18208	18.47982	26.26964	1.27132	0.78658	141.20332	158.08943	52.25357	0.35114	 	610932.9874	 	1.08902E-5	 	14675.3879	50.84483	 
1085.0	1.0	0.0	7.72492	7.3602	-7.23006	18.39481	26.1121	1.2743	0.78474	141.7897	158.26665	52.48808	0.35068	 	673421.9421	 	9.84345E-6	 	14423.88089	50.3014	 
1080.0	1.0	0.0	7.72886	7.35645	-7.2774	18.31135	25.95855	1.27712	0.78301	142.36422	158.44091	52.71794	0.35024	 	742885.5669	 	8.89018E-6	 	14174.98109	49.77996	 
1075.0	1.0	0.0	7.73275	7.35274	-7.3241	18.22937	25.80879	1.27978	0.78138	142.92749	158.61243	52.94337	0.34981	 	820163.7588	 	8.02277E-6	 	13928.58457	49.2793	 
1070.0	1.0	0.0	7.7366	7.34908	-7.37021	18.1488	25.66264	1.2823	0.77985	143.48007	158.78146	53.16461	0.34939	 	906204.6785	 	7.23411E-6	 	13684.59298	48.79832	 
1065.0	1.0	0.0	7.74041	7.34547	-7.41573	18.06958	25.51993	1.28467	0.77841	144.02252	158.94819	53.38186	0.34898	 	1002079.62	 	6.51762E-6	 	13442.91312	48.33597	 
1060.0	1.0	0.0	7.74417	7.34191	-7.46069	17.99165	25.38048	1.2869	0.77706	144.55535	159.11283	53.59531	0.34858	 	1109000.073	 	5.86724E-6	 	13203.45663	47.8913	 
1055.0	1.0	0.0	7.74789	7.33838	-7.50512	17.91495	25.24416	1.289	0.7758	145.07903	159.27556	53.80517	0.34819	 	1228337.164	 	5.27735E-6	 	12966.13969	47.46339	 
1050.0	1.0	0.0	7.75157	7.3349	-7.54902	17.83943	25.1108	1.29097	0.77461	145.59402	159.43653	54.01159	0.3478	 	1361644.157	 	4.74277E-6	 	12730.88269	47.0514	 
1045.0	1.0	0.0	7.75521	7.33145	-7.59242	17.76504	24.98028	1.29281	0.77351	146.10077	159.59591	54.21475	0.34743	 	1510682.045	 	4.25871E-6	 	12497.60997	46.65454	 
1040.0	1.0	0.0	7.75881	7.32805	-7.63534	17.69173	24.85246	1.29453	0.77248	146.59967	159.75383	54.41481	0.34706	 	1677449.239	 	3.82078E-6	 	12266.24962	46.27207	 
1035.0	1.0	0.0	7.76238	7.32468	-7.6778	17.61945	24.72722	1.29613	0.77153	147.09111	159.91044	54.61192	0.34669	 	1864215.548	 	3.4249E-6	 	12036.73313	45.9033	 
1030.0	1.0	0.0	7.76591	7.32135	-7.7198	17.54816	24.60446	1.29762	0.77064	147.57547	160.06585	54.80622	0.34634	 	2073561.285	 	3.06736E-6	 	11808.99533	45.54756	 
1025.0	1.0	0.0	7.76941	7.31805	-7.76136	17.47781	24.48405	1.299	0.76983	148.05308	160.22019	54.99784	0.34599	 	2308422.739	 	2.74471E-6	 	11582.97408	45.20425	 
1020.0	1.0	0.0	7.77288	7.31479	-7.80251	17.40837	24.36589	1.30027	0.76907	148.52428	160.37356	55.18692	0.34565	 	2572143.893	 	2.45381E-6	 	11358.61013	44.87279	 
1015.0	1.0	0.0	7.77631	7.31155	-7.84325	17.33979	24.24989	1.30144	0.76838	148.98939	160.52605	55.37357	0.34531	 	2868537.094	 	2.19176E-6	 	11135.84695	44.55264	 
1010.0	1.0	0.0	7.77972	7.30835	-7.88359	17.27204	24.13596	1.3025	0.76775	149.4487	160.67778	55.55792	0.34498	 	3201952.365	 	1.95591E-6	 	10914.63059	44.24327	 
1005.0	1.0	0.0	7.7831	7.30518	-7.92355	17.20507	24.02401	1.30347	0.76718	149.90249	160.82881	55.74008	0.34466	 	3577358.303	 	1.74384E-6	 	10694.90948	43.94422	 
1000.0	1.0	0.0	7.78644	7.30204	-7.96314	17.13887	23.91396	1.30435	0.76667	150.35103	160.97925	55.92014	0.34434	 	4000435.321	 	1.55331E-6	 	10476.63438	43.65502	 
995.0	1.0	0.0	7.78977	7.29893	-8.00237	17.07338	23.80573	1.30513	0.7662	150.79458	161.12915	56.09821	0.34402	 	4477684.018	 	1.38231E-6	 	10259.75819	43.37524	 
990.0	1.0	0.0	7.79306	7.29584	-8.04126	17.00859	23.69873	1.30586	0.76578	151.23338	161.27861	56.27439	0.34371	 	5016551.067	 	1.22896E-6	 	10044.23584	43.10447	 
985.0	1.0	0.0	7.79633	7.29279	-8.07981	16.94446	23.59391	1.30647	0.76542	151.66767	161.42767	56.44876	0.34341	 	5625575.281	 	1.09157E-6	 	9830.02421	42.84233	 
980.0	1.0	0.0	7.79957	7.28975	-8.11803	16.88096	23.4907	1.30699	0.76512	152.09766	161.57642	56.62142	0.34311	 	6314557.661	 	9.68605E-7	 	9617.08201	42.58844	 
975.0	1.0	0.0	7.80279	7.28675	-8.15593	16.81806	23.38904	1.30744	0.76486	152.52357	161.72491	56.79244	0.34282	 	7094760.061	 	8.58649E-7	 	9405.36969	42.34246	 
970.0	1.0	0.0	7.80598	7.28376	-8.19353	16.75574	23.28887	1.3078	0.76464	152.94559	161.87319	56.9619	0.34253	 	7979135.175	 	7.60422E-7	 	9194.84934	42.10407	 
965.0	1.0	0.0	7.80916	7.2808	-8.23082	16.69396	23.19013	1.30809	0.76448	153.36392	162.02132	57.12989	0.34224	 	8982597.176	 	6.72757E-7	 	8985.48464	41.87294	 
960.0	1.0	0.0	7.81231	7.27787	-8.26783	16.63271	23.09276	1.3083	0.76435	153.77874	162.16934	57.29647	0.34196	 	1.012233584E7	 	5.94596E-7	 	8777.24071	41.64878	 
955.0	1.0	0.0	7.81544	7.27496	-8.30455	16.57196	22.99673	1.30843	0.76427	154.19022	162.31731	57.4617	0.34168	 	1.141818589E7	 	5.24978E-7	 	8570.08416	41.43131	 
950.0	1.0	0.0	7.81854	7.27206	-8.34099	16.51169	22.90197	1.3085	0.76424	154.59853	162.46527	57.62566	0.3414	 	1.289305788E7	 	4.63031E-7	 	8363.98289	41.22025	 
945.0	1.0	0.0	7.82163	7.26919	-8.37717	16.45187	22.80844	1.30849	0.76424	155.00383	162.61326	57.78841	0.34113	 	1.457344507E7	 	4.07967E-7	 	8158.9061	41.01536	 
940.0	1.0	0.0	7.8247	7.26634	-8.41309	16.39248	22.71611	1.30842	0.76428	155.40626	162.76132	57.95001	0.34086	 	1.649001659E7	 	3.59071E-7	 	7954.82424	40.81637	 
935.0	1.0	0.0	7.82775	7.26351	-8.44875	16.3335	22.62492	1.30828	0.76436	155.80598	162.90949	58.11051	0.3406	 	1.86783159E7	 	3.15697E-7	 	7751.70886	40.62308	 
930.0	1.0	0.0	7.83078	7.2607	-8.48416	16.27491	22.53483	1.30807	0.76448	156.20312	163.05781	58.26997	0.34034	 	2.117958157E7	 	2.77261E-7	 	7549.5327	40.43523	 
925.0	1.0	0.0	7.83379	7.25791	-8.51934	16.21669	22.44582	1.3078	0.76464	156.59782	163.2063	58.42845	0.34008	 	2.404171457E7	 	2.43239E-7	 	7348.2695	40.25264	 
920.0	1.0	0.0	7.83678	7.25514	-8.55427	16.15882	22.35785	1.30747	0.76484	156.9902	163.35501	58.58599	0.33983	 	2.732042099E7	 	2.13154E-7	 	7147.89404	40.07509	 
915.0	1.0	0.0	7.83975	7.25239	-8.58898	16.10128	22.27087	1.30707	0.76507	157.38038	163.50396	58.74264	0.33958	 	3.108055633E7	 	1.86582E-7	 	6948.38206	39.9024	 
910.0	1.0	0.0	7.84271	7.24965	-8.62346	16.04405	22.18486	1.30662	0.76533	157.76849	163.65318	58.89845	0.33933	 	3.539771897E7	 	1.63137E-7	 	6749.71024	39.73437	 
905.0	1.0	0.0	7.84565	7.24693	-8.65773	15.98713	22.09979	1.30611	0.76563	158.15462	163.8027	59.05346	0.33908	 	4.036013638E7	 	1.42474E-7	 	6551.8561	39.57083	 
900.0	1.0	0.0	7.84858	7.24423	-8.69178	15.93048	22.01563	1.30554	0.76597	158.5389	163.95254	59.20771	0.33884	 	4.607089708E7	 	1.24284E-7	 	6354.79804	39.41161	 
895.0	1.0	0.0	7.85149	7.24155	-8.72562	15.8741	21.93235	1.30491	0.76634	158.92141	164.10274	59.36125	0.3386	 	5.265060427E7	 	1.08288E-7	 	6158.51526	39.25656	 
890.0	1.0	0.0	7.85438	7.23888	-8.75925	15.81797	21.84992	1.30422	0.76674	159.30227	164.25331	59.51411	0.33836	 	6.024052197E7	 	9.42397E-8	 	5962.98771	39.10551	 
885.0	1.0	0.0	7.85726	7.23623	-8.79269	15.76206	21.76832	1.30348	0.76717	159.68156	164.40429	59.66634	0.33812	 	6.900632709E7	 	8.19148E-8	 	5768.19611	38.95832	 
880.0	1.0	0.0	7.86013	7.23359	-8.82593	15.70638	21.68752	1.30269	0.76764	160.05937	164.55568	59.81796	0.33789	 	7.914256498E7	 	7.11152E-8	 	5574.12161	38.8149	 
875.0	1.0	0.0	7.86298	7.23097	-8.85898	15.6509	21.60751	1.30185	0.76814	160.4358	164.70751	59.96901	0.33766	 	9.087798959E7	 	6.16633E-8	 	5380.74618	38.67509	 
870.0	1.0	0.0	7.86581	7.22836	-8.89184	15.59561	21.52825	1.30095	0.76867	160.81092	164.85981	60.11953	0.33743	 	1.044819034E8	 	5.34009E-8	 	5188.05308	38.53862	 
865.0	1.0	0.0	7.86864	7.22577	-8.92451	15.54049	21.44973	1.3	0.76923	161.18482	165.01259	60.26955	0.3372	 	1.202717801E8	 	4.61873E-8	 	4996.02569	38.40548	 
860.0	1.0	0.0	7.87145	7.22319	-8.95701	15.48554	21.37193	1.299	0.76982	161.55757	165.16588	60.41909	0.33697	 	1.386223707E8	 	3.98971E-8	 	4804.64799	38.27554	 
855.0	1.0	0.0	7.87424	7.22063	-8.98932	15.43074	21.29482	1.29795	0.77044	161.92924	165.31968	60.5682	0.33675	 	1.599766177E8	 	3.44189E-8	 	4613.90453	38.14869	 
850.0	1.0	0.0	7.87702	7.21808	-9.02147	15.37608	21.2184	1.29685	0.7711	162.29992	165.47402	60.71689	0.33653	 	1.848587881E8	 	2.96541E-8	 	4423.78038	38.02483	 
845.0	1.0	0.0	7.87922	7.21606	-9.04684	15.35216	21.15551	1.29492	0.77225	162.65335	165.68459	60.85584	0.33638	 	2.099445745E8	 	2.59945E-8	 	4263.80791	31.99449	 
840.0	1.0	0.0	7.88141	7.21406	-9.07215	15.32824	21.09262	1.29297	0.77341	163.00616	165.89421	60.99458	0.33623	 	2.387072888E8	 	2.27601E-8	 	4100.78039	32.6055	 
835.0	1.0	0.0	7.8836	7.21205	-9.09739	15.30432	21.02971	1.29102	0.77458	163.35836	166.10289	61.13312	0.33609	 	2.717251859E8	 	1.99047E-8	 	3937.964	32.56328	 
830.0	1.0	0.0	7.88579	7.21005	-9.12258	15.28039	20.96679	1.28905	0.77577	163.70993	166.31062	61.27146	0.33594	 	3.096735704E8	 	1.73867E-8	 	3775.35799	32.5212	 
825.0	1.0	0.0	7.88797	7.20806	-9.1477	15.25645	20.90386	1.28707	0.77696	164.06088	166.51742	61.40959	0.33579	 	3.533421011E8	 	1.51689E-8	 	3612.96162	32.47927	 
820.0	1.0	0.0	7.89014	7.20607	-9.17276	15.23251	20.84092	1.28508	0.77816	164.41121	166.72328	61.54751	0.33564	 	4.036553623E8	 	1.32177E-8	 	3450.77408	32.43751	 
815.0	1.0	0.0	7.89232	7.20409	-9.19776	15.20857	20.77797	1.28307	0.77938	164.76092	166.9282	61.68524	0.3355	 	4.616973512E8	 	1.15032E-8	 	3288.79458	32.3959	 
810.0	1.0	0.0	7.89448	7.20211	-9.2227	15.18462	20.715	1.28106	0.7806	165.11001	167.13219	61.82275	0.33535	 	5.28740668E8	 	9.99845E-9	 	3127.02226	32.35447	 
805.0	1.0	0.0	7.89665	7.20014	-9.24757	15.16066	20.65202	1.27904	0.78184	165.45848	167.33526	61.96006	0.3352	 	6.062813625E8	 	8.67944E-9	 	2965.45624	32.3132	 
800.0	1.0	0.0	7.89881	7.19817	-9.27239	15.1367	20.58903	1.277	0.78309	165.80633	167.5374	62.09717	0.33506	 	6.960805916E8	 	7.52467E-9	 	2804.09562	32.27212	 
795.0	1.0	0.0	7.90096	7.1962	-9.29714	15.11273	20.52603	1.27495	0.78434	166.15356	167.73862	62.23407	0.33491	 	8.002144931E8	 	6.51497E-9	 	2642.93943	32.23124	 
790.0	1.0	0.0	7.90311	7.19425	-9.32183	15.08876	20.46302	1.27289	0.78561	166.50016	167.93892	62.37077	0.33476	 	9.211339846E8	 	5.63324E-9	 	2481.98668	32.19055	 
785.0	1.0	0.0	7.90526	7.19229	-9.34646	15.06478	20.39999	1.27082	0.78689	166.84615	168.1383	62.50726	0.33461	 	1.06173657E9	 	4.86426E-9	 	2321.23636	32.15006	 
780.0	1.0	0.0	7.9074	7.19034	-9.37102	15.0408	20.33695	1.26873	0.78819	167.19152	168.33677	62.64355	0.33447	 	1.225452694E9	 	4.1945E-9	 	2160.68737	32.1098	 
775.0	1.0	0.0	7.90954	7.1884	-9.39553	15.01681	20.27389	1.26664	0.78949	167.53627	168.53432	62.77963	0.33432	 	1.41634976E9	 	3.61193E-9	 	2000.33858	32.06976	 
770.0	1.0	0.0	7.91168	7.18646	-9.41997	14.99281	20.21082	1.26453	0.79081	167.8804	168.73097	62.91551	0.33417	 	1.639257606E9	 	3.10589E-9	 	1840.18881	32.02995	 
765.0	1.0	0.0	7.91381	7.18453	-9.44435	14.96881	20.14774	1.26241	0.79214	168.22391	168.92671	63.05118	0.33403	 	1.89992012E9	 	2.66693E-9	 	1680.23686	31.99039	 
760.0	1.0	0.0	7.91593	7.1826	-9.46867	14.94481	20.08464	1.26028	0.79348	168.5668	169.12155	63.18664	0.33388	 	2.205178728E9	 	2.28668E-9	 	1520.48141	31.95109	 
755.0	1.0	0.0	7.91805	7.18067	-9.49292	14.9208	20.02153	1.25813	0.79483	168.90907	169.31549	63.3219	0.33373	 	2.563194807E9	 	1.95777E-9	 	1360.92111	31.91206	 
750.0	1.0	0.0	7.92017	7.17875	-9.51711	14.89679	19.95841	1.25597	0.7962	169.25073	169.50853	63.45696	0.33359	 	2.983719754E9	 	1.67366E-9	 	1201.55455	31.87331	 
745.0	1.0	0.0	7.92228	7.17684	-9.54125	14.87276	19.89527	1.2538	0.79758	169.59176	169.70067	63.59181	0.33344	 	3.478423427E9	 	1.42862E-9	 	1042.38025	31.83486	 
740.0	1.0	0.0	7.92439	7.17493	-9.56531	14.84874	19.83211	1.25162	0.79897	169.93217	169.89192	63.72645	0.33329	 	4.061294304E9	 	1.21758E-9	 	883.39664	31.79672	 
735.0	1.0	0.0	7.9265	7.17302	-9.58932	14.82471	19.76894	1.24942	0.80037	170.27197	170.08228	63.86089	0.33315	 	4.749127811E9	 	1.03609E-9	 	724.60209	31.75891	 
730.0	1.0	0.0	7.9286	7.17112	-9.61327	14.80067	19.70575	1.24721	0.80179	170.61114	170.27176	63.99512	0.333	 	5.562123321E9	 	8.80262E-10	 	565.99485	31.72145	 
725.0	1.0	0.0	7.93069	7.16923	-9.63715	14.77663	19.64255	1.24498	0.80322	170.9497	170.46035	64.12915	0.33285	 	6.524615282E9	 	7.46668E-10	 	407.57314	31.68434	 
720.0	1.0	0.0	7.93278	7.16734	-9.66097	14.75258	19.57933	1.24275	0.80467	171.28764	170.64805	64.26297	0.33271	 	7.665970226E9	 	6.32316E-10	 	249.33502	31.64762	 
715.0	1.0	0.0	7.93487	7.16545	-9.68473	14.72853	19.5161	1.2405	0.80613	171.62496	170.83488	64.39659	0.33256	 	9.021689283E9	 	5.34591E-10	 	91.27848	31.61131	 
710.0	1.0	0.0	7.93695	7.16357	-9.70842	14.70447	19.45285	1.23823	0.8076	171.96166	171.02083	64.52999	0.33242	 	1.06348E10	 	4.5121E-10	 	-66.59858	31.57541	 
705.0	1.0	0.0	7.93903	7.1617	-9.73206	14.68041	19.38958	1.23596	0.80909	172.29774	171.20591	64.6632	0.33227	 	1.2557399999999998E10	 	3.80184E-10	 	-224.29843	31.53997	 
700.0	1.0	0.0	7.9411	7.15983	-9.75563	14.65634	19.32629	1.23367	0.81059	172.6332	171.39012	64.7962	0.33212	 	1.4852899999999998E10	 	3.19784E-10	 	-381.82343	31.505	 
695.0	1.0	0.0	7.94317	7.15796	-9.77914	14.63227	19.26299	1.23136	0.81211	172.96805	171.57345	64.92899	0.33198	 	1.75985E10	 	2.68506E-10	 	-539.17608	31.47053	 
690.0	1.0	0.0	7.94524	7.1561	-9.80258	14.60819	19.19967	1.22904	0.81364	173.30227	171.75592	65.06157	0.33183	 	2.08884E10	 	2.25048E-10	 	-696.35902	31.43659	 
685.0	1.0	0.0	7.9473	7.15425	-9.82597	14.58411	19.13633	1.22671	0.81519	173.63588	171.93753	65.19395	0.33169	 	2.4837799999999996E10	 	1.88282E-10	 	-853.37505	31.40321	 
680.0	1.0	0.0	7.94935	7.1524	-9.84929	14.56002	19.07297	1.22436	0.81675	173.96887	172.11827	65.32612	0.33154	 	2.9587499999999996E10	 	1.57232E-10	 	-1010.22714	31.37042	 
675.0	1.0	0.0	7.95141	7.15055	-9.87255	14.53592	19.0096	1.222	0.81833	174.30124	172.29815	65.45809	0.3314	 	3.53106E10	 	1.31056E-10	 	-1166.91842	31.33825	 
670.0	1.0	0.0	7.95345	7.14871	-9.89574	14.51182	18.9462	1.21962	0.81993	174.633	172.47718	65.58985	0.33125	 	4.22199E10	 	1.09031E-10	 	-1323.45221	31.30676	 
665.0	1.0	0.0	7.9555	7.14688	-9.91888	14.48772	18.88279	1.21723	0.82154	174.96413	172.65536	65.7214	0.3311	 	5.057729999999999E10	 	9.05322E-11	 	-1479.83206	31.27597	 
660.0	1.0	0.0	7.95753	7.14505	-9.94195	14.46361	18.81936	1.21482	0.82317	175.29465	172.83268	65.85275	0.33096	 	6.070649999999999E10	 	7.50244E-11	 	-1636.0518	31.24395	 
655.0	1.0	0.0	7.95957	7.14322	-9.96496	14.43949	18.7559	1.2124	0.82481	175.62455	173.00915	65.98389	0.33081	 	7.30078E10	 	6.20491E-11	 	-1792.05639	31.20092	 
650.0	1.0	0.0	7.9616	7.1414	-9.98791	14.41537	18.69243	1.20996	0.82647	175.95383	173.18478	66.11482	0.33067	 	8.79773E10	 	5.12139E-11	 	-1947.77281	31.14328	 
645.0	1.0	0.0	7.96362	7.13958	-10.01079	14.39124	18.62894	1.20751	0.82815	176.28249	173.35956	66.24555	0.33052	 	1.06232E11	 	4.21838E-11	 	-2103.20222	31.08588	 
640.0	1.0	0.0	7.96564	7.13777	-10.03361	14.36711	18.56542	1.20505	0.82984	176.61054	173.5335	66.37607	0.33038	 	1.28539E11	 	3.46732E-11	 	-2258.34577	31.02871	 
635.0	1.0	0.0	7.96766	7.13597	-10.05637	14.34297	18.50188	1.20256	0.83156	176.93797	173.7066	66.50639	0.33023	 	1.55857E11	 	2.84392E-11	 	-2413.20462	30.97177	 
630.0	1.0	0.0	7.96967	7.13417	-10.07907	14.31883	18.43833	1.20006	0.83329	177.26478	173.87886	66.63649	0.33009	 	1.89385E11	 	2.32756E-11	 	-2567.77993	30.91506	 
625.0	1.0	0.0	7.97167	7.13237	-10.1017	14.29468	18.37475	1.19755	0.83504	177.59097	174.05029	66.76639	0.32994	 	2.30625E11	 	1.90076E-11	 	-2722.07318	30.85865	 
620.0	1.0	0.0	7.97368	7.13058	-10.12427	14.27053	18.31114	1.19502	0.83681	177.91655	174.22088	66.89609	0.3298	 	2.81466E11	 	1.54876E-11	 	-2876.08638	30.80264	 
615.0	1.0	0.0	7.97567	7.1288	-10.14678	14.24637	18.24752	1.19247	0.83859	178.24151	174.39065	67.02557	0.32965	 	3.44286E11	 	1.25908E-11	 	-3029.82026	30.74677	 
610.0	1.0	0.0	7.97767	7.12701	-10.16923	14.22221	18.18387	1.18991	0.8404	178.56585	174.55959	67.15485	0.32951	 	4.22088E11	 	1.02122E-11	 	-3183.27591	30.69113	 
605.0	1.0	0.0	7.97965	7.12524	-10.19161	14.19804	18.1202	1.18733	0.84222	178.88957	174.7277	67.28392	0.32936	 	5.18674E11	 	8.26344E-12	 	-3336.45449	30.63572	 
600.0	1.0	0.0	7.98164	7.12347	-10.21393	14.17387	18.0565	1.18474	0.84407	179.21268	174.89499	67.41278	0.32922	 	6.38868E11	 	6.6706E-12	 	-3489.35711	30.58052	 
595.0	1.0	0.0	7.98362	7.1217	-10.23619	14.14969	17.99278	1.18212	0.84594	179.53517	175.06146	67.54144	0.32907	 	7.88805E11	 	5.3717E-12	 	-3641.98491	30.52556	 
590.0	1.0	0.0	7.98559	7.11994	-10.25838	14.1255	17.92903	1.17949	0.84782	179.85704	175.22711	67.66989	0.32893	 	9.76314E11	 	4.31503E-12	 	-3794.33901	30.47082	 
585.0	1.0	0.0	7.98756	7.11819	-10.28051	14.10131	17.86526	1.17685	0.84973	180.17829	175.39194	67.79813	0.32879	 	1.2114E12	 	3.45749E-12	 	-3946.42053	30.4163	 
580.0	1.0	0.0	7.98953	7.11643	-10.30258	14.07711	17.80146	1.17418	0.85166	180.49893	175.55596	67.92617	0.32864	 	1.5069E12	 	2.76329E-12	 	-4098.2306	30.36201	 
575.0	1.0	0.0	7.99149	7.11469	-10.32459	14.05291	17.73764	1.1715	0.85361	180.81895	175.71917	68.05399	0.3285	 	1.87932E12	 	2.20272E-12	 	-4249.77032	30.30794	 
570.0	1.0	0.0	7.99344	7.11295	-10.34653	14.02871	17.67378	1.1688	0.85558	181.13835	175.88157	68.18161	0.32835	 	2.34992E12	 	1.75121E-12	 	-4401.04082	30.2541	 
565.0	1.0	0.0	7.99539	7.11121	-10.36841	14.0045	17.60991	1.16609	0.85757	181.45714	176.04316	68.30902	0.32821	 	2.94621E12	 	1.3885E-12	 	-4552.0432	30.20047	 
560.0	1.0	0.0	7.99734	7.10948	-10.39023	13.98028	17.546	1.16335	0.85958	181.77531	176.20395	68.43623	0.32806	 	3.70385E12	 	1.09788E-12	 	-4702.77857	30.14707	 
555.0	1.0	0.0	7.99928	7.10775	-10.41198	13.95606	17.48206	1.1606	0.86162	182.09286	176.36394	68.56322	0.32792	 	4.6692E12	 	8.65671E-13	 	-4853.24803	30.09389	 
550.0	1.0	0.0	8.00122	7.10603	-10.43368	13.93183	17.4181	1.15783	0.86369	182.4098	176.52312	68.69001	0.32778	 	5.90274E12	 	6.80631E-13	 	-5003.45269	30.04093	 
545.0	1.0	0.0	8.00315	7.10432	-10.4553	13.9076	17.35411	1.15504	0.86577	182.72612	176.68151	68.81659	0.32763	 	7.48359E12	 	5.33593E-13	 	-5153.39366	29.98819	 
540.0	1.0	0.0	8.00508	7.10261	-10.47687	13.88336	17.29008	1.15223	0.86788	183.04182	176.8391	68.94296	0.32749	 	9.51553E12	 	4.17085E-13	 	-5303.07203	29.93567	 
535.0	1.0	0.0	8.007	7.1009	-10.49837	13.85912	17.22603	1.1494	0.87002	183.35691	176.9959	69.06912	0.32734	 	1.21352E13	 	3.25036E-13	 	-5452.48888	29.88337	 
530.0	1.0	0.0	8.00892	7.0992	-10.51981	13.83487	17.16194	1.14656	0.87218	183.67138	177.1519	69.19508	0.3272	 	1.5523E13	 	2.52527E-13	 	-5601.64532	29.83129	 
525.0	1.0	0.0	8.01084	7.0975	-10.54119	13.81061	17.09782	1.14369	0.87436	183.98523	177.30712	69.32082	0.32706	 	1.9918E13	 	1.95581E-13	 	-5750.54242	29.77942	 
520.0	1.0	0.0	8.01275	7.09581	-10.5625	13.78635	17.03367	1.14081	0.87657	184.29846	177.46155	69.44636	0.32691	 	2.56377E13	 	1.50995E-13	 	-5899.18127	29.72777	 
515.0	1.0	0.0	8.01465	7.09413	-10.58375	13.76209	16.96949	1.13791	0.87881	184.61108	177.61519	69.57169	0.32677	 	3.31058E13	 	1.16196E-13	 	-6047.56295	29.67634	 
510.0	1.0	0.0	8.01655	7.09245	-10.60494	13.73782	16.90527	1.13498	0.88107	184.92308	177.76806	69.69681	0.32663	 	4.2889E13	 	8.91221E-14	 	-6195.68855	29.62512	 
505.0	1.0	0.0	8.01844	7.09077	-10.62606	13.71354	16.84102	1.13204	0.88336	185.23447	177.92014	69.82172	0.32648	 	5.57486E13	 	6.81265E-14	 	-6343.55912	29.57411	 
500.0	1.0	0.0	8.02033	7.0891	-10.64712	13.68926	16.77674	1.12907	0.88568	185.54524	178.07144	69.94643	0.32634	 	7.271E13	 	5.18986E-14	 	-6491.17573	29.52332	 
495.0	1.0	0.0	8.02222	7.08743	-10.66812	13.66498	16.71241	1.12609	0.88803	185.85539	178.22197	70.07092	0.32619	 	9.51605E13	 	3.93982E-14	 	-6638.53946	29.47275	 
490.0	1.0	0.0	8.0241	7.08577	-10.68906	13.64069	16.64805	1.12308	0.8904	186.16493	178.37172	70.19521	0.32605	 	1.24983E14	 	2.9802E-14	 	-6785.65137	29.42238	 
485.0	1.0	0.0	8.02598	7.08412	-10.70993	13.61639	16.58366	1.12006	0.89281	186.47385	178.5207	70.31929	0.32591	 	1.64743E14	 	2.24614E-14	 	-6932.5125	29.37222	 
480.0	1.0	0.0	8.02785	7.08247	-10.73074	13.59209	16.51922	1.11701	0.89525	186.78215	178.66891	70.44316	0.32577	 	2.17948E14	 	1.68661E-14	 	-7079.12392	29.32228	 
475.0	1.0	0.0	8.02971	7.08082	-10.75148	13.56778	16.45475	1.11394	0.89771	187.08984	178.81635	70.56681	0.32562	 	2.89419E14	 	1.26168E-14	 	-7225.48665	29.27255	 
470.0	1.0	0.0	8.03157	7.07918	-10.77216	13.54347	16.39024	1.11085	0.90021	187.39691	178.96302	70.69026	0.32548	 	3.85795E14	 	9.4017E-15	 	-7371.60175	29.22302	 
465.0	1.0	0.0	8.03343	7.07754	-10.79278	13.51915	16.32569	1.10774	0.90274	187.70337	179.10894	70.81351	0.32534	 	5.1627099999999994E14	 	6.97836E-15	 	-7517.47026	29.1737	 
460.0	1.0	0.0	8.03528	7.07591	-10.81334	13.49483	16.26109	1.10461	0.9053	188.00921	179.25409	70.93654	0.32519	 	6.93625E14	 	5.15887E-15	 	-7663.09322	29.12459	 
455.0	1.0	0.0	8.03713	7.07429	-10.83383	13.4705	16.19646	1.10146	0.90789	188.31443	179.39848	71.05936	0.32505	 	9.35692E14	 	3.79817E-15	 	-7808.47163	29.07568	 
450.0	1.0	0.0	8.03897	7.07267	-10.85426	13.44617	16.13178	1.09828	0.91052	188.61904	179.54211	71.18197	0.32491	 	1.26747E15	 	2.78469E-15	 	-7953.60653	29.02698	 
445.0	1.0	0.0	8.04081	7.07105	-10.87462	13.42183	16.06705	1.09508	0.91318	188.92303	179.68498	71.30438	0.32476	 	1.72417E15	 	2.03293E-15	 	-8098.49893	28.97848	 
440.0	1.0	0.0	8.04264	7.06944	-10.89492	13.39748	16.00228	1.09186	0.91587	189.2264	179.82711	71.42657	0.32462	 	2.35557E15	 	1.47765E-15	 	-8243.14984	28.93018	 
435.0	1.0	0.0	8.04447	7.06783	-10.91516	13.37313	15.93747	1.08861	0.9186	189.52916	179.96848	71.54855	0.32448	 	3.2324E15	 	1.06927E-15	 	-8387.56028	28.88209	 
430.0	1.0	0.0	8.04629	7.06623	-10.93533	13.34878	15.87261	1.08534	0.92137	189.8313	180.1091	71.67033	0.32434	 	4.45562E15	 	7.70241E-16	 	-8531.73123	28.83419	 
425.0	1.0	0.0	8.04811	7.06464	-10.95544	13.32442	15.8077	1.08205	0.92417	190.13283	180.24897	71.79189	0.32419	 	6.17004E15	 	5.52265E-16	 	-8675.66354	28.78646	 
420.0	1.0	0.0	8.04992	7.06305	-10.97549	13.30005	15.74274	1.07873	0.92702	190.43374	180.3881	71.91325	0.32405	 	8.58436E15	 	3.941E-16	 	-8819.35843	28.73898	 
415.0	1.0	0.0	8.05172	7.06146	-10.99548	13.27568	15.67774	1.07539	0.9299	190.73403	180.52649	72.03439	0.32391	 	1.20008E16	 	2.79871E-16	 	-8962.81628	28.69157	 
410.0	1.0	0.0	8.05353	7.05988	-11.0154	13.25131	15.61268	1.07202	0.93281	191.03371	180.66413	72.15533	0.32377	 	1.6859500000000002E16	 	1.97769E-16	 	-9106.03726	28.64419	 
405.0	1.0	0.0	8.05532	7.05831	-11.03525	13.22693	15.54757	1.06864	0.93577	191.33277	180.80103	72.27605	0.32362	 	2.38043E16	 	1.39045E-16	 	-9249.02151	28.59685	 
400.0	1.0	0.0	8.05712	7.05674	-11.05505	13.20254	15.4824	1.06522	0.93877	191.63122	180.9372	72.39657	0.32348	 	3.3782500000000004E16	 	9.72538E-17	 	-9391.76917	28.54953	 
395.0	1.0	0.0	8.05891	7.05517	-11.07478	13.17815	15.41718	1.06178	0.94181	191.92905	181.07263	72.51687	0.32334	 	4.81952E16	 	6.76639E-17	 	-9534.28039	28.50224	 
390.0	1.0	0.0	8.06069	7.05361	-11.09444	13.15375	15.35191	1.05832	0.9449	192.22626	181.20732	72.63697	0.3232	 	6.9126100000000008E16	 	4.68227E-17	 	-9676.55528	28.45498	 
385.0	1.0	0.0	8.06247	7.05205	-11.11404	13.12935	15.28658	1.05483	0.94802	192.52286	181.34128	72.75685	0.32306	 	9.96921E16	 	3.22219E-17	 	-9818.59397	28.40774	 
380.0	1.0	0.0	8.06424	7.0505	-11.13358	13.10494	15.22119	1.05131	0.95119	192.81884	181.47452	72.87652	0.32291	 	1.44582E17	 	2.20488E-17	 	-9960.39656	28.36052	 
375.0	1.0	0.0	8.06601	7.04896	-11.15306	13.08053	15.15574	1.04777	0.95441	193.11421	181.60702	72.99598	0.32277	 	2.10891E17	 	1.50004E-17	 	-10101.96316	28.31332	 
370.0	1.0	0.0	8.06777	7.04742	-11.17247	13.05611	15.09023	1.0442	0.95767	193.40896	181.7388	73.11524	0.32263	 	3.09422E17	 	1.01449E-17	 	-10243.29385	28.26614	 
365.0	1.0	0.0	8.06953	7.04588	-11.19182	13.03168	15.02465	1.0406	0.96098	193.70309	181.86985	73.23428	0.32249	 	4.56724E17	 	6.81955E-18	 	-10384.38872	28.21897	 
360.0	1.0	0.0	8.07128	7.04435	-11.2111	13.00725	14.95902	1.03698	0.96434	193.99661	182.00018	73.35311	0.32235	 	6.78308E17	 	4.55582E-18	 	-10525.24784	28.17182	 
355.0	1.0	0.0	8.07303	7.04283	-11.23032	12.98282	14.89331	1.03333	0.96775	194.28952	182.1298	73.47173	0.32221	 	1.01376E18	 	3.02424E-18	 	-10665.87127	28.12469	 
350.0	1.0	0.0	8.07477	7.04131	-11.24948	12.95838	14.82754	1.02965	0.9712	194.5818	182.25869	73.59014	0.32206	 	1.5249E18	 	1.99451E-18	 	-10806.25905	28.07756	 
345.0	1.0	0.0	8.07651	7.03979	-11.26857	12.93394	14.7617	1.02594	0.97471	194.87347	182.38686	73.70833	0.32192	 	2.30897E18	 	1.30666E-18	 	-10946.41123	28.03044	 
340.0	1.0	0.0	8.07824	7.03829	-11.2876	12.90949	14.69579	1.02221	0.97827	195.16453	182.51432	73.82632	0.32178	 	3.51993E18	 	8.50197E-19	 	-11086.32784	27.98332	 
335.0	1.0	0.0	8.07997	7.03678	-11.30656	12.88503	14.62981	1.01845	0.98189	195.45497	182.64107	73.94409	0.32164	 	5.40331E18	 	5.49335E-19	 	-11226.00887	27.93621	 
330.0	1.0	0.0	8.08169	7.03528	-11.32546	12.86057	14.56375	1.01465	0.98556	195.74479	182.7671	74.06166	0.3215	 	8.35356E18	 	3.52403E-19	 	-11365.45434	27.88909	 
325.0	1.0	0.0	8.08341	7.03379	-11.3443	12.8361	14.49761	1.01083	0.98928	196.034	182.89243	74.17901	0.32136	 	1.30091E19	 	2.24414E-19	 	-11504.66424	27.84198	 
320.0	1.0	0.0	8.08512	7.0323	-11.36307	12.81163	14.4314	1.00698	0.99307	196.3226	183.01705	74.29615	0.32122	 	2.04111E19	 	1.41836E-19	 	-11643.63854	27.79486	 
315.0	1.0	0.0	8.08682	7.03081	-11.38178	12.78715	14.36511	1.0031	0.99691	196.61057	183.14096	74.41308	0.32108	 	3.22708E19	 	8.89539E-20	 	-11782.37719	27.74773	 
310.0	1.0	0.0	8.08853	7.02933	-11.40043	12.76267	14.29874	0.99919	1.00081	196.89793	183.26417	74.5298	0.32093	 	5.1424E19	 	5.53479E-20	 	-11920.88015	27.70059	 
305.0	1.0	0.0	8.09022	7.02786	-11.41901	12.73818	14.23228	0.99525	1.00477	197.18468	183.38667	74.6463	0.32079	 	8.2608E19	 	3.4159E-20	 	-12059.14734	27.65344	 
300.0	1.0	0.0	8.09191	7.02639	-11.43753	12.71369	14.16573	0.99128	1.0088	197.47081	183.50848	74.7626	0.32065	 	1.3380399999999998E20	 	2.09067E-20	 	-12197.17867	27.60627	 
295.0	1.0	0.0	8.0936	7.02493	-11.45598	12.68919	14.0991	0.98727	1.01289	197.75632	183.62958	74.87868	0.32051	 	2.1857699999999997E20	 	1.26866E-20	 	-12334.97404	27.55907	 
290.0	1.0	0.0	8.09528	7.02347	-11.47437	12.66469	14.03237	0.98324	1.01705	198.04122	183.74999	74.99455	0.32037	 	3.6018299999999997E20	 	7.63111E-21	 	-12472.53332	27.51186	 
285.0	1.0	0.0	8.09696	7.02201	-11.49269	12.64018	13.96555	0.97917	1.02127	198.32551	183.8697	75.11021	0.32023	 	5.98864E20	 	4.54893E-21	 	-12609.85639	27.46461	 
280.0	1.0	0.0	8.09863	7.02056	-11.51096	12.61567	13.89863	0.97507	1.02556	198.60917	183.98872	75.22565	0.32009	 	1.0049100000000001E21	 	2.68661E-21	 	-12746.94306	27.41733	 
275.0	1.0	0.0	8.10029	7.01912	-11.52915	12.59115	13.83162	0.97094	1.02993	198.89222	184.10705	75.34089	0.31995	 	1.70225E21	 	1.57168E-21	 	-12883.79318	27.37002	 
270.0	1.0	0.0	8.10196	7.01768	-11.54728	12.56662	13.7645	0.96677	1.03437	199.17466	184.22469	75.45591	0.31981	 	2.91163E21	 	9.10481E-22	 	-13020.40651	27.32267	 
265.0	1.0	0.0	8.10361	7.01625	-11.56535	12.54209	13.69728	0.96258	1.03888	199.45648	184.34164	75.57072	0.31967	 	5.03014E21	 	5.22168E-22	 	-13156.78287	27.27527	 
260.0	1.0	0.0	8.10526	7.01482	-11.58336	12.51756	13.62995	0.95834	1.04347	199.73768	184.4579	75.68532	0.31953	 	8.77966E21	 	2.96387E-22	 	-13292.92198	27.22782	 
255.0	1.0	0.0	8.10691	7.0134	-11.6013	12.49302	13.56251	0.95408	1.04813	200.01827	184.57348	75.7997	0.31939	 	1.5486599999999999E22	 	1.66452E-22	 	-13428.82358	27.18032	 
250.0	1.0	0.0	8.10855	7.01198	-11.61917	12.46847	13.49495	0.94978	1.05288	200.29825	184.68838	75.91387	0.31925	 	2.7615E22	 	9.24631E-23	 	-13564.48738	27.13276	 
245.0	1.0	0.0	8.11018	7.01057	-11.63699	12.44392	13.42728	0.94544	1.05771	200.5776	184.80259	76.02783	0.31911	 	4.97945E22	 	5.07879E-23	 	-13699.91305	27.08513	 
240.0	1.0	0.0	8.11181	7.00916	-11.65473	12.41936	13.35948	0.94107	1.06262	200.85634	184.91613	76.14158	0.31897	 	9.082559999999999E22	 	2.75755E-23	 	-13835.10024	27.03744	 
235.0	1.0	0.0	8.11343	7.00775	-11.67242	12.3948	13.29157	0.93666	1.06762	201.13447	185.02898	76.25511	0.31883	 	1.6763799999999997E23	 	1.47947E-23	 	-13970.04858	26.98967	 
230.0	1.0	0.0	8.11505	7.00636	-11.69004	12.37023	13.22352	0.93222	1.07271	201.41198	185.14116	76.36843	0.31869	 	3.1320199999999996E23	 	7.84078E-24	 	-14104.75764	26.94181	 
225.0	1.0	0.0	8.11667	7.00496	-11.70759	12.34566	13.15534	0.92774	1.07789	201.68888	185.25267	76.48154	0.31855	 	5.92553E23	 	4.10317E-24	 	-14239.22699	26.89387	 
220.0	1.0	0.0	8.11827	7.00358	-11.72508	12.32108	13.08702	0.92322	1.08317	201.96515	185.3635	76.59443	0.31841	 	1.1356500000000001E24	 	2.11944E-24	 	-14373.45616	26.84583	 
215.0	1.0	0.0	8.11988	7.00219	-11.74251	12.2965	13.01856	0.91866	1.08854	202.24082	185.47366	76.70711	0.31827	 	2.20572E24	 	1.08017E-24	 	-14507.44464	26.79769	 
210.0	1.0	0.0	8.12147	7.00082	-11.75987	12.27191	12.94996	0.91407	1.09401	202.51587	185.58315	76.81958	0.31813	 	4.34332E24	 	5.42934E-25	 	-14641.19186	26.74945	 
205.0	1.0	0.0	8.12307	6.99944	-11.77717	12.24732	12.88121	0.90944	1.09958	202.7903	185.69198	76.93184	0.31799	 	8.67458E24	 	2.69031E-25	 	-14774.69726	26.70108	 
200.0	1.0	0.0	8.12465	6.99808	-11.7944	12.22272	12.8123	0.90477	1.10525	203.06411	185.80013	77.04388	0.31785	 	1.75802E25	 	1.31359E-25	 	-14907.96021	26.65259	 
195.0	1.0	0.0	8.12624	6.99671	-11.81157	12.19811	12.74323	0.90006	1.11104	203.33731	185.90763	77.1557	0.31771	 	3.61704E25	 	6.31711E-26	 	-15040.98003	26.60396	 
190.0	1.0	0.0	8.12781	6.99536	-11.82867	12.17351	12.674	0.89531	1.11693	203.6099	186.01446	77.26732	0.31757	 	7.55871E25	 	2.99062E-26	 	-15173.756	26.5552	 
185.0	1.0	0.0	8.12938	6.99401	-11.84571	12.14889	12.60459	0.89052	1.12294	203.88187	186.12063	77.37872	0.31743	 	1.6052000000000003E26	 	1.39305E-26	 	-15306.28739	26.50628	 
180.0	1.0	0.0	8.13095	6.99266	-11.86268	12.12427	12.53501	0.88569	1.12906	204.15322	186.22613	77.48991	0.31729	 	3.4659900000000004E26	 	6.38118E-27	 	-15438.57336	26.45719	 
175.0	1.0	0.0	8.13251	6.99132	-11.8796	12.09964	12.46525	0.88082	1.1353	204.42396	186.33098	77.60088	0.31715	 	7.61353E26	 	2.87293E-27	 	-15570.61305	26.40794	 
170.0	1.0	0.0	8.13406	6.98998	-11.89644	12.07501	12.39529	0.87591	1.14167	204.69408	186.43518	77.71164	0.31701	 	1.70238E27	 	1.27052E-27	 	-15702.40554	26.3585	 
165.0	1.0	0.0	8.13561	6.98865	-11.91322	12.05038	12.32514	0.87096	1.14816	204.96359	186.53872	77.82218	0.31687	 	3.87706E27	 	5.51578E-28	 	-15833.94987	26.30887	 
160.0	1.0	0.0	8.13716	6.98732	-11.92994	12.02574	12.25479	0.86596	1.15479	205.23248	186.6416	77.93251	0.31673	 	8.99914E27	 	2.34922E-28	 	-15965.24499	26.25902	 
155.0	1.0	0.0	8.1387	6.986	-11.94659	12.00109	12.18422	0.86092	1.16154	205.50075	186.74383	78.04263	0.31659	 	2.1303E28	 	9.80938E-29	 	-16096.28978	26.20896	 
150.0	1.0	0.0	8.14023	6.98469	-11.96318	11.97644	12.11344	0.85584	1.16844	205.76841	186.84542	78.15253	0.31645	 	5.14666E28	 	4.01287E-29	 	-16227.08309	26.15866	 
145.0	1.0	0.0	8.14176	6.98337	-11.9797	11.95178	12.04243	0.85071	1.17548	206.03545	186.94635	78.26222	0.31631	 	1.2699E29	 	1.60712E-29	 	-16357.62366	26.10811	 
140.0	1.0	0.0	8.14328	6.98207	-11.99616	11.92712	11.97119	0.84554	1.18267	206.30188	187.04664	78.37169	0.31618	 	3.20266E29	 	6.29628E-30	 	-16487.91018	26.0573	 
135.0	1.0	0.0	8.1448	6.98077	-12.01255	11.90245	11.8997	0.84033	1.19001	206.56769	187.14628	78.48095	0.31604	 	8.26215E29	 	2.41109E-30	 	-16617.94123	26.00621	 
130.0	1.0	0.0	8.14631	6.97947	-12.02888	11.87778	11.82795	0.83507	1.1975	206.83289	187.24528	78.58999	0.3159	 	2.18215E30	 	9.01713E-31	 	-16747.71534	25.95482	 
125.0	1.0	0.0	8.14782	6.97818	-12.04515	11.8531	11.75595	0.82977	1.20516	207.09747	187.34363	78.69882	0.31576	 	5.905689999999999E30	 	3.29051E-31	 	-16877.23092	25.90312	 
120.0	1.0	0.0	8.14932	6.9769	-12.06134	11.82841	11.68367	0.82441	1.21298	207.36143	187.44135	78.80743	0.31562	 	1.63928E31	 	1.17055E-31	 	-17006.48629	25.85108	 
115.0	1.0	0.0	8.15081	6.97562	-12.07748	11.80372	11.6111	0.81902	1.22098	207.62478	187.53842	78.91583	0.31548	 	4.67154E31	 	4.05533E-32	 	-17135.47969	25.79868	 
110.0	1.0	0.0	8.1523	6.97434	-12.09355	11.77903	11.53824	0.81357	1.22915	207.88751	187.63486	79.02402	0.31534	 	1.36816E32	 	1.36684E-32	 	-17264.20921	25.7459	 
105.0	1.0	0.0	8.15379	6.97307	-12.10955	11.75433	11.46506	0.80808	1.2375	208.14963	187.73066	79.13198	0.31521	 	4.12244E32	 	4.47709E-33	 	-17392.67286	25.69273	 
100.0	1.0	0.0	8.15527	6.97181	-12.12549	11.72962	11.39157	0.80254	1.24605	208.41113	187.82582	79.23974	0.31507	 	1.27941E33	 	1.42351E-33	 	-17520.86852	25.63913	 
95.0	1.0	0.0	8.15674	6.97055	-12.14137	11.70491	11.31773	0.79695	1.25478	208.67202	187.92035	79.34728	0.31493	 	4.09472E33	 	4.38821E-34	 	-17648.79394	25.58508	 
90.0	1.0	0.0	8.15821	6.96929	-12.15718	11.6802	11.24355	0.79131	1.26372	208.93229	188.01426	79.4546	0.31479	 	1.35317E34	 	1.30985E-34	 	-17776.44671	25.53055	 
85.0	1.0	0.0	8.15967	6.96804	-12.17292	11.65548	11.169	0.78563	1.27287	209.19194	188.10752	79.56171	0.31465	 	4.623530000000001E34	 	3.78075E-35	 	-17903.8243	25.47552	 
80.0	1.0	0.0	8.16113	6.9668	-12.1886	11.63075	11.09406	0.77989	1.28223	209.45098	188.20017	79.6686	0.31451	 	1.63571E35	 	1.05376E-35	 	-18030.92402	25.41994	 
75.0	1.0	0.0	8.16258	6.96556	-12.20422	11.60602	11.01872	0.77411	1.29181	209.7094	188.29218	79.77527	0.31438	 	6.0006599999999994E35	 	2.83175E-36	 	-18157.74301	25.3638	 
70.0	1.0	0.0	8.16402	6.96433	-12.21977	11.58128	10.94296	0.76827	1.30162	209.9672	188.38357	79.88173	0.31424	 	2.28635E36	 	7.32535E-37	 	-18284.27821	25.30704	 
65.0	1.0	0.0	8.16546	6.9631	-12.23526	11.55654	10.86676	0.76239	1.31167	210.22439	188.47433	79.98798	0.3141	 	9.06288E36	 	1.82108E-37	 	-18410.52642	25.24964	 
60.0	1.0	0.0	8.1669	6.96188	-12.25068	11.53179	10.7901	0.75645	1.32196	210.48096	188.56447	80.09401	0.31396	 	3.7440699999999997E37	 	4.34293E-38	 	-18536.48419	25.19155	 
55.0	1.0	0.0	8.16833	6.96066	-12.26603	11.50704	10.71296	0.75046	1.33251	210.73692	188.65399	80.19982	0.31382	 	1.6150899999999999E38	 	9.91662E-39	 	-18662.14789	25.13274	 
50.0	1.0	0.0	8.16975	6.95944	-12.28132	11.48228	10.6353	0.74442	1.34332	210.99226	188.74289	80.30542	0.31369	 	7.28942E38	 	2.1637E-39	 	-18787.51362	25.07315	 
45.0	1.0	0.0	8.17117	6.95824	-12.29655	11.45751	10.55711	0.73833	1.3544	211.24699	188.83117	80.4108	0.31355	 	3.4495500000000005E39	 	4.50149E-40	 	-18912.57727	25.01273	 
40.0	1.0	0.0	8.17258	6.95703	-12.31171	11.43275	10.47836	0.73219	1.36576	211.5011	188.91883	80.51596	0.31341	 	1.71549E40	 	8.90943E-41	 	-19037.33447	24.95144	 
35.0	1.0	0.0	8.17399	6.95584	-12.3268	11.40797	10.39901	0.726	1.37741	211.75459	189.00588	80.62091	0.31327	 	8.98716E40	 	1.6735E-41	 	-19161.78052	24.88921	 
30.0	1.0	0.0	8.17539	6.95464	-12.34183	11.38319	10.31904	0.71975	1.38936	212.00747	189.09231	80.72564	0.31314	 	4.97258E41	 	2.97552E-42	 	-19285.91047	24.82599	 
25.0	1.0	0.0	8.17679	6.95346	-12.3568	 	10.23841	0.71346	1.40162	212.25973	189.17813	80.83016	0.313	 	2.9137999999999996E42	 	4.99416E-43	 	-19409.71901	 	 
