T (C)	Fraction solid (wt)-TOTAL	Fraction liquid (wt)-LIQUID	Density (g/(cm)^3)-TOTAL	Molar volume (cm^3)-TOTAL	Volume change (%)-  	Average expansion coeff. (10e-6 1/K)-  	Thermal conductivity (W/(m*K))-TOTAL	Electrical resistivity (10e-6 Ohm*m)-TOTAL	Electrical conductivity (10e6 1/(Ohm*m))-TOTAL	Young's modulus (GPa)-TOTAL	Bulk modulus (GPa)-TOTAL	Shear modulus(GPa)-TOTAL	Poisson's ratio-TOTAL	Liquid viscosity (mPa s)-  	Total viscosity (mPa s)-  	Liquid diffusivity (10e-9 (m^2)/s)-  	Total diffusivity (10e-9 (m^2)/s)-  	Surface Tension (mN/m)-  	Enthalpy (J/mole)-TOTAL	Specific heat (J/(mole K))-TOTAL	Latent heat (J/mole)-TOTAL
1800.0	0.0	1.0	6.74461	8.12557	0.0	25.57414	36.69037	1.84118	0.54313	0.0	92.27501	0.0	0.5	4.59396	4.59396	2.20257	2.20257	1618.8103	82029.134	 	0.0
1795.0	0.0	1.0	6.74877	8.12056	-0.0616913	25.51438	36.6199	1.84027	0.5434	0.0	92.47397	0.0	0.5	4.62334	4.62334	2.1833	2.1833	1620.47734	81794.696	46.8876	0.0
1790.0	0.0	1.0	6.75293	8.11556	-0.12323	25.45461	36.54942	1.83937	0.54367	0.0	92.67294	0.0	0.5	4.65304	4.65304	2.16412	2.16412	1622.14137	81560.325	46.8742	0.0
1785.0	0.0	1.0	6.75709	8.11057	-0.18462	25.39482	36.47894	1.83845	0.54394	0.0	92.87191	0.0	0.5	4.68308	4.68308	2.14503	2.14503	1623.80236	81326.024	46.8602	0.0
1780.0	0.0	1.0	6.76123	8.1056	-0.24585	25.33503	36.40846	1.83754	0.54421	0.0	93.07087	0.0	0.5	4.71346	4.71346	2.12602	2.12602	1625.46027	81091.793	46.8462	0.0
1775.0	0.0	1.0	6.76538	8.10063	-0.30694	25.27522	36.33798	1.83662	0.54448	0.0	93.26984	0.0	0.5	4.74418	4.74418	2.10711	2.10711	1627.11508	80857.633	46.832	0.0
1770.0	0.0	1.0	6.76951	8.09568	-0.36787	25.2154	36.26751	1.83569	0.54475	0.0	93.46881	0.0	0.5	4.77526	4.77526	2.08828	2.08828	1628.76676	80623.545	46.8176	0.0
1765.0	0.0	1.0	6.77365	8.09074	-0.42865	25.15556	36.19703	1.83477	0.54503	0.0	93.66777	0.0	0.5	4.8067	4.8067	2.06955	2.06955	1630.41527	80389.531	46.8028	0.0
1760.0	0.0	1.0	6.77777	8.08582	-0.48928	25.09571	36.12655	1.83384	0.5453	0.0	93.86674	0.0	0.5	4.8385	4.8385	2.0509	2.0509	1632.06059	80155.592	46.7878	0.0
1755.0	0.0	1.0	6.7819	8.0809	-0.54976	25.03585	36.05607	1.8329	0.54558	0.0	94.06571	0.0	0.5	4.87067	4.87067	2.03235	2.03235	1633.70267	79921.729	46.7726	0.0
1750.0	0.0	1.0	6.78601	8.076	-0.61008	24.97597	35.9856	1.83196	0.54586	0.0	94.26467	0.0	0.5	4.90321	4.90321	2.01388	2.01388	1635.3415	79687.942	46.7574	0.0
1745.0	0.0	1.0	6.79012	8.07111	-0.67025	24.91608	35.91512	1.83102	0.54614	0.0	94.46364	0.0	0.5	4.93614	4.93614	1.99551	1.99551	1636.97703	79454.234	46.7416	0.0
1740.0	0.0	1.0	6.79423	8.06624	-0.73028	24.85617	35.84464	1.83008	0.54642	0.0	94.66261	0.0	0.5	4.96945	4.96945	1.97722	1.97722	1638.60924	79220.605	46.7258	0.0
1735.0	0.0	1.0	6.79833	8.06137	-0.79015	24.79626	35.77416	1.82913	0.54671	0.0	94.86157	0.0	0.5	5.00315	5.00315	1.95902	1.95902	1640.23808	78987.056	46.7098	0.0
1730.0	0.0	1.0	6.80242	8.05652	-0.84986	24.73632	35.70369	1.82818	0.54699	0.0	95.06054	0.0	0.5	5.03725	5.03725	1.94091	1.94091	1641.86354	78753.588	46.6936	0.0
1725.0	0.0	1.0	6.80651	8.05168	-0.90943	24.67637	35.63321	1.82722	0.54728	0.0	95.2595	0.0	0.5	5.07176	5.07176	1.9229	1.9229	1643.48556	78520.202	46.6772	0.0
1720.0	0.0	1.0	6.8106	8.04685	-0.96884	24.61641	35.56273	1.82626	0.54757	0.0	95.45847	0.0	0.5	5.10667	5.10667	1.90497	1.90497	1645.10412	78286.9	46.6604	0.0
1715.0	0.0	1.0	6.81467	8.04204	-1.0281	24.55644	35.49225	1.8253	0.54786	0.0	95.65744	0.0	0.5	5.14201	5.14201	1.88713	1.88713	1646.71918	78053.681	46.6438	0.0
1710.0	0.0	1.0	6.81875	8.03723	-1.08722	24.49645	35.42177	1.82433	0.54815	0.0	95.8564	0.0	0.5	5.17777	5.17777	1.86939	1.86939	1648.33071	77820.548	46.6266	0.0
1705.0	0.0	1.0	6.82281	8.03244	-1.14617	24.43644	35.3513	1.82336	0.54844	0.0	96.05537	0.0	0.5	5.21396	5.21396	1.85173	1.85173	1649.93867	77587.501	46.6094	0.0
1700.0	0.0	1.0	6.82687	8.02766	-1.20498	24.37642	35.28082	1.82238	0.54873	0.0	96.25434	0.0	0.5	5.25059	5.25059	1.83417	1.83417	1651.54303	77354.541	46.592	0.0
1695.0	0.0	1.0	6.83093	8.0229	-1.26364	24.31638	35.21034	1.8214	0.54903	0.0	96.4533	0.0	0.5	5.28766	5.28766	1.81669	1.81669	1653.14374	77121.669	46.5744	0.0
1690.0	0.0	1.0	6.83498	8.01814	-1.32214	24.25633	35.13986	1.82042	0.54932	0.0	96.65227	0.0	0.5	5.32519	5.32519	1.79931	1.79931	1654.74077	76888.886	46.5566	0.0
1685.0	0.0	1.0	6.83902	8.0134	-1.38049	24.19627	35.06939	1.81943	0.54962	0.0	96.85124	0.0	0.5	5.36318	5.36318	1.78201	1.78201	1656.33408	76656.192	46.5388	0.0
1680.0	0.0	1.0	6.84306	8.00867	-1.43869	24.13618	34.99891	1.81844	0.54992	0.0	97.0502	0.0	0.5	5.40163	5.40163	1.76481	1.76481	1657.92364	76423.589	46.5206	0.0
1675.0	0.0	1.0	6.84709	8.00396	-1.49674	24.07609	34.92843	1.81744	0.55022	0.0	97.24917	0.0	0.5	5.44056	5.44056	1.74769	1.74769	1659.5094	76191.078	46.5022	0.0
1670.0	0.0	1.0	6.85112	7.99925	-1.55463	24.01597	34.85795	1.81644	0.55053	0.0	97.44814	0.0	0.5	5.47998	5.47998	1.73067	1.73067	1661.09132	75958.659	46.4838	0.0
1665.0	0.0	1.0	6.85514	7.99456	-1.61238	23.95584	34.78748	1.81544	0.55083	0.0	97.6471	0.0	0.5	5.51988	5.51988	1.71374	1.71374	1662.66938	75726.333	46.4652	0.0
1660.0	0.0	1.0	6.85916	7.98988	-1.66997	23.8957	34.717	1.81443	0.55114	0.0	97.84607	0.0	0.5	5.56028	5.56028	1.6969	1.6969	1664.24352	75494.101	46.4464	0.0
1655.0	0.0	1.0	6.86317	7.98521	-1.72741	23.83554	34.64652	1.81342	0.55144	0.0	98.04503	0.0	0.5	5.60119	5.60119	1.68015	1.68015	1665.8137	75261.964	46.4274	0.0
1650.0	0.0	1.0	6.86717	7.98056	-1.7847	23.77536	34.57604	1.81241	0.55175	0.0	98.244	0.0	0.5	5.64262	5.64262	1.66349	1.66349	1667.37989	75029.923	46.4082	0.0
1645.0	0.0	1.0	6.87117	7.97592	-1.84183	23.71516	34.50556	1.81139	0.55206	0.0	98.44297	0.0	0.5	5.68457	5.68457	1.64692	1.64692	1668.94204	74797.978	46.389	0.0
1640.0	0.0	1.0	6.87516	7.97128	-1.89882	23.65495	34.43509	1.81036	0.55238	0.0	98.64193	0.0	0.5	5.72706	5.72706	1.63044	1.63044	1670.50011	74566.129	46.3698	0.0
1635.0	0.0	1.0	6.87914	7.96667	-1.95565	23.59472	34.36461	1.80933	0.55269	0.0	98.8409	0.0	0.5	5.77009	5.77009	1.61405	1.61405	1672.05406	74334.379	46.35	0.0
1630.0	0.0	1.0	6.88312	7.96206	-2.01233	23.53448	34.29413	1.8083	0.55301	0.0	99.03987	0.0	0.5	5.81367	5.81367	1.59775	1.59775	1673.60385	74102.728	46.3302	0.0
1625.0	0.0	1.0	6.8871	7.95747	-2.06886	23.47422	34.22365	1.80727	0.55332	0.0	99.23883	0.0	0.5	5.85781	5.85781	1.58155	1.58155	1675.14942	73871.176	46.3104	0.0
1620.0	0.0	1.0	6.89106	7.95289	-2.12524	23.41394	34.15318	1.80622	0.55364	0.0	99.4378	0.0	0.5	5.90252	5.90252	1.56543	1.56543	1676.69074	73639.723	46.2906	0.0
1615.0	0.0	1.0	6.89502	7.94832	-2.18146	23.35364	34.0827	1.80518	0.55396	0.0	99.63677	0.0	0.5	5.94782	5.94782	1.54941	1.54941	1678.22777	73408.372	46.2702	0.0
1610.0	0.0	1.0	6.89898	7.94376	-2.23754	23.29333	34.01222	1.80413	0.55428	0.0	99.83573	0.0	0.5	5.9937	5.9937	1.53347	1.53347	1679.76045	73177.122	46.25	0.0
1605.0	0.0	1.0	6.90293	7.93922	-2.29346	23.23299	33.94174	1.80308	0.55461	0.0	100.0347	0.0	0.5	6.04019	6.04019	1.51763	1.51763	1681.28874	72945.974	46.2296	0.0
1600.0	0.0	1.0	6.90687	7.93469	-2.34923	23.17264	33.87127	1.80202	0.55493	0.0	100.23367	0.0	0.5	6.08728	6.08728	1.50188	1.50188	1682.8126	72714.929	46.209	0.0
1595.0	0.0	1.0	6.91081	7.93017	-2.40485	23.11227	33.80079	1.80095	0.55526	0.0	100.43263	0.0	0.5	6.135	6.135	1.48622	1.48622	1684.33198	72483.987	46.1884	0.0
1590.0	0.0	1.0	6.91474	7.92566	-2.46032	23.05189	33.73031	1.79989	0.55559	0.0	100.6316	0.0	0.5	6.18335	6.18335	1.47065	1.47065	1685.84683	72253.149	46.1676	0.0
1585.0	0.0	1.0	6.91866	7.92117	-2.51563	22.99148	33.65983	1.79882	0.55592	0.0	100.83056	0.0	0.5	6.23235	6.23235	1.45518	1.45518	1687.35709	72022.416	46.1466	0.0
1580.0	0.0	1.0	6.92258	7.91668	-2.57079	22.93106	33.58935	1.79774	0.55625	0.0	101.02953	0.0	0.5	6.282	6.282	1.43979	1.43979	1688.86274	71791.788	46.1256	0.0
1575.0	0.0	1.0	6.92649	7.91221	-2.6258	22.87061	33.51888	1.79666	0.55659	0.0	101.2285	0.0	0.5	6.33232	6.33232	1.42449	1.42449	1690.3637	71561.266	46.1044	0.0
1570.0	0.0	1.0	6.93039	7.90776	-2.68066	22.81015	33.4484	1.79557	0.55693	0.0	101.42746	0.0	0.5	6.38332	6.38332	1.40929	1.40929	1691.85994	71330.85	46.0832	0.0
1565.0	0.0	1.0	6.93429	7.90331	-2.73537	22.74967	33.37792	1.79448	0.55726	0.0	101.62643	0.0	0.5	6.43501	6.43501	1.39418	1.39418	1693.35141	71100.541	46.0618	0.0
1560.0	0.0	1.0	6.93818	7.89888	-2.78993	22.68917	33.30744	1.79339	0.5576	0.0	101.8254	0.0	0.5	6.48741	6.48741	1.37916	1.37916	1694.83805	70870.34	46.0402	0.0
1555.0	0.0	1.0	6.94207	7.89446	-2.84433	22.62865	33.23697	1.79229	0.55795	0.0	102.02436	0.0	0.5	6.54052	6.54052	1.36423	1.36423	1696.3198	70640.246	46.0188	0.0
1550.0	0.0	1.0	6.94595	7.89005	-2.89858	22.56811	33.16649	1.79119	0.55829	0.0	102.22333	0.0	0.5	6.59436	6.59436	1.34939	1.34939	1697.79663	70410.262	45.9968	0.0
1545.0	0.0	1.0	6.94982	7.88565	-2.95268	22.50755	33.09601	1.79008	0.55864	0.0	102.4223	0.0	0.5	6.64895	6.64895	1.33464	1.33464	1699.26848	70180.386	45.9752	0.0
1540.0	0.0	1.0	6.95368	7.88127	-3.00663	22.44697	33.02553	1.78896	0.55898	0.0	102.62126	0.0	0.5	6.70429	6.70429	1.31998	1.31998	1700.73528	69950.62	45.9532	0.0
1535.0	0.0	1.0	6.95754	7.8769	-3.06043	22.38637	32.95506	1.78785	0.55933	0.0	102.82023	0.0	0.5	6.7604	6.7604	1.30542	1.30542	1702.19749	69721.653	45.7934	0.0
1530.0	0.0	1.0	6.96139	7.87254	-3.11407	22.32575	32.88458	1.78672	0.55968	0.0	103.0192	0.0	0.5	6.8173	6.8173	1.29094	1.29094	1703.65406	69492.637	45.8032	0.0
1525.0	0.0	1.0	6.96524	7.86819	-3.16756	22.2651	32.8141	1.7856	0.56004	0.0	103.21816	0.0	0.5	6.87499	6.87499	1.27656	1.27656	1705.10544	69264.221	45.6832	0.0
1520.0	0.0	1.0	6.96908	7.86386	-3.22091	22.20444	32.74362	1.78446	0.56039	0.0	103.41713	0.0	0.5	6.9335	6.9335	1.26227	1.26227	1706.55155	69036.403	45.5636	0.0
1515.0	0.0	1.0	6.97291	7.85954	-3.27409	22.14376	32.67314	1.78333	0.56075	0.0	103.61609	0.0	0.5	6.99284	6.99284	1.24806	1.24806	1707.99235	68809.178	45.445	0.0
1510.0	0.0	1.0	6.97674	7.85523	-3.32713	22.08305	32.60267	1.78218	0.56111	0.0	103.81506	0.0	0.5	7.05302	7.05302	1.23395	1.23395	1709.42777	68582.542	45.3272	0.0
1507.94	0.0	1.0	6.97831	7.85345	-3.34894	22.05803	32.57362	1.78171	0.56126	0.0	103.89706	0.0	0.5	7.07808	7.07808	1.22817	1.22817	1710.01773	68489.316	45.2441	0.0
1505.0	0.90163	0.098368	7.11185	7.70604	-5.16319	17.45924	34.54718	1.67716	0.59625	37.40165	67.78048	13.6925	0.36577	7.06906	1299.57066	1.2277	0.00667814	1698.41424	60064.709	2866.01	8291.784
1501.7	1.0	1.8893E-9	7.12847	7.68807	-5.38435	16.93101	34.7328	1.6651	0.60056	57.26834	63.90459	21.20043	0.35064	7.05445	2009.46869	1.22797	0.0043109	1683.84012	59006.63	 	9201.136
1495.0	1.0	1.8893E-9	7.13143	7.68488	-5.4236	16.90708	34.65541	1.66252	0.6015	57.81263	64.39991	21.40604	0.35038	7.13684	2129.04793	1.2092	0.00405341	1692.58928	58720.198	134.451	 
1490.0	1.0	1.8893E-9	7.13364	7.6825	-5.45283	16.88924	34.59769	1.66058	0.6022	58.22403	64.77427	21.56146	0.35019	7.19934	2223.48941	1.19532	0.00387027	1699.03382	58506.947	42.6502	 
1485.0	1.0	1.8893E-9	7.13584	7.68013	-5.48201	16.87139	34.53996	1.65864	0.6029	58.64	65.15275	21.71862	0.34999	7.26275	2322.69351	1.18152	0.00369446	1705.40875	58294.035	42.5824	 
1480.0	1.0	1.8893E-9	7.13804	7.67776	-5.51114	16.85353	34.48224	1.65669	0.60361	59.0605	65.53528	21.87751	0.3498	7.32708	2426.92791	1.16782	0.00352573	1711.71416	58081.462	42.5146	 
1475.0	1.0	1.8893E-9	7.14024	7.6754	-5.54023	16.83568	34.42451	1.65474	0.60433	59.4855	65.92181	22.0381	0.34961	7.39236	2536.47686	1.1542	0.00336383	1717.95014	57869.228	42.4468	 
1470.0	1.0	1.8893E-9	7.14243	7.67304	-5.56927	16.81782	34.36679	1.65277	0.60504	59.91497	66.31229	22.2004	0.34941	7.45859	2651.64225	1.14068	0.00320853	1724.1168	57657.33	42.3796	 
1465.0	1.0	1.8893E-9	7.14463	7.67068	-5.59826	16.79996	34.30906	1.65081	0.60576	60.34885	66.70664	22.36438	0.34922	7.52581	2772.74481	1.12725	0.0030596	1730.2143	57445.768	42.3124	 
1460.0	1.0	1.8893E-9	7.14682	7.66833	-5.62721	16.7821	34.25134	1.64883	0.60649	60.78711	67.10482	22.53003	0.34902	7.59402	2900.12541	1.11391	0.0029168	1736.24281	57234.541	42.2454	 
1455.0	1.0	1.8893E-9	7.14901	7.66598	-5.65611	16.76424	34.19361	1.64685	0.60722	61.22972	67.50677	22.69733	0.34883	7.66326	3034.1464	1.10066	0.00277992	1742.20253	57023.649	42.1784	 
1450.0	1.0	1.8893E-9	7.15119	7.66364	-5.68496	16.74638	34.13589	1.64486	0.60795	61.67664	67.91243	22.86629	0.34864	7.73353	3175.19313	1.08751	0.00264874	1748.09368	56813.089	42.112	 
1445.0	1.0	1.8893E-9	7.15338	7.6613	-5.71377	16.72851	34.07816	1.64287	0.60869	62.12782	68.32174	23.03687	0.34844	7.80486	3323.67548	1.07444	0.00252307	1753.91651	56602.861	42.0456	 
1440.0	1.0	1.8893E-9	7.15556	7.65896	-5.74253	16.71064	34.02044	1.64087	0.60943	62.58322	68.73465	23.20907	0.34825	7.87727	3480.02962	1.06147	0.0024027	1759.67129	56392.965	41.9792	 
1435.0	1.0	1.8893E-9	7.15774	7.65663	-5.77124	16.69278	33.96271	1.63886	0.61018	63.04282	69.1511	23.38287	0.34806	7.95078	3644.71978	1.04858	0.00228743	1765.35833	56183.399	41.9132	 
1430.0	1.0	1.8893E-9	7.15992	7.6543	-5.79991	16.6749	33.90498	1.63684	0.61093	63.50657	69.57104	23.55827	0.34786	8.02542	3818.24028	1.03579	0.00217709	1770.97794	55974.161	41.8476	 
1425.0	1.0	1.8893E-9	7.1621	7.65197	-5.82853	16.65703	33.84726	1.63482	0.61169	63.97443	69.99441	23.73524	0.34767	8.1012	4001.11756	1.02309	0.00207148	1776.53048	55765.252	41.7818	 
1420.0	1.0	1.8893E-9	7.16427	7.64965	-5.85711	16.63915	33.78953	1.63279	0.61245	64.44636	70.42115	23.91377	0.34747	8.17815	4193.91256	1.01048	0.00197044	1782.01632	55556.67	41.7164	 
1415.0	1.0	1.8893E-9	7.16644	7.64733	-5.88564	16.62128	33.73181	1.63076	0.61321	64.92233	70.85121	24.09385	0.34728	8.25629	4397.22308	0.99796	0.00187378	1787.43585	55348.414	41.6512	 
1410.0	1.0	1.8893E-9	7.16861	7.64502	-5.91412	16.6034	33.67408	1.62871	0.61398	65.40229	71.28454	24.27546	0.34709	8.33566	4611.68646	0.98553	0.00178135	1792.78949	55140.483	41.5862	 
1405.0	1.0	1.8893E-9	7.17078	7.64271	-5.94255	16.58552	33.61636	1.62666	0.61476	65.88621	71.72108	24.4586	0.34689	8.41626	4837.98242	0.97319	0.00169299	1798.07768	54932.876	41.5214	 
1400.0	1.0	1.8893E-9	7.17294	7.6404	-5.97094	16.56763	33.55863	1.62461	0.61553	66.37405	72.16078	24.64324	0.3467	8.49814	5076.83608	0.96094	0.00160853	1803.30089	54725.591	41.457	 
1395.0	1.0	1.8893E-9	7.17511	7.6381	-5.99929	16.54975	33.50091	1.62254	0.61632	66.86577	72.60358	24.82938	0.3465	8.5813	5329.02133	0.94879	0.00152783	1808.4596	54518.629	41.3924	 
1390.0	1.0	1.8893E-9	7.17727	7.6358	-6.02758	16.53186	33.44318	1.62047	0.6171	67.36133	73.04943	25.017	0.34631	8.66579	5595.36432	0.93672	0.00145074	1813.55431	54311.987	41.3284	 
1385.0	1.0	1.8893E-9	7.17943	7.6335	-6.05583	16.51397	33.38546	1.61839	0.6179	67.8607	73.49827	25.20609	0.34612	8.75163	5876.74732	0.92474	0.00137713	1818.58555	54105.665	41.2644	 
1380.0	1.0	1.8893E-9	7.18158	7.63121	-6.08403	16.49608	33.32773	1.61631	0.61869	68.36383	73.95006	25.39663	0.34592	8.83885	6174.11286	0.91286	0.00130685	1823.55387	53899.662	41.2006	 
1375.0	1.0	1.8893E-9	7.18374	7.62892	-6.11219	16.47819	33.27001	1.61422	0.6195	68.87069	74.40474	25.58861	0.34573	8.92747	6488.46819	0.90106	0.00123977	1828.45984	53693.976	41.1372	 
1370.0	1.0	1.8893E-9	7.18589	7.62664	-6.1403	16.46029	33.21228	1.61212	0.6203	69.38123	74.86226	25.78201	0.34554	9.01753	6820.89013	0.88936	0.00117577	1833.30403	53488.607	41.0738	 
1365.0	1.0	1.8893E-9	7.18804	7.62436	-6.16836	16.4424	33.15456	1.61001	0.62111	69.89543	75.32256	25.97683	0.34534	9.10905	7172.53023	0.87774	0.00111473	1838.08705	53283.553	41.0108	 
1360.0	1.0	1.8893E-9	7.19018	7.62208	-6.19638	16.4245	33.09683	1.60789	0.62193	70.41323	75.7856	26.17304	0.34515	9.20207	7544.62046	0.86622	0.00105651	1842.80951	53078.813	40.948	 
1355.0	1.0	1.8893E-9	7.19233	7.61981	-6.22435	16.4066	33.03911	1.60577	0.62275	70.93461	76.25132	26.37064	0.34495	9.29663	7938.47927	0.85478	0.00100102	1847.47206	52874.387	40.8852	 
1350.0	1.0	1.8893E-9	7.19447	7.61754	-6.25227	16.38869	32.98138	1.60364	0.62358	71.45952	76.71967	26.56961	0.34476	9.39274	8355.51815	0.84344	9.48139E-4	1852.07535	52670.272	40.823	 
1345.0	1.0	1.8893E-9	7.19661	7.61528	-6.28015	16.37079	32.92366	1.60151	0.62441	71.98793	77.1906	26.76994	0.34457	9.49045	8797.24882	0.83218	8.97757E-4	1856.62003	52466.468	40.7608	 
1340.0	1.0	1.8893E-9	7.19875	7.61302	-6.30798	16.35288	32.86593	1.59936	0.62525	72.51979	77.66406	26.97161	0.34437	9.5898	9265.29089	0.82102	8.49772E-4	1861.10681	52262.974	40.6988	 
1335.0	1.0	1.8893E-9	7.20088	7.61076	-6.33576	16.33497	32.8082	1.59721	0.62609	73.05507	78.14	27.17461	0.34418	9.69081	9761.38023	0.80994	8.04085E-4	1865.53636	52059.788	40.6372	 
1330.0	1.0	1.8893E-9	7.20302	7.6085	-6.3635	16.31706	32.75048	1.59505	0.62694	73.59374	78.61837	27.37892	0.34399	9.79353	10287.37803	0.79895	7.606E-4	1869.9094	51856.91	40.5756	 
1325.0	1.0	1.8893E-9	7.20515	7.60625	-6.39119	16.29915	32.69275	1.59288	0.62779	74.13574	79.09911	27.58454	0.34379	9.89798	10845.28058	0.78806	7.19223E-4	1874.22664	51654.338	40.5144	 
1320.0	1.0	1.8893E-9	7.20727	7.60401	-6.41884	16.28124	32.63503	1.59071	0.62865	74.68104	79.58218	27.79145	0.3436	10.00422	11437.22994	0.77725	6.79865E-4	1878.48882	51452.071	40.4534	 
1315.0	1.0	1.8893E-9	7.2094	7.60177	-6.44643	16.26332	32.5773	1.58853	0.62951	75.22961	80.06753	27.99963	0.3434	10.11228	12065.52543	0.76653	6.42439E-4	1882.69669	51250.108	40.3926	 
1310.0	1.0	1.8893E-9	7.21152	7.59953	-6.47398	16.2454	32.51958	1.58633	0.63038	75.78141	80.55511	28.20907	0.34321	10.2222	12732.63618	0.7559	6.06863E-4	1886.85098	51048.447	40.3322	 
1305.0	1.0	1.8893E-9	7.21365	7.59729	-6.50149	16.22748	32.46185	1.58414	0.63126	76.33639	81.04487	28.41976	0.34302	10.33402	13441.2147	0.74536	5.73055E-4	1890.95247	50847.088	40.2718	 
1300.0	1.0	1.8893E-9	7.21576	7.59506	-6.52894	16.20956	32.40413	1.58193	0.63214	76.89452	81.53676	28.63168	0.34282	10.44779	14194.11164	0.73491	5.40939E-4	1895.00192	50646.029	40.2118	 
1295.0	1.0	1.8893E-9	7.21788	7.59283	-6.55635	16.19164	32.3464	1.57972	0.63302	77.45576	82.03073	28.84482	0.34263	10.56354	14994.39184	0.72454	5.10441E-4	1899.00011	50445.269	40.152	 
1290.0	1.0	1.8893E-9	7.22	7.59061	-6.58372	16.17371	32.28868	1.5775	0.63392	78.02007	82.52674	29.05917	0.34243	10.68134	15845.35171	0.71427	4.81488E-4	1902.94782	50244.807	40.0924	 
1285.0	1.0	1.8893E-9	7.22211	7.58839	-6.61104	16.15578	32.23095	1.57527	0.63481	78.58742	83.02473	29.27471	0.34224	10.80121	16750.53824	0.70408	4.54012E-4	1906.84584	50044.641	40.0332	 
1280.0	1.0	1.8893E-9	7.22422	7.58617	-6.63831	16.13785	32.17323	1.57303	0.63572	79.15776	83.52466	29.49142	0.34205	10.92322	17713.7696	0.69398	4.27946E-4	1910.69496	49844.771	39.974	 
1275.0	1.0	1.8893E-9	7.22632	7.58396	-6.66553	16.11992	32.1155	1.57078	0.63663	79.73106	84.02648	29.7093	0.34185	11.0474	18739.15758	0.68397	4.03227E-4	1914.49599	49645.194	39.9154	 
1270.0	1.0	1.8893E-9	7.22843	7.58175	-6.69271	16.10199	32.05778	1.56853	0.63754	80.30727	84.53015	29.92834	0.34166	11.17382	19831.13204	0.67405	3.79793E-4	1918.24972	49445.91	39.8568	 
1265.0	1.0	1.8893E-9	7.23053	7.57955	-6.71984	16.08405	32.00005	1.56627	0.63846	80.88637	85.03561	30.14851	0.34147	11.30251	20994.46756	0.66422	3.57586E-4	1921.95697	49246.918	39.7984	 
1260.0	1.0	1.8893E-9	7.23263	7.57735	-6.74692	16.06612	31.94233	1.564	0.63939	81.46831	85.54282	30.3698	0.34127	11.43355	22234.31243	0.65447	3.36548E-4	1925.61853	49048.215	39.7406	 
1255.0	1.0	1.8893E-9	7.23473	7.57515	-6.77396	16.04818	31.8846	1.56172	0.64032	82.05305	86.05173	30.5922	0.34108	11.56697	23556.22037	0.64481	3.16626E-4	1929.23521	48849.801	39.6828	 
1250.0	1.0	1.8893E-9	7.23682	7.57296	-6.80095	16.03024	31.82688	1.55943	0.64126	82.64055	86.56229	30.81569	0.34088	11.70285	24966.185	0.63524	2.97767E-4	1932.80784	48651.675	39.6252	 
1245.0	1.0	1.8893E-9	7.23892	7.57077	-6.82789	16.01229	31.76915	1.55714	0.6422	83.23078	87.07447	31.04027	0.34069	11.84123	26470.67759	0.62576	2.79922E-4	1936.33712	48453.835	39.568	 
1240.0	1.0	1.8893E-9	7.24101	7.56858	-6.85479	15.99435	31.71142	1.55483	0.64316	83.8237	87.58821	31.26591	0.3405	11.98217	28076.68821	0.61636	2.63041E-4	1939.82405	48256.281	39.5108	 
1235.0	1.0	1.8893E-9	7.2431	7.5664	-6.88164	15.9764	31.6537	1.55252	0.64411	84.41926	88.10347	31.49261	0.3403	12.12575	29791.77075	0.60705	2.47078E-4	1943.26934	48059.013	39.4536	 
1230.0	1.0	1.8893E-9	7.24518	7.56422	-6.90844	15.95845	31.59597	1.5502	0.64508	85.01744	88.6202	31.72035	0.34011	12.27202	31624.09204	0.59782	2.31991E-4	1946.6738	47862.029	39.3968	 
1225.0	1.0	1.8893E-9	7.24726	7.56205	-6.9352	15.9405	31.53825	1.54787	0.64605	85.61819	89.13835	31.94911	0.33992	12.42105	33582.48568	0.58869	2.17735E-4	1950.03825	47665.327	39.3404	 
1220.0	1.0	1.8893E-9	7.24934	7.55988	-6.96191	15.92255	31.48052	1.54554	0.64702	86.22147	89.65789	32.17888	0.33972	12.5729	35676.5109	0.57963	2.04271E-4	1953.36349	47468.905	39.2844	 
1215.0	1.0	1.8893E-9	7.25142	7.55771	-6.98857	15.90459	31.4228	1.54319	0.64801	86.82725	90.17877	32.40966	0.33953	12.72765	37916.51693	0.57067	1.9156E-4	1956.65031	47272.762	39.2286	 
1210.0	1.0	1.8893E-9	7.2535	7.55555	-7.01519	15.88664	31.36507	1.54084	0.649	87.43549	90.70094	32.64141	0.33933	12.88537	40313.71365	0.56179	1.79564E-4	1959.8995	47076.896	39.1732	 
1205.0	1.0	1.8893E-9	7.25557	7.55339	-7.04175	15.86868	31.30735	1.53847	0.65	88.04615	91.22435	32.87414	0.33914	13.04613	42880.24887	0.553	1.68247E-4	1963.11186	46881.305	39.1182	 
1200.0	1.0	1.8893E-9	7.25764	7.55124	-7.06828	15.85072	31.24962	1.5361	0.651	88.65918	91.74897	33.10782	0.33895	13.21001	45629.29319	0.54429	1.57576E-4	1966.28817	46685.987	39.0636	 
1195.0	1.0	1.8893E-9	7.25971	7.54909	-7.09475	15.83275	31.1919	1.53372	0.65201	89.27456	92.27475	33.34245	0.33875	13.37708	48575.13299	0.53567	1.47517E-4	1969.42921	46490.94	39.0094	 
1190.0	1.0	1.8893E-9	7.26178	7.54694	-7.12118	15.81479	31.13417	1.53133	0.65303	89.89224	92.80165	33.578	0.33856	13.54743	51733.27257	0.52713	1.3804E-4	1972.53574	46296.163	38.9554	 
1185.0	1.0	1.8893E-9	7.26384	7.54479	-7.14756	15.79682	31.07645	1.52893	0.65405	90.51219	93.32962	33.81447	0.33836	13.72114	55120.5463	0.51868	1.29115E-4	1975.60854	46101.652	38.9022	 
1180.0	1.0	1.8893E-9	7.2659	7.54265	-7.1739	15.77885	31.01872	1.52653	0.65508	91.13437	93.85861	34.05184	0.33817	13.89829	58755.24183	0.51031	1.20712E-4	1978.64835	45907.407	38.849	 
1175.0	1.0	1.8893E-9	7.26796	7.54052	-7.20019	15.76088	30.961	1.52411	0.65612	91.75873	94.3886	34.2901	0.33798	14.07898	62657.2356	0.50203	1.12805E-4	1981.65592	45713.425	38.7964	 
1170.0	1.0	1.8893E-9	7.27001	7.53839	-7.22643	15.74291	30.90327	1.52168	0.65717	92.38525	94.91952	34.52923	0.33778	14.26329	66848.14184	0.49383	1.05368E-4	1984.632	45519.704	38.7442	 
1165.0	1.0	1.8893E-9	7.27207	7.53626	-7.25262	15.72494	30.84555	1.51925	0.65822	93.01388	95.45135	34.76922	0.33759	14.45133	71351.47663	0.48572	9.83757E-5	1987.57732	45326.242	38.6924	 
1160.0	1.0	1.8893E-9	7.27412	7.53413	-7.27877	15.70696	30.78782	1.51681	0.65928	93.64458	95.98404	35.01005	0.3374	14.64318	76192.83848	0.47769	9.18045E-5	1990.4926	45133.037	38.641	 
1155.0	1.0	1.8893E-9	7.27617	7.53201	-7.30487	15.68898	30.7301	1.51435	0.66035	94.27731	96.51754	35.25172	0.3372	14.83895	81400.10741	0.46974	8.56319E-5	1993.37855	44940.087	38.59	 
1150.0	1.0	1.8893E-9	7.27821	7.5299	-7.33092	15.671	30.67237	1.51189	0.66142	94.91205	97.05181	35.4942	0.33701	15.03874	87003.66435	0.46188	7.98362E-5	1996.23589	44747.389	38.5396	 
1145.0	1.0	1.8893E-9	7.28025	7.52778	-7.35693	15.65302	30.61465	1.50942	0.66251	95.54874	97.58682	35.73748	0.33681	15.24265	93036.63319	0.4541	7.43969E-5	1999.06529	44554.941	38.4896	 
1140.0	1.0	1.8893E-9	7.2823	7.52567	-7.38289	15.63504	30.55692	1.50694	0.6636	96.18736	98.12252	35.98156	0.33662	15.45081	99535.14801	0.4464	6.92945E-5	2001.86745	44362.741	38.44	 
1135.0	1.0	1.8893E-9	7.28433	7.52357	-7.4088	15.61705	30.49919	1.50445	0.66469	96.82786	98.65887	36.22641	0.33643	15.66331	106538.6481	0.43879	6.45102E-5	2004.64304	44170.786	38.391	 
1130.0	1.0	1.8893E-9	7.28637	7.52147	-7.43467	15.59906	30.44147	1.50195	0.6658	97.4702	99.19582	36.47202	0.33623	15.88029	114090.204	0.43125	6.00264E-5	2007.39273	43979.075	38.3422	 
1125.0	1.0	1.8893E-9	7.2884	7.51937	-7.46049	15.58107	30.38374	1.49944	0.66691	98.11435	99.73334	36.71837	0.33604	16.10185	122236.8781	0.4238	5.58262E-5	2010.11717	43787.604	38.2942	 
1120.0	1.0	1.8893E-9	7.29043	7.51727	-7.48626	15.56308	30.32602	1.49693	0.66804	98.76027	100.27139	36.96547	0.33585	16.32813	131030.1237	0.41644	5.18936E-5	2012.817	43596.371	38.2466	 
1115.0	1.0	1.8893E-9	7.29246	7.51518	-7.51198	15.54509	30.26829	1.4944	0.66917	99.40792	100.80992	37.21328	0.33565	16.55925	140526.2264	0.40915	4.82132E-5	2015.49286	43405.373	38.1996	 
1110.0	1.0	1.8893E-9	7.29449	7.5131	-7.53766	15.52709	30.21057	1.49186	0.6703	100.05726	101.3489	37.46179	0.33546	16.79535	150786.7935	0.40195	4.47706E-5	2018.14536	43214.609	38.1528	 
1105.0	1.0	1.8893E-9	7.29651	7.51101	-7.56329	15.5091	30.15284	1.48931	0.67145	100.70825	101.88828	37.711	0.33526	17.03657	161879.2962	0.39482	4.1552E-5	2020.77512	43024.075	38.1068	 
1100.0	1.0	1.8893E-9	7.29853	7.50893	-7.58888	15.4911	30.09512	1.48676	0.67261	101.36086	102.42803	37.96088	0.33507	17.28305	173877.6712	0.38778	3.85444E-5	2023.38273	42833.768	38.0614	 
1095.0	1.0	1.8893E-9	7.30055	7.50686	-7.61442	15.4731	30.03739	1.48419	0.67377	102.01505	102.9681	38.21143	0.33488	17.53493	186862.9881	0.38082	3.57353E-5	2025.96879	42643.686	38.0164	 
1090.0	1.0	1.8893E-9	7.30256	7.50479	-7.63991	15.45509	29.97967	1.48161	0.67494	102.67077	103.50846	38.46263	0.33468	17.79238	200924.191	0.37394	3.3113E-5	2028.53386	42453.826	37.972	 
1085.0	1.0	1.8893E-9	7.30457	7.50272	-7.66535	15.43709	29.92194	1.47903	0.67612	103.328	104.04907	38.71446	0.33449	18.05554	216158.9223	0.36713	3.06663E-5	2031.07852	42264.185	37.9282	 
1080.0	1.0	1.8893E-9	7.30658	7.50066	-7.69075	15.41908	29.86422	1.47643	0.67731	103.98669	104.58988	38.96692	0.33429	18.32458	232674.4388	0.36041	2.83847E-5	2033.60331	42074.761	37.8848	 
1075.0	1.0	1.8893E-9	7.30859	7.4986	-7.7161	15.40107	29.80649	1.47382	0.67851	104.6468	105.13085	39.21998	0.3341	18.59967	250588.6316	0.35377	2.62581E-5	2036.10877	41885.549	37.8424	 
1070.0	1.0	1.8893E-9	7.31059	7.49654	-7.7414	15.38306	29.74877	1.47121	0.67971	105.3083	105.67196	39.47363	0.33391	18.88098	270031.1608	0.34721	2.42771E-5	2038.59545	41696.548	37.8002	 
1065.0	1.0	1.8893E-9	7.3126	7.49449	-7.76665	15.36505	29.69104	1.46858	0.68093	105.97115	106.21316	39.72787	0.33371	19.1687	291144.721	0.34072	2.24328E-5	2041.06384	41507.753	37.759	 
1060.0	1.0	1.8893E-9	7.31459	7.49244	-7.79186	15.34703	29.63332	1.46594	0.68216	106.63531	106.75441	39.98267	0.33352	19.46302	314086.4515	0.33431	2.07165E-5	2043.51447	41319.162	37.7182	 
1055.0	1.0	1.8893E-9	7.31659	7.4904	-7.81702	15.32902	29.57559	1.46329	0.68339	107.30074	107.29567	40.23802	0.33333	19.76411	339029.5104	0.32799	1.91204E-5	2045.94782	41130.772	37.678	 
1050.0	1.0	1.8893E-9	7.31859	7.48836	-7.84214	15.311	29.51787	1.46064	0.68463	107.96741	107.83691	40.49391	0.33313	20.0722	366164.8314	0.32174	1.76368E-5	2048.36439	40942.578	37.6388	 
1045.0	1.0	1.8893E-9	7.32058	7.48632	-7.8672	15.29298	29.46014	1.45797	0.68589	108.63528	108.37809	40.75032	0.33294	20.38748	395703.0879	0.31556	1.62586E-5	2050.76463	40754.579	37.5998	 
1040.0	1.0	1.8893E-9	7.32256	7.48429	-7.89222	15.27495	29.40242	1.45529	0.68715	109.3043	108.91917	41.00724	0.33274	20.71017	427876.8886	0.30947	1.4979E-5	2053.14902	40566.769	37.562	 
1035.0	1.0	1.8893E-9	7.32455	7.48226	-7.9172	15.25693	29.34469	1.4526	0.68842	109.97444	109.46011	41.26465	0.33255	21.04049	462943.2336	0.30345	1.37917E-5	2055.518	40379.146	37.5246	 
1030.0	1.0	1.8893E-9	7.32653	7.48023	-7.94212	15.2389	29.28697	1.4499	0.6897	110.64566	110.00087	41.52255	0.33236	21.37868	501186.2666	0.29751	1.26906E-5	2057.87201	40191.705	37.4882	 
1025.0	1.0	1.8893E-9	7.32851	7.47821	-7.967	15.22087	29.22924	1.44719	0.691	111.31793	110.54142	41.78091	0.33216	21.72497	542920.3569	0.29164	1.16701E-5	2060.21147	40004.444	37.4522	 
1020.0	1.0	1.8893E-9	7.33049	7.47619	-7.99183	15.20284	29.17152	1.44447	0.6923	111.99121	111.08173	42.03973	0.33197	22.07961	588493.5572	0.28585	1.07249E-5	2062.53681	39817.358	37.4172	 
1015.0	1.0	1.8893E-9	7.33247	7.47418	-8.01662	15.18481	29.11379	1.44173	0.69361	112.66545	111.62175	42.29898	0.33177	22.44287	638291.484	0.28014	9.84995E-6	2064.84842	39630.443	37.383	 
1010.0	1.0	1.8893E-9	7.33444	7.47217	-8.04136	15.16678	29.05607	1.43899	0.69493	113.34063	112.16144	42.55866	0.33158	22.815	692741.675	0.2745	9.04051E-6	2067.1467	39443.695	37.3496	 
1005.0	1.0	1.8893E-9	7.33641	7.47016	-8.06605	15.14874	28.99834	1.43624	0.69626	114.01669	112.70078	42.81876	0.33139	23.19629	752318.4881	0.26894	8.29214E-6	2069.43204	39257.11	37.317	 
1000.0	1.0	1.8893E-9	7.33838	7.46816	-8.09069	15.1307	28.94062	1.43347	0.69761	114.69362	113.23972	43.07924	0.33119	23.58702	817548.6113	0.26345	7.60068E-6	2071.7048	39070.683	37.2854	 
995.0	1.0	1.8893E-9	7.34034	7.46616	-8.11528	15.11266	28.8829	1.4307	0.69896	115.37135	113.77824	43.34011	0.331	23.98749	889017.2662	0.25803	6.96221E-6	2073.96534	38884.411	37.2544	 
990.0	1.0	1.8893E-9	7.3423	7.46417	-8.13983	15.09462	28.82517	1.42791	0.70032	116.04987	114.31628	43.60135	0.33081	24.39801	967375.1969	0.25269	6.37304E-6	2076.21403	38698.288	37.2246	 
985.0	1.0	1.8893E-9	7.34426	7.46218	-8.16434	15.07658	28.76745	1.42511	0.7017	116.72913	114.85383	43.86295	0.33061	24.8189	1053346.55	0.24742	5.82972E-6	2078.45119	38512.311	37.1954	 
980.0	1.0	1.8893E-9	7.34622	7.46019	-8.18879	15.05853	28.70973	1.4223	0.70309	117.40909	115.39083	44.12488	0.33042	25.2505	1147737.769	0.24223	5.32902E-6	2080.67715	38326.474	37.1674	 
975.0	1.0	1.8893E-9	7.34817	7.45821	-8.2132	15.04048	28.65201	1.41948	0.70448	118.08972	115.92727	44.38714	0.33022	25.69316	1251447.638	0.2371	4.86789E-6	2082.89225	38140.772	37.1404	 
970.0	1.0	1.8893E-9	7.35012	7.45623	-8.23756	15.02243	28.59429	1.41665	0.70589	118.77097	116.46309	44.64971	0.33003	26.14723	1365478.632	0.23205	4.4435E-6	2085.09678	37955.201	37.1142	 
965.0	1.0	1.8893E-9	7.35207	7.45425	-8.26187	15.00438	28.53657	1.4138	0.70731	119.45282	116.99828	44.91259	0.32984	26.61309	1490949.767	0.22707	4.05319E-6	2087.29105	37769.755	37.0892	 
960.0	1.0	1.8893E-9	7.35402	7.45228	-8.28614	14.98633	28.47885	1.41095	0.70874	120.13521	117.53278	45.17574	0.32964	27.09113	1629111.138	0.22216	3.69447E-6	2089.47534	37584.429	37.0652	 
955.0	1.0	1.8893E-9	7.35596	7.45031	-8.31036	14.96827	28.42113	1.40808	0.71019	120.81812	118.06657	45.43917	0.32945	27.58175	1781360.4	0.21733	3.36501E-6	2091.64995	37399.217	37.0424	 
950.0	1.0	1.8893E-9	7.3579	7.44835	-8.33453	14.95022	28.36341	1.4052	0.71164	121.50151	118.59962	45.70285	0.32926	28.08538	1949261.464	0.21256	3.06264E-6	2093.81513	37214.114	37.0206	 
945.0	1.0	1.8893E-9	7.35983	7.44639	-8.35865	14.93216	28.30569	1.40231	0.71311	122.18534	119.13189	45.96677	0.32906	28.60246	2134565.714	0.20787	2.78534E-6	2095.97117	37029.114	37.0	 
940.0	1.0	1.8893E-9	7.36177	7.44443	-8.38273	14.9141	28.24798	1.39941	0.71459	122.86956	119.66334	46.23092	0.32887	29.13343	2339236.118	0.20324	2.5312E-6	2098.11829	36844.211	36.9806	 
935.0	1.0	1.8893E-9	7.3637	7.44248	-8.40676	14.89603	28.19026	1.3965	0.71608	123.55415	120.19394	46.49529	0.32867	29.67878	2565474.653	0.19868	2.29848E-6	2100.25676	36659.399	36.9624	 
930.0	1.0	1.8893E-9	7.36563	7.44053	-8.43074	14.87797	28.13255	1.39357	0.71758	124.23907	120.72365	46.75985	0.32848	30.239	2815753.513	0.1942	2.08551E-6	2102.38681	36474.672	36.9454	 
925.0	1.0	1.8893E-9	7.36755	7.43858	-8.45468	14.8599	28.07484	1.39063	0.7191	124.92427	121.25246	47.02461	0.32829	30.81461	3092850.672	0.18978	1.89077E-6	2104.50866	36290.022	36.93	 
920.0	1.0	1.8893E-9	7.36948	7.43664	-8.47857	14.84183	28.01714	1.38768	0.72063	125.60973	121.78031	47.28953	0.32809	31.40613	3399890.441	0.18542	1.71284E-6	2106.62253	36105.444	36.9156	 
915.0	1.0	1.8893E-9	7.3714	7.43471	-8.50241	14.82376	27.95943	1.38472	0.72217	126.2954	122.30718	47.55461	0.3279	32.01413	3740389.757	0.18114	1.55039E-6	2108.72864	35920.93	36.9028	 
910.0	1.0	1.8893E-9	7.37332	7.43277	-8.5262	14.80569	27.90173	1.38174	0.72373	126.98124	122.83303	47.81983	0.3277	32.63919	4118311.077	0.17692	1.40219E-6	2110.82718	35736.473	36.8914	 
905.0	1.0	1.8893E-9	7.37523	7.43084	-8.54995	14.78761	27.84403	1.37875	0.72529	127.66722	123.35784	48.08518	0.32751	33.28192	4538122.865	0.17277	1.2671E-6	2112.91835	35552.066	36.8814	 
900.0	1.0	1.8893E-9	7.37714	7.42892	-8.57365	14.76954	27.78633	1.37575	0.72688	128.3533	123.88156	48.35065	0.32732	33.94294	5004868.848	0.16869	1.14406E-6	2115.00233	35367.7	36.8732	 
895.0	1.0	1.8893E-9	7.37905	7.42699	-8.5973	14.75146	27.72864	1.37274	0.72847	129.03944	124.40417	48.61622	0.32712	34.62293	5524247.36	0.16467	1.03208E-6	2117.07932	35183.369	36.8662	 
890.0	1.0	1.8893E-9	7.38096	7.42508	-8.6209	14.73338	27.67096	1.36971	0.73008	129.72561	124.92564	48.88188	0.32693	35.32256	6102702.371	0.16072	9.30251E-7	2119.14947	34999.063	36.8612	 
885.0	1.0	1.8893E-9	7.38286	7.42316	-8.64446	14.71529	27.61327	1.36667	0.7317	130.41177	125.44592	49.1476	0.32674	36.04255	6747528.001	0.15683	8.37735E-7	2121.21294	34814.774	36.8578	 
880.0	1.0	1.8893E-9	7.38476	7.42125	-8.66797	14.69721	27.5556	1.36362	0.73334	131.09787	125.965	49.41339	0.32654	36.78365	7466988.646	0.15301	7.53749E-7	2123.26991	34630.494	36.856	 
875.0	1.0	1.8893E-9	7.38666	7.41935	-8.69143	14.67912	27.49793	1.36056	0.73499	131.78389	126.48283	49.67922	0.32635	37.54664	8270457.201	0.14925	6.77573E-7	2125.32052	34446.212	36.8564	 
870.0	1.0	1.8893E-9	7.38855	7.41744	-8.71485	14.66103	27.44026	1.35748	0.73666	132.46979	126.99939	49.94509	0.32615	38.33235	9168574.26	0.14555	6.08539E-7	2127.3649	34261.921	36.8582	 
865.0	1.0	1.8893E-9	7.39044	7.41554	-8.73822	14.64294	27.38261	1.35439	0.73834	133.15552	127.51464	50.21097	0.32596	39.14162	1.017343168E7	0.14192	5.46033E-7	2129.4032	34077.609	36.8624	 
860.0	1.0	1.8893E-9	7.39233	7.41365	-8.76154	14.62485	27.32496	1.35128	0.74004	133.84105	128.02856	50.47685	0.32577	39.97535	1.129878446E7	0.13835	4.89488E-7	2131.43555	33893.267	36.8684	 
855.0	1.0	1.8893E-9	7.39422	7.41176	-8.78481	14.60676	27.26731	1.34816	0.74175	134.52635	128.54111	50.74272	0.32557	40.83446	1.256029559E7	0.13484	4.38383E-7	2133.46207	33708.884	36.8766	 
850.0	1.0	1.8893E-9	7.3961	7.40987	-8.80804	14.58866	27.20968	1.34503	0.74348	135.21137	129.05226	51.00857	0.32538	41.71993	1.397581923E7	0.1314	3.92236E-7	2135.48287	33524.449	36.887	 
845.0	1.0	1.8893E-9	7.39798	7.40799	-8.83121	14.57056	27.15206	1.34188	0.74522	135.89609	129.56197	51.27437	0.32519	42.63278	1.556572875E7	0.12801	3.50604E-7	2137.49808	33339.95	36.8998	 
840.0	1.0	1.8893E-9	7.39986	7.40611	-8.85435	14.55246	27.09445	1.33872	0.74698	136.58045	130.07023	51.54013	0.32499	43.57408	1.735329702E7	0.12468	3.13082E-7	2139.50778	33155.375	36.915	 
835.0	1.0	1.8893E-9	7.40174	7.40423	-8.87743	14.53436	27.03685	1.33555	0.74876	137.26443	130.577	51.80581	0.3248	44.54494	1.936513775E7	0.12142	2.79296E-7	2141.51209	32970.712	36.9326	 
830.0	1.0	1.8893E-9	7.40361	7.40236	-8.90047	14.51626	26.97926	1.33236	0.75055	137.94798	131.08225	52.07141	0.3246	45.54653	2.163171848E7	0.11821	2.48903E-7	2143.51109	32785.948	36.9528	 
825.0	1.0	1.8893E-9	7.40548	7.40049	-8.92345	14.49815	26.92168	1.32916	0.75236	138.63108	131.58594	52.33692	0.32441	46.58006	2.418795735E7	0.11507	2.21589E-7	2145.50488	32601.07	36.9756	 
820.0	1.0	1.8893E-9	7.40734	7.39863	-8.9464	14.48004	26.86412	1.32594	0.75418	139.31368	132.08805	52.60232	0.32422	47.64684	2.707391822E7	0.11198	1.97068E-7	2147.49354	32416.062	37.0016	 
815.0	1.0	1.8893E-9	7.4092	7.39677	-8.96929	14.46193	26.80658	1.32271	0.75602	139.99575	132.58855	52.86759	0.32402	48.74818	3.033562136E7	0.10895	1.75074E-7	2149.47714	32230.91	37.0304	 
810.0	1.0	1.8893E-9	7.41106	7.39491	-8.99214	14.44382	26.74904	1.31947	0.75788	140.67724	133.08741	53.13273	0.32383	49.88551	3.402599007E7	0.10597	1.55369E-7	2151.45575	32045.599	37.0622	 
805.0	1.0	1.8893E-9	7.41292	7.39306	-9.01494	14.42571	26.69153	1.3162	0.75976	141.35813	133.5846	53.39771	0.32363	51.06029	3.82059573E7	0.10306	1.37732E-7	2153.42945	31860.112	37.0974	 
800.0	1.0	1.8893E-9	7.41478	7.39121	-9.03769	14.40759	26.63403	1.31293	0.76166	142.03837	134.08009	53.66253	0.32344	52.27407	4.294576111E7	0.1002	1.21963E-7	2155.3983	31674.433	37.1358	 
795.0	1.0	1.8893E-9	7.41663	7.38937	-9.06039	14.38948	26.57655	1.30964	0.76357	142.71793	134.57385	53.92717	0.32325	53.52848	4.832646291E7	0.0973944	1.07878E-7	2157.36235	31488.542	37.1782	 
790.0	1.0	1.8893E-9	7.41848	7.38752	-9.08305	14.37136	26.51909	1.30633	0.7655	143.39677	135.06585	54.19161	0.32305	54.82522	5.444172928E7	0.0946457	9.53124E-8	2159.32165	31302.422	37.224	 
785.0	1.0	1.8893E-9	7.42032	7.38569	-9.10566	14.35324	26.46164	1.30301	0.76745	144.07486	135.55606	54.45584	0.32286	56.16608	6.139992568E7	0.0919517	8.41136E-8	2161.27626	31116.053	37.2738	 
780.0	1.0	1.8893E-9	7.42216	7.38385	-9.12822	14.33511	26.40422	1.29967	0.76942	144.75215	136.04446	54.71986	0.32267	57.55293	6.932658002E7	0.0893119	7.41442E-8	2163.22622	30929.412	37.3282	 
775.0	1.0	1.8893E-9	7.424	7.38202	-9.15074	14.31699	26.34681	1.29632	0.77141	145.42862	136.53101	54.98364	0.32247	58.98775	7.836728527E7	0.0867258	6.52793E-8	2165.17157	30742.48	37.3864	 
770.0	1.0	1.8893E-9	7.42584	7.3802	-9.1732	14.29886	26.28943	1.29295	0.77342	146.10422	137.01569	55.24716	0.32228	60.47262	8.869112389E7	0.0841928	5.74055E-8	2167.11234	30555.231	37.4498	 
765.0	1.0	1.8893E-9	7.42767	7.37838	-9.19562	14.28073	26.23207	1.28957	0.77545	146.77891	137.49847	55.51043	0.32208	62.00971	1.004947137E8	0.0817122	5.04201E-8	2169.04857	30367.642	37.5178	 
760.0	1.0	1.8893E-9	7.4295	7.37656	-9.218	14.2626	26.17473	1.28617	0.7775	147.45267	137.97931	55.77341	0.32189	63.60132	1.140069942E8	0.0792837	4.42302E-8	2170.98028	30179.687	37.591	 
755.0	1.0	1.8893E-9	7.43133	7.37475	-9.24032	14.24447	26.11741	1.28276	0.77957	148.12545	138.45821	56.0361	0.3217	65.24987	1.294948975E8	0.0769066	3.87517E-8	2172.9075	29991.337	37.67	 
750.0	1.0	1.8893E-9	7.43315	7.37294	-9.2626	14.22633	26.06011	1.27932	0.78166	148.79722	138.93511	56.29849	0.3215	66.95789	1.472700762E8	0.0745803	3.39087E-8	2174.83025	29802.564	37.7546	 
745.0	1.0	1.8893E-9	7.43498	7.37113	-9.28483	14.2082	26.00284	1.27588	0.78377	149.46794	139.41	56.56056	0.32131	68.72806	1.676968971E8	0.0723043	2.96329E-8	2176.74854	29613.336	37.8456	 
740.0	1.0	1.8893E-9	7.43679	7.36933	-9.30701	14.19006	25.94558	1.27241	0.78591	150.13758	139.88286	56.82229	0.32112	70.5632	1.912019539E8	0.0700781	2.58624E-8	2178.66238	29423.62	37.9432	 
735.0	1.0	1.8893E-9	7.43861	7.36753	-9.32915	14.17192	25.88835	1.26893	0.78806	150.80609	140.35364	57.08368	0.32092	72.46628	2.182854019E8	0.067901	2.25417E-8	2180.57179	29233.38	38.048	 
730.0	1.0	1.8893E-9	7.44042	7.36573	-9.35123	14.15377	25.83114	1.26544	0.79024	151.47345	140.82233	57.3447	0.32073	74.44043	2.495344873E8	0.0657724	1.9621E-8	2182.47678	29042.579	38.1602	 
725.0	1.0	1.8893E-9	7.44223	7.36394	-9.37327	14.13563	25.77395	1.26192	0.79244	152.13961	141.2889	57.60535	0.32053	76.48896	2.856397182E8	0.0636918	1.70555E-8	2184.37733	28851.175	38.2808	 
720.0	1.0	1.8893E-9	7.44404	7.36216	-9.39526	14.11748	25.71677	1.25839	0.79466	152.80454	141.75332	57.86561	0.32034	78.61535	3.274142247E8	0.0616587	1.48048E-8	2186.27346	28659.126	38.4098	 
715.0	1.0	1.8893E-9	7.44584	7.36037	-9.41721	14.09934	25.65962	1.25485	0.79691	153.46821	142.21557	58.12547	0.32015	80.82327	3.758169723E8	0.0596724	1.28331E-8	2188.16516	28466.385	38.5482	 
710.0	1.0	1.8893E-9	7.44764	7.35859	-9.43911	14.08118	25.60248	1.25128	0.79918	154.13057	142.67561	58.3849	0.31995	83.11662	4.319806427E8	0.0577323	1.11082E-8	2190.05242	28272.901	38.6968	 
705.0	1.0	1.8893E-9	7.44944	7.35682	-9.46095	14.06303	25.54536	1.2477	0.80147	154.79159	143.13343	58.64391	0.31976	85.49949	4.972451708E8	0.0558378	9.60111E-9	2191.93524	28078.62	38.8562	 
700.0	1.0	1.8893E-9	7.45123	7.35505	-9.48276	14.04488	25.48825	1.24411	0.80379	155.45124	143.589	58.90247	0.31956	87.97623	5.731981555E8	0.0539885	8.28632E-9	2193.81359	27883.483	39.0274	 
695.0	1.0	1.8893E-9	7.45303	7.35328	-9.50451	14.02672	25.43115	1.24049	0.80613	156.10948	144.04228	59.16058	0.31937	90.55142	6.617236334E8	0.0521836	7.1409E-9	2195.68747	27687.427	39.2112	 
690.0	1.0	1.8893E-9	7.45481	7.35151	-9.52622	14.00856	25.37406	1.23686	0.8085	156.76627	144.49326	59.41821	0.31918	93.22991	7.650610449E8	0.0504226	6.14447E-9	2197.55685	27490.384	39.4086	 
685.0	1.0	1.8893E-9	7.4566	7.34976	-9.54788	13.9904	25.31698	1.23322	0.81089	157.42157	144.94191	59.67535	0.31898	96.01684	8.858766463E8	0.0487049	5.27894E-9	2199.42172	27292.277	39.6214	 
680.0	1.0	1.8893E-9	7.45838	7.348	-9.56949	13.97224	25.25991	1.22955	0.8133	158.07536	145.3882	59.932	0.31879	98.91764	1.027350146E9	0.0470299	4.52824E-9	2201.28205	27093.026	39.8502	 
675.0	1.0	1.8893E-9	7.46016	7.34625	-9.59105	13.95408	25.20284	1.22587	0.81575	158.7276	145.83211	60.18813	0.3186	101.93808	1.193279999E9	0.045397	3.87812E-9	2203.13782	26892.542	40.0968	 
670.0	1.0	1.8893E-9	7.46194	7.3445	-9.61257	13.93591	25.14577	1.22218	0.81821	159.37824	146.27361	60.44373	0.3184	105.08425	1.388211598E9	0.0438056	3.31598E-9	2204.98899	26690.727	40.363	 
665.0	1.0	1.8893E-9	7.46371	7.34275	-9.63404	13.91775	25.08871	1.21846	0.82071	160.02726	146.71269	60.69879	0.31821	108.36262	1.617593645E9	0.0422551	2.83067E-9	2206.83553	26487.475	40.6504	 
660.0	1.0	1.8893E-9	7.46548	7.34101	-9.65546	13.89958	25.03163	1.21473	0.82323	160.67462	147.1493	60.9533	0.31801	111.78007	1.887969227E9	0.0407449	2.41237E-9	2208.67742	26282.668	40.9614	 
655.0	1.0	1.8893E-9	7.46724	7.33928	-9.67683	13.8814	24.97455	1.21098	0.82578	161.32028	147.58344	61.20724	0.31782	115.34387	2.207209763E9	0.0392745	2.0524E-9	2210.51461	26076.177	41.2982	 
650.0	1.0	1.8893E-9	7.46901	7.33754	-9.69816	13.86323	24.91746	1.20722	0.82835	161.96421	148.01507	61.46059	0.31763	119.06177	2.584801965E9	0.0378431	1.74314E-9	2212.34706	25867.86	41.6634	 
645.0	1.0	1.8893E-9	7.47077	7.33582	-9.71943	13.84506	24.86036	1.20344	0.83095	162.60637	148.44417	61.71335	0.31743	122.94198	3.032200524E9	0.0364502	1.47789E-9	2214.17475	25657.558	42.0604	 
640.0	1.0	1.8893E-9	7.47253	7.33409	-9.74066	13.82688	24.80325	1.19964	0.83358	163.24673	148.87071	61.9655	0.31724	126.99324	3.563262431E9	0.0350952	1.25078E-9	2215.99761	25445.097	42.4922	 
635.0	1.0	1.8893E-9	7.47428	7.33237	-9.76185	13.8087	24.74611	1.19583	0.83624	163.88526	149.29468	62.21703	0.31704	131.22484	4.19478288E9	0.0337776	1.05666E-9	2217.81561	25230.283	42.9628	 
630.0	1.0	1.8893E-9	7.47603	7.33065	-9.78298	13.79052	24.68895	1.192	0.83893	164.52191	149.71605	62.46792	0.31685	135.64666	4.947157885E9	0.0324966	8.91027E-10	2219.6287	25012.898	43.477	 
625.0	1.0	1.8893E-9	7.47778	7.32894	-9.80407	13.77233	24.63177	1.18815	0.84165	165.15665	150.13479	62.71816	0.31666	140.26923	5.84520523E9	0.0312517	7.49956E-10	2221.43683	24792.702	44.0392	 
620.0	1.0	1.8893E-9	7.47952	7.32723	-9.82511	13.75415	24.57456	1.18429	0.84439	165.78945	150.55088	62.96773	0.31646	145.10376	6.919183752E9	0.0300422	6.30023E-10	2223.23995	24569.423	44.6558	 
615.0	1.0	1.8893E-9	7.48126	7.32552	-9.8461	13.73596	24.51733	1.1804	0.84717	166.42027	150.96431	63.21663	0.31627	150.16219	8.206061546E9	0.0288677	5.28248E-10	2225.038	24338.525	46.1796	 
610.0	1.0	1.8893E-9	7.483	7.32382	-9.86704	13.71777	24.46006	1.17651	0.84997	167.04909	151.37503	63.46484	0.31608	155.45728	9.751097299E9	0.0277275	4.42046E-10	2226.83093	24082.017	51.3016	 
605.0	1.0	1.8893E-9	7.48474	7.32212	-9.88794	13.69958	24.40275	1.17259	0.85281	167.67585	151.78305	63.71234	0.31588	161.00261	1.16098E10	0.0266209	3.69173E-10	2228.61868	23828.995	50.6044	 
600.0	1.0	1.8893E-9	7.48647	7.32043	-9.90879	13.68139	24.34541	1.16866	0.85568	168.30054	152.18832	63.95912	0.31569	166.81269	1.3850499999999998E10	0.0255474	3.07688E-10	2230.4012	23579.321	49.9348	 
595.0	1.0	1.8893E-9	7.4882	7.31874	-9.92959	13.66319	24.28803	1.16472	0.85858	168.92311	152.59083	64.20517	0.31549	172.90303	1.6557199999999998E10	0.0245064	2.55914E-10	2232.17841	23332.863	49.2916	 
590.0	1.0	1.8893E-9	7.48992	7.31705	-9.95034	13.645	24.23061	1.16075	0.86151	169.54352	152.99055	64.45048	0.3153	179.2902	1.98339E10	0.0234972	2.12405E-10	2233.95026	23089.495	48.6736	 
585.0	1.0	1.8893E-9	7.49165	7.31537	-9.97105	13.6268	24.17314	1.15677	0.86447	170.16176	153.38747	64.69503	0.31511	185.99193	2.3809099999999996E10	0.0225193	1.75917E-10	2235.71668	22849.1	48.079	 
580.0	1.0	1.8893E-9	7.49337	7.31369	-9.9917	13.6086	24.11563	1.15277	0.86747	170.77778	153.78156	64.93881	0.31491	193.02716	2.8642199999999996E10	0.0215722	1.4538E-10	2237.4776	22611.566	47.5068	 
575.0	1.0	1.8893E-9	7.49508	7.31202	-10.01231	13.5904	24.05808	1.14876	0.8705	171.39155	154.1728	65.18181	0.31472	200.41623	3.45317E10	0.0206551	1.19879E-10	2239.23296	22376.788	46.9556	 
570.0	1.0	1.8893E-9	7.4968	7.31035	-10.03287	13.57219	24.00047	1.14473	0.87357	172.00303	154.56117	65.424	0.31453	208.18087	4.17245E10	0.0197675	9.8628E-11	2240.98268	22144.665	46.4246	 
565.0	1.0	1.8893E-9	7.49851	7.30868	-10.05339	13.55398	23.94283	1.14068	0.87667	172.61219	154.94664	65.66539	0.31433	216.34443	5.052959999999999E10	0.0189087	8.09586E-11	2242.72669	21915.102	45.9126	 
560.0	1.0	1.8893E-9	7.50021	7.30702	-10.07386	13.53578	23.88513	1.13661	0.87981	173.219	155.3292	65.90595	0.31414	224.93194	6.133349999999999E10	0.0180783	6.62998E-11	2244.46491	21688.01	45.4184	 
555.0	1.0	1.8893E-9	7.50192	7.30536	-10.09427	13.51757	23.82739	1.13253	0.88298	173.82342	155.70883	66.14567	0.31394	233.97027	7.46219E10	0.0172757	5.41663E-11	2246.19727	21463.303	44.9414	 
550.0	1.0	1.8893E-9	7.50362	7.3037	-10.11464	13.49935	23.7696	1.12843	0.88619	174.42542	156.0855	66.38455	0.31375	243.48828	9.10059E10	0.0165001	4.41465E-11	2247.92369	21240.901	44.4804	 
545.0	1.0	1.8893E-9	7.50531	7.30205	-10.13497	13.48114	23.71176	1.12431	0.88943	175.02497	156.4592	66.62256	0.31356	253.51702	1.11257E11	0.0157512	3.58916E-11	2249.64409	21020.728	44.0346	 
540.0	1.0	1.8893E-9	7.50701	7.3004	-10.15524	13.46292	23.65387	1.12018	0.89272	175.62203	156.8299	66.8597	0.31336	264.08987	1.3635E11	0.0150282	2.91072E-11	2251.35839	20802.71	43.6036	 
535.0	1.0	1.8893E-9	7.5087	7.29876	-10.17547	13.44471	23.59594	1.11602	0.89604	176.21658	157.19758	67.09594	0.31317	275.24279	1.67525E11	0.0143305	2.3545E-11	2253.0665	20586.779	43.1862	 
530.0	1.0	1.8893E-9	7.51038	7.29712	-10.19565	13.42649	23.53797	1.11185	0.8994	176.80857	157.56223	67.33129	0.31297	287.01449	2.06355E11	0.0136578	1.89963E-11	2254.76834	20372.869	42.782	 
525.0	1.0	1.8893E-9	7.51207	7.29548	-10.21578	13.40826	23.47995	1.10766	0.90281	177.39798	157.92382	67.56571	0.31278	299.44672	2.54851E11	0.0130092	1.52857E-11	2256.46381	20160.919	42.39	 
520.0	1.0	1.8893E-9	7.51375	7.29385	-10.23586	13.39004	23.42189	1.10345	0.90625	177.98477	158.28234	67.79922	0.31259	312.58454	3.15582E11	0.0123844	1.22668E-11	2258.15284	19950.868	42.0102	 
515.0	1.0	1.8893E-9	7.51543	7.29222	-10.2559	13.37181	23.3638	1.09922	0.90974	178.56891	158.63776	68.03178	0.31239	326.47658	3.91847E11	0.0117827	9.81701E-12	2259.83533	19742.662	41.6412	 
510.0	1.0	1.8893E-9	7.5171	7.2906	-10.27589	13.35359	23.30566	1.09497	0.91327	179.15038	158.99007	68.26339	0.3122	341.17539	4.87889E11	0.0112035	7.83449E-12	2261.51118	19536.246	41.2832	 
505.0	1.0	1.8893E-9	7.51877	7.28898	-10.29583	13.33536	23.24749	1.0907	0.91684	179.72912	159.33925	68.49403	0.31201	356.73782	6.09184E11	0.0106464	6.23449E-12	2263.1803	19331.571	40.935	 
500.0	1.0	1.8893E-9	7.52044	7.28736	-10.31572	13.31713	23.18929	1.08641	0.92046	180.30513	159.68527	68.72369	0.31181	373.22538	7.62823E11	0.0101107	4.94682E-12	2264.8426	19128.587	40.5968	 
495.0	1.0	1.8893E-9	7.5221	7.28575	-10.33556	13.29889	23.13106	1.0821	0.92413	180.87835	160.02813	68.95237	0.31162	390.70468	9.58011E11	0.00959586	3.91347E-12	2266.49798	18927.248	40.2678	 
490.0	1.0	1.8893E-9	7.52376	7.28414	-10.35536	13.28066	23.0728	1.07777	0.92784	181.44877	160.36781	69.18004	0.31142	409.24797	1.20674E12	0.00910144	3.08662E-12	2268.14634	18727.511	39.9474	 
485.0	1.0	1.8893E-9	7.52542	7.28254	-10.37511	13.26242	23.01452	1.07342	0.9316	182.01635	160.70428	69.40669	0.31123	428.9336	1.52468E12	0.00862684	2.42696E-12	2269.78757	18529.334	39.6354	 
480.0	1.0	1.8893E-9	7.52708	7.28094	-10.39481	13.24418	22.95622	1.06905	0.93541	182.58106	161.03752	69.63232	0.31104	449.84668	1.93238E12	0.00817154	1.90228E-12	2271.42158	18332.677	39.3314	 
475.0	1.0	1.8893E-9	7.52873	7.27934	-10.41446	13.22594	22.89789	1.06466	0.93927	183.14287	161.36753	69.85691	0.31084	472.07968	2.45687E12	0.007735	1.48625E-12	2273.04825	18137.502	39.035	 
470.0	1.0	1.8893E-9	7.53038	7.27775	-10.43407	13.2077	22.83955	1.06025	0.94318	183.70175	161.69428	70.08045	0.31065	495.7332	3.13383E12	0.0073167	1.15741E-12	2274.66749	17943.772	38.746	 
465.0	1.0	1.8893E-9	7.53202	7.27616	-10.45362	13.18945	22.7812	1.05581	0.94714	184.25767	162.01776	70.30292	0.31046	520.9168	4.01052E12	0.00691613	8.98319E-13	2276.27917	17751.453	38.4638	 
460.0	1.0	1.8893E-9	7.53366	7.27457	-10.47313	13.1712	22.72284	1.05135	0.95116	184.81059	162.33795	70.52432	0.31026	547.74983	5.14976E12	0.00653277	6.94853E-13	2277.8832	17560.511	38.1884	 
455.0	1.0	1.8893E-9	7.5353	7.27299	-10.49259	13.15295	22.66447	1.04687	0.95523	185.36049	162.65484	70.74463	0.31007	576.3625	6.63535E12	0.00616612	5.35604E-13	2279.47946	17370.915	37.9192	 
450.0	1.0	1.8893E-9	7.53693	7.27141	-10.512	13.1347	22.6061	1.04237	0.95936	185.90735	162.96841	70.96384	0.30987	606.89698	8.57953E12	0.00581567	4.11388E-13	2281.06783	17182.634	37.6562	 
445.0	1.0	1.8893E-9	7.53857	7.26984	-10.53137	13.11645	22.54772	1.03784	0.96354	186.45112	163.27863	71.18194	0.30968	639.50864	1.11331E13	0.00548095	3.14837E-13	2282.64821	16995.64	37.3988	 
440.0	1.0	1.8893E-9	7.54019	7.26827	-10.55069	13.0982	22.48935	1.03329	0.96778	186.99178	163.58551	71.39891	0.30949	674.36745	1.44996E13	0.00516144	2.40055E-13	2284.22047	16809.903	37.1474	 
435.0	1.0	1.8893E-9	7.54182	7.26671	-10.56995	13.07994	22.43098	1.02871	0.97209	187.5293	163.88902	71.61475	0.30929	711.65956	1.89547E13	0.00485668	1.82345E-13	2285.78449	16625.398	36.901	 
430.0	1.0	1.8893E-9	7.54344	7.26514	-10.58918	13.06168	22.37261	1.02412	0.97645	188.06366	164.18915	71.82945	0.3091	751.589	2.48732E13	0.00456619	1.37976E-13	2287.34015	16442.099	36.6598	 
425.0	1.0	1.8893E-9	7.54506	7.26359	-10.60835	13.04342	22.31425	1.01949	0.98088	188.59482	164.48588	72.04299	0.3089	794.37968	3.27671E13	0.00428951	1.03991E-13	2288.88734	16259.98	36.4238	 
420.0	1.0	1.8893E-9	7.54667	7.26203	-10.62747	13.02516	22.2559	1.01485	0.98537	189.12275	164.77921	72.25536	0.30871	840.27758	4.33382E13	0.00402616	7.80627E-14	2290.42592	16079.019	36.1922	 
415.0	1.0	1.8893E-9	7.54828	7.26048	-10.64655	13.00689	22.19756	1.01017	0.98993	189.64744	165.06911	72.46655	0.30852	889.55318	5.7553E13	0.0037757	5.83582E-14	2291.95577	15899.193	35.9652	 
410.0	1.0	1.8893E-9	7.54989	7.25894	-10.66558	12.98863	22.13924	1.00547	0.99456	190.16885	165.35557	72.67655	0.30832	942.5043	7.67482E13	0.00353769	4.34445E-14	2293.47677	15720.479	35.7428	 
405.0	1.0	1.8893E-9	7.5515	7.25739	-10.68456	12.97036	22.08093	1.00075	0.99925	190.68695	165.63859	72.88535	0.30813	999.45917	1.02781E14	0.00331167	3.22033E-14	2294.98878	15542.856	35.5246	 
400.0	1.0	1.8893E-9	7.5531	7.25585	-10.70349	12.95209	22.02264	0.996	1.00401	191.20172	165.91814	73.09294	0.30794	1060.77999	1.3824199999999998E14	0.00309723	2.37661E-14	2296.49168	15366.305	35.3102	 
395.0	1.0	1.8893E-9	7.55469	7.25432	-10.72238	12.93382	21.96436	0.99123	1.00885	191.71314	166.19422	73.2993	0.30774	1126.86689	1.86765E14	0.00289393	1.74609E-14	2297.98533	15190.805	35.1	 
390.0	1.0	1.8893E-9	7.55629	7.25279	-10.74121	12.91554	21.9061	0.98643	1.01376	192.22117	166.46681	73.50444	0.30755	1198.16249	2.5346599999999997E14	0.00270136	1.27696E-14	2299.4696	15016.338	34.8934	 
385.0	1.0	1.8893E-9	7.55788	7.25126	-10.76	12.89727	21.84786	0.9816	1.01875	192.72579	166.7359	73.70833	0.30735	1275.15694	3.45589E14	0.00251911	9.29505E-15	2300.94435	14842.885	34.6906	 
380.0	1.0	1.8893E-9	7.55947	7.24974	-10.77874	12.87899	21.78964	0.97674	1.02381	193.22697	167.00149	73.91096	0.30716	1358.39374	4.73436E14	0.00234679	6.73346E-15	2302.40944	14670.429	34.4912	 
375.0	1.0	1.8893E-9	7.56105	7.24822	-10.79743	12.86071	21.73144	0.97186	1.02895	193.7247	167.26355	74.11234	0.30697	1448.47634	6.51737E14	0.00218399	4.85389E-15	2303.86475	14498.953	34.2952	 
370.0	1.0	1.8893E-9	7.56263	7.24671	-10.81608	12.84243	21.67327	0.96695	1.03418	194.21895	167.52209	74.31244	0.30677	1546.07557	9.01656E14	0.00203034	3.48143E-15	2305.31012	14328.44	34.1026	 
365.0	1.0	1.8893E-9	7.56421	7.2452	-10.83467	12.82414	21.61511	0.96202	1.03948	194.70969	167.77709	74.51126	0.30658	1651.93822	1.25377E15	0.00188545	2.48422E-15	2306.74542	14158.875	33.913	 
360.0	1.0	1.8893E-9	7.56578	7.24369	-10.85322	12.80586	21.55697	0.95705	1.04487	195.1969	168.02853	74.70879	0.30639	1766.89675	1.7525E15	0.00174897	1.76334E-15	2308.17051	13990.242	33.7266	 
355.0	1.0	1.8893E-9	7.56735	7.24218	-10.87172	12.78757	21.49886	0.95206	1.05035	195.68056	168.27642	74.90501	0.30619	1891.88039	2.46271E15	0.00162053	1.24491E-15	2309.58524	13822.527	33.543	 
350.0	1.0	1.8893E-9	7.56892	7.24069	-10.89017	12.76928	21.44076	0.94704	1.05592	196.16064	168.52075	75.09993	0.306	2027.92789	3.47968E15	0.00149978	8.74059E-16	2310.98946	13655.714	33.3626	 
345.0	1.0	1.8893E-9	7.57048	7.23919	-10.90858	12.75099	21.38269	0.942	1.06157	196.63713	168.7615	75.29352	0.3058	2176.20213	4.94417E15	0.00138638	6.10221E-16	2312.38304	13489.79	33.1848	 
340.0	1.0	1.8893E-9	7.57204	7.2377	-10.92693	12.73269	21.32463	0.93692	1.06733	197.11	168.99867	75.48579	0.30561	2338.00684	7.06538E15	0.00127999	4.23563E-16	2313.76582	13324.742	33.0096	 
335.0	1.0	1.8893E-9	7.5736	7.23621	-10.94524	12.7144	21.2666	0.93182	1.07317	197.57923	169.23225	75.67673	0.30542	2514.80594	1.01561E16	0.0011803	2.9226E-16	2315.13767	13160.556	32.8372	 
330.0	1.0	1.8893E-9	7.57515	7.23473	-10.9635	12.6961	21.20858	0.92668	1.07912	198.04481	169.46223	75.86632	0.30522	2708.24572	1.4687E16	0.00108699	2.00438E-16	2316.49842	12997.22	32.6672	 
325.0	1.0	1.8893E-9	7.5767	7.23325	-10.98171	12.6778	21.15059	0.92152	1.08516	198.50671	169.68862	76.05455	0.30503	2920.18056	2.13705E16	9.9974E-4	1.3661E-16	2317.84793	12834.721	32.4998	 
320.0	1.0	1.8893E-9	7.57825	7.23177	-10.99987	12.6595	21.09261	0.91633	1.09131	198.96491	169.9114	76.24143	0.30483	3152.7026	3.12928E16	9.18265E-4	9.25139E-17	2319.18605	12673.047	32.3348	 
315.0	1.0	1.8893E-9	7.57979	7.2303	-11.01799	12.6412	21.03465	0.91111	1.09756	199.4194	170.13057	76.42694	0.30464	3408.17614	4.612E16	8.42273E-4	6.22423E-17	2320.51264	12512.188	32.1718	 
310.0	1.0	1.8893E-9	7.58133	7.22883	-11.03606	12.62289	20.97671	0.90586	1.10392	199.87016	170.34613	76.61107	0.30445	3689.27763	6.8426300000000008E16	7.71482E-4	4.15953E-17	2321.82753	12352.13	32.0116	 
305.0	1.0	1.8893E-9	7.58287	7.22737	-11.05407	12.60459	20.91878	0.90058	1.1104	200.31718	170.55807	76.79382	0.30425	3999.04215	1.02216E17	7.05621E-4	2.76062E-17	2323.13058	12192.864	31.8532	 
300.0	1.0	1.8893E-9	7.5844	7.22591	-11.07204	12.58628	20.86087	0.89527	1.11698	200.76043	170.76639	76.97519	0.30406	4340.91758	1.53765E17	6.44427E-4	1.81927E-17	2324.42164	12034.38	31.6968	 
295.0	1.0	1.8893E-9	7.58593	7.22445	-11.08997	12.56797	20.80297	0.88993	1.12369	201.1999	170.97109	77.15516	0.30387	4718.82795	2.3298E17	5.87646E-4	1.19023E-17	2325.70056	11876.665	31.543	 
290.0	1.0	1.8893E-9	7.58745	7.223	-11.10784	12.54965	20.74509	0.88456	1.13051	201.63559	171.17217	77.33373	0.30367	5137.24755	3.55616E17	5.35033E-4	7.7291E-18	2326.96718	11719.711	31.3908	 
285.0	1.0	1.8893E-9	7.58898	7.22155	-11.12567	12.53134	20.68721	0.87916	1.13745	202.06747	171.36962	77.51089	0.30348	5601.28784	5.46936E17	4.86351E-4	4.98082E-18	2328.22136	11563.508	31.2406	 
280.0	1.0	1.8893E-9	7.59049	7.22011	-11.14344	12.51302	20.62936	0.87373	1.14452	202.49553	171.56346	77.68664	0.30328	6116.79973	8.47756E17	4.41373E-4	3.18463E-18	2329.46294	11408.046	31.0924	 
275.0	1.0	1.8893E-9	7.59201	7.21867	-11.16117	12.4947	20.57151	0.86826	1.15173	202.91977	171.75367	77.86098	0.30309	6690.49399	1.32458E18	3.99878E-4	2.0198E-18	2330.69178	11253.317	30.9458	 
270.0	1.0	1.8893E-9	7.59352	7.21723	-11.17885	12.47638	20.51367	0.86277	1.15906	203.34017	171.94026	78.03389	0.3029	7330.08356	2.08666E18	3.61658E-4	1.27044E-18	2331.90773	11099.31	30.8014	 
265.0	1.0	1.8893E-9	7.59503	7.2158	-11.19648	12.45806	20.45585	0.85724	1.16653	203.75672	172.12324	78.20538	0.3027	8044.45197	3.31509E18	3.26508E-4	7.9231E-19	2333.11064	10946.018	30.6584	 
260.0	1.0	1.8893E-9	7.59653	7.21437	-11.21407	12.43974	20.39803	0.85168	1.17414	204.16942	172.3026	78.37544	0.30251	8843.85326	5.31262E18	2.94235E-4	4.8981E-19	2334.30036	10793.432	30.5172	 
255.0	1.0	1.8893E-9	7.59803	7.21294	-11.23161	12.42141	20.34022	0.8461	1.1819	204.57826	172.47836	78.54407	0.30232	9740.14974	8.59013E18	2.64654E-4	3.00085E-19	2335.47675	10641.543	30.3778	 
250.0	1.0	1.8893E-9	7.59953	7.21152	-11.24909	12.40308	20.28242	0.84047	1.18981	204.98323	172.65052	78.71127	0.30212	10747.09574	1.40178E19	2.37587E-4	1.82151E-19	2336.63967	10490.344	30.2398	 
245.0	1.0	1.8893E-9	7.60102	7.2101	-11.26653	12.38475	20.22463	0.83482	1.19786	205.38433	172.81908	78.87703	0.30193	11880.67674	2.30922E19	2.12863E-4	1.09516E-19	2337.78898	10339.828	30.1032	 
240.0	1.0	1.8893E-9	7.60251	7.20869	-11.28392	12.36642	20.16684	0.82913	1.20608	205.78155	172.98406	79.04135	0.30173	13159.51617	3.84127E19	1.90323E-4	6.52013E-20	2338.92454	10189.986	29.9684	 
235.0	1.0	1.8893E-9	7.604	7.20728	-11.30127	12.34808	20.10906	0.82341	1.21446	206.17491	173.14546	79.20423	0.30154	14605.36442	6.45407E19	1.69811E-4	3.84277E-20	2340.04621	10040.812	29.8348	 
230.0	1.0	1.8893E-9	7.60548	7.20588	-11.31856	12.32975	20.05129	0.81766	1.223	206.56438	173.30329	79.36567	0.30135	16243.68856	1.0956499999999998E20	1.51182E-4	2.24136E-20	2341.15387	9892.298	29.7028	 
225.0	1.0	1.8893E-9	7.60696	7.20448	-11.33581	12.31141	19.99352	0.81187	1.23172	206.94998	173.45757	79.52567	0.30115	18104.38536	1.87985E20	1.34296E-4	1.29337E-20	2342.24738	9744.438	29.572	 
220.0	1.0	1.8893E-9	7.60844	7.20308	-11.35301	12.29307	19.93575	0.80605	1.24061	207.33172	173.60831	79.68423	0.30096	20222.64618	3.26084E20	1.19022E-4	7.38136E-21	2343.32662	9597.225	29.4426	 
215.0	1.0	1.8893E-9	7.60991	7.20168	-11.37015	12.27473	19.87799	0.8002	1.24969	207.70958	173.75553	79.84135	0.30076	22640.00905	5.7205199999999993E20	1.05236E-4	4.1649E-21	2344.39146	9450.653	29.3144	 
210.0	1.0	1.8893E-9	7.61138	7.20029	-11.38726	12.25638	19.82024	0.79431	1.25895	208.08359	173.89923	79.99703	0.30057	25405.64269	1.0153E21	9.28193E-5	2.3226E-21	2345.4418	9304.715	29.1876	 
205.0	1.0	1.8893E-9	7.61284	7.19891	-11.40431	12.23804	19.76249	0.78839	1.26841	208.45375	174.03944	80.15128	0.30038	28577.91849	1.8237400000000001E21	8.1662E-5	1.27964E-21	2346.47752	9159.407	29.0616	 
200.0	1.0	1.8893E-9	7.61431	7.19753	-11.42131	12.21969	19.70474	0.78243	1.27807	208.82007	174.17617	80.3041	0.30018	32226.3415	3.31673E21	7.16596E-5	6.96267E-22	2347.49851	9014.722	28.937	 
195.0	1.0	1.8893E-9	7.61576	7.19615	-11.43827	12.20134	19.64699	0.77644	1.28793	209.18256	174.30945	80.4555	0.29999	36433.9305	6.10947E21	6.27142E-5	3.73997E-22	2348.50467	8870.654	28.8136	 
190.0	1.0	1.8893E-9	7.61722	7.19478	-11.45518	12.18299	19.58925	0.77041	1.29801	209.54124	174.4393	80.60547	0.2998	41300.16186	1.14032E22	5.47339E-5	1.98236E-22	2349.49591	8727.2	28.6908	 
185.0	1.0	1.8893E-9	7.61867	7.19341	-11.47204	12.16464	19.5315	0.76435	1.30831	209.89613	174.56574	80.75403	0.2996	46944.6239	2.15756E22	4.76331E-5	1.03641E-22	2350.47214	8584.353	28.5694	 
180.0	1.0	1.8893E-9	7.62012	7.19204	-11.48885	12.14628	19.47376	0.75825	1.31883	210.24724	174.68881	80.90118	0.29941	53511.57009	4.1401099999999995E22	4.13315E-5	5.34216E-23	2351.43328	8442.11	28.4486	 
175.0	1.0	1.8893E-9	7.62156	7.19068	-11.50561	12.12792	19.41603	0.75211	1.32959	210.59461	174.80852	81.04693	0.29921	61175.61389	8.06077E22	3.57546E-5	2.71352E-23	2352.37925	8300.466	28.3288	 
170.0	1.0	1.8893E-9	7.623	7.18932	-11.52233	12.10956	19.35829	0.74594	1.3406	210.93824	174.92491	81.19129	0.29902	70148.8795	1.5932E23	3.08331E-5	1.35758E-23	2353.30999	8159.416	28.21	 
165.0	1.0	1.8893E-9	7.62443	7.18797	-11.53899	12.0912	19.30055	0.73973	1.35185	211.27818	175.03801	81.33427	0.29883	80690.01728	3.1983E23	2.65027E-5	6.68637E-24	2354.22543	8018.957	28.0918	 
160.0	1.0	1.8893E-9	7.62587	7.18662	-11.55561	12.07284	19.24282	0.73348	1.36337	211.61445	175.14786	81.47588	0.29863	93115.61754	6.5246E23	2.2704E-5	3.24019E-24	2355.12554	7879.086	27.9742	 
155.0	1.0	1.8893E-9	7.6273	7.18527	-11.57218	12.05448	19.18509	0.72719	1.37515	211.94709	175.25449	81.61613	0.29844	107814.7233	1.35338E24	1.93823E-5	1.54405E-24	2356.01028	7739.798	27.8576	 
150.0	1.0	1.8893E-9	7.62872	7.18393	-11.5887	12.03611	19.12736	0.72087	1.38721	212.27613	175.35796	81.75504	0.29824	125267.3653	2.85612E24	1.64871E-5	7.23111E-25	2356.8796	7601.091	27.7414	 
145.0	1.0	1.8893E-9	7.63014	7.18259	-11.60517	12.01774	19.06963	0.71451	1.39956	212.60163	175.45829	81.89262	0.29805	146068.3432	6.13604E24	1.39721E-5	3.32606E-25	2357.7335	7462.962	27.6258	 
140.0	1.0	1.8893E-9	7.63156	7.18125	-11.62159	11.99937	19.0119	0.70811	1.41221	212.92361	175.55553	82.0289	0.29786	170957.8819	1.34288E25	1.17952E-5	1.50161E-25	2358.57197	7325.409	27.5106	 
135.0	1.0	1.8893E-9	7.63297	7.17992	-11.63797	11.981	18.95417	0.70167	1.42517	213.24214	175.64975	82.16388	0.29766	200861.3454	2.99587E25	9.91768E-6	6.64941E-26	2359.395	7188.429	27.396	 
130.0	1.0	1.8893E-9	7.63439	7.1786	-11.6543	11.96262	18.89644	0.69519	1.43845	213.55727	175.74098	82.29759	0.29747	236940.9427	6.817920000000001E25	8.3045E-6	2.88603E-26	2360.20263	7052.02	27.2818	 
125.0	1.0	1.8893E-9	7.63579	7.17727	-11.67058	11.94424	18.83871	0.68867	1.45207	213.86905	175.82929	82.43006	0.29728	280663.4015	1.5839800000000003E26	6.92385E-6	1.22683E-26	2360.99487	6916.182	27.1676	 
120.0	1.0	1.8893E-9	7.6372	7.17595	-11.6868	11.92587	18.78098	0.68212	1.46603	214.17755	175.91473	82.5613	0.29708	333889.0172	3.7597600000000004E26	5.74702E-6	5.10369E-27	2361.77178	6780.913	27.0538	 
115.0	1.0	1.8893E-9	7.6386	7.17464	-11.70299	11.90748	18.72325	0.67552	1.48035	214.48284	175.99738	82.69134	0.29689	398989.4869	9.125210000000001E26	4.74815E-6	2.07608E-27	2362.5334	6646.212	26.9402	 
110.0	1.0	1.8893E-9	7.63999	7.17333	-11.71912	11.8891	18.66553	0.66888	1.49504	214.785	176.0773	82.82021	0.29669	479004.7344	2.2665999999999998E27	3.90405E-6	8.2505E-28	2363.27981	6512.079	26.8266	 
105.0	1.0	1.8893E-9	7.64138	7.17202	-11.7352	11.87072	18.6078	0.6622	1.51013	215.08409	176.15457	82.94793	0.2965	577852.881	5.767089999999999E27	3.19399E-6	3.20033E-28	2364.01109	6378.513	26.7132	 
100.0	1.0	1.8893E-9	7.64277	7.17072	-11.75124	11.85233	18.55007	0.65547	1.52561	215.38023	176.22926	83.07456	0.29631	700613.1178	1.50455E28	2.59951E-6	1.21049E-28	2364.72735	6245.516	26.5994	 
95.0	1.0	1.8893E-9	7.64416	7.16942	-11.76723	11.83394	18.49235	0.64871	1.54152	215.67348	176.30146	83.20011	0.29611	853909.2459	4.02875E28	2.10426E-6	4.46007E-29	2365.42871	6113.088	26.4856	 
90.0	1.0	1.8893E-9	7.64554	7.16812	-11.78317	11.81555	18.43462	0.6419	1.55787	215.96397	176.37125	83.32463	0.29592	1046433.182	1.10844E29	1.6938E-6	1.59905E-29	2366.11529	5981.231	26.3714	 
85.0	1.0	1.8893E-9	7.64692	7.16683	-11.79906	11.79716	18.37689	0.63505	1.57467	216.25179	176.43874	83.44816	0.29573	1289664.456	3.13709E29	1.35542E-6	5.57218E-30	2366.78726	5849.946	26.257	 
80.0	1.0	1.8893E-9	7.64829	7.16555	-11.8149	11.77877	18.31917	0.62816	1.59195	216.53706	176.50403	83.57074	0.29553	1598866.191	9.143970000000001E29	1.07804E-6	1.885E-30	2367.44478	5719.235	26.1422	 
75.0	1.0	1.8893E-9	7.64966	7.16426	-11.83069	11.76037	18.26144	0.62123	1.60972	216.81992	176.56722	83.69243	0.29534	1994474.112	2.74845E30	8.51971E-7	6.18251E-31	2368.08803	5589.102	26.0266	 
70.0	1.0	1.8893E-9	7.65103	7.16298	-11.84644	11.74197	18.20372	0.61425	1.62801	217.10049	176.62844	83.81327	0.29514	2504048.712	8.53041E30	6.68849E-7	1.96336E-31	2368.71723	5459.551	25.9102	 
65.0	1.0	1.8893E-9	7.65239	7.16171	-11.86213	11.72357	18.14599	0.60722	1.64685	217.37892	176.6878	83.93332	0.29495	3165041.055	2.73778E31	5.21455E-7	6.02835E-32	2369.3326	5330.584	25.7934	 
60.0	1.0	1.8893E-9	7.65375	7.16044	-11.87778	11.70517	18.08827	0.60015	1.66625	217.65538	176.74545	84.05265	0.29476	4028744.257	9.0997E31	4.03605E-7	1.7869E-32	2369.93438	5202.208	25.6752	 
55.0	1.0	1.8893E-9	7.6551	7.15917	-11.89338	11.68677	18.03054	0.59304	1.68624	217.93002	176.80152	84.17131	0.29456	5165988.301	3.13727E32	3.10031E-7	5.10513E-33	2370.52284	5074.428	25.556	 
50.0	1.0	1.8893E-9	7.65645	7.15791	-11.90893	11.66836	17.97281	0.58588	1.70685	218.20304	176.85616	84.28937	0.29437	6675422.137	1.12386E33	2.36272E-7	1.40339E-33	2371.09826	4947.249	25.4358	 
45.0	1.0	1.8893E-9	7.6578	7.15665	-11.92443	11.64995	17.91509	0.57867	1.7281	218.47463	176.90954	84.40692	0.29417	8695672.934	4.19072E33	1.78573E-7	3.70535E-34	2371.66094	4820.679	25.314	 
40.0	1.0	1.8893E-9	7.65914	7.15539	-11.93989	11.63154	17.85736	0.57142	1.75004	218.745	176.96184	84.52404	0.29398	1.142337449E7	1.62974E34	1.33796E-7	9.37821E-35	2372.21121	4694.727	25.1904	 
35.0	1.0	1.8893E-9	7.66048	7.15414	-11.95529	11.61313	17.79964	0.56412	1.77268	219.01438	177.01324	84.64081	0.29379	1.514017437E7	6.62354E34	9.93386E-8	2.2707E-35	2372.74941	4569.4	25.0654	 
30.0	1.0	1.8893E-9	7.66182	7.15289	-11.97065	11.59472	17.74191	0.55677	1.79608	219.28302	177.06394	84.75732	0.29359	2.025362892E7	2.81935E35	7.30536E-8	5.24802E-36	2373.27591	4444.709	24.9382	 
25.0	1.0	1.8893E-9	7.66315	7.15165	-11.98595	 	17.68419	0.54937	1.82026	219.55117	177.11415	84.87368	0.2934	2.735982764E7	1.25982E36	5.31873E-8	1.15509E-36	2373.79108	4320.664	 	 
