T (C)	Fraction solid (wt)-TOTAL	Fraction liquid (wt)-LIQUID	Density (g/(cm)^3)-TOTAL	Molar volume (cm^3)-TOTAL	Volume change (%)-  	Average expansion coeff. (10e-6 1/K)-  	Thermal conductivity (W/(m*K))-TOTAL	Electrical resistivity (10e-6 Ohm*m)-TOTAL	Electrical conductivity (10e6 1/(Ohm*m))-TOTAL	Young's modulus (GPa)-TOTAL	Bulk modulus (GPa)-TOTAL	Shear modulus(GPa)-TOTAL	Poisson's ratio-TOTAL	Liquid viscosity (mPa s)-  	Total viscosity (mPa s)-  	Liquid diffusivity (10e-9 (m^2)/s)-  	Total diffusivity (10e-9 (m^2)/s)-  	Surface Tension (mN/m)-  	Enthalpy (J/mole)-TOTAL	Specific heat (J/(mole K))-TOTAL	Latent heat (J/mole)-TOTAL
1500.0	0.0	1.0	6.88629	7.87242	0.0	24.94929	32.19744	1.79449	0.55726	0.0	103.58991	0.0	0.49587	6.63	6.63	1.30533	1.30533	1661.32174	64735.985	 	0.0
1495.0	0.0	1.0	6.8901	7.86807	-0.0552712	24.89499	32.12835	1.79328	0.55764	0.0	103.78297	0.0	0.49587	6.68743	6.68743	1.29047	1.29047	1662.11699	64515.158	44.1654	0.0
1490.0	0.0	1.0	6.8939	7.86373	-0.11039	24.8407	32.05926	1.79206	0.55802	0.0	103.97603	0.0	0.49587	6.74569	6.74569	1.2757	1.2757	1662.8977	64294.855	44.0606	0.0
1485.0	0.0	1.0	6.8977	7.85941	-0.16535	24.78643	31.99017	1.79084	0.5584	0.0	104.16909	0.0	0.49587	6.8048	6.8048	1.26104	1.26104	1663.6637	64075.072	43.9566	0.0
1480.0	0.0	1.0	6.90149	7.85509	-0.22016	24.73218	31.92107	1.78961	0.55878	0.0	104.36214	0.0	0.49587	6.86476	6.86476	1.24647	1.24647	1664.41481	63855.807	43.853	0.0
1475.0	0.0	1.0	6.90527	7.85079	-0.27481	24.67795	31.85196	1.78838	0.55916	0.0	104.5552	0.0	0.49587	6.9256	6.9256	1.23199	1.23199	1665.15085	63637.056	43.7502	0.0
1470.0	0.0	1.0	6.90905	7.8465	-0.32931	24.62374	31.78286	1.78714	0.55955	0.0	104.74826	0.0	0.49587	6.98733	6.98733	1.21762	1.21762	1665.87163	63418.815	43.6482	0.0
1465.0	0.0	1.0	6.91282	7.84222	-0.38366	24.56955	31.71374	1.7859	0.55994	0.0	104.94132	0.0	0.49587	7.04997	7.04997	1.20334	1.20334	1666.57697	63201.083	43.5464	0.0
1460.0	0.0	1.0	6.91658	7.83795	-0.43785	24.51538	31.64462	1.78465	0.56033	0.0	105.13438	0.0	0.49587	7.11354	7.11354	1.18915	1.18915	1667.26667	62983.856	43.4454	0.0
1455.0	0.0	1.0	6.92033	7.8337	-0.49189	24.46123	31.5755	1.7834	0.56073	0.0	105.32743	0.0	0.49587	7.17806	7.17806	1.17506	1.17506	1667.94055	62767.13	43.3452	0.0
1450.0	0.0	1.0	6.92408	7.82946	-0.54577	24.4071	31.50637	1.78214	0.56112	0.0	105.52049	0.0	0.49587	7.24354	7.24354	1.16107	1.16107	1668.59841	62550.915	43.243	0.0
1447.27	0.0	1.0	6.92613	7.82715	-0.57511	24.37757	31.46865	1.78145	0.56134	0.0	105.62583	0.0	0.49587	7.27968	7.27968	1.15348	1.15348	1668.95053	62433.162	43.163	0.0060
1445.0	0.0680102	0.93199	6.93766	7.81424	-0.73908	23.98916	31.67224	1.76767	0.56572	0.00122432	103.30863	4.11957E-4	0.48598	7.2894	8.03518	1.15042	1.04364	1665.66967	61743.467	303.576	591.76
1440.0	0.19745	0.80255	6.96025	7.78885	-1.06163	23.23022	32.05817	1.7413	0.57428	0.0886005	98.94024	0.0301973	0.46703	7.31066	14.54993	1.14373	0.57467	1658.65079	60403.126	268.068	1716.938
1435.0	0.30257	0.69743	6.97927	7.76776	-1.32948	22.60947	32.3685	1.71958	0.58154	0.49669	95.46448	0.17109	0.45153	7.33265	40.31023	1.13698	0.20682	1651.88642	59276.619	225.301	2628.804
1430.0	0.38917	0.61083	6.99558	7.74982	-1.5574	22.08951	32.61949	1.70135	0.58777	1.37995	92.67288	0.47959	0.43867	7.35495	96.59104	1.13021	0.0860603	1645.36284	58313.379	192.648	3377.918
1425.0	0.46145	0.53855	7.00975	7.73441	-1.75319	21.65075	32.82338	1.68582	0.59318	2.76574	90.41495	0.96848	0.42788	7.37788	188.19238	1.12339	0.0440414	1639.06256	57476.671	167.342	4001.015
1420.0	0.5224	0.4776	7.02221	7.72102	-1.92318	21.27731	32.9891	1.67241	0.59794	4.60197	88.58242	1.62187	0.41872	7.40146	315.39362	1.11652	0.0262017	1632.96905	56740.173	147.3	4524.411
1415.0	0.57428	0.42572	7.03332	7.70916	-2.07382	20.95273	33.12307	1.66073	0.60215	6.80364	87.09093	2.41113	0.41088	7.42532	476.18566	1.10964	0.017303	1627.07184	56083.91	131.253	4968.081
1410.0	0.61883	0.38117	7.04331	7.6986	-2.20796	20.66989	33.23073	1.65044	0.6059	9.27932	85.87787	3.30433	0.40411	7.44979	667.70473	1.10272	0.0123034	1621.35645	55492.676	118.247	5347.225
1405.0	0.65734	0.34266	7.05239	7.68911	-2.32861	20.42118	33.31648	1.64131	0.60927	11.94495	84.8944	4.27146	0.39823	7.47456	887.01024	1.0958	0.00923398	1615.81063	54954.76	107.583	5673.552
1400.0	0.69087	0.30913	7.0607	7.68047	-2.43834	20.20006	33.38359	1.63313	0.61232	14.73035	84.10061	5.28701	0.39307	7.49985	1131.55778	1.08885	0.0072168	1610.42486	54461.003	98.7514	5956.216
1395.0	0.72028	0.27972	7.06837	7.67262	-2.53797	20.00463	33.43539	1.62572	0.61511	17.58227	83.46598	6.33128	0.38852	7.52575	1399.60305	1.08186	0.00581724	1605.18458	54003.653	91.47	6202.97
1390.0	0.74617	0.25383	7.07549	7.66538	-2.63003	19.82828	33.47361	1.619	0.61767	20.45077	82.96628	7.38564	0.38449	7.55219	1689.10186	1.07484	0.00480576	1600.08557	53577.54	85.2226	6418.976
1385.0	0.76904	0.23096	7.08214	7.65866	-2.71529	19.66911	33.50032	1.61284	0.62002	23.3007	82.58236	8.43672	0.38091	7.57891	1998.83975	1.06783	0.00404886	1595.11817	53177.965	79.915	6608.933
1380.0	0.78936	0.21064	7.08837	7.65241	-2.79468	19.52484	33.51713	1.60717	0.62221	26.10554	82.29767	9.47429	0.3777	7.60615	2327.97876	1.0608	0.00346593	1590.27413	52801.093	75.3744	6776.673
1375.0	0.80745	0.19255	7.09425	7.64657	-2.86889	19.3937	33.52538	1.60192	0.62425	28.84695	82.09868	10.49111	0.37483	7.63393	2676.14684	1.05374	0.00300589	1585.54605	52443.77	71.4646	6925.345
1371.24	0.82168	0.17832	7.09904	7.64199	-2.92714	19.28767	33.53149	1.59798	0.62579	31.15728	81.93981	11.34993	0.37258	7.65509	2978.01206	1.04844	0.00269504	1582.06315	52172.435	 	7040.191
1370.0	0.82807	0.17193	7.10086	7.64018	-2.95012	19.24225	33.53314	1.59669	0.6263	32.25078	81.93007	11.75634	0.37163	7.66563	3120.83759	1.0462	0.00256976	1580.23512	52054.728	77.8084	7106.217
1365.0	0.85138	0.14862	7.10775	7.63322	-3.03853	19.06985	33.5329	1.59184	0.6282	36.53243	81.94766	13.35085	0.36817	7.70898	3710.95767	1.03715	0.00215454	1573.02349	51606.353	89.675	7346.899
1360.0	0.87104	0.12896	7.11406	7.62689	-3.11891	18.91839	33.52294	1.58746	0.62994	40.54312	82.0412	14.84871	0.36521	7.75452	4318.49437	1.02792	0.00184578	1566.02738	51196.245	82.0216	7549.79
1355.0	0.88774	0.11226	7.11989	7.62104	-3.19316	18.7829	33.5049	1.58345	0.63153	44.26898	82.19633	16.24363	0.36266	7.80193	4941.78305	1.01854	0.00160804	1559.24229	50817.458	75.7574	7721.83
1350.0	0.90196	0.0980404	7.12531	7.6156	-3.2623	18.66062	33.48017	1.57975	0.63301	47.71313	82.40183	17.53582	0.36045	7.85144	5580.80468	1.00901	0.00141954	1552.65987	50464.484	70.5948	7868.527
1348.15	0.90672	0.0932843	7.12724	7.61367	-3.28686	18.61797	33.46964	1.57845	0.63353	48.92229	82.48725	17.99007	0.3597	7.87005	5821.69959	1.00548	0.00135926	1550.27755	50339.501	 	7917.467
1345.0	0.91685	0.0831544	7.13152	7.60946	-3.34036	18.51243	33.45565	1.57604	0.6345	51.54484	82.59044	18.97644	0.35813	7.90823	6313.12009	0.99868	0.00125101	1545.90448	50102.774	72.342	8024.426
1340.0	0.93071	0.0692922	7.13774	7.60332	-3.4183	18.36344	33.42756	1.57249	0.63593	55.37257	82.80208	20.41853	0.35594	7.97141	7099.68461	0.9877	0.00110898	1539.13419	49750.863	70.3822	8170.99
1335.0	0.94233	0.0576693	7.14342	7.5977	-3.48971	18.23177	33.39334	1.56922	0.63726	58.82588	83.06016	21.72195	0.35407	8.03687	7897.97566	0.97662	9.93797E-4	1532.57822	49422.92	65.5886	8294.048
1330.0	0.95211	0.0478859	7.14864	7.59252	-3.55551	18.115	33.35419	1.56618	0.6385	61.93666	83.35657	22.89791	0.35245	8.10503	8710.68422	0.9654	8.98274E-4	1526.226	49114.542	61.6756	8397.999
1325.0	0.96036	0.0396432	7.15347	7.5877	-3.61674	18.01033	33.31096	1.56332	0.63966	64.73497	83.68453	23.95715	0.35106	8.17581	9540.46587	0.95406	8.17588E-4	1520.07452	48822.427	58.423	8486.143
1320.0	0.96731	0.0326934	7.15796	7.58319	-3.67407	17.91602	33.26439	1.56061	0.64077	67.24951	84.03845	24.91008	0.34985	8.24918	10390.30827	0.94261	7.48368E-4	1514.11726	48543.922	55.701	8561.13
1315.0	0.97279	0.0272091	7.16201	7.57905	-3.72665	17.8346	33.21443	1.55805	0.64183	69.39445	84.42256	25.72363	0.34885	8.32469	11246.30545	0.93113	6.89237E-4	1508.35228	48280.035	52.7774	8621.952
1310.0	0.97767	0.0223267	7.16593	7.57503	-3.77762	17.75718	33.16279	1.55557	0.64285	71.40664	84.81757	26.4875	0.34793	8.40309	12142.96355	0.91954	6.36332E-4	1502.771	48023.272	51.3526	8676.097
1305.0	0.98203	0.0179735	7.16974	7.57113	-3.82726	17.683	33.10971	1.55314	0.64386	73.29744	85.22194	27.20588	0.34709	8.48352	13083.78452	0.90794	5.8871E-4	1497.37373	47772.847	50.085	8724.35
1300.0	0.98591	0.014088	7.17345	7.56732	-3.87566	17.61183	33.05537	1.55076	0.64484	75.07587	85.63465	27.88207	0.34631	8.56606	14072.42947	0.89635	5.45617E-4	1492.15389	47528.13	48.9434	8767.338
1295.0	0.98938	0.0106241	7.17708	7.56359	-3.92296	17.54332	32.99995	1.54843	0.64581	76.75027	86.05484	28.51915	0.34559	8.65091	15112.71558	0.88473	5.06444E-4	1487.10852	47288.609	47.9042	8805.572
1290.0	0.99246	0.00753869	7.18061	7.55996	-3.96912	17.47761	32.94361	1.54613	0.64677	78.32599	86.48155	29.11906	0.34493	8.73847	16208.33027	0.87308	4.70705E-4	1482.22762	47053.867	46.9484	8839.467
1287.31	0.99369	0.0063142	7.18233	7.55818	-3.99171	17.44857	32.91291	1.54492	0.64728	79.03165	86.7158	29.38777	0.34463	8.78604	16800.50219	0.86686	4.53334E-4	1479.67517	46932.329	 	8853.258
1285.0	0.99416	0.00583682	7.18353	7.55691	-4.00784	17.4332	32.88649	1.54387	0.64772	79.44057	86.92267	29.54342	0.34447	8.8337	17285.75999	0.8609	4.39954E-4	1477.3826	46836.904	43.3926	8856.019
1280.0	0.99511	0.00488508	7.18611	7.55419	-4.04243	17.40066	32.82916	1.5416	0.64868	80.30134	87.372	29.87112	0.34413	8.93729	18382.26456	0.84819	4.12383E-4	1472.62777	46631.71	41.0388	8861.236
1275.0	0.99596	0.00403705	7.18866	7.5515	-4.07661	17.36905	32.77155	1.53934	0.64963	81.13242	87.82436	30.1876	0.3438	9.04192	19547.59583	0.83568	3.86551E-4	1468.11779	46427.896	40.7628	8865.505
1270.0	0.99672	0.00327718	7.19118	7.54883	-4.11046	17.33816	32.71372	1.53708	0.65058	81.93893	88.27932	30.49479	0.34349	9.14767	20787.49432	0.82335	3.6232E-4	1463.83658	46225.279	40.5234	8869.006
1265.0	0.99741	0.00259304	7.19369	7.54619	-4.14403	17.30786	32.65567	1.53482	0.65154	82.72437	88.73665	30.79403	0.34319	9.25429	22108.00844	0.81123	3.39575E-4	1459.76596	46023.714	40.313	8871.884
1260.0	0.99802	0.0019753	7.19619	7.54357	-4.17735	17.27808	32.5975	1.53256	0.6525	83.49189	89.19633	31.0865	0.3429	9.36219	23515.55734	0.79927	3.18212E-4	1455.88808	45823.079	40.127	8874.255
1255.0	0.99859	0.00141254	7.19867	7.54096	-4.21044	17.24874	32.53917	1.5303	0.65347	84.24361	89.6579	31.37302	0.34261	9.47104	25016.89025	0.78751	2.98139E-4	1452.19402	45623.274	39.961	8876.22
1250.0	0.9991	9.00635E-4	7.20114	7.53837	-4.24333	17.21978	32.48079	1.52804	0.65443	84.98255	90.1214	31.65473	0.34234	9.58132	26619.61481	0.7759	2.79272E-4	1448.66643	45424.225	39.8098	8877.85
1245.0	0.99957	4.30962E-4	7.2036	7.5358	-4.27603	17.19113	32.42233	1.52577	0.65541	85.71002	90.58655	31.93213	0.34207	9.69315	28331.629	0.76443	2.61535E-4	1445.29431	45225.855	39.674	8879.219
1240.0	1.0	0.0	7.20605	7.53324	-4.30856	17.16277	32.36388	1.52349	0.65639	86.42733	91.05333	32.20572	0.3418	 	30161.34336	 	2.4486E-4	 	45028.109	39.5492	8880.39
1235.0	1.0	0.0	7.20825	7.53093	-4.33784	17.14414	32.30521	1.52121	0.65737	86.98023	91.52477	32.41639	0.34161	 	32061.8321	 	2.29585E-4	 	44774.925	50.6368	 
1230.0	1.0	0.0	7.21045	7.52863	-4.36706	17.12551	32.24653	1.51893	0.65836	87.53508	91.99713	32.62784	0.34142	 	34096.37138	 	2.1517E-4	 	44581.611	38.6628	 
1225.0	1.0	0.0	7.21266	7.52633	-4.39624	17.10688	32.18785	1.51663	0.65935	88.09186	92.47036	32.84008	0.34123	 	36275.38835	 	2.01572E-4	 	44388.568	38.6086	 
1220.0	1.0	0.0	7.21485	7.52404	-4.42536	17.08824	32.12917	1.51433	0.66036	88.65054	92.94444	33.05308	0.34103	 	38610.19493	 	1.88751E-4	 	44195.799	38.5538	 
1215.0	1.0	0.0	7.21705	7.52175	-4.45444	17.06961	32.07048	1.51202	0.66136	89.21108	93.41933	33.26683	0.34084	 	41113.06893	 	1.76666E-4	 	44003.306	38.4986	 
1210.0	1.0	0.0	7.21924	7.51947	-4.48346	17.05098	32.01179	1.50971	0.66238	89.77345	93.89499	33.48133	0.34065	 	43797.34333	 	1.65281E-4	 	43811.087	38.4438	 
1205.0	1.0	0.0	7.22143	7.51719	-4.51243	17.03236	31.9531	1.50738	0.6634	90.33761	94.37138	33.69657	0.34046	 	46677.50433	 	1.5456E-4	 	43619.142	38.389	 
1200.0	1.0	0.0	7.22362	7.51491	-4.54135	17.01373	31.8944	1.50505	0.66443	90.90355	94.84847	33.91252	0.34027	 	49769.29913	 	1.44468E-4	 	43427.468	38.3348	 
1195.0	1.0	0.0	7.22581	7.51264	-4.57023	16.9951	31.8357	1.50271	0.66547	91.47122	95.32622	34.12918	0.34007	 	53089.8547	 	1.34973E-4	 	43236.065	38.2806	 
1190.0	1.0	0.0	7.22799	7.51037	-4.59905	16.97647	31.77699	1.50035	0.66651	92.04059	95.80461	34.34654	0.33988	 	56657.80841	 	1.26042E-4	 	43044.93	38.227	 
1185.0	1.0	0.0	7.23017	7.5081	-4.62782	16.95785	31.71828	1.49799	0.66756	92.61164	96.28358	34.56459	0.33969	 	60493.45199	 	1.17647E-4	 	42854.062	38.1736	 
1180.0	1.0	0.0	7.23235	7.50584	-4.65654	16.93922	31.65957	1.49563	0.66862	93.18433	96.76312	34.78331	0.3395	 	64618.89027	 	1.09758E-4	 	42663.459	38.1206	 
1175.0	1.0	0.0	7.23452	7.50358	-4.6852	16.9206	31.60085	1.49325	0.66968	93.75862	97.24318	35.0027	0.33931	 	69058.21618	 	1.02349E-4	 	42473.12	38.0678	 
1170.0	1.0	0.0	7.23669	7.50133	-4.71382	16.90198	31.54212	1.49086	0.67075	94.3345	97.72373	35.22274	0.33911	 	73837.70401	 	9.53938E-5	 	42283.043	38.0154	 
1165.0	1.0	0.0	7.23887	7.49908	-4.74239	16.88336	31.4834	1.48847	0.67183	94.91193	98.20474	35.44342	0.33892	 	78986.02269	 	8.8867E-5	 	42093.225	37.9636	 
1160.0	1.0	0.0	7.24103	7.49684	-4.77091	16.86474	31.42467	1.48607	0.67292	95.49087	98.68617	35.66473	0.33873	 	84534.47155	 	8.27455E-5	 	41903.666	37.9118	 
1155.0	1.0	0.0	7.2432	7.4946	-4.79937	16.84612	31.36593	1.48366	0.67401	96.0713	99.16798	35.88666	0.33854	 	90517.241	 	7.70068E-5	 	41714.363	37.8606	 
1150.0	1.0	0.0	7.24536	7.49236	-4.82779	16.8275	31.3072	1.48124	0.67511	96.65318	99.65016	36.10919	0.33835	 	96971.70082	 	7.16296E-5	 	41525.315	37.8096	 
1145.0	1.0	0.0	7.24752	7.49013	-4.85616	16.80888	31.24846	1.47881	0.67622	97.23648	100.13265	36.33233	0.33815	 	103938.7195	 	6.65934E-5	 	41336.519	37.7592	 
1140.0	1.0	0.0	7.24968	7.4879	-4.88447	16.79026	31.18971	1.47637	0.67734	97.82118	100.61544	36.55604	0.33796	 	111463.0176	 	6.18791E-5	 	41147.975	37.7088	 
1135.0	1.0	0.0	7.25183	7.48567	-4.91274	16.77164	31.13096	1.47392	0.67846	98.40724	101.09848	36.78033	0.33777	 	119593.5602	 	5.74682E-5	 	40959.679	37.6592	 
1130.0	1.0	0.0	7.25399	7.48345	-4.94095	16.75303	31.07221	1.47146	0.6796	98.99463	101.58174	37.00518	0.33758	 	128383.9909	 	5.33433E-5	 	40771.629	37.61	 
1125.0	1.0	0.0	7.25614	7.48123	-4.96911	16.73441	31.01345	1.469	0.68074	99.58332	102.0652	37.23058	0.33739	 	137893.1149	 	4.94878E-5	 	40583.825	37.5608	 
1120.0	1.0	0.0	7.25828	7.47902	-4.99722	16.7158	30.95469	1.46652	0.68188	100.17328	102.54882	37.45652	0.33719	 	148185.4347	 	4.58859E-5	 	40396.263	37.5124	 
1115.0	1.0	0.0	7.26043	7.47681	-5.02529	16.69719	30.89592	1.46404	0.68304	100.76447	103.03256	37.68299	0.337	 	159331.7453	 	4.25227E-5	 	40208.942	37.4642	 
1110.0	1.0	0.0	7.26257	7.47461	-5.0533	16.67858	30.83715	1.46155	0.68421	101.35688	103.5164	37.90997	0.33681	 	171409.7968	 	3.9384E-5	 	40021.86	37.4164	 
1105.0	1.0	0.0	7.26471	7.47241	-5.08126	16.65996	30.77838	1.45904	0.68538	101.95046	104.0003	38.13746	0.33662	 	184505.0309	 	3.64565E-5	 	39835.014	37.3692	 
1100.0	1.0	0.0	7.26685	7.47021	-5.10917	16.64135	30.7196	1.45653	0.68656	102.54519	104.48423	38.36544	0.33643	 	198711.402	 	3.37273E-5	 	39648.401	37.3226	 
1095.0	1.0	0.0	7.26898	7.46802	-5.13703	16.62274	30.66082	1.45401	0.68775	103.14103	104.96817	38.59391	0.33623	 	214132.2914	 	3.11845E-5	 	39462.021	37.276	 
1090.0	1.0	0.0	7.27111	7.46583	-5.16484	16.60414	30.60203	1.45148	0.68895	103.73795	105.45207	38.82285	0.33604	 	230881.5269	 	2.88165E-5	 	39275.871	37.23	 
1085.0	1.0	0.0	7.27324	7.46364	-5.1926	16.58553	30.54324	1.44894	0.69016	104.33594	105.93592	39.05225	0.33585	 	249084.5209	 	2.66126E-5	 	39089.947	37.1848	 
1080.0	1.0	0.0	7.27537	7.46146	-5.22031	16.56692	30.48445	1.44639	0.69138	104.93494	106.41967	39.2821	0.33566	 	268879.5412	 	2.45626E-5	 	38904.248	37.1398	 
1075.0	1.0	0.0	7.27749	7.45928	-5.24796	16.54832	30.42565	1.44383	0.6926	105.53494	106.9033	39.51238	0.33547	 	290419.1312	 	2.26569E-5	 	38718.771	37.0954	 
1070.0	1.0	0.0	7.27961	7.45711	-5.27557	16.52971	30.36685	1.44126	0.69384	106.1359	107.38677	39.7431	0.33527	 	313871.6977	 	2.08862E-5	 	38533.513	37.0516	 
1065.0	1.0	0.0	7.28173	7.45494	-5.30313	16.51111	30.30804	1.43868	0.69508	106.7378	107.87007	39.97422	0.33508	 	339423.2884	 	1.9242E-5	 	38348.471	37.0084	 
1060.0	1.0	0.0	7.28384	7.45277	-5.33063	16.4925	30.24923	1.43609	0.69633	107.34059	108.35315	40.20576	0.33489	 	367279.5829	 	1.77161E-5	 	38163.643	36.9656	 
1055.0	1.0	0.0	7.28596	7.45061	-5.35809	16.4739	30.19042	1.43349	0.6976	107.94426	108.83599	40.43768	0.3347	 	397668.1234	 	1.6301E-5	 	37979.027	36.9232	 
1050.0	1.0	0.0	7.28807	7.44845	-5.3855	16.4553	30.1316	1.43088	0.69887	108.54877	109.31856	40.66999	0.33451	 	430840.8178	 	1.49892E-5	 	37794.618	36.8818	 
1045.0	1.0	0.0	7.29018	7.4463	-5.41285	16.4367	30.07278	1.42827	0.70015	109.15409	109.80082	40.90267	0.33432	 	467076.7491	 	1.37741E-5	 	37610.416	36.8404	 
1040.0	1.0	0.0	7.29228	7.44415	-5.44015	16.4181	30.01395	1.42564	0.70144	109.7602	110.28276	41.13571	0.33412	 	506685.3319	 	1.26492E-5	 	37426.416	36.8	 
1035.0	1.0	0.0	7.29438	7.44201	-5.46741	16.3995	29.95512	1.423	0.70274	110.36705	110.76433	41.3691	0.33393	 	550009.8604	 	1.16084E-5	 	37242.615	36.7602	 
1030.0	1.0	0.0	7.29648	7.43986	-5.49461	16.3809	29.89629	1.42035	0.70405	110.97463	111.24552	41.60282	0.33374	 	597431.5024	 	1.06462E-5	 	37059.012	36.7206	 
1025.0	1.0	0.0	7.29858	7.43773	-5.52176	16.3623	29.83745	1.41769	0.70537	111.5829	111.72629	41.83688	0.33355	 	649373.7954	 	9.75701E-6	 	36875.602	36.682	 
1020.0	1.0	0.0	7.30067	7.43559	-5.54887	16.34371	29.7786	1.41502	0.7067	112.19183	112.20661	42.07124	0.33336	 	706307.7144	 	8.93597E-6	 	36692.382	36.644	 
1015.0	1.0	0.0	7.30277	7.43346	-5.57592	16.32511	29.71976	1.41234	0.70805	112.80139	112.68646	42.30591	0.33316	 	768757.3891	 	8.17832E-6	 	36509.35	36.6064	 
1010.0	1.0	0.0	7.30485	7.43134	-5.60292	16.30652	29.6609	1.40965	0.7094	113.41155	113.16581	42.54088	0.33297	 	837306.5568	 	7.47962E-6	 	36326.502	36.5696	 
1005.0	1.0	0.0	7.30694	7.42922	-5.62987	16.28792	29.60205	1.40695	0.71076	114.02229	113.64462	42.77613	0.33278	 	912605.8545	 	6.83574E-6	 	36143.834	36.5336	 
1000.0	1.0	0.0	7.30902	7.4271	-5.65677	16.26933	29.54319	1.40424	0.71213	114.63356	114.12288	43.01164	0.33259	 	995381.0642	 	6.24276E-6	 	35961.343	36.4982	 
995.0	1.0	0.0	7.31111	7.42499	-5.68362	16.25074	29.48433	1.40151	0.71351	115.24535	114.60055	43.24742	0.3324	 	1086442.446	 	5.69706E-6	 	35779.025	36.4636	 
990.0	1.0	0.0	7.31318	7.42288	-5.71042	16.23215	29.42546	1.39878	0.71491	115.85762	115.07761	43.48345	0.3322	 	1186695.308	 	5.1952E-6	 	35596.878	36.4294	 
985.0	1.0	0.0	7.31526	7.42077	-5.73717	16.21356	29.36658	1.39604	0.71631	116.47034	115.55402	43.71971	0.33201	 	1297151.995	 	4.734E-6	 	35414.896	36.3964	 
980.0	1.0	0.0	7.31733	7.41867	-5.76387	16.19497	29.30771	1.39328	0.71773	117.08348	116.02977	43.9562	0.33182	 	1418945.492	 	4.31046E-6	 	35233.076	36.364	 
975.0	1.0	0.0	7.3194	7.41657	-5.79052	16.17638	29.24883	1.39052	0.71916	117.69702	116.50482	44.19291	0.33163	 	1553344.87	 	3.9218E-6	 	35051.415	36.3322	 
970.0	1.0	0.0	7.32147	7.41448	-5.81711	16.15779	29.18994	1.38774	0.7206	118.31092	116.97915	44.42982	0.33144	 	1701772.855	 	3.5654E-6	 	34869.908	36.3014	 
965.0	1.0	0.0	7.32353	7.41239	-5.84366	16.1392	29.13105	1.38495	0.72205	118.92515	117.45273	44.66693	0.33124	 	1865825.813	 	3.23884E-6	 	34688.55	36.2716	 
960.0	1.0	0.0	7.32559	7.4103	-5.87016	16.12062	29.07216	1.38215	0.72351	119.53969	117.92553	44.90421	0.33105	 	2047296.521	 	2.93983E-6	 	34507.339	36.2422	 
955.0	1.0	0.0	7.32765	7.40822	-5.89661	16.10203	29.01326	1.37934	0.72498	120.1545	118.39753	45.14167	0.33086	 	2248200.116	 	2.66626E-6	 	34326.268	36.2142	 
950.0	1.0	0.0	7.32971	7.40614	-5.923	16.08345	28.95436	1.37652	0.72647	120.76955	118.8687	45.37929	0.33067	 	2470803.721	 	2.41617E-6	 	34145.335	36.1866	 
945.0	1.0	0.0	7.33176	7.40407	-5.94935	16.06487	28.89546	1.37369	0.72797	121.38482	119.33901	45.61706	0.33048	 	2717660.278	 	2.18772E-6	 	33964.533	36.1604	 
940.0	1.0	0.0	7.33381	7.402	-5.97564	16.04628	28.83655	1.37085	0.72948	122.00028	119.80844	45.85497	0.33028	 	2991647.233	 	1.97921E-6	 	33783.858	36.135	 
935.0	1.0	0.0	7.33586	7.39993	-6.00189	16.0277	28.77763	1.36799	0.731	122.61589	120.27697	46.093	0.33009	 	3296010.819	 	1.78904E-6	 	33603.306	36.1104	 
930.0	1.0	0.0	7.3379	7.39787	-6.02808	16.00912	28.71871	1.36513	0.73253	123.23162	120.74456	46.33115	0.3299	 	3634416.785	 	1.61574E-6	 	33422.871	36.087	 
925.0	1.0	0.0	7.33995	7.39581	-6.05423	15.99054	28.65979	1.36225	0.73408	123.84746	121.21119	46.5694	0.32971	 	4011008.579	 	1.45796E-6	 	33242.548	36.0646	 
920.0	1.0	0.0	7.34199	7.39376	-6.08032	15.97196	28.60086	1.35936	0.73564	124.46336	121.67684	46.80775	0.32952	 	4430474.145	 	1.31441E-6	 	33062.331	36.0434	 
915.0	1.0	0.0	7.34402	7.39171	-6.10636	15.95339	28.54193	1.35646	0.73722	125.07929	122.14147	47.04618	0.32932	 	4898122.693	 	1.18394E-6	 	32882.216	36.023	 
910.0	1.0	0.0	7.34606	7.38966	-6.13235	15.93481	28.483	1.35354	0.7388	125.69524	122.60507	47.28469	0.32913	 	5419973.014	 	1.06544E-6	 	32702.195	36.0042	 
905.0	1.0	0.0	7.34809	7.38762	-6.1583	15.91623	28.42406	1.35062	0.7404	126.31116	123.06761	47.52325	0.32894	 	6002855.202	 	9.5792E-7	 	32522.264	35.9862	 
900.0	1.0	0.0	7.35011	7.38558	-6.18419	15.89766	28.36512	1.34768	0.74202	126.92703	123.52906	47.76186	0.32875	 	6654527.929	 	8.60445E-7	 	32342.416	35.9696	 
895.0	1.0	0.0	7.35214	7.38354	-6.21003	15.87908	28.30617	1.34473	0.74364	127.54283	123.9894	48.00052	0.32856	 	7383813.813	 	7.72155E-7	 	32162.645	35.9542	 
890.0	1.0	0.0	7.35416	7.38151	-6.23582	15.86051	28.24722	1.34177	0.74528	128.15851	124.44861	48.2392	0.32836	 	8200755.835	 	6.92259E-7	 	31982.944	35.9402	 
885.0	1.0	0.0	7.35618	7.37949	-6.26156	15.84194	28.18827	1.3388	0.74694	128.77406	124.90665	48.4779	0.32817	 	9116798.281	 	6.20025E-7	 	31803.306	35.9276	 
880.0	1.0	0.0	7.3582	7.37746	-6.28725	15.82336	28.12931	1.33581	0.74861	129.38944	125.36351	48.7166	0.32798	 	1.014499631E7	 	5.5478E-7	 	31623.725	35.9162	 
875.0	1.0	0.0	7.36021	7.37545	-6.31289	15.80479	28.07035	1.33281	0.75029	130.00462	125.81917	48.9553	0.32779	 	1.130025892E7	 	4.95903E-7	 	31444.193	35.9064	 
870.0	1.0	0.0	7.36222	7.37343	-6.33848	15.78622	28.01139	1.3298	0.75199	130.61957	126.27359	49.19398	0.3276	 	1.259963105E7	 	4.42825E-7	 	31264.703	35.898	 
865.0	1.0	0.0	7.36423	7.37142	-6.36402	15.76765	27.95242	1.32678	0.75371	131.23427	126.72675	49.43263	0.32741	 	1.406262132E7	 	3.95021E-7	 	31085.247	35.8912	 
860.0	1.0	0.0	7.36624	7.36941	-6.38951	15.74909	27.89345	1.32374	0.75544	131.84869	127.17863	49.67125	0.32721	 	1.571158359E7	 	3.52009E-7	 	30905.816	35.8862	 
855.0	1.0	0.0	7.36824	7.36741	-6.41495	15.73052	27.83448	1.32069	0.75718	132.46279	127.62921	49.90982	0.32702	 	1.757216124E7	 	3.13349E-7	 	30726.403	35.8826	 
850.0	1.0	0.0	7.37024	7.36541	-6.44034	15.71195	27.7755	1.31763	0.75894	133.07655	128.07846	50.14833	0.32683	 	1.967380567E7	 	2.78635E-7	 	30546.999	35.8808	 
845.0	1.0	0.0	7.37223	7.36342	-6.46567	15.69339	27.71653	1.31456	0.76071	133.68995	128.52636	50.38677	0.32664	 	2.205038165E7	 	2.47497E-7	 	30367.594	35.881	 
840.0	1.0	0.0	7.37423	7.36143	-6.49096	15.67482	27.65754	1.31147	0.7625	134.30294	128.97289	50.62512	0.32645	 	2.474087532E7	 	2.19596E-7	 	30188.18	35.8828	 
835.0	1.0	0.0	7.37622	7.35944	-6.5162	15.65626	27.59856	1.30837	0.76431	134.9155	129.41802	50.86339	0.32625	 	2.779022322E7	 	1.94623E-7	 	30008.747	35.8866	 
830.0	1.0	0.0	7.37821	7.35746	-6.54139	15.63769	27.53958	1.30525	0.76613	135.52761	129.86172	51.10155	0.32606	 	3.125028421E7	 	1.72293E-7	 	29829.283	35.8928	 
825.0	1.0	0.0	7.38019	7.35548	-6.56652	15.61913	27.48059	1.30213	0.76797	136.13923	130.30399	51.33959	0.32587	 	3.518098046E7	 	1.52349E-7	 	29649.78	35.9006	 
820.0	1.0	0.0	7.38217	7.3535	-6.59161	15.60057	27.4216	1.29899	0.76983	136.75033	130.74479	51.57752	0.32568	 	3.965163883E7	 	1.34557E-7	 	29470.225	35.911	 
815.0	1.0	0.0	7.38415	7.35153	-6.61664	15.58201	27.36261	1.29583	0.7717	137.36089	131.1841	51.8153	0.32549	 	4.474256973E7	 	1.18701E-7	 	29290.607	35.9236	 
810.0	1.0	0.0	7.38613	7.34957	-6.64163	15.56345	27.30362	1.29267	0.7736	137.97088	131.6219	52.05294	0.32529	 	5.05469283E7	 	1.04588E-7	 	29110.914	35.9386	 
805.0	1.0	0.0	7.3881	7.3476	-6.66656	15.54489	27.24463	1.28948	0.7755	138.58027	132.05816	52.29042	0.3251	 	5.717291126E7	 	9.20398E-8	 	28931.134	35.956	 
800.0	1.0	0.0	7.39007	7.34564	-6.69145	15.52633	27.18563	1.28629	0.77743	139.18903	132.49288	52.52773	0.32491	 	6.474635375E7	 	8.08969E-8	 	28751.253	35.9762	 
795.0	1.0	0.0	7.39204	7.34369	-6.71628	15.50778	27.12664	1.28308	0.77937	139.79714	132.92601	52.76486	0.32472	 	7.341380326E7	 	7.10136E-8	 	28571.257	35.9992	 
790.0	1.0	0.0	7.394	7.34174	-6.74107	15.48922	27.06765	1.27986	0.78134	140.40455	133.35755	53.0018	0.32453	 	8.334616371E7	 	6.22581E-8	 	28391.132	36.025	 
785.0	1.0	0.0	7.39597	7.33979	-6.7658	15.47066	27.00865	1.27662	0.78332	141.01126	133.78746	53.23854	0.32433	 	9.474302164E7	 	5.45113E-8	 	28210.863	36.0538	 
780.0	1.0	0.0	7.39792	7.33785	-6.79049	15.45211	26.94966	1.27337	0.78532	141.61722	134.21573	53.47507	0.32414	 	1.0783779E8	 	4.76657E-8	 	28030.433	36.086	 
775.0	1.0	0.0	7.39988	7.33591	-6.81512	15.43356	26.89066	1.27011	0.78734	142.2224	134.64234	53.71138	0.32395	 	1.229038329E8	 	4.16241E-8	 	27849.826	36.1214	 
770.0	1.0	0.0	7.40183	7.33397	-6.8397	15.415	26.83167	1.26683	0.78937	142.82679	135.06727	53.94745	0.32376	 	1.402617706E8	 	3.6299E-8	 	27669.024	36.1604	 
765.0	1.0	0.0	7.40378	7.33204	-6.86423	15.39645	26.77268	1.26353	0.79143	143.43036	135.49048	54.18328	0.32357	 	1.602882039E8	 	3.16115E-8	 	27488.009	36.203	 
760.0	1.0	0.0	7.40573	7.33011	-6.88872	15.3779	26.71369	1.26022	0.79351	144.03306	135.91197	54.41886	0.32337	 	1.834261521E8	 	2.74909E-8	 	27306.759	36.25	 
755.0	1.0	0.0	7.40767	7.32819	-6.91315	15.35935	26.65469	1.2569	0.79561	144.63488	136.33172	54.65416	0.32318	 	2.101975601E8	 	2.38735E-8	 	27125.256	36.3006	 
750.0	1.0	0.0	7.40961	7.32627	-6.93753	15.3408	26.5957	1.25356	0.79773	145.23579	136.74969	54.8892	0.32299	 	2.412183084E8	 	2.07022E-8	 	26943.476	36.356	 
745.0	1.0	0.0	7.41155	7.32436	-6.96186	15.32225	26.53671	1.25021	0.79987	145.83576	137.16587	55.12394	0.3228	 	2.772162583E8	 	1.79259E-8	 	26761.395	36.4162	 
740.0	1.0	0.0	7.41349	7.32245	-6.98614	15.30371	26.47773	1.24684	0.80203	146.43477	137.58025	55.35839	0.32261	 	3.190529804E8	 	1.54988E-8	 	26578.99	36.481	 
735.0	1.0	0.0	7.41542	7.32054	-7.01037	15.28516	26.41874	1.24346	0.80421	147.03277	137.99279	55.59253	0.32241	 	3.677499639E8	 	1.33801E-8	 	26396.234	36.5512	 
730.0	1.0	0.0	7.41735	7.31863	-7.03455	15.26661	26.35975	1.24006	0.80641	147.62975	138.40349	55.82635	0.32222	 	4.245202841E8	 	1.15333E-8	 	26213.097	36.6274	 
725.0	1.0	0.0	7.41927	7.31673	-7.05868	15.24807	26.30076	1.23665	0.80864	148.22568	138.81231	56.05983	0.32203	 	4.908069313E8	 	9.92594E-9	 	26029.551	36.7092	 
720.0	1.0	0.0	7.4212	7.31484	-7.08276	15.22953	26.24178	1.23322	0.81089	148.82054	139.21924	56.29298	0.32184	 	5.683292858E8	 	8.52907E-9	 	25845.563	36.7976	 
715.0	1.0	0.0	7.42312	7.31295	-7.10679	15.21098	26.18279	1.22977	0.81316	149.41428	139.62426	56.52578	0.32165	 	6.591395697E8	 	7.31699E-9	 	25661.098	36.893	 
710.0	1.0	0.0	7.42503	7.31106	-7.13077	15.19244	26.1238	1.22631	0.81545	150.00689	140.02735	56.75822	0.32146	 	7.656915427E8	 	6.2669E-9	 	25476.119	36.9958	 
705.0	1.0	0.0	7.42695	7.30918	-7.1547	15.1739	26.06482	1.22284	0.81777	150.59833	140.4285	56.99028	0.32126	 	8.909242522E8	 	5.3586E-9	 	25290.588	37.1062	 
700.0	1.0	0.0	7.42886	7.3073	-7.17858	15.15536	26.00583	1.21935	0.82011	151.18859	140.82767	57.22196	0.32107	 	1.038364328E9	 	4.57422E-9	 	25104.46	37.2256	 
695.0	1.0	0.0	7.43076	7.30542	-7.20241	15.13682	25.94684	1.21584	0.82248	151.77763	141.22485	57.45325	0.32088	 	1.212251166E9	 	3.89795E-9	 	24917.689	37.3542	 
690.0	1.0	0.0	7.43267	7.30355	-7.22619	15.11828	25.88785	1.21232	0.82487	152.36542	141.62003	57.68413	0.32069	 	1.417690417E9	 	3.31588E-9	 	24730.227	37.4924	 
685.0	1.0	0.0	7.43457	7.30168	-7.24992	15.09974	25.82886	1.20878	0.82728	152.95194	142.01318	57.9146	0.3205	 	1.660842554E9	 	2.81573E-9	 	24542.018	37.6418	 
680.0	1.0	0.0	7.43647	7.29982	-7.2736	15.08121	25.76986	1.20522	0.82972	153.53716	142.40428	58.14464	0.3203	 	1.949154988E9	 	2.38672E-9	 	24353.004	37.8028	 
675.0	1.0	0.0	7.43836	7.29796	-7.29722	15.06267	25.71086	1.20165	0.83219	154.12105	142.79332	58.37425	0.32011	 	2.291648375E9	 	2.01937E-9	 	24163.122	37.9764	 
670.0	1.0	0.0	7.44026	7.2961	-7.3208	15.04414	25.65185	1.19806	0.83468	154.70359	143.18028	58.60341	0.31992	 	2.699270495E9	 	1.70538E-9	 	23972.301	38.1642	 
665.0	1.0	0.0	7.44215	7.29425	-7.34433	15.0256	25.59284	1.19446	0.8372	155.28475	143.56514	58.83211	0.31973	 	3.185334541E9	 	1.43749E-9	 	23780.466	38.367	 
660.0	1.0	0.0	7.44403	7.2924	-7.36781	15.00707	25.53383	1.19084	0.83974	155.86449	143.94787	59.06034	0.31954	 	3.766063133E9	 	1.20935E-9	 	23587.534	38.5864	 
655.0	1.0	0.0	7.44591	7.29055	-7.39123	14.98854	25.4748	1.1872	0.84232	156.44281	144.32847	59.2881	0.31934	 	4.461264983E9	 	1.01542E-9	 	23393.413	38.8242	 
650.0	1.0	0.0	7.44779	7.28871	-7.41461	14.97	25.41577	1.18355	0.84492	157.01965	144.70691	59.51537	0.31915	 	5.295178418E9	 	8.509E-10	 	23198.003	39.082	 
645.0	1.0	0.0	7.44967	7.28688	-7.43794	14.95147	25.35673	1.17988	0.84754	157.59501	145.08318	59.74214	0.31896	 	6.297525216E9	 	7.11591E-10	 	23001.194	39.3618	 
640.0	1.0	0.0	7.45155	7.28505	-7.46121	14.93294	25.29768	1.17619	0.8502	158.16885	145.45726	59.9684	0.31877	 	7.504830184E9	 	5.93865E-10	 	22802.863	39.6662	 
635.0	1.0	0.0	7.45342	7.28322	-7.48444	14.91441	25.23862	1.17249	0.85288	158.74115	145.82912	60.19415	0.31858	 	8.962077248E9	 	4.94579E-10	 	22602.875	39.9976	 
630.0	1.0	0.0	7.45528	7.28139	-7.50761	14.89589	25.17955	1.16877	0.8556	159.31188	146.19876	60.41936	0.31838	 	1.07248E10	 	4.11015E-10	 	22401.08	40.359	 
625.0	1.0	0.0	7.45715	7.27957	-7.53074	14.87736	25.12046	1.16504	0.85834	159.88101	146.56616	60.64403	0.31819	 	1.2861699999999998E10	 	3.4083E-10	 	22197.311	40.7538	 
620.0	1.0	0.0	7.45901	7.27776	-7.55381	14.85883	25.06136	1.16128	0.86112	160.44851	146.93129	60.86815	0.318	 	1.5457899999999998E10	 	2.82007E-10	 	21991.381	41.186	 
615.0	1.0	0.0	7.46087	7.27594	-7.57684	14.84031	25.00225	1.15751	0.86392	161.01437	147.29415	61.09171	0.31781	 	1.86194E10	 	2.32814E-10	 	21783.083	41.6596	 
610.0	1.0	0.0	7.46272	7.27413	-7.59981	14.82178	24.94312	1.15372	0.86676	161.57855	147.65471	61.3147	0.31762	 	2.2478E10	 	1.91763E-10	 	21572.183	42.18	 
605.0	1.0	0.0	7.46457	7.27233	-7.62274	14.80326	24.88398	1.14992	0.86963	162.14102	148.01295	61.53711	0.31742	 	2.7198499999999996E10	 	1.57583E-10	 	21354.903	43.456	 
600.0	1.0	0.0	7.46642	7.27053	-7.64561	14.78474	24.82482	1.14609	0.87253	162.70177	148.36887	61.75893	0.31723	 	3.2987199999999996E10	 	1.2919E-10	 	21115.928	47.795	 
595.0	1.0	0.0	7.46827	7.26873	-7.66844	14.76621	24.76564	1.14225	0.87546	163.26076	148.72244	61.98014	0.31704	 	4.01031E10	 	1.05658E-10	 	20879.963	47.193	 
590.0	1.0	0.0	7.47011	7.26694	-7.69121	14.74769	24.70645	1.1384	0.87843	163.81796	149.07365	62.20074	0.31685	 	4.887199999999999E10	 	8.62012E-11	 	20646.887	46.6152	 
585.0	1.0	0.0	7.47195	7.26515	-7.71394	14.72917	24.64724	1.13452	0.88143	164.37336	149.42247	62.42072	0.31666	 	5.970499999999999E10	 	7.01519E-11	 	20416.584	46.0606	 
580.0	1.0	0.0	7.47379	7.26337	-7.73661	14.71065	24.58801	1.13063	0.88446	164.92693	149.76891	62.64007	0.31647	 	7.31222E10	 	5.69459E-11	 	20188.949	45.527	 
575.0	1.0	0.0	7.47562	7.26158	-7.75924	14.69213	24.52876	1.12672	0.88753	165.47864	150.11293	62.85877	0.31627	 	8.97835E10	 	4.61066E-11	 	19963.879	45.014	 
570.0	1.0	0.0	7.47745	7.25981	-7.78181	14.67362	24.46949	1.12279	0.89064	166.02846	150.45453	63.07683	0.31608	 	1.10528E11	 	3.72323E-11	 	19741.277	44.5204	 
565.0	1.0	0.0	7.47928	7.25803	-7.80433	14.6551	24.41021	1.11884	0.89378	166.57637	150.79368	63.29422	0.31589	 	1.36425E11	 	2.99856E-11	 	19521.053	44.0448	 
560.0	1.0	0.0	7.4811	7.25626	-7.82681	14.63658	24.3509	1.11487	0.89696	167.12234	151.13038	63.51093	0.3157	 	1.68845E11	 	2.40836E-11	 	19303.121	43.5864	 
555.0	1.0	0.0	7.48292	7.2545	-7.84923	14.61807	24.29158	1.11089	0.90018	167.66635	151.4646	63.72697	0.31551	 	2.09544E11	 	1.92895E-11	 	19087.398	43.1446	 
550.0	1.0	0.0	7.48474	7.25274	-7.8716	14.59956	24.23223	1.10689	0.90343	168.20837	151.79634	63.94231	0.31531	 	2.6078E11	 	1.5406E-11	 	18873.808	42.718	 
545.0	1.0	0.0	7.48655	7.25098	-7.89393	14.58104	24.17287	1.10287	0.90673	168.74838	152.12557	64.15695	0.31512	 	3.2547E11	 	1.2269E-11	 	18662.278	42.306	 
540.0	1.0	0.0	7.48836	7.24923	-7.9162	14.56253	24.11349	1.09882	0.91006	169.28635	152.45228	64.37087	0.31493	 	4.07388E11	 	9.74203E-12	 	18452.738	41.908	 
535.0	1.0	0.0	7.49017	7.24748	-7.93842	14.54402	24.05409	1.09476	0.91344	169.82225	152.77646	64.58408	0.31474	 	5.11432E11	 	7.71242E-12	 	18245.122	41.5232	 
530.0	1.0	0.0	7.49198	7.24573	-7.96059	14.52551	23.99468	1.09069	0.91685	170.35607	153.09809	64.79655	0.31455	 	6.43985E11	 	6.08706E-12	 	18039.368	41.1508	 
525.0	1.0	0.0	7.49378	7.24399	-7.98272	14.507	23.93524	1.08659	0.92031	170.88778	153.41716	65.00828	0.31435	 	8.13387E11	 	4.78932E-12	 	17835.418	40.79	 
520.0	1.0	0.0	7.49557	7.24225	-8.00479	14.48849	23.87579	1.08247	0.92381	171.41734	153.73365	65.21926	0.31416	 	1.03057E12	 	3.75634E-12	 	17633.214	40.4408	 
515.0	1.0	0.0	7.49737	7.24052	-8.02681	14.46998	23.81633	1.07833	0.92736	171.94475	154.04756	65.42948	0.31397	 	1.30991E12	 	2.93666E-12	 	17432.704	40.102	 
510.0	1.0	0.0	7.49916	7.23879	-8.04878	14.45147	23.75685	1.07417	0.93095	172.46996	154.35885	65.63892	0.31378	 	1.67039E12	 	2.28831E-12	 	17233.838	39.7732	 
505.0	1.0	0.0	7.50095	7.23706	-8.0707	14.43297	23.69735	1.06999	0.93458	172.99297	154.66753	65.84759	0.31359	 	2.13714E12	 	1.77713E-12	 	17036.566	39.4544	 
500.0	1.0	0.0	7.50273	7.23534	-8.09258	14.41446	23.63784	1.06579	0.93827	173.51374	154.97358	66.05546	0.31339	 	2.74355E12	 	1.37542E-12	 	16840.844	39.1444	 
495.0	1.0	0.0	7.50452	7.23362	-8.1144	14.39596	23.57832	1.06158	0.942	174.03224	155.27698	66.26254	0.3132	 	3.5342E12	 	1.06082E-12	 	16646.629	38.843	 
490.0	1.0	0.0	7.50629	7.23191	-8.13617	14.37745	23.51879	1.05734	0.94577	174.54847	155.57773	66.4688	0.31301	 	4.56871E12	 	8.15273E-13	 	16453.878	38.5502	 
485.0	1.0	0.0	7.50807	7.2302	-8.15789	14.35895	23.45924	1.05307	0.9496	175.06239	155.8758	66.67425	0.31282	 	5.92723E12	 	6.24295E-13	 	16262.552	38.2652	 
480.0	1.0	0.0	7.50984	7.22849	-8.17956	14.34045	23.39969	1.04879	0.95348	175.57397	156.17119	66.87887	0.31263	 	7.71785E12	 	4.7629E-13	 	16072.615	37.9874	 
475.0	1.0	0.0	7.51161	7.22679	-8.20118	14.32195	23.34012	1.04449	0.95741	176.0832	156.46388	67.08265	0.31243	 	1.00869E13	 	3.62006E-13	 	15884.03	37.717	 
470.0	1.0	0.0	7.51338	7.22509	-8.22275	14.30345	23.28055	1.04016	0.96139	176.59005	156.75386	67.28559	0.31224	 	1.32334E13	 	2.74088E-13	 	15696.763	37.4534	 
465.0	1.0	0.0	7.51514	7.2234	-8.24428	14.28495	23.22097	1.03581	0.96542	177.0945	157.04112	67.48767	0.31205	 	1.74289E13	 	2.0671E-13	 	15510.782	37.1962	 
460.0	1.0	0.0	7.5169	7.22171	-8.26575	14.26645	23.16138	1.03145	0.96951	177.59653	157.32565	67.68888	0.31186	 	2.30455E13	 	1.55272E-13	 	15326.056	36.9452	 
455.0	1.0	0.0	7.51865	7.22002	-8.28717	14.24795	23.10178	1.02705	0.97366	178.09611	157.60743	67.88923	0.31167	 	3.05955E13	 	1.16158E-13	 	15142.555	36.7002	 
450.0	1.0	0.0	7.52041	7.21834	-8.30854	14.22946	23.04218	1.02264	0.97786	178.59322	157.88645	68.08868	0.31148	 	4.07866E13	 	8.65362E-14	 	14960.251	36.4608	 
445.0	1.0	0.0	7.52215	7.21666	-8.32986	14.21096	22.98257	1.0182	0.98212	179.08783	158.16271	68.28725	0.31128	 	5.46014E13	 	6.41945E-14	 	14779.117	36.2268	 
440.0	1.0	0.0	7.5239	7.21499	-8.35113	14.19247	22.92295	1.01374	0.98644	179.57994	158.43618	68.48491	0.31109	 	7.34101E13	 	4.74146E-14	 	14599.127	35.998	 
435.0	1.0	0.0	7.52564	7.21332	-8.37235	14.17397	22.86334	1.00926	0.99082	180.0695	158.70687	68.68167	0.3109	 	9.91314E13	 	3.48659E-14	 	14420.256	35.7742	 
430.0	1.0	0.0	7.52738	7.21165	-8.39352	14.15548	22.80371	1.00475	0.99527	180.55651	158.97475	68.87751	0.31071	 	1.3446599999999998E14	 	2.55225E-14	 	14242.481	35.555	 
425.0	1.0	0.0	7.52912	7.20999	-8.41464	14.13699	22.74409	1.00023	0.99977	181.04093	159.23982	69.07242	0.31052	 	1.8323E14	 	1.85968E-14	 	14065.778	35.3406	 
420.0	1.0	0.0	7.53085	7.20833	-8.43571	14.11849	22.68446	0.99567	1.00435	181.52276	159.50207	69.26639	0.31032	 	2.50847E14	 	1.34867E-14	 	13890.126	35.1304	 
415.0	1.0	0.0	7.53258	7.20667	-8.45673	14.1	22.62482	0.9911	1.00898	182.00196	159.76149	69.45942	0.31013	 	3.45059E14	 	9.73367E-15	 	13715.503	34.9246	 
410.0	1.0	0.0	7.53431	7.20502	-8.4777	14.08151	22.56519	0.98649	1.01369	182.47852	160.01806	69.6515	0.30994	 	4.76972E14	 	6.99052E-15	 	13541.891	34.7224	 
405.0	1.0	0.0	7.53603	7.20338	-8.49862	14.06303	22.50555	0.98187	1.01847	182.95242	160.27179	69.84262	0.30975	 	6.62605E14	 	4.99525E-15	 	13369.269	34.5244	 
400.0	1.0	0.0	7.53775	7.20173	-8.51949	14.04454	22.44591	0.97722	1.02331	183.42363	160.52265	70.03276	0.30956	 	9.2518E14	 	3.55118E-15	 	13197.619	34.33	 
395.0	1.0	0.0	7.53946	7.20009	-8.54031	14.02605	22.38627	0.97255	1.02823	183.89213	160.77064	70.22194	0.30936	 	1.29854E15	 	2.51134E-15	 	13026.922	34.1394	 
390.0	1.0	0.0	7.54118	7.19846	-8.56108	14.00757	22.32662	0.96785	1.03322	184.35792	161.01576	70.41012	0.30917	 	1.83228E15	 	1.76647E-15	 	12857.163	33.9518	 
385.0	1.0	0.0	7.54289	7.19683	-8.5818	13.98908	22.26697	0.96312	1.03829	184.82095	161.25799	70.59731	0.30898	 	2.5995E15	 	1.23573E-15	 	12688.323	33.768	 
380.0	1.0	0.0	7.54459	7.1952	-8.60247	13.9706	22.20732	0.95837	1.04344	185.28123	161.49732	70.78351	0.30879	 	3.70851E15	 	8.59609E-16	 	12520.387	33.5872	 
375.0	1.0	0.0	7.54629	7.19358	-8.6231	13.95211	22.14766	0.9536	1.04866	185.73872	161.73376	70.96869	0.3086	 	5.32079E15	 	5.94547E-16	 	12353.34	33.4094	 
370.0	1.0	0.0	7.54799	7.19196	-8.64367	13.93363	22.088	0.9488	1.05397	186.19341	161.96728	71.15286	0.3084	 	7.6785E15	 	4.08811E-16	 	12187.167	33.2346	 
365.0	1.0	0.0	7.54969	7.19034	-8.66419	13.91515	22.02834	0.94397	1.05935	186.64529	162.19788	71.336	0.30821	 	1.1147E16	 	2.79415E-16	 	12021.854	33.0626	 
360.0	1.0	0.0	7.55138	7.18873	-8.68466	13.89667	21.96868	0.93912	1.06483	187.09432	162.42557	71.51812	0.30802	 	1.62811E16	 	1.89806E-16	 	11857.385	32.8938	 
355.0	1.0	0.0	7.55307	7.18712	-8.70508	13.87819	21.90901	0.93424	1.07039	187.54051	162.65032	71.6992	0.30783	 	2.39282E16	 	1.28127E-16	 	11693.749	32.7272	 
350.0	1.0	0.0	7.55476	7.18552	-8.72545	13.85971	21.84934	0.92933	1.07604	187.98382	162.87214	71.87923	0.30764	 	3.5392000000000004E16	 	8.59359E-17	 	11530.932	32.5634	 
345.0	1.0	0.0	7.55644	7.18392	-8.74577	13.84123	21.78966	0.9244	1.08178	188.42424	163.09101	72.05821	0.30744	 	5.26904E16	 	5.72597E-17	 	11368.922	32.402	 
340.0	1.0	0.0	7.55812	7.18232	-8.76604	13.82275	21.72997	0.91944	1.08761	188.86176	163.30694	72.23613	0.30725	 	7.89693E16	 	3.78961E-17	 	11207.705	32.2434	 
335.0	1.0	0.0	7.55979	7.18073	-8.78626	13.80428	21.67029	0.91446	1.09354	189.29637	163.51992	72.41299	0.30706	 	1.19167E17	 	2.49082E-17	 	11047.272	32.0866	 
330.0	1.0	0.0	7.56146	7.17914	-8.80643	13.7858	21.61059	0.90944	1.09957	189.72803	163.72994	72.58878	0.30687	 	1.8109E17	 	1.62561E-17	 	10887.61	31.9324	 
325.0	1.0	0.0	7.56313	7.17756	-8.82655	13.76732	21.55089	0.9044	1.1057	190.15675	163.937	72.76349	0.30668	 	2.77173E17	 	1.05328E-17	 	10728.708	31.7804	 
320.0	1.0	0.0	7.5648	7.17598	-8.84662	13.74885	21.49119	0.89934	1.11193	190.5825	164.1411	72.93711	0.30649	 	4.27368E17	 	6.77406E-18	 	10570.556	31.6304	 
315.0	1.0	0.0	7.56646	7.1744	-8.86664	13.73038	21.43148	0.89424	1.11827	191.00527	164.34223	73.10965	0.30629	 	6.63936E17	 	4.32363E-18	 	10413.143	31.4826	 
310.0	1.0	0.0	7.56812	7.17283	-8.88661	13.71191	21.37176	0.88911	1.12471	191.42505	164.54039	73.28109	0.3061	 	1.03946E18	 	2.73817E-18	 	10256.46	31.3366	 
305.0	1.0	0.0	7.56977	7.17126	-8.90653	13.69343	21.31203	0.88396	1.13127	191.84183	164.73558	73.45144	0.30591	 	1.64031E18	 	1.72028E-18	 	10100.496	31.1928	 
300.0	1.0	0.0	7.57143	7.1697	-8.9264	13.67496	21.2523	0.87878	1.13794	192.25559	164.92779	73.62067	0.30572	 	2.60962E18	 	1.07196E-18	 	9945.241	31.051	 
295.0	1.0	0.0	7.57307	7.16814	-8.94622	13.65649	21.19255	0.87357	1.14473	192.66633	165.11704	73.7888	0.30553	 	4.18647E18	 	6.62372E-19	 	9790.688	30.9106	 
290.0	1.0	0.0	7.57472	7.16658	-8.96599	13.63803	21.1328	0.86833	1.15164	193.07402	165.3033	73.95582	0.30533	 	6.77381E18	 	4.05768E-19	 	9636.827	30.7722	 
285.0	1.0	0.0	7.57636	7.16503	-8.98571	13.61956	21.07304	0.86306	1.15867	193.47867	165.4866	74.12171	0.30514	 	1.10568E19	 	2.46381E-19	 	9483.649	30.6356	 
280.0	1.0	0.0	7.578	7.16348	-9.00538	13.60109	21.01327	0.85776	1.16582	193.88025	165.66692	74.28648	0.30495	 	1.82114E19	 	1.48247E-19	 	9331.146	30.5006	 
275.0	1.0	0.0	7.57963	7.16194	-9.025	13.58263	20.95349	0.85243	1.17311	194.27878	165.84427	74.45013	0.30476	 	3.02743E19	 	8.83716E-20	 	9179.31	30.3672	 
270.0	1.0	0.0	7.58126	7.1604	-9.04457	13.56416	20.8937	0.84708	1.18053	194.67422	166.01864	74.61264	0.30457	 	5.08079E19	 	5.21765E-20	 	9028.133	30.2354	 
265.0	1.0	0.0	7.58289	7.15886	-9.06409	13.5457	20.8339	0.84169	1.18809	195.06659	166.19005	74.77402	0.30437	 	8.61054E19	 	3.05042E-20	 	8877.607	30.1052	 
260.0	1.0	0.0	7.58451	7.15733	-9.08356	13.52723	20.77409	0.83627	1.19579	195.45586	166.3585	74.93427	0.30418	 	1.4739599999999998E20	 	1.76542E-20	 	8727.725	29.9764	 
255.0	1.0	0.0	7.58613	7.1558	-9.10298	13.50877	20.71427	0.83082	1.20363	195.84204	166.52398	75.09338	0.30399	 	2.5493099999999997E20	 	1.01116E-20	 	8578.48	29.849	 
250.0	1.0	0.0	7.58775	7.15427	-9.12235	13.49031	20.65443	0.82534	1.21163	196.22513	166.68651	75.25134	0.3038	 	4.4561899999999997E20	 	5.72992E-21	 	8429.866	29.7228	 
245.0	1.0	0.0	7.58936	7.15275	-9.14167	13.47185	20.59459	0.81982	1.21978	196.60511	166.84609	75.40816	0.30361	 	7.87484E20	 	3.21144E-21	 	8281.874	29.5984	 
240.0	1.0	0.0	7.59097	7.15124	-9.16094	13.45339	20.53473	0.81428	1.22808	196.98199	167.00273	75.56384	0.30341	 	1.40732E21	 	1.77967E-21	 	8134.499	29.475	 
235.0	1.0	0.0	7.59258	7.14972	-9.18017	13.43493	20.47486	0.8087	1.23655	197.35576	167.15643	75.71837	0.30322	 	2.54424E21	 	9.74813E-22	 	7987.734	29.353	 
230.0	1.0	0.0	7.59418	7.14821	-9.19934	13.41647	20.41498	0.80309	1.24518	197.72643	167.3072	75.87176	0.30303	 	4.65462E21	 	5.27594E-22	 	7841.574	29.232	 
225.0	1.0	0.0	7.59578	7.14671	-9.21846	13.39801	20.35508	0.79745	1.25399	198.094	167.45506	76.02399	0.30284	 	8.62037E21	 	2.82047E-22	 	7696.012	29.1124	 
220.0	1.0	0.0	7.59738	7.14521	-9.23753	13.37956	20.29517	0.79178	1.26298	198.45846	167.60001	76.17509	0.30265	 	1.61675E22	 	1.48876E-22	 	7551.043	28.9938	 
215.0	1.0	0.0	7.59897	7.14371	-9.25655	13.3611	20.23525	0.78607	1.27215	198.81982	167.74206	76.32504	0.30245	 	3.0718399999999998E22	 	7.75607E-23	 	7406.662	28.8762	 
210.0	1.0	0.0	7.60056	7.14222	-9.27552	13.34265	20.17531	0.78033	1.28151	199.17809	167.88123	76.47384	0.30226	 	5.91518E22	 	3.98658E-23	 	7262.862	28.76	 
205.0	1.0	0.0	7.60215	7.14073	-9.29444	13.32419	20.11535	0.77456	1.29106	199.53328	168.01754	76.62151	0.30207	 	1.1548599999999999E23	 	2.02078E-23	 	7119.641	28.6442	 
200.0	1.0	0.0	7.60373	7.13924	-9.31331	13.30574	20.05538	0.76875	1.30081	199.88538	168.15099	76.76803	0.30188	 	2.28705E23	 	1.00974E-23	 	6976.991	28.53	 
195.0	1.0	0.0	7.60531	7.13776	-9.33214	13.28729	19.9954	0.76291	1.31077	200.23442	168.2816	76.91342	0.30169	 	4.59618E23	 	4.97135E-24	 	6834.91	28.4162	 
190.0	1.0	0.0	7.60688	7.13628	-9.35091	13.26884	19.9354	0.75703	1.32095	200.5804	168.40939	77.05768	0.3015	 	9.377799999999999E23	 	2.4105E-24	 	6693.392	28.3036	 
185.0	1.0	0.0	7.60845	7.13481	-9.36963	13.25039	19.87538	0.75112	1.33134	200.92333	168.53438	77.20081	0.3013	 	1.94357E24	 	1.15052E-24	 	6552.433	28.1918	 
180.0	1.0	0.0	7.61002	7.13334	-9.3883	13.23194	19.81535	0.74517	1.34197	201.26324	168.65659	77.34282	0.30111	 	4.0937E24	 	5.40272E-25	 	6412.03	28.0806	 
175.0	1.0	0.0	7.61159	7.13187	-9.40692	13.21349	19.7553	0.73919	1.35283	201.60013	168.77605	77.48371	0.30092	 	8.76767E24	 	2.49474E-25	 	6272.179	27.9702	 
170.0	1.0	0.0	7.61315	7.13041	-9.4255	13.19504	19.69523	0.73317	1.36393	201.93403	168.89277	77.62349	0.30073	 	1.9105E25	 	1.13212E-25	 	6132.877	27.8604	 
165.0	1.0	0.0	7.6147	7.12895	-9.44402	13.17659	19.63514	0.72712	1.37529	202.26497	169.00679	77.76218	0.30054	 	4.2379700000000006E25	 	5.04606E-26	 	5994.12	27.7514	 
160.0	1.0	0.0	7.61626	7.1275	-9.46249	13.15815	19.57504	0.72103	1.3869	202.59295	169.11813	77.89977	0.30034	 	9.576E25	 	2.2077E-26	 	5855.905	27.643	 
155.0	1.0	0.0	7.61781	7.12605	-9.48091	13.1397	19.51491	0.7149	1.39879	202.91801	169.22681	78.03628	0.30015	 	2.20549E26	 	9.47495E-27	 	5718.23	27.535	 
150.0	1.0	0.0	7.61935	7.1246	-9.49929	13.12126	19.45477	0.70874	1.41096	203.24019	169.33288	78.17171	0.29996	 	5.181000000000001E26	 	3.98627E-27	 	5581.093	27.4274	 
145.0	1.0	0.0	7.6209	7.12316	-9.51761	13.10282	19.3946	0.70254	1.42341	203.5595	169.43637	78.30609	0.29977	 	1.24227E27	 	1.64287E-27	 	5444.49	27.3206	 
140.0	1.0	0.0	7.62244	7.12172	-9.53588	13.08437	19.33442	0.6963	1.43617	203.87599	169.53731	78.43942	0.29958	 	3.0425E27	 	6.62771E-28	 	5308.421	27.2138	 
135.0	1.0	0.0	7.62397	7.12028	-9.55411	13.06593	19.27421	0.69002	1.44924	204.1897	169.63575	78.57172	0.29938	 	7.617249999999999E27	 	2.61522E-28	 	5172.884	27.1074	 
130.0	1.0	0.0	7.6255	7.11885	-9.57228	13.04749	19.21398	0.6837	1.46263	204.50066	169.73172	78.703	0.29919	 	1.95106E28	 	1.00852E-28	 	5037.877	27.0014	 
125.0	1.0	0.0	7.62703	7.11743	-9.5904	13.02905	19.15373	0.67735	1.47635	204.80892	169.82527	78.83328	0.299	 	5.11705E28	 	3.79764E-29	 	4903.4	26.8954	 
120.0	1.0	0.0	7.62856	7.116	-9.60848	13.01061	19.09346	0.67095	1.49042	205.11454	169.91645	78.96258	0.29881	 	1.3754200000000002E29	 	1.39511E-29	 	4769.452	26.7896	 
115.0	1.0	0.0	7.63008	7.11458	-9.6265	12.99218	19.03316	0.66452	1.50485	205.41756	170.00531	79.09093	0.29862	 	3.79255E29	 	4.99522E-30	 	4636.032	26.684	 
110.0	1.0	0.0	7.6316	7.11317	-9.64448	12.97374	18.97284	0.65804	1.51966	205.71805	170.0919	79.21833	0.29842	 	1.07383E30	 	1.74148E-30	 	4503.141	26.5782	 
105.0	1.0	0.0	7.63311	7.11176	-9.6624	12.9553	18.91249	0.65153	1.53485	206.01606	170.17628	79.34481	0.29823	 	3.12543E30	 	5.90529E-31	 	4370.779	26.4724	 
100.0	1.0	0.0	7.63462	7.11035	-9.68027	12.93687	18.85212	0.64497	1.55045	206.31167	170.25852	79.47041	0.29804	 	9.3611E30	 	1.94555E-31	 	4238.947	26.3664	 
95.0	1.0	0.0	7.63613	7.10895	-9.6981	12.91843	18.79172	0.63838	1.56648	206.60494	170.33868	79.59515	0.29785	 	2.88866E31	 	6.22035E-32	 	4107.647	26.26	 
90.0	1.0	0.0	7.63763	7.10755	-9.71587	12.9	18.73129	0.63174	1.58294	206.89596	170.41683	79.71905	0.29766	 	9.19501E31	 	1.92762E-32	 	3976.879	26.1536	 
85.0	1.0	0.0	7.63913	7.10615	-9.7336	12.88157	18.67083	0.62506	1.59986	207.1848	170.49304	79.84215	0.29747	 	3.0231299999999997E32	 	5.78222E-33	 	3846.646	26.0466	 
80.0	1.0	0.0	7.64063	7.10476	-9.75127	12.86313	18.61034	0.61833	1.61725	207.47157	170.5674	79.96449	0.29727	 	1.02803E33	 	1.67664E-33	 	3716.952	25.9388	 
75.0	1.0	0.0	7.64212	7.10337	-9.7689	12.8447	18.54982	0.61157	1.63514	207.75636	170.64	80.0861	0.29708	 	3.62103E33	 	4.69268E-34	 	3587.798	25.8308	 
70.0	1.0	0.0	7.64361	7.10199	-9.78647	12.82627	18.48927	0.60476	1.65355	208.03928	170.71092	80.20703	0.29689	 	1.32312E34	 	1.26582E-34	 	3459.188	25.722	 
65.0	1.0	0.0	7.64509	7.10061	-9.804	12.80784	18.42868	0.59791	1.6725	208.32043	170.78026	80.32731	0.2967	 	5.02362E34	 	3.28533E-35	 	3331.128	25.612	 
60.0	1.0	0.0	7.64658	7.09924	-9.82148	12.78941	18.36806	0.59101	1.69202	208.59995	170.84813	80.447	0.29651	 	1.98532E35	 	8.19023E-36	 	3203.621	25.5014	 
55.0	1.0	0.0	7.64805	7.09786	-9.8389	12.77099	18.30741	0.58407	1.71213	208.87796	170.91465	80.56614	0.29631	 	8.181569999999999E35	 	1.95759E-36	 	3076.673	25.3896	 
50.0	1.0	0.0	7.64953	7.0965	-9.85628	12.75256	18.24672	0.57708	1.73286	209.15461	170.97992	80.68479	0.29612	 	3.5227199999999995E36	 	4.47726E-37	 	2950.291	25.2764	 
45.0	1.0	0.0	7.651	7.09513	-9.8736	12.73413	18.18599	0.57005	1.75423	209.43006	171.04409	80.80301	0.29593	 	1.58801E37	 	9.77834E-38	 	2824.482	25.1618	 
40.0	1.0	0.0	7.65247	7.09377	-9.89088	12.71571	18.12522	0.56297	1.77629	209.70445	171.10728	80.92086	0.29574	 	7.511299999999999E37	 	2.03481E-38	 	2699.253	25.0458	 
35.0	1.0	0.0	7.65393	7.09242	-9.90811	12.69729	18.0644	0.55585	1.79905	209.97799	171.16965	81.03842	0.29555	 	3.7366299999999995E38	 	4.02502E-39	 	2574.613	24.928	 
30.0	1.0	0.0	7.65539	7.09106	-9.92529	12.67886	18.00355	0.54868	1.82256	210.25084	171.23135	81.15575	0.29535	 	1.95989E39	 	7.54939E-40	 	2450.572	24.8082	 
25.0	1.0	0.0	7.65684	7.08971	-9.94241	 	17.94264	0.54146	1.84686	210.52323	171.29256	81.27293	0.29516	 	1.08674E40	 	1.33904E-40	 	2327.14	 	 
