T (C)	Fraction solid (wt)-TOTAL	Fraction liquid (wt)-LIQUID	Density (g/(cm)^3)-TOTAL	Volume change (%)-  	Average expansion coeff. (10e-6 1/K)-  	Thermal conductivity (W/(m*K))-TOTAL	Electrical conductivity (10e6 1/(Ohm*m))-TOTAL	Young's modulus (GPa)-TOTAL	Poisson's ratio-TOTAL	Enthalpy (J/mole)-TOTAL	Specific heat (J/(mole K))-TOTAL	Latent heat (J/mole)-TOTAL
400.0	0.0	1.0	6.84349	0.0	55.40208	30.27894	1.83596	0.0	0.5	18285.414	 	0.0
395.0	0.0	1.0	6.84702	-0.0515445	55.65744	30.17687	1.84346	0.0	0.5	18142.911	28.5006	0.0
390.0	0.0	1.0	6.85054	-0.10291	55.92155	30.0748	1.85108	0.0	0.5	18000.379	28.5064	0.0
385.0	0.0	1.0	6.85405	-0.15409	56.19477	29.97273	1.85881	0.0	0.5	17857.813	28.5132	0.0
380.0	0.0	1.0	6.85755	-0.2051	56.47747	29.87066	1.86666	0.0	0.5	17715.209	28.5208	0.0
375.0	0.0	1.0	6.86105	-0.25592	56.77007	29.76859	1.87463	0.0	0.5	17572.562	28.5294	0.0
370.0	0.0	1.0	6.86453	-0.30657	57.073	29.66652	1.88273	0.0	0.5	17429.867	28.539	0.0
365.0	0.0	1.0	6.86801	-0.35704	57.38671	29.56445	1.89095	0.0	0.5	17287.118	28.5498	0.0
360.0	0.0	1.0	6.87148	-0.40732	57.71168	29.46238	1.89931	0.0	0.5	17144.31	28.5616	0.0
355.0	0.0	1.0	6.87494	-0.45743	58.04843	29.36031	1.90779	0.0	0.5	17001.437	28.5746	0.0
350.0	0.0	1.0	6.87839	-0.50736	58.3975	29.25824	1.91641	0.0	0.5	16858.493	28.5888	0.0
345.0	0.0	1.0	6.88183	-0.5571	58.75947	29.15617	1.92518	0.0	0.5	16715.472	28.6042	0.0
340.0	0.0	1.0	6.88526	-0.60667	59.13495	29.0541	1.93408	0.0	0.5	16572.366	28.6212	0.0
335.0	0.0	1.0	6.88868	-0.65606	59.52459	28.95203	1.94313	0.0	0.5	16429.168	28.6396	0.0
330.0	0.0	1.0	6.8921	-0.70526	59.9291	28.84996	1.95233	0.0	0.5	16285.871	28.6594	0.0
325.0	0.0	1.0	6.8955	-0.75429	60.34921	28.74789	1.96169	0.0	0.5	16142.468	28.6806	0.0
320.0	0.0	1.0	6.8989	-0.80314	60.78572	28.64582	1.9712	0.0	0.5	15998.949	28.7038	0.0
315.0	0.0	1.0	6.90228	-0.85181	61.23948	28.54375	1.98087	0.0	0.5	15855.306	28.7286	0.0
310.0	0.0	1.0	6.90566	-0.9003	61.7114	28.44168	1.99071	0.0	0.5	15711.531	28.755	0.0
305.0	0.0	1.0	6.90903	-0.9486	62.20244	28.33961	2.00072	0.0	0.5	15567.612	28.7838	0.0
300.0	0.0	1.0	6.91239	-0.99673	62.71365	28.23754	2.01091	0.0	0.5	15423.542	28.814	0.0
295.0	0.0	1.0	6.91574	-1.04468	63.24616	28.13547	2.02127	0.0	0.5	15279.309	28.8466	0.0
290.0	0.0	1.0	6.91908	-1.09245	63.80116	28.0334	2.03182	0.0	0.5	15134.902	28.8814	0.0
285.0	0.0	1.0	6.92241	-1.14004	64.37995	27.93133	2.04256	0.0	0.5	14990.311	28.9182	0.0
280.0	0.0	1.0	6.92573	-1.18745	64.98394	27.82926	2.05349	0.0	0.5	14845.522	28.9578	0.0
275.0	0.0	1.0	6.92904	-1.23468	65.61464	27.72719	2.06462	0.0	0.5	14700.524	28.9996	0.0
270.0	0.0	1.0	6.93234	-1.28173	66.27367	27.62512	2.07596	0.0	0.5	14555.303	29.0442	0.0
265.0	0.0	1.0	6.93564	-1.3286	66.96282	27.52305	2.0875	0.0	0.5	14409.846	29.0914	0.0
260.0	0.0	1.0	6.93892	-1.37529	67.684	27.42098	2.09927	0.0	0.5	14264.138	29.1416	0.0
255.0	0.0	1.0	6.94219	-1.4218	68.43931	27.31891	2.11125	0.0	0.5	14118.165	29.1946	0.0
250.0	0.0	1.0	6.94546	-1.46814	69.23102	27.21684	2.12347	0.0	0.5	13971.911	29.2508	0.0
245.48	0.0	1.0	6.9484	-1.50989	69.98051	27.12452	2.13472	0.0	0.5	13839.371	29.3076	0.0
245.0	0.13815	0.86185	6.97701	-1.9129	63.64557	29.19348	2.29966	0.0101876	0.48083	13113.268	1520.22	712.09
241.47	1.0	-6.53055E-12	7.16613	-4.50159	22.33727	51.8916	4.11574	30.95642	0.35824	8190.748	 	5530.824
235.0	1.0	-6.53055E-12	7.16941	-4.5452	22.28955	52.02008	4.17843	31.69872	0.35824	7994.955	511.831	 
230.0	1.0	-6.53055E-12	7.17193	-4.57881	22.25264	52.12118	4.22815	32.26679	0.35824	7842.726	30.4458	 
225.0	1.0	-6.53055E-12	7.17445	-4.61232	22.21573	52.22385	4.279	32.82964	0.35824	7690.672	30.4108	 
220.0	1.0	-6.53055E-12	7.17696	-4.64572	22.17882	52.32814	4.33102	33.38728	0.35824	7539.028	30.3288	 
215.0	1.0	-6.53055E-12	7.17947	-4.67901	22.14191	52.4341	4.38424	33.9397	0.35824	7387.797	30.2462	 
210.0	1.0	-6.53055E-12	7.18197	-4.71221	22.105	52.54177	4.43871	34.4869	0.35824	7236.983	30.1628	 
205.0	1.0	-6.53055E-12	7.18447	-4.74529	22.0681	52.65122	4.49447	35.02889	0.35824	7086.587	30.0792	 
200.0	1.0	-6.53055E-12	7.18695	-4.77828	22.03119	52.7625	4.55156	35.56566	0.35824	6936.612	29.995	 
195.0	1.0	-6.53055E-12	7.18944	-4.81116	21.99428	52.87567	4.61004	36.09722	0.35824	6787.061	29.9102	 
190.0	1.0	-6.53055E-12	7.19191	-4.84393	21.95737	52.99079	4.66995	36.62356	0.35824	6637.937	29.8248	 
185.0	1.0	-6.53055E-12	7.19438	-4.87661	21.92046	53.10792	4.73135	37.14468	0.35824	6489.241	29.7392	 
180.0	1.0	-6.53055E-12	7.19685	-4.90917	21.88355	53.22713	4.7943	37.66059	0.35824	6340.977	29.6528	 
175.0	1.0	-6.53055E-12	7.19931	-4.94164	21.84664	53.34849	4.85884	38.17129	0.35824	6193.147	29.566	 
170.0	1.0	-6.53055E-12	7.20176	-4.97399	21.80974	53.47207	4.92504	38.67676	0.35824	6045.752	29.479	 
165.0	1.0	-6.53055E-12	7.2042	-5.00625	21.77283	53.59795	4.99297	39.17702	0.35824	5898.796	29.3912	 
160.0	1.0	-6.53055E-12	7.20664	-5.0384	21.73592	53.72621	5.0627	39.67207	0.35824	5752.279	29.3034	 
155.0	1.0	-6.53055E-12	7.20907	-5.07044	21.69901	53.85693	5.13428	40.1619	0.35824	5606.205	29.2148	 
150.0	1.0	-6.53055E-12	7.2115	-5.10239	21.6621	53.9902	5.2078	40.64651	0.35824	5460.574	29.1262	 
145.0	1.0	-6.53055E-12	7.21392	-5.13422	21.62519	54.12611	5.28334	41.12591	0.35824	5315.39	29.0368	 
140.0	1.0	-6.53055E-12	7.21633	-5.16596	21.58828	54.26476	5.36098	41.60009	0.35824	5170.652	28.9476	 
135.0	1.0	-6.53055E-12	7.21874	-5.19759	21.55138	54.40624	5.4408	42.06906	0.35824	5026.363	28.8578	 
130.0	1.0	-6.53055E-12	7.22114	-5.22911	21.51447	54.55066	5.5229	42.53281	0.35824	4882.525	28.7676	 
125.0	1.0	-6.53055E-12	7.22354	-5.26053	21.47756	54.69814	5.60738	42.99134	0.35824	4739.138	28.6774	 
120.0	1.0	-6.53055E-12	7.22593	-5.29185	21.44065	54.84878	5.69433	43.44466	0.35824	4596.203	28.587	 
115.0	1.0	-6.53055E-12	7.22831	-5.32306	21.40374	55.00272	5.78387	43.89276	0.35824	4453.722	28.4962	 
110.0	1.0	-6.53055E-12	7.23069	-5.35417	21.36683	55.16008	5.87611	44.33565	0.35824	4311.695	28.4054	 
105.0	1.0	-6.53055E-12	7.23305	-5.38517	21.32992	55.32099	5.97117	44.77332	0.35824	4170.122	28.3146	 
100.0	1.0	-6.53055E-12	7.23542	-5.41607	21.29302	55.48561	6.06919	45.20578	0.35824	4029.005	28.2234	 
95.0	1.0	-6.53055E-12	7.23777	-5.44687	21.25611	55.65407	6.1703	45.63302	0.35824	3888.344	28.1322	 
90.0	1.0	-6.53055E-12	7.24012	-5.47756	21.2192	55.82654	6.27464	46.05504	0.35824	3748.137	28.0414	 
85.0	1.0	-6.53055E-12	7.24247	-5.50814	21.18229	56.00319	6.38237	46.47185	0.35824	3608.386	27.9502	 
80.0	1.0	-6.53055E-12	7.2448	-5.53863	21.14538	56.1842	6.49365	46.88344	0.35824	3469.089	27.8594	 
75.0	1.0	-6.53055E-12	7.24714	-5.56901	21.10847	56.36974	6.60866	47.28981	0.35824	3330.246	27.7686	 
70.0	1.0	-6.53055E-12	7.24946	-5.59928	21.07156	56.56003	6.72759	47.69097	0.35824	3191.856	27.678	 
65.0	1.0	-6.53055E-12	7.25178	-5.62945	21.03466	56.75526	6.85063	48.08692	0.35824	3053.917	27.5878	 
60.0	1.0	-6.53055E-12	7.25409	-5.65951	20.99775	56.95567	6.978	48.47764	0.35824	2916.428	27.4978	 
55.0	1.0	-6.53055E-12	7.25639	-5.68948	20.96084	57.1615	7.10993	48.86316	0.35824	2779.387	27.4082	 
50.0	1.0	-6.53055E-12	7.25869	-5.71933	20.92393	57.37298	7.24665	49.24345	0.35824	2642.79	27.3194	 
45.0	1.0	-6.53055E-12	7.26098	-5.74909	20.88703	57.59039	7.38843	49.61853	0.35824	2506.636	27.2308	 
40.0	1.0	-6.53055E-12	7.26327	-5.77873	20.85012	57.81401	7.53554	49.9884	0.35824	2370.921	27.143	 
35.0	1.0	-6.53055E-12	7.26555	-5.80828	20.81321	58.04415	7.6883	50.35305	0.35824	2235.641	27.056	 
30.0	1.0	-6.53055E-12	7.26782	-5.83772	20.77629	58.28112	7.84701	50.71248	0.35824	2100.793	26.9696	 
25.0	1.0	-6.53055E-12	7.27008	-5.86706	 	58.52528	8.01203	51.0667	0.35824	1966.37	 	 
