T (C)	Fraction solid (wt)-TOTAL	Fraction liquid (wt)-LIQUID	Density (g/(cm)^3)-TOTAL	Molar volume (cm^3)-TOTAL	Volume change (%)-  	Average expansion coeff. (10e-6 1/K)-  	Thermal conductivity (W/(m*K))-TOTAL	Electrical resistivity (10e-6 Ohm*m)-TOTAL	Electrical conductivity (10e6 1/(Ohm*m))-TOTAL	Young's modulus (GPa)-TOTAL	Bulk modulus (GPa)-TOTAL	Shear modulus(GPa)-TOTAL	Poisson's ratio-TOTAL	Liquid viscosity (mPa s)-  	Total viscosity (mPa s)-  	Liquid diffusivity (10e-9 (m^2)/s)-  	Total diffusivity (10e-9 (m^2)/s)-  	Surface Tension (mN/m)-  	Enthalpy (J/mole)-TOTAL	Specific heat (J/(mole K))-TOTAL	Latent heat (J/mole)-TOTAL
1400.0	0.0	1.0	7.07816	7.92819	0.0	31.46389	28.06181	1.46078	0.68457	0.0	121.2696	0.0	0.49999	6.74324	6.74324	1.21103	1.21103	1737.51216	48933.748	 	0.0
1395.0	0.0	1.0	7.08201	7.92387	-0.0544284	31.4291	27.98398	1.46047	0.68471	0.0	121.42102	0.0	0.49999	6.81435	6.81435	1.19481	1.19481	1739.51618	48729.74	40.8016	0.0
1390.0	0.0	1.0	7.08586	7.91957	-0.1087	31.39449	27.90615	1.46015	0.68486	0.0	121.57245	0.0	0.49999	6.88664	6.88664	1.17872	1.17872	1741.54151	48526.192	40.7096	0.0
1385.0	0.0	1.0	7.0897	7.91528	-0.16282	31.36006	27.82832	1.45983	0.68501	0.0	121.72387	0.0	0.49999	6.96015	6.96015	1.16276	1.16276	1743.58864	48323.102	40.618	0.0
1380.0	0.0	1.0	7.09354	7.911	-0.21678	31.3258	27.75049	1.45951	0.68516	0.0	121.87529	0.0	0.49999	7.03489	7.03489	1.14694	1.14694	1745.65806	48120.468	40.5268	0.0
1375.0	0.0	1.0	7.09736	7.90674	-0.27059	31.29172	27.67266	1.45919	0.68531	0.0	122.02672	0.0	0.49999	7.1109	7.1109	1.13125	1.13125	1747.75024	47918.288	40.436	0.0
1370.0	0.0	1.0	7.10118	7.90248	-0.32424	31.25783	27.59483	1.45887	0.68546	0.0	122.17814	0.0	0.49999	7.1882	7.1882	1.11569	1.11569	1749.86567	47716.559	40.3458	0.0
1365.0	0.0	1.0	7.105	7.89824	-0.37773	31.22412	27.51699	1.45854	0.68562	0.0	122.32956	0.0	0.49999	7.26681	7.26681	1.10026	1.10026	1752.00483	47515.279	40.256	0.0
1360.0	0.0	1.0	7.1088	7.89401	-0.43107	31.19059	27.43916	1.45821	0.68577	0.0	122.48099	0.0	0.49999	7.34678	7.34678	1.08496	1.08496	1754.1682	47314.447	40.1664	0.0
1355.0	0.0	1.0	7.1126	7.8898	-0.48426	31.15725	27.36133	1.45789	0.68593	0.0	122.63241	0.0	0.49999	7.42813	7.42813	1.0698	1.0698	1756.35628	47114.059	40.0776	0.0
1350.0	0.0	1.0	7.11639	7.88559	-0.53729	31.12411	27.2835	1.45755	0.68608	0.0	122.78383	0.0	0.49999	7.51088	7.51088	1.05476	1.05476	1758.56956	46914.115	39.9888	0.0
1345.0	0.0	1.0	7.12018	7.8814	-0.59016	31.09115	27.20567	1.45722	0.68624	0.0	122.93526	0.0	0.49999	7.59508	7.59508	1.03986	1.03986	1760.80851	46714.611	39.9008	0.0
1340.0	0.0	1.0	7.12396	7.87722	-0.64288	31.05839	27.12784	1.45689	0.6864	0.0	123.08668	0.0	0.49999	7.68075	7.68075	1.02508	1.02508	1763.07362	46515.547	39.8128	0.0
1335.0	0.0	1.0	7.12773	7.87305	-0.69544	31.02583	27.05	1.45655	0.68655	0.0	123.2381	0.0	0.49999	7.76793	7.76793	1.01043	1.01043	1765.36538	46316.919	39.7256	0.0
1330.0	0.0	1.0	7.13149	7.8689	-0.74785	30.99347	26.97217	1.45621	0.68671	0.0	123.38953	0.0	0.49999	7.85666	7.85666	0.99592	0.99592	1767.68427	46118.726	39.6386	0.0
1325.0	0.0	1.0	7.13525	7.86475	-0.8001	30.9613	26.89434	1.45587	0.68687	0.0	123.54095	0.0	0.49999	7.94696	7.94696	0.98153	0.98153	1770.03075	45920.965	39.5522	0.0
1320.0	0.0	1.0	7.139	7.86062	-0.8522	30.92935	26.81651	1.45553	0.68704	0.0	123.69237	0.0	0.49999	8.03888	8.03888	0.96727	0.96727	1772.40531	45723.636	39.4658	0.0
1316.97	0.0	1.0	7.14127	7.85812	-0.88374	30.91005	26.76928	1.45532	0.68713	0.0	123.78427	0.0	0.49999	8.09546	8.09546	0.95868	0.95868	1773.86024	45604.093	39.39684	0.0
1315.0	0.0504301	0.94957	7.15395	7.84425	-1.05867	30.44646	26.93358	1.44465	0.69221	5.94648E-4	123.97549	1.99119E-4	0.4932	8.13443	8.90709	0.95291	0.87025	1773.64519	44799.991	409.07273	726.742
1310.0	0.16777	0.83223	7.1837	7.81178	-1.46824	29.3646	27.31933	1.41977	0.70434	0.0743479	124.44625	0.0251644	0.47725	8.23458	37.75761	0.93836	0.20465	1773.16834	42923.881	375.222	2406.377
1305.0	0.26677	0.73323	7.20927	7.78405	-1.81811	28.44994	27.6454	1.39859	0.715	0.48409	124.90185	0.16537	0.46363	8.33644	198.35033	0.92396	0.0388331	1772.79619	41322.209	320.3344	3812.0
1300.0	0.35096	0.64904	7.23147	7.76023	-2.11845	27.67438	27.92376	1.38026	0.7245	1.4736	125.34847	0.50746	0.45194	8.44003	606.65365	0.90973	0.0126566	1772.52009	39942.201	276.0016	4996.381
1295.0	0.42308	0.57692	7.25087	7.73945	-2.38063	27.00589	28.16207	1.36423	0.73301	3.15678	125.78525	1.09471	0.44183	8.54559	1345.99254	0.89564	0.00568632	1772.33308	38742.742	239.8918	6000.632
1290.0	0.48523	0.51477	7.26798	7.72124	-2.61028	26.42895	28.36671	1.35007	0.7407	5.53377	126.21646	1.93079	0.43303	8.65311	2465.22746	0.88169	0.00309478	1772.22783	37691.488	210.2508	6857.099
1285.0	0.53911	0.46089	7.28317	7.70512	-2.81365	25.926	28.54196	1.33749	0.74767	8.53349	126.64243	2.9935	0.42534	8.76275	3987.97804	0.86787	0.00190697	1772.19832	36762.765	185.7446	7591.449
1280.0	0.58607	0.41393	7.29675	7.69077	-2.99456	25.4864	28.69144	1.32626	0.754	12.05045	127.06459	4.24739	0.41857	8.87466	5922.80108	0.85418	0.00127989	1772.23855	35936.029	165.3472	8224.23
1275.0	0.62719	0.37281	7.30897	7.67795	-3.15637	25.10086	28.81815	1.31617	0.75978	15.96659	127.48413	5.65148	0.4126	8.98892	8269.18896	0.84061	9.1377E-4	1772.34327	35194.709	148.264	8772.006
1270.0	0.66336	0.33664	7.32004	7.66632	-3.30297	24.75822	28.9246	1.30709	0.76506	20.17052	127.90001	7.16636	0.4073	9.10556	11024.36469	0.82716	6.8319E-4	1772.50836	34525.345	133.8728	9248.236
1265.0	0.69529	0.30471	7.33012	7.6558	-3.43574	24.45482	29.01311	1.29888	0.76989	24.56197	128.31394	8.75594	0.40259	9.2248	14186.34596	0.81382	5.29194E-4	1772.72905	33916.93	121.683	9663.926
1260.0	0.72359	0.27641	7.33935	7.64619	-3.55685	24.18453	29.08546	1.29144	0.77433	29.05348	128.72549	10.38831	0.39837	9.34679	17753.91726	0.80059	4.2148E-4	1773.00168	33360.405	111.305	10028.134
1255.0	0.74877	0.25123	7.34785	7.63735	-3.6684	23.94128	29.14355	1.28466	0.77841	33.57674	129.13436	12.03822	0.39459	9.47152	21731.2393	0.78747	3.43217E-4	1773.32322	32848.27	102.427	10348.356
1250.0	0.77122	0.22878	7.3557	7.62921	-3.77109	23.72331	29.1888	1.27848	0.78218	38.07363	129.54139	13.68389	0.39118	9.59926	26125.16911	0.77445	2.84558E-4	1773.69007	32374.283	94.7974	10630.834
1245.0	0.79131	0.20869	7.36301	7.62165	-3.86648	23.52611	29.22275	1.2728	0.78567	42.50385	129.94633	15.30999	0.38811	9.73	30949.4776	0.76153	2.39413E-4	1774.09982	31933.22	88.2126	10880.788
1240.0	0.80933	0.19067	7.36982	7.6146	-3.95539	23.34732	29.2464	1.26758	0.7889	46.83197	130.349	16.90293	0.38532	9.86402	36219.23132	0.74871	2.03906E-4	1774.54991	31520.687	82.5066	11102.612
1235.0	0.82556	0.17444	7.37621	7.60801	-4.03852	23.18508	29.26091	1.26277	0.79191	51.03462	130.74965	18.4535	0.38279	10.00133	41956.30779	0.73599	1.75442E-4	1775.0379	31132.974	77.5426	11300.014
1230.0	0.84018	0.15982	7.38222	7.60182	-4.11652	23.03752	29.26726	1.25831	0.79472	55.09855	131.14851	19.95627	0.38048	10.14215	48189.99241	0.72337	1.52241E-4	1775.56168	30766.929	73.209	11476.142
1225.0	0.8534	0.1466	7.3879	7.59598	-4.19024	22.90212	29.26622	1.25417	0.79734	59.00926	131.54522	21.40539	0.37837	10.28663	54948.14122	0.71084	1.33073E-4	1776.11984	30419.87	69.4118	11633.678
1220.0	0.86538	0.13462	7.39328	7.59046	-4.25989	22.77846	29.25858	1.25031	0.7998	62.76554	131.9399	22.79994	0.37644	10.43479	62272.49862	0.6984	1.17029E-4	1776.71013	30089.5	66.074	11774.916
1215.0	0.87626	0.12374	7.3984	7.5852	-4.32613	22.66453	29.24493	1.2467	0.80212	66.36027	132.33256	24.13687	0.37467	10.58693	70200.09443	0.68606	1.03466E-4	1777.33155	29773.847	63.1306	11901.826
1210.0	0.88614	0.11386	7.40328	7.58018	-4.38951	22.55876	29.22596	1.24332	0.8043	69.80054	132.72305	25.41846	0.37303	10.74313	78785.14767	0.67382	9.18814E-5	1777.98289	29471.213	60.5268	12016.105
1205.0	0.89517	0.10483	7.40795	7.5754	-4.44977	22.46204	29.20207	1.24014	0.80636	73.08269	133.11175	26.64297	0.37152	10.90354	88076.82172	0.66166	8.19113E-5	1778.66189	29180.128	58.217	12119.221
1203.7	0.89734	0.10266	7.40912	7.5742	-4.46493	22.4384	29.19478	1.23936	0.80687	73.89733	133.21266	26.94717	0.37115	10.94597	90603.66031	0.65852	7.95567E-5	1778.84385	29106.491	 	12143.94
1200.0	0.9045	0.0955021	7.41322	7.56993	-4.51885	22.3362	29.15427	1.23797	0.80777	76.67786	133.58601	27.98594	0.36994	11.12883	98681.15208	0.64608	7.28617E-5	1779.58525	28857.543	64.517	12254.219
1195.0	0.91335	0.0866468	7.41846	7.56443	-4.5882	22.20843	29.09824	1.23615	0.80897	80.2528	134.07516	29.32334	0.36841	11.38418	110353.8941	0.62944	6.49336E-5	1780.60261	28533.82	64.7446	12390.738
1194.06	0.91488	0.0851211	7.4194	7.56344	-4.6007	22.18605	29.08748	1.23581	0.80919	80.89014	134.16523	29.56198	0.36814	11.43318	112636.3701	0.62634	6.3577E-5	1780.79585	28475.036	 	12414.327
1194.06	0.91488	0.0851211	7.4194	7.56344	-4.6007	22.18605	29.08748	1.23581	0.80919	80.89014	134.16523	29.56198	0.36814	11.43318	112636.3701	0.62634	6.3577E-5	1780.79585	28475.036	 	12414.327
1190.0	0.94117	0.0588321	7.43227	7.55057	-4.76294	21.73888	29.03715	1.23453	0.81003	91.83707	135.35036	33.66564	0.36396	11.54742	133777.6418	0.61843	5.33817E-5	1779.26027	27771.453	152.4734	12966.282
1185.96	0.95681	0.0431858	7.44088	7.5421	-4.86985	21.46773	28.98423	1.23337	0.81079	99.00481	136.17806	36.3614	0.3614	11.66071	151588.2457	0.61073	4.69796E-5	1778.12679	27295.046	 	13292.018
1185.0	0.96145	0.038551	7.44325	7.53975	-4.89949	21.38926	28.97249	1.23306	0.81099	101.20366	136.4194	37.18971	0.36064	11.67364	156753.44	0.60965	4.54017E-5	1777.97348	27160.486	122.1934	13390.802
1180.0	0.97841	0.0215931	7.45292	7.53027	-5.01906	21.09201	28.91106	1.23144	0.81206	109.70188	137.40893	40.3969	0.3578	11.72654	181033.4259	0.60482	3.91776E-5	1777.49917	26614.864	109.1244	13750.355
1175.0	0.98754	0.0124612	7.45964	7.5238	-5.1007	20.91637	28.84662	1.22994	0.81305	114.71714	138.11239	42.29421	0.35618	11.78067	202438.9307	0.59997	3.49145E-5	1777.46381	26237.678	75.4372	13941.845
1170.0	0.99324	0.00675701	7.46505	7.51866	-5.16542	20.79482	28.78011	1.22853	0.81398	118.11795	138.68975	43.5829	0.3551	11.83808	223319.3797	0.595	3.15407E-5	1777.71121	25934.131	60.7094	14060.069
1165.0	0.99715	0.00284947	7.46974	7.51425	-5.22106	20.70222	28.71206	1.22717	0.81488	120.6438	139.20024	44.54132	0.35429	11.8998	244683.6431	0.58986	2.86871E-5	1778.15242	25669.231	52.98	14140.015
1160.0	1.0	0.0	7.47147	7.50887	-5.28897	20.56809	28.51166	1.2315	0.81202	122.90432	139.93233	45.39857	0.35361	 	267086.2749	 	2.61895E-5	 	25262.40314	81.36557	14197.498
1155.0	1.0	0.0	7.48196	7.5023	-5.37184	20.38293	28.26847	1.23776	0.80791	124.12976	140.59893	45.87693	0.35286	 	293247.957	 	2.37698E-5	 	24889.1865	74.64333	 
1150.0	1.0	0.0	7.48748	7.49676	-5.44168	20.23973	28.03389	1.24375	0.80402	125.14127	141.24504	46.26857	0.35234	 	320100.8382	 	2.16995E-5	 	24528.17367	72.20257	 
1145.0	1.0	0.0	7.49288	7.49136	-5.50983	20.10091	27.81079	1.24932	0.80043	126.12056	141.86597	46.64804	0.35183	 	349735.7568	 	1.97911E-5	 	24175.92793	70.44915	 
1140.0	1.0	0.0	7.49816	7.48608	-5.57637	19.96634	27.59835	1.2545	0.79713	127.07028	142.46475	47.01629	0.35134	 	382463.2238	 	1.80337E-5	 	23832.11802	68.76198	 
1135.0	1.0	0.0	7.50333	7.48093	-5.64133	19.83588	27.39585	1.2593	0.79409	127.99239	143.04352	47.37405	0.35087	 	418630.2422	 	1.64174E-5	 	23496.42112	67.13938	 
1130.0	1.0	0.0	7.50837	7.4759	-5.70478	19.7094	27.20269	1.26374	0.7913	128.88848	143.60392	47.72191	0.35041	 	458624.3952	 	1.49325E-5	 	23168.52262	65.5797	 
1125.0	1.0	0.0	7.51331	7.47099	-5.76677	19.58674	27.01826	1.26783	0.78875	129.75999	144.14732	48.06038	0.34997	 	502879.062	 	1.35699E-5	 	22848.11423	64.08168	 
1120.0	1.0	0.0	7.51815	7.46618	-5.82737	19.46777	26.84201	1.2716	0.78641	130.60822	144.67491	48.38996	0.34954	 	551879.1694	 	1.23208E-5	 	22534.89307	62.64423	 
1115.0	1.0	0.0	7.52288	7.46149	-5.88662	19.35235	26.67342	1.27504	0.78429	131.43437	145.18777	48.7111	0.34912	 	606167.6074	 	1.11771E-5	 	22228.5615	61.26631	 
1110.0	1.0	0.0	7.52752	7.45689	-5.94459	19.24033	26.51199	1.27818	0.78236	132.23962	145.68687	49.02423	0.34872	 	666352.6451	 	1.0131E-5	 	21928.827	59.9469	 
1105.0	1.0	0.0	7.53206	7.45239	-6.00132	19.13159	26.35726	1.28104	0.78062	133.02506	146.17309	49.32976	0.34832	 	733116.2928	 	9.17509E-6	 	21635.40236	58.68493	 
1100.0	1.0	0.0	7.53651	7.44799	-6.05687	19.02597	26.20876	1.28362	0.77904	133.79177	146.64728	49.6281	0.34794	 	807223.8329	 	8.30253E-6	 	21348.00613	57.47925	 
1095.0	1.0	0.0	7.54088	7.44367	-6.11128	18.92335	26.06607	1.28595	0.77764	134.54075	147.1102	49.91963	0.34757	 	889535.0677	 	7.50684E-6	 	21066.36285	56.32866	 
1090.0	1.0	0.0	7.54517	7.43945	-6.16462	18.82359	25.92881	1.28803	0.77638	135.273	147.56256	50.20472	0.34721	 	981015.4323	 	6.78195E-6	 	20790.20472	55.23163	 
1085.0	1.0	0.0	7.54938	7.4353	-6.21693	18.72655	25.79658	1.28989	0.77526	135.98944	148.00504	50.48373	0.34686	 	1082751.177	 	6.12218E-6	 	20519.27113	54.18672	 
1080.0	1.0	0.0	7.55351	7.43123	-6.26825	18.6321	25.66904	1.29152	0.77428	136.69097	148.43827	50.75701	0.34652	 	1195965.187	 	5.52223E-6	 	20253.30958	53.19231	 
1075.0	1.0	0.0	7.55757	7.42724	-6.31863	18.54012	25.54585	1.29296	0.77342	137.37846	148.86281	51.02487	0.34619	 	1322035.082	 	4.97716E-6	 	19992.07629	52.24666	 
1070.0	1.0	0.0	7.56157	7.42331	-6.36812	18.45047	25.42671	1.2942	0.77268	138.0527	149.27923	51.28763	0.34587	 	1462514.162	 	4.48241E-6	 	19735.33667	51.34792	 
1065.0	1.0	0.0	7.5655	7.41946	-6.41676	18.36304	25.31134	1.29526	0.77205	138.71448	149.68802	51.54558	0.34555	 	1619155.362	 	4.03369E-6	 	19482.86559	50.49422	 
1060.0	1.0	0.0	7.56937	7.41566	-6.4646	18.27771	25.19946	1.29615	0.77152	139.36451	150.08965	51.79901	0.34524	 	1793938.33	 	3.62709E-6	 	19234.44771	49.68358	 
1055.0	1.0	0.0	7.57318	7.41193	-6.51166	18.19437	25.09082	1.29688	0.77108	140.0035	150.48456	52.04818	0.34494	 	1989100.827	 	3.25895E-6	 	18989.87753	48.91404	 
1050.0	1.0	0.0	7.57693	7.40826	-6.55798	18.11291	24.9852	1.29746	0.77074	140.63208	150.87316	52.29333	0.34465	 	2207174.363	 	2.9259E-6	 	18748.95945	48.18362	 
1045.0	1.0	0.0	7.58063	7.40464	-6.60361	18.03323	24.88238	1.29789	0.77048	141.25087	151.25582	52.53471	0.34436	 	2451025.303	 	2.62485E-6	 	18511.50768	47.49035	 
1040.0	1.0	0.0	7.58428	7.40108	-6.64858	17.95523	24.78217	1.2982	0.7703	141.86044	151.63288	52.77253	0.34407	 	2723901.749	 	2.35293E-6	 	18277.34613	46.83231	 
1035.0	1.0	0.0	7.58789	7.39756	-6.69291	17.87882	24.68439	1.29838	0.77019	142.46132	152.00467	53.007	0.3438	 	3029487.854	 	2.10754E-6	 	18046.30814	46.2076	 
1030.0	1.0	0.0	7.59145	7.39409	-6.73664	17.80391	24.58887	1.29844	0.77015	143.05401	152.37148	53.23831	0.34352	 	3371965.282	 	1.88624E-6	 	17818.23622	45.61438	 
1025.0	1.0	0.0	7.59496	7.39067	-6.77979	17.73041	24.49545	1.29839	0.77018	143.63897	152.73359	53.46665	0.34326	 	3756085.664	 	1.68685E-6	 	17592.98174	45.0509	 
1020.0	1.0	0.0	7.59843	7.3873	-6.8224	17.65825	24.40399	1.29824	0.77028	144.21665	153.09125	53.69218	0.34299	 	4187251.661	 	1.50732E-6	 	17370.40457	44.51543	 
1015.0	1.0	0.0	7.60187	7.38396	-6.86448	17.58735	24.31437	1.29798	0.77043	144.78745	153.44469	53.91506	0.34274	 	4671613.195	 	1.34582E-6	 	17150.37269	44.00638	 
1010.0	1.0	0.0	7.60526	7.38066	-6.90606	17.51764	24.22645	1.29764	0.77063	145.35175	153.79413	54.13544	0.34248	 	5216175.356	 	1.20064E-6	 	16932.76181	43.52218	 
1005.0	1.0	0.0	7.60862	7.3774	-6.94717	17.44905	24.14014	1.2972	0.77089	145.90989	154.13976	54.35345	0.34223	 	5828926.291	 	1.07024E-6	 	16717.45498	43.06136	 
1000.0	1.0	0.0	7.61195	7.37418	-6.98782	17.38151	24.05532	1.29669	0.7712	146.46221	154.48177	54.56922	0.34199	 	6518982.513	 	9.53205E-7	 	16504.34219	42.62256	 
995.0	1.0	0.0	7.61524	7.37099	-7.02804	17.31498	23.9719	1.29609	0.77155	147.009	154.82032	54.78287	0.34174	 	7296757.666	 	8.48257E-7	 	16293.31999	42.20444	 
993.93	1.0	0.0	7.61594	7.37032	-7.03655	17.30095	23.95429	1.29595	0.77163	147.12494	154.89212	54.82818	0.34169	 	7475099.254	 	8.27323E-7	 	16248.57358	 	 
990.0	1.0	0.0	7.6185	7.36784	-7.06778	17.24959	23.8898	1.29541	0.77195	147.55072	155.15587	54.99457	0.3415	 	8174314.792	 	7.54207E-7	 	16084.21194	41.82161	 
985.0	1.0	0.0	7.62172	7.36472	-7.10713	17.18508	23.80893	1.29467	0.7724	148.08748	155.48828	55.20436	0.34127	 	9165176.238	 	6.70005E-7	 	15876.9949	41.44341	 
980.0	1.0	0.0	7.62492	7.36163	-7.14609	17.12139	23.72922	1.29386	0.77288	148.61951	155.81766	55.41234	0.34103	 	1.028494344E7	 	5.94686E-7	 	15671.59924	41.07913	 
975.0	1.0	0.0	7.62809	7.35857	-7.18469	17.05849	23.65059	1.29298	0.77341	149.14702	156.14411	55.61859	0.3408	 	1.155152566E7	 	5.27368E-7	 	15467.94368	40.73111	 
970.0	1.0	0.0	7.63124	7.35554	-7.22294	16.99632	23.57299	1.29204	0.77397	149.67024	156.46776	55.82319	0.34057	 	1.298548077E7	 	4.67253E-7	 	15265.95172	40.39839	 
965.0	1.0	0.0	7.63436	7.35253	-7.26085	16.93484	23.49635	1.29104	0.77457	150.18935	156.7887	56.02623	0.34035	 	1.461042812E7	 	4.13616E-7	 	15065.55137	40.08007	 
960.0	1.0	0.0	7.63745	7.34955	-7.29844	16.87401	23.42063	1.28998	0.7752	150.70455	157.10704	56.22778	0.34013	 	1.645353497E7	 	3.658E-7	 	14866.67489	39.7753	 
955.0	1.0	0.0	7.64053	7.3466	-7.33571	16.8138	23.34576	1.28887	0.77587	151.216	157.42287	56.4279	0.3399	 	1.854607823E7	 	3.23211E-7	 	14669.25843	39.48329	 
950.0	1.0	0.0	7.64357	7.34367	-7.37268	16.75416	23.2717	1.28771	0.77657	151.72386	157.73627	56.62664	0.33969	 	2.092410527E7	 	2.85312E-7	 	14473.24184	39.20332	 
945.0	1.0	0.0	7.6466	7.34076	-7.40937	16.69507	23.19841	1.2865	0.7773	152.22828	158.04731	56.82409	0.33947	 	2.362920418E7	 	2.51616E-7	 	14278.56843	38.93468	 
940.0	1.0	0.0	7.64961	7.33787	-7.44576	16.63649	23.12584	1.28524	0.77807	152.7294	158.35607	57.02027	0.33926	 	2.67094044E7	 	2.21685E-7	 	14085.18471	38.67674	 
935.0	1.0	0.0	7.6526	7.33501	-7.48189	16.57839	23.05396	1.28393	0.77886	153.22735	158.66261	57.21526	0.33904	 	3.022023566E7	 	1.95124E-7	 	13893.04021	38.4289	 
930.0	1.0	0.0	7.65556	7.33217	-7.51776	16.52074	22.98274	1.28258	0.77968	153.72224	158.967	57.40908	0.33883	 	3.42259666E7	 	1.71574E-7	 	13702.08726	38.19059	 
925.0	1.0	0.0	7.65851	7.32934	-7.55337	16.46351	22.91213	1.28118	0.78053	154.21419	159.26929	57.60179	0.33862	 	3.880106117E7	 	1.50714E-7	 	13512.28084	37.96128	 
920.0	1.0	0.0	7.66144	7.32654	-7.58873	16.40669	22.84212	1.27975	0.7814	154.7033	159.56954	57.79343	0.33842	 	4.403189069E7	 	1.32256E-7	 	13323.5784	37.74049	 
915.0	1.0	0.0	7.66436	7.32375	-7.62385	16.35024	22.77266	1.27827	0.78231	155.18967	159.8678	57.98403	0.33821	 	5.001874979E7	 	1.15938E-7	 	13135.93968	37.52774	 
910.0	1.0	0.0	7.66725	7.32099	-7.65874	16.29415	22.70374	1.27676	0.78323	155.67339	160.16411	58.17364	0.33801	 	5.687823085E7	 	1.01527E-7	 	12949.32659	37.32262	 
905.0	1.0	0.0	7.67013	7.31824	-7.69341	16.23838	22.63532	1.2752	0.78419	156.15454	160.45851	58.36227	0.3378	 	6.474602778E7	 	8.88125E-8	 	12763.70308	37.1247	 
900.0	1.0	0.0	7.673	7.31551	-7.72785	16.18292	22.56739	1.27362	0.78517	156.63321	160.75105	58.54997	0.3376	 	7.378024205E7	 	7.76069E-8	 	12579.03498	36.93362	 
895.0	1.0	0.0	7.67584	7.3128	-7.76208	16.12776	22.49992	1.27199	0.78617	157.10946	161.04177	58.73677	0.3374	 	8.416530042E7	 	6.77411E-8	 	12395.28996	36.74901	 
890.0	1.0	0.0	7.67868	7.3101	-7.7961	16.07286	22.43289	1.27033	0.7872	157.58336	161.33069	58.92268	0.3372	 	9.611658954E7	 	5.90642E-8	 	12212.43731	36.57053	 
885.0	1.0	0.0	7.68149	7.30742	-7.82992	16.01821	22.36628	1.26864	0.78825	158.05499	161.61786	59.10774	0.33701	 	1.098859543E8	 	5.1441E-8	 	12030.44793	36.39787	 
880.0	1.0	0.0	7.6843	7.30475	-7.86354	15.9638	22.30008	1.26691	0.78932	158.52439	161.90331	59.29197	0.33681	 	1.257682044E8	 	4.47509E-8	 	11849.29387	36.23081	 
875.0	1.0	0.0	7.68708	7.3021	-7.89697	15.90961	22.23426	1.26515	0.79042	158.99163	162.18706	59.47539	0.33662	 	1.441088923E8	 	3.88861E-8	 	11668.94877	36.06902	 
870.0	1.0	0.0	7.68986	7.29947	-7.9302	15.85562	22.16881	1.26336	0.79154	159.45675	162.46914	59.65802	0.33642	 	1.653135124E8	 	3.37506E-8	 	11489.38847	35.91206	 
865.0	1.0	0.0	7.69262	7.29685	-7.96326	15.80182	22.10372	1.26154	0.79268	159.91982	162.74958	59.83987	0.33623	 	1.898584955E8	 	2.92588E-8	 	11310.58938	35.75982	 
860.0	1.0	0.0	7.69537	7.29424	-7.99613	15.7482	22.03896	1.25969	0.79385	160.38086	163.02841	60.02098	0.33604	 	2.183043233E8	 	2.53345E-8	 	11132.52909	35.61206	 
855.0	1.0	0.0	7.6981	7.29165	-8.02882	15.69474	21.97453	1.2578	0.79504	160.83993	163.30564	60.20135	0.33585	 	2.513111743E8	 	2.191E-8	 	10955.18631	35.46856	 
850.0	1.0	0.0	7.70083	7.28907	-8.06133	15.64142	21.91041	1.25589	0.79625	161.29707	163.5813	60.38101	0.33566	 	2.896576828E8	 	1.89252E-8	 	10778.54082	35.3291	 
845.0	1.0	0.0	7.70304	7.28697	-8.08777	15.61537	21.84618	1.25398	0.79746	161.68342	163.8305	60.53212	0.33552	 	3.296403592E8	 	1.65557E-8	 	10631.86247	29.33567	 
840.0	1.0	0.0	7.70525	7.28488	-8.11414	15.58932	21.78194	1.25205	0.79869	162.06911	164.07863	60.68301	0.33537	 	3.755780283E8	 	1.44657E-8	 	10482.41374	29.88975	 
835.0	1.0	0.0	7.70746	7.2828	-8.14044	15.56327	21.71769	1.25012	0.79992	162.45414	164.32571	60.83369	0.33523	 	4.284215196E8	 	1.26245E-8	 	10333.18961	29.84482	 
830.0	1.0	0.0	7.70966	7.28072	-8.16667	15.53723	21.65343	1.24817	0.80117	162.83851	164.57173	60.98416	0.33509	 	4.892835674E8	 	1.10043E-8	 	10184.18942	29.80004	 
825.0	1.0	0.0	7.71186	7.27865	-8.19283	15.51119	21.58916	1.24621	0.80243	163.22224	164.8167	61.13441	0.33495	 	5.594680826E8	 	9.58017E-9	 	10035.41244	29.7554	 
820.0	1.0	0.0	7.71405	7.27658	-8.21892	15.48516	21.52488	1.24424	0.8037	163.6053	165.06062	61.28445	0.3348	 	6.405050246E8	 	8.32998E-9	 	9886.85797	29.71089	 
815.0	1.0	0.0	7.71624	7.27451	-8.24494	15.45913	21.4606	1.24226	0.80498	163.98771	165.3035	61.43427	0.33466	 	7.341920009E8	 	7.23379E-9	 	9738.52527	29.66654	 
810.0	1.0	0.0	7.71842	7.27246	-8.27089	15.4331	21.39631	1.24027	0.80628	164.36946	165.54533	61.58387	0.33452	 	8.426439639E8	 	6.27381E-9	 	9590.41358	29.62234	 
805.0	1.0	0.0	7.7206	7.2704	-8.29677	15.40708	21.33201	1.23826	0.80758	164.75056	165.78613	61.73326	0.33437	 	9.683526677E8	 	5.43416E-9	 	9442.52215	29.57829	 
800.0	1.0	0.0	7.72277	7.26836	-8.32258	15.38106	21.2677	1.23625	0.8089	165.13101	166.02588	61.88244	0.33423	 	1.114257903E9	 	4.70069E-9	 	9294.85018	29.53439	 
795.0	1.0	0.0	7.72494	7.26632	-8.34832	15.35505	21.20338	1.23422	0.81023	165.5108	166.26461	62.03139	0.33409	 	1.283832974E9	 	4.06079E-9	 	9147.39688	29.49066	 
790.0	1.0	0.0	7.72711	7.26428	-8.37399	15.32904	21.13906	1.23218	0.81157	165.88993	166.5023	62.18014	0.33395	 	1.481187414E9	 	3.50325E-9	 	9000.16143	29.44709	 
785.0	1.0	0.0	7.72926	7.26225	-8.39959	15.30303	21.07472	1.23013	0.81292	166.26842	166.73897	62.32867	0.3338	 	1.711190606E9	 	3.01811E-9	 	8853.14297	29.40369	 
780.0	1.0	0.0	7.73142	7.26023	-8.42512	15.27703	21.01038	1.22807	0.81429	166.64624	166.97461	62.47698	0.33366	 	1.979620799E9	 	2.59654E-9	 	8706.34066	29.36046	 
775.0	1.0	0.0	7.73357	7.25821	-8.45058	15.25103	20.94603	1.22599	0.81567	167.02342	167.20923	62.62508	0.33352	 	2.293345005E9	 	2.2307E-9	 	8559.75359	29.31741	 
770.0	1.0	0.0	7.73572	7.2562	-8.47597	15.22504	20.88166	1.22391	0.81706	167.39994	167.44283	62.77297	0.33338	 	2.660536529E9	 	1.91366E-9	 	8413.38084	29.27455	 
765.0	1.0	0.0	7.73786	7.25419	-8.50129	15.19905	20.81729	1.22181	0.81846	167.7758	167.67542	62.92064	0.33323	 	3.090938432E9	 	1.63929E-9	 	8267.22147	29.23187	 
760.0	1.0	0.0	7.73999	7.25219	-8.52655	15.17306	20.75291	1.21969	0.81988	168.15102	167.90699	63.06809	0.33309	 	3.596183128E9	 	1.40219E-9	 	8121.27452	29.18939	 
755.0	1.0	0.0	7.74212	7.25019	-8.55173	15.14708	20.68852	1.21757	0.82131	168.52558	168.13756	63.21533	0.33295	 	4.190180737E9	 	1.1976E-9	 	7975.53898	29.14711	 
750.0	1.0	0.0	7.74425	7.2482	-8.57684	15.12111	20.62411	1.21543	0.82275	168.89948	168.36711	63.36235	0.33281	 	4.889591759E9	 	1.0213E-9	 	7830.01381	29.10504	 
745.0	1.0	0.0	7.74637	7.24621	-8.60188	15.09513	20.5597	1.21328	0.82421	169.27274	168.59567	63.50916	0.33266	 	5.714403365E9	 	8.69616E-10	 	7684.69794	29.06317	 
740.0	1.0	0.0	7.74849	7.24424	-8.62685	15.06916	20.49528	1.21112	0.82568	169.64534	168.82322	63.65575	0.33252	 	6.688633217E9	 	7.39304E-10	 	7539.59025	29.02154	 
735.0	1.0	0.0	7.7506	7.24226	-8.65175	15.0432	20.43084	1.20894	0.82717	170.01729	169.04978	63.80213	0.33238	 	7.841190548E9	 	6.27523E-10	 	7394.6896	28.98013	 
730.0	1.0	0.0	7.75271	7.24029	-8.67659	15.01724	20.3664	1.20675	0.82867	170.38858	169.27534	63.94829	0.33224	 	9.206931508E9	 	5.31787E-10	 	7249.99478	28.93896	 
725.0	1.0	0.0	7.75481	7.23833	-8.70135	14.99128	20.30194	1.20455	0.83019	170.75923	169.49991	64.09424	0.3321	 	1.0828E10	 	4.49921E-10	 	7105.50458	28.89804	 
720.0	1.0	0.0	7.75691	7.23637	-8.72604	14.96533	20.23748	1.20233	0.83172	171.12922	169.72348	64.23997	0.33195	 	1.2755199999999998E10	 	3.80027E-10	 	6961.21768	28.85738	 
715.0	1.0	0.0	7.759	7.23442	-8.75067	14.93938	20.173	1.2001	0.83326	171.49856	169.94608	64.38548	0.33181	 	1.5050399999999998E10	 	3.20451E-10	 	6817.13276	28.81698	 
710.0	1.0	0.0	7.76109	7.23247	-8.77522	14.91343	20.10851	1.19786	0.83482	171.86725	170.16768	64.53078	0.33167	 	1.77885E10	 	2.69754E-10	 	6673.24841	28.77687	 
705.0	1.0	0.0	7.76317	7.23053	-8.79971	14.88749	20.04401	1.1956	0.8364	172.23529	170.38831	64.67587	0.33153	 	2.10607E10	 	2.26683E-10	 	6529.56317	28.73705	 
700.0	1.0	0.0	7.76525	7.2286	-8.82412	14.86155	19.9795	1.19333	0.83799	172.60267	170.60796	64.82074	0.33138	 	2.4978199999999996E10	 	1.90154E-10	 	6386.07554	28.69753	 
695.0	1.0	0.0	7.76733	7.22667	-8.84847	14.83562	19.91497	1.19105	0.8396	172.96941	170.82663	64.96539	0.33124	 	2.9676499999999996E10	 	1.59227E-10	 	6242.78391	28.65833	 
690.0	1.0	0.0	7.7694	7.22474	-8.87274	14.80969	19.85044	1.18875	0.84122	173.33549	171.04433	65.10983	0.3311	 	3.53218E10	 	1.33088E-10	 	6099.68661	28.61946	 
685.0	1.0	0.0	7.77146	7.22282	-8.89695	14.78377	19.78589	1.18644	0.84286	173.70092	171.26106	65.25405	0.33096	 	4.21174E10	 	1.11035E-10	 	5956.78192	28.58094	 
680.0	1.0	0.0	7.77352	7.22091	-8.92108	14.75784	19.72133	1.18411	0.84452	174.0657	171.47683	65.39806	0.33082	 	5.031319999999999E10	 	9.24625E-11	 	5814.068	28.54278	 
675.0	1.0	0.0	7.77557	7.219	-8.94515	14.73193	19.65675	1.18177	0.84619	174.42983	171.69162	65.54185	0.33068	 	6.021679999999999E10	 	7.68504E-11	 	5671.54294	28.50501	 
670.0	1.0	0.0	7.77762	7.2171	-8.96915	14.70601	19.59217	1.17941	0.84788	174.79331	171.90546	65.68542	0.33053	 	7.22071E10	 	6.37511E-11	 	5529.20472	28.46764	 
665.0	1.0	0.0	7.77967	7.2152	-8.99308	14.68011	19.52757	1.17704	0.84959	175.15614	172.11834	65.82878	0.33039	 	8.67527E10	 	5.27808E-11	 	5387.05124	28.4307	 
660.0	1.0	0.0	7.78171	7.21331	-9.01693	14.6542	19.46295	1.17465	0.85132	175.51832	172.33026	65.97193	0.33025	 	1.04434E11	 	4.36112E-11	 	5245.08537	28.39317	 
655.0	1.0	0.0	7.78374	7.21142	-9.04072	14.6283	19.39833	1.17225	0.85306	175.87985	172.54123	66.11486	0.33011	 	1.2597E11	 	3.59616E-11	 	5103.33538	28.35	 
650.0	1.0	0.0	7.78578	7.20954	-9.06444	14.6024	19.33369	1.16983	0.85482	176.24073	172.75124	66.25757	0.32997	 	1.52256E11	 	2.95928E-11	 	4961.83881	28.29931	 
645.0	1.0	0.0	7.7878	7.20767	-9.08809	14.57651	19.26903	1.1674	0.8566	176.60096	172.96031	66.40007	0.32983	 	1.84407E11	 	2.4301E-11	 	4820.59478	28.24881	 
640.0	1.0	0.0	7.78982	7.2058	-9.11167	14.55062	19.20436	1.16495	0.8584	176.96054	173.16844	66.54235	0.32968	 	2.23816E11	 	1.9913E-11	 	4679.60241	28.19847	 
635.0	1.0	0.0	7.79184	7.20393	-9.13519	14.52474	19.13968	1.16249	0.86022	177.31947	173.37561	66.68441	0.32954	 	2.72228E11	 	1.62821E-11	 	4538.86082	28.14832	 
630.0	1.0	0.0	7.79385	7.20208	-9.15863	14.49886	19.07498	1.16001	0.86206	177.67775	173.58185	66.82626	0.3294	 	3.3183E11	 	1.32841E-11	 	4398.36913	28.09834	 
625.0	1.0	0.0	7.79585	7.20022	-9.182	14.47298	19.01027	1.15752	0.86392	178.03538	173.78715	66.9679	0.32926	 	4.05374E11	 	1.08138E-11	 	4258.126	28.04863	 
620.0	1.0	0.0	7.79785	7.19837	-9.2053	14.44711	18.94554	1.155	0.8658	178.39236	173.99152	67.10931	0.32912	 	4.96328E11	 	8.78298E-12	 	4118.12939	27.99932	 
615.0	1.0	0.0	7.79985	7.19653	-9.22854	14.42124	18.8808	1.15248	0.8677	178.74869	174.19495	67.25052	0.32898	 	6.09077E11	 	7.11706E-12	 	3978.37903	27.95007	 
610.0	1.0	0.0	7.80184	7.1947	-9.2517	14.39538	18.81604	1.14993	0.86962	179.10438	174.39745	67.3915	0.32884	 	7.49174E11	 	5.75359E-12	 	3838.87409	27.90099	 
605.0	1.0	0.0	7.80383	7.19286	-9.2748	14.36952	18.75127	1.14737	0.87156	179.45941	174.59903	67.53227	0.32869	 	9.23669E11	 	4.64022E-12	 	3699.61372	27.85207	 
600.0	1.0	0.0	7.80581	7.19104	-9.29782	14.34366	18.68647	1.14479	0.87352	179.8138	174.79968	67.67282	0.32855	 	1.14154E12	 	3.73322E-12	 	3560.59706	27.80333	 
595.0	1.0	0.0	7.80778	7.18922	-9.32078	14.31781	18.62167	1.1422	0.8755	180.16753	174.99941	67.81316	0.32841	 	1.41425E12	 	2.99609E-12	 	3421.82328	27.75475	 
590.0	1.0	0.0	7.80976	7.1874	-9.34367	14.29196	18.55684	1.13959	0.87751	180.52062	175.19821	67.95328	0.32827	 	1.75646E12	 	2.39847E-12	 	3283.29155	27.70635	 
585.0	1.0	0.0	7.81172	7.1856	-9.36648	14.26611	18.492	1.13696	0.87954	180.87306	175.3961	68.09318	0.32813	 	2.187E12	 	1.91514E-12	 	3145.00101	27.65811	 
580.0	1.0	0.0	7.81368	7.18379	-9.38923	14.24027	18.42714	1.13431	0.88159	181.22485	175.59308	68.23287	0.32799	 	2.73007E12	 	1.52524E-12	 	3006.95086	27.61003	 
575.0	1.0	0.0	7.81564	7.18199	-9.41191	14.21444	18.36227	1.13165	0.88366	181.576	175.78914	68.37234	0.32785	 	3.41692E12	 	1.2115E-12	 	2869.14025	27.56212	 
570.0	1.0	0.0	7.81759	7.1802	-9.43452	14.18861	18.29737	1.12897	0.88576	181.92649	175.98429	68.5116	0.32771	 	4.28797E12	 	9.5971E-13	 	2731.56836	27.51438	 
565.0	1.0	0.0	7.81954	7.17841	-9.45707	14.16278	18.23246	1.12627	0.88789	182.27634	176.17854	68.65064	0.32756	 	5.39566E12	 	7.58165E-13	 	2594.23437	27.4668	 
560.0	1.0	0.0	7.82148	7.17663	-9.47954	14.13695	18.16753	1.12355	0.89003	182.62554	176.37188	68.78946	0.32742	 	6.80826E12	 	5.97274E-13	 	2457.13746	27.41938	 
555.0	1.0	0.0	7.82341	7.17486	-9.50194	14.11113	18.10258	1.12082	0.89221	182.97409	176.56431	68.92807	0.32728	 	8.61483E12	 	4.6919E-13	 	2320.27681	27.37213	 
550.0	1.0	0.0	7.82535	7.17309	-9.52428	14.08532	18.03762	1.11806	0.8944	183.32199	176.75585	69.06646	0.32714	 	1.0932E13	 	3.67508E-13	 	2183.65162	27.32504	 
545.0	1.0	0.0	7.82727	7.17132	-9.54654	14.05951	17.97263	1.11529	0.89663	183.66925	176.94649	69.20463	0.327	 	1.39129E13	 	2.87014E-13	 	2047.26107	27.27811	 
540.0	1.0	0.0	7.82919	7.16956	-9.56874	14.0337	17.90762	1.1125	0.89888	184.01586	177.13623	69.34259	0.32686	 	1.77591E13	 	2.23479E-13	 	1911.10435	27.23134	 
535.0	1.0	0.0	7.83111	7.16781	-9.59086	14.0079	17.84259	1.10969	0.90116	184.36182	177.32508	69.48033	0.32672	 	2.27372E13	 	1.73477E-13	 	1775.18068	27.18473	 
530.0	1.0	0.0	7.83302	7.16606	-9.61292	13.9821	17.77755	1.10686	0.90346	184.70713	177.51304	69.61785	0.32658	 	2.92005E13	 	1.34244E-13	 	1639.48926	27.13828	 
525.0	1.0	0.0	7.83493	7.16431	-9.63491	13.9563	17.71248	1.10401	0.90579	185.0518	177.70012	69.75516	0.32644	 	3.76187E13	 	1.03554E-13	 	1504.02929	27.09199	 
520.0	1.0	0.0	7.83683	7.16258	-9.65683	13.93051	17.64739	1.10114	0.90815	185.39582	177.8863	69.89225	0.3263	 	4.86189E13	 	7.96227E-14	 	1368.79999	27.04586	 
515.0	1.0	0.0	7.83872	7.16084	-9.67868	13.90472	17.58228	1.09825	0.91054	185.73919	178.07161	70.02912	0.32616	 	6.30405E13	 	6.10206E-14	 	1233.80057	26.99988	 
510.0	1.0	0.0	7.84061	7.15912	-9.70046	13.87894	17.51715	1.09534	0.91296	186.08191	178.25603	70.16577	0.32602	 	8.20114E13	 	4.66077E-14	 	1099.03025	26.95406	 
505.0	1.0	0.0	7.8425	7.1574	-9.72217	13.85316	17.45199	1.09241	0.91541	186.42399	178.43957	70.30221	0.32588	 	1.07053E14	 	3.54775E-14	 	964.48827	26.9084	 
500.0	1.0	0.0	7.84438	7.15568	-9.74382	13.82738	17.38681	1.08946	0.91789	186.76542	178.62224	70.43844	0.32574	 	1.4022199999999998E14	 	2.69112E-14	 	830.17385	26.86288	 
495.0	1.0	0.0	7.84626	7.15397	-9.76539	13.80161	17.32161	1.08649	0.9204	187.10621	178.80403	70.57444	0.32559	 	1.84316E14	 	2.03409E-14	 	696.08623	26.81752	 
490.0	1.0	0.0	7.84813	7.15226	-9.7869	13.77584	17.25639	1.08349	0.92294	187.44635	178.98496	70.71023	0.32545	 	2.43145E14	 	1.5319E-14	 	562.22466	26.77232	 
485.0	1.0	0.0	7.84999	7.15057	-9.80833	13.75008	17.19114	1.08048	0.92552	187.78584	179.16501	70.8458	0.32531	 	3.21925E14	 	1.14944E-14	 	428.58837	26.72726	 
480.0	1.0	0.0	7.85185	7.14887	-9.8297	13.72432	17.12587	1.07744	0.92812	188.12469	179.34419	70.98115	0.32517	 	4.2782E14	 	8.59225E-15	 	295.17662	26.68235	 
475.0	1.0	0.0	7.85371	7.14718	-9.851	13.69857	17.06057	1.07439	0.93076	188.46289	179.52251	71.11629	0.32503	 	5.70715E14	 	6.39817E-15	 	161.98868	26.63759	 
470.0	1.0	0.0	7.85556	7.1455	-9.87223	13.67282	16.99525	1.07131	0.93344	188.80044	179.69997	71.25121	0.32489	 	7.64296E14	 	4.74571E-15	 	29.02381	26.59298	 
465.0	1.0	0.0	7.8574	7.14382	-9.89339	13.64707	16.9299	1.06821	0.93615	189.13735	179.87657	71.38591	0.32475	 	1.0276E15	 	3.50598E-15	 	-103.71873	26.54851	 
460.0	1.0	0.0	7.85924	7.14215	-9.91449	13.62132	16.86453	1.06509	0.93889	189.47361	180.05231	71.52039	0.32461	 	1.38719E15	 	2.57955E-15	 	-236.23966	26.50418	 
455.0	1.0	0.0	7.86108	7.14048	-9.93551	13.59559	16.79913	1.06194	0.94167	189.80922	180.2272	71.65466	0.32447	 	1.88036E15	 	1.89003E-15	 	-368.53968	26.46	 
450.0	1.0	0.0	7.86291	7.13882	-9.95646	13.56985	16.7337	1.05877	0.94449	190.14419	180.40123	71.78871	0.32433	 	2.55959E15	 	1.37894E-15	 	-500.61952	26.41597	 
445.0	1.0	0.0	7.86473	7.13717	-9.97735	13.54412	16.66825	1.05558	0.94735	190.47852	180.57441	71.92254	0.32419	 	3.49918E15	 	1.0017E-15	 	-632.47986	26.37207	 
440.0	1.0	0.0	7.86655	7.13551	-9.99817	13.51839	16.60276	1.05237	0.95024	190.81219	180.74674	72.05616	0.32405	 	4.80469E15	 	7.24439E-16	 	-764.12142	26.32831	 
435.0	1.0	0.0	7.86836	7.13387	-10.01892	13.49267	16.53725	1.04913	0.95317	191.14523	180.91822	72.18955	0.32391	 	6.62689E15	 	5.21558E-16	 	-895.54488	26.28469	 
430.0	1.0	0.0	7.87017	7.13223	-10.0396	13.46695	16.47171	1.04586	0.95615	191.47761	181.08886	72.32273	0.32377	 	9.18205E15	 	3.73762E-16	 	-1026.7509	26.2412	 
425.0	1.0	0.0	7.87197	7.1306	-10.06021	13.44124	16.40614	1.04258	0.95916	191.80935	181.25866	72.45569	0.32363	 	1.2782E16	 	2.66586E-16	 	-1157.7401	26.19784	 
420.0	1.0	0.0	7.87377	7.12897	-10.08075	13.41553	16.34054	1.03927	0.96222	192.14045	181.42762	72.58844	0.32349	 	1.7878400000000002E16	 	1.89227E-16	 	-1288.51325	26.15463	 
415.0	1.0	0.0	7.87557	7.12734	-10.10122	13.38982	16.2749	1.03593	0.96532	192.4709	181.59574	72.72096	0.32335	 	2.51292E16	 	1.33657E-16	 	-1419.07071	26.11149	 
410.0	1.0	0.0	7.87735	7.12573	-10.12163	13.36412	16.20924	1.03257	0.96846	192.8007	181.76302	72.85327	0.32321	 	3.5497000000000004E16	 	9.39314E-17	 	-1549.41269	26.0684	 
405.0	1.0	0.0	7.87914	7.12411	-10.14196	13.33842	16.14354	1.02918	0.97164	193.12986	181.92947	72.98536	0.32307	 	5.03985E16	 	6.56742E-17	 	-1679.53941	26.02534	 
400.0	1.0	0.0	7.88091	7.12251	-10.16223	13.31272	16.07781	1.02577	0.97488	193.45838	182.09509	73.11723	0.32293	 	7.1929000000000008E16	 	4.56767E-17	 	-1809.45108	25.98233	 
395.0	1.0	0.0	7.88269	7.12091	-10.18243	13.28703	16.01205	1.02233	0.97815	193.78625	182.25988	73.24889	0.32279	 	1.03206E17	 	3.15979E-17	 	-1939.14788	25.93936	 
390.0	1.0	0.0	7.88445	7.11931	-10.20256	13.26135	15.94626	1.01887	0.98148	194.11347	182.42385	73.38032	0.32265	 	1.4889E17	 	2.17386E-17	 	-2068.63002	25.89643	 
385.0	1.0	0.0	7.88622	7.11772	-10.22262	13.23566	15.88042	1.01538	0.98485	194.44005	182.58698	73.51154	0.32251	 	2.15997E17	 	1.48718E-17	 	-2197.89764	25.85352	 
380.0	1.0	0.0	7.88797	7.11613	-10.24262	13.20999	15.81456	1.01186	0.98828	194.76599	182.7493	73.64254	0.32237	 	3.1514E17	 	1.01157E-17	 	-2326.95093	25.81066	 
375.0	1.0	0.0	7.88972	7.11455	-10.26254	13.18431	15.74865	1.00832	0.99175	195.09128	182.91079	73.77332	0.32223	 	4.62477E17	 	6.84025E-18	 	-2455.79003	25.76782	 
370.0	1.0	0.0	7.89147	7.11298	-10.2824	13.15864	15.68271	1.00475	0.99527	195.41593	183.07147	73.90389	0.3221	 	6.82759E17	 	4.59761E-18	 	-2584.41508	25.72501	 
365.0	1.0	0.0	7.89321	7.11141	-10.30219	13.13297	15.61673	1.00115	0.99885	195.73993	183.23133	74.03423	0.32196	 	1.01413E18	 	3.07124E-18	 	-2712.8262	25.68222	 
360.0	1.0	0.0	7.89495	7.10985	-10.3219	13.10731	15.55071	0.99752	1.00248	196.06328	183.39037	74.16436	0.32182	 	1.51578E18	 	2.03871E-18	 	-2841.02352	25.63946	 
355.0	1.0	0.0	7.89668	7.10829	-10.34156	13.08165	15.48466	0.99387	1.00617	196.386	183.54861	74.29427	0.32168	 	2.28012E18	 	1.3446E-18	 	-2969.00712	25.59672	 
350.0	1.0	0.0	7.8984	7.10674	-10.36114	13.056	15.41856	0.99018	1.00992	196.70806	183.70603	74.42396	0.32154	 	3.45242E18	 	8.8096E-19	 	-3096.77709	25.55399	 
345.0	1.0	0.0	7.90012	7.10519	-10.38065	13.03035	15.35242	0.98647	1.01372	197.02949	183.86264	74.55343	0.3214	 	5.26264E18	 	5.73293E-19	 	-3224.33351	25.51128	 
340.0	1.0	0.0	7.90184	7.10365	-10.4001	13.0047	15.28624	0.98273	1.01758	197.35027	184.01845	74.68268	0.32126	 	8.07738E18	 	3.70496E-19	 	-3351.67643	25.46858	 
335.0	1.0	0.0	7.90355	7.10211	-10.41947	12.97906	15.22001	0.97895	1.0215	197.6704	184.17346	74.81171	0.32112	 	1.24852E19	 	2.37739E-19	 	-3478.80589	25.42589	 
330.0	1.0	0.0	7.90525	7.10058	-10.43878	12.95342	15.15375	0.97515	1.02548	197.98989	184.32766	74.94053	0.32098	 	1.94383E19	 	1.51445E-19	 	-3605.72191	25.38321	 
325.0	1.0	0.0	7.90695	7.09906	-10.45802	12.92779	15.08743	0.97132	1.02953	198.30874	184.48106	75.06912	0.32084	 	3.04884E19	 	9.57553E-20	 	-3732.42451	25.34052	 
320.0	1.0	0.0	7.90864	7.09754	-10.47719	12.90216	15.02107	0.96745	1.03364	198.62694	184.63366	75.1975	0.3207	 	4.81843E19	 	6.00822E-20	 	-3858.91365	25.29783	 
315.0	1.0	0.0	7.91033	7.09602	-10.4963	12.87653	14.95467	0.96356	1.03782	198.9445	184.78547	75.32566	0.32056	 	7.67462E19	 	3.7404E-20	 	-3985.18933	25.25514	 
310.0	1.0	0.0	7.91201	7.09451	-10.51533	12.85091	14.88821	0.95963	1.04207	199.26142	184.93649	75.4536	0.32042	 	1.2321799999999998E20	 	2.3099E-20	 	-4111.25148	25.21243	 
305.0	1.0	0.0	7.91369	7.09301	-10.5343	12.82529	14.82171	0.95567	1.04639	199.57769	185.08671	75.58132	0.32028	 	1.99457E20	 	1.41475E-20	 	-4237.10005	25.16971	 
300.0	1.0	0.0	7.91536	7.09151	-10.5532	12.79968	14.75515	0.95168	1.05077	199.89332	185.23614	75.70882	0.32015	 	3.2559099999999997E20	 	8.59177E-21	 	-4362.73493	25.12697	 
295.0	1.0	0.0	7.91703	7.09002	-10.57203	12.77407	14.68854	0.94766	1.05524	200.2083	185.38479	75.8361	0.32001	 	5.3609499999999997E20	 	5.17259E-21	 	-4488.156	25.08422	 
290.0	1.0	0.0	7.91869	7.08853	-10.59079	12.74847	14.62188	0.9436	1.05977	200.52264	185.53265	75.96316	0.31987	 	8.905469999999999E20	 	3.08641E-21	 	-4613.36315	25.04143	 
285.0	1.0	0.0	7.92035	7.08705	-10.60948	12.72286	14.55517	0.93951	1.06439	200.83634	185.67972	76.09001	0.31973	 	1.49287E21	 	1.8248E-21	 	-4738.3562	24.99861	 
280.0	1.0	0.0	7.922	7.08557	-10.62811	12.69727	14.4884	0.93538	1.06908	201.14939	185.82601	76.21663	0.31959	 	2.52605E21	 	1.06878E-21	 	-4863.13497	24.95575	 
275.0	1.0	0.0	7.92364	7.0841	-10.64666	12.67167	14.42157	0.93122	1.07386	201.4618	185.97153	76.34304	0.31945	 	4.3154800000000003E21	 	6.1995E-22	 	-4987.69924	24.91285	 
270.0	1.0	0.0	7.92528	7.08263	-10.66515	12.64608	14.35468	0.92703	1.07872	201.77357	186.11626	76.46922	0.31931	 	7.44559E21	 	3.56047E-22	 	-5112.04879	24.86991	 
265.0	1.0	0.0	7.92692	7.08117	-10.68357	12.6205	14.28774	0.9228	1.08366	202.08469	186.26022	76.59519	0.31917	 	1.2976899999999998E22	 	2.02404E-22	 	-5236.18333	24.82691	 
260.0	1.0	0.0	7.92855	7.07972	-10.70193	12.59492	14.22073	0.91853	1.0887	202.39517	186.4034	76.72094	0.31903	 	2.2854299999999996E22	 	1.13859E-22	 	-5360.10257	24.78385	 
255.0	1.0	0.0	7.93017	7.07827	-10.72021	12.56934	14.15366	0.91423	1.09382	202.70501	186.54581	76.84646	0.3189	 	4.06834E22	 	6.33616E-23	 	-5483.80618	24.74072	 
250.0	1.0	0.0	7.93179	7.07683	-10.73843	12.54377	14.08653	0.90989	1.09904	203.0142	186.68746	76.97177	0.31876	 	7.3224399999999995E22	 	3.48704E-23	 	-5607.2938	24.69752	 
245.0	1.0	0.0	7.9334	7.07539	-10.75657	12.5182	14.01932	0.90551	1.10435	203.32275	186.82833	77.09686	0.31862	 	1.33297E23	 	1.89724E-23	 	-5730.56503	24.65424	 
240.0	1.0	0.0	7.93501	7.07395	-10.77465	12.49263	13.95205	0.9011	1.10976	203.63066	186.96844	77.22173	0.31848	 	2.4550099999999997E23	 	1.02018E-23	 	-5853.61942	24.61088	 
235.0	1.0	0.0	7.93661	7.07253	-10.79266	12.46707	13.88471	0.89665	1.11527	203.93792	187.10778	77.34637	0.31834	 	4.57622E23	 	5.41966E-24	 	-5976.45652	24.56742	 
230.0	1.0	0.0	7.93821	7.0711	-10.81061	12.44151	13.8173	0.89215	1.12088	204.24454	187.24636	77.4708	0.3182	 	8.636449999999999E23	 	2.84347E-24	 	-6099.07581	24.52386	 
225.0	1.0	0.0	7.9398	7.06969	-10.82848	12.41596	13.74982	0.88762	1.1266	204.55052	187.38417	77.59501	0.31806	 	1.65083E24	 	1.47281E-24	 	-6221.47673	24.48018	 
220.0	1.0	0.0	7.94138	7.06827	-10.84629	12.39041	13.68226	0.88305	1.13243	204.85586	187.52123	77.719	0.31793	 	3.1972200000000003E24	 	7.52824E-25	 	-6343.65868	24.43639	 
215.0	1.0	0.0	7.94296	7.06687	-10.86403	12.36487	13.61462	0.87844	1.13838	205.16055	187.65754	77.84277	0.31779	 	6.276600000000001E24	 	3.79591E-25	 	-6465.62102	24.39247	 
210.0	1.0	0.0	7.94454	7.06547	-10.8817	12.33932	13.5469	0.87379	1.14444	205.4646	187.79308	77.96631	0.31765	 	1.24951E25	 	1.88725E-25	 	-6587.36306	24.34841	 
205.0	1.0	0.0	7.94611	7.06407	-10.89931	12.31379	13.47909	0.8691	1.15062	205.76801	187.92788	78.08964	0.31751	 	2.5235300000000003E25	 	9.24788E-26	 	-6708.88404	24.3042	 
200.0	1.0	0.0	7.94767	7.06268	-10.91684	12.28825	13.4112	0.86436	1.15692	206.07077	188.06192	78.21275	0.31737	 	5.17285E25	 	4.46433E-26	 	-6830.18318	24.25983	 
195.0	1.0	0.0	7.94923	7.0613	-10.93431	12.26273	13.34323	0.85959	1.16335	206.3729	188.19521	78.33564	0.31724	 	1.07674E26	 	2.12209E-26	 	-6951.25961	24.21529	 
190.0	1.0	0.0	7.95078	7.05992	-10.95171	12.2372	13.27516	0.85477	1.16991	206.67438	188.32776	78.4583	0.3171	 	2.2770000000000002E26	 	9.92764E-27	 	-7072.11242	24.17056	 
185.0	1.0	0.0	7.95233	7.05854	-10.96904	12.21168	13.207	0.8499	1.1766	206.97521	188.45956	78.58075	0.31696	 	4.89458E26	 	4.56856E-27	 	-7192.74062	24.12564	 
180.0	1.0	0.0	7.95387	7.05717	-10.9863	12.18616	13.13875	0.84499	1.18344	207.27541	188.59061	78.70298	0.31682	 	1.07005E27	 	2.06693E-27	 	-7313.14318	24.08051	 
175.0	1.0	0.0	7.95541	7.05581	-11.0035	12.16065	13.0704	0.84004	1.19042	207.57496	188.72092	78.82498	0.31668	 	2.3805099999999998E27	 	9.18842E-28	 	-7433.31897	24.03516	 
170.0	1.0	0.0	7.95694	7.05445	-11.02062	12.13514	13.00194	0.83504	1.19754	207.87387	188.8505	78.94677	0.31654	 	5.39228E27	 	4.01111E-28	 	-7553.2668	23.98957	 
165.0	1.0	0.0	7.95847	7.0531	-11.03768	12.10964	12.93338	0.83	1.20482	208.17214	188.97933	79.06833	0.31641	 	1.2444600000000001E28	 	1.71842E-28	 	-7672.9854	23.94372	 
160.0	1.0	0.0	7.95999	7.05175	-11.05468	12.08414	12.86471	0.82491	1.21226	208.46977	189.10743	79.18967	0.31627	 	2.9280200000000003E28	 	7.22024E-29	 	-7792.47342	23.8976	 
155.0	1.0	0.0	7.9615	7.05041	-11.0716	12.05864	12.79593	0.81977	1.21986	208.76675	189.23479	79.3108	0.31613	 	7.028230000000001E28	 	2.97329E-29	 	-7911.72942	23.8512	 
150.0	1.0	0.0	7.96301	7.04907	-11.08846	12.03315	12.72704	0.81458	1.22763	209.0631	189.36142	79.4317	0.31599	 	1.7222800000000002E29	 	1.19916E-29	 	-8030.75186	23.80449	 
145.0	1.0	0.0	7.96452	7.04774	-11.10525	12.00766	12.65802	0.80934	1.23557	209.3588	189.48731	79.55238	0.31586	 	4.31194E29	 	4.73311E-30	 	-8149.5391	23.75745	 
140.0	1.0	0.0	7.96602	7.04642	-11.12197	11.98218	12.58888	0.80406	1.24369	209.65386	189.61248	79.67284	0.31572	 	1.10379E30	 	1.82687E-30	 	-8268.08943	23.71006	 
135.0	1.0	0.0	7.96751	7.0451	-11.13862	11.9567	12.51961	0.79872	1.252	209.94828	189.73692	79.79308	0.31558	 	2.89137E30	 	6.88973E-31	 	-8386.40096	23.66231	 
130.0	1.0	0.0	7.969	7.04378	-11.1552	11.93122	12.45021	0.79333	1.2605	210.24205	189.86063	79.9131	0.31544	 	7.75701E30	 	2.53664E-31	 	-8504.47175	23.61416	 
125.0	1.0	0.0	7.97048	7.04247	-11.17172	11.90575	12.38068	0.7879	1.2692	210.53519	189.98362	80.03289	0.3153	 	2.13329E31	 	9.10928E-32	 	-8622.2997	23.56559	 
120.0	1.0	0.0	7.97195	7.04117	-11.18817	11.88028	12.311	0.7824	1.27811	210.82768	190.10589	80.15247	0.31517	 	6.01976E31	 	3.18761E-32	 	-8739.88258	23.51658	 
115.0	1.0	0.0	7.97342	7.03987	-11.20455	11.85481	12.24117	0.77686	1.28723	211.11953	190.22743	80.27182	0.31503	 	1.74468E32	 	1.08585E-32	 	-8857.21801	23.46709	 
110.0	1.0	0.0	7.97489	7.03858	-11.22087	11.82935	12.1712	0.77126	1.29658	211.41074	190.34826	80.39096	0.31489	 	5.19894E32	 	3.597E-33	 	-8974.3035	23.4171	 
105.0	1.0	0.0	7.97635	7.03729	-11.23711	11.8039	12.10106	0.76561	1.30615	211.70131	190.46837	80.50987	0.31475	 	1.59461E33	 	1.15744E-33	 	-9091.13634	23.36657	 
100.0	1.0	0.0	7.9778	7.03601	-11.25329	11.77845	12.03076	0.7599	1.31596	211.99123	190.58776	80.62856	0.31462	 	5.04007E33	 	3.61355E-34	 	-9207.7137	23.31547	 
95.0	1.0	0.0	7.97925	7.03473	-11.2694	11.753	11.96029	0.75414	1.32602	212.28052	190.70644	80.74703	0.31448	 	1.64359E34	 	1.09324E-34	 	-9324.03251	23.26376	 
90.0	1.0	0.0	7.9807	7.03346	-11.28545	11.72755	11.88964	0.74831	1.33634	212.56917	190.82441	80.86528	0.31434	 	5.537190000000001E34	 	3.20098E-35	 	-9440.08956	23.21141	 
85.0	1.0	0.0	7.98213	7.03219	-11.30142	11.70211	11.81881	0.74243	1.34692	212.85717	190.94166	80.98331	0.3142	 	1.9298E35	 	9.05815E-36	 	-9555.8814	23.15837	 
80.0	1.0	0.0	7.98356	7.03093	-11.31733	11.67668	11.74778	0.73649	1.35778	213.14453	191.05821	81.10111	0.31407	 	6.967689999999999E35	 	2.47376E-36	 	-9671.40436	23.10459	 
75.0	1.0	0.0	7.98499	7.02967	-11.33317	11.65125	11.67656	0.7305	1.36893	213.43126	191.17405	81.21869	0.31393	 	2.6102399999999998E36	 	6.50987E-37	 	-9786.65454	23.05004	 
70.0	1.0	0.0	7.98641	7.02842	-11.34894	11.62582	11.60513	0.72444	1.38038	213.71734	191.28919	81.33606	0.31379	 	1.0162199999999999E37	 	1.64809E-37	 	-9901.62775	22.99464	 
65.0	1.0	0.0	7.98783	7.02718	-11.36465	11.6004	11.53348	0.71832	1.39215	214.00278	191.40362	81.4532	0.31365	 	4.1186299999999998E37	 	4.00722E-38	 	-10016.31955	22.93836	 
60.0	1.0	0.0	7.98924	7.02594	-11.38029	11.57498	11.4616	0.71213	1.40423	214.28758	191.51736	81.57012	0.31352	 	1.74085E38	 	9.34041E-39	 	-10130.7252	22.88113	 
55.0	1.0	0.0	7.99064	7.0247	-11.39586	11.54956	11.38949	0.70589	1.41666	214.57174	191.63039	81.68681	0.31338	 	7.68856E38	 	2.08312E-39	 	-10244.83963	22.82289	 
50.0	1.0	0.0	7.99204	7.02347	-11.41136	11.52415	11.31713	0.69957	1.42944	214.85526	191.74272	81.80329	0.31324	 	3.5554300000000004E39	 	4.43608E-40	 	-10358.65743	22.76356	 
45.0	1.0	0.0	7.99343	7.02225	-11.4268	11.49874	11.24452	0.6932	1.44259	215.13814	191.85436	81.91954	0.31311	 	1.72521E40	 	9.0007E-41	 	-10472.17279	22.70307	 
40.0	1.0	0.0	7.99482	7.02103	-11.44216	11.47334	11.17163	0.68676	1.45612	215.42038	191.9653	82.03557	0.31297	 	8.80435E40	 	1.73597E-41	 	-10585.37956	22.64135	 
35.0	1.0	0.0	7.9962	7.01982	-11.45746	11.44794	11.09846	0.68025	1.47006	215.70198	192.07555	82.15138	0.31283	 	4.73722E41	 	3.17486E-42	 	-10698.27107	22.5783	 
30.0	1.0	0.0	7.99758	7.01861	-11.4727	11.42254	11.025	0.67367	1.48441	215.98294	192.1851	82.26697	0.3127	 	2.6943699999999998E42	 	5.49144E-43	 	-10810.84024	22.51383	 
25.0	1.0	0.0	7.99895	7.01741	-11.48786	 	10.95122	0.66702	1.49921	216.26326	192.29397	82.38233	0.31256	 	1.6244700000000001E43	 	8.95795E-44	 	-10923.07948	 	 
