T (C)	Fraction solid (wt)-TOTAL	Fraction liquid (wt)-LIQUID	Density (g/(cm)^3)-TOTAL	Molar volume (cm^3)-TOTAL	Volume change (%)-  	Average expansion coeff. (10e-6 1/K)-  	Thermal conductivity (W/(m*K))-TOTAL	Electrical resistivity (10e-6 Ohm*m)-TOTAL	Electrical conductivity (10e6 1/(Ohm*m))-TOTAL	Young's modulus (GPa)-TOTAL	Bulk modulus (GPa)-TOTAL	Shear modulus(GPa)-TOTAL	Poisson's ratio-TOTAL	Liquid viscosity (mPa s)-  	Total viscosity (mPa s)-  	Liquid diffusivity (10e-9 (m^2)/s)-  	Total diffusivity (10e-9 (m^2)/s)-  	Surface Tension (mN/m)-  	Enthalpy (J/mole)-TOTAL	Specific heat (J/(mole K))-TOTAL	Latent heat (J/mole)-TOTAL
1400.0	0.0	1.0	7.3922	7.72122	0.0	29.33019	30.68957	1.3357	0.74867	0.0	127.68605	0.0	0.5	6.92114	6.92114	1.1799	1.1799	1779.15883	54738.848	 	0.0
1395.0	0.0	1.0	7.39626	7.71698	-0.0548086	29.28775	30.60643	1.33533	0.74888	0.0	127.83893	0.0	0.5	6.99535	6.99535	1.16389	1.16389	1781.55469	54533.444	41.0808	0.0
1390.0	0.0	1.0	7.4003	7.71276	-0.10946	29.24543	30.52329	1.33495	0.74909	0.0	127.99182	0.0	0.5	7.07081	7.07081	1.14802	1.14802	1783.95712	54328.524	40.984	0.0
1385.0	0.0	1.0	7.40434	7.70856	-0.16394	29.20325	30.44015	1.33458	0.7493	0.0	128.14471	0.0	0.5	7.14754	7.14754	1.13228	1.13228	1786.36581	54124.084	40.888	0.0
1380.0	0.0	1.0	7.40837	7.70436	-0.21827	29.16119	30.357	1.3342	0.74952	0.0	128.2976	0.0	0.5	7.22558	7.22558	1.11667	1.11667	1788.78047	53920.123	40.7922	0.0
1375.0	0.0	1.0	7.4124	7.70018	-0.27244	29.11927	30.27386	1.33381	0.74973	0.0	128.45049	0.0	0.5	7.30495	7.30495	1.1012	1.1012	1791.20076	53716.637	40.6972	0.0
1373.47	0.0	1.0	7.41363	7.6989	-0.28899	29.10647	30.24842	1.3337	0.7498	0.0	128.49729	0.0	0.5	7.32952	7.32952	1.09649	1.09649	1791.94262	53654.452	40.6345	0.0
1370.0	0.14356	0.85644	7.45361	7.65767	-0.82299	27.698	30.67898	1.31221	0.76207	0.0406955	128.79815	0.0137418	0.48072	7.41278	22.66151	1.08189	0.3539	1791.13431	51259.861	690.15347	2253.761
1365.0	0.30754	0.69246	7.49999	7.61028	-1.4367	26.08999	31.17496	1.2874	0.77676	0.88162	129.2099	0.30227	0.45835	7.53382	317.76274	1.06127	0.0251616	1790.03591	48505.238	550.9246	4805.841
1360.0	0.43084	0.56916	7.53563	7.57427	-1.90313	24.88219	31.54825	1.26829	0.78847	3.47212	129.61844	1.20453	0.44128	7.65651	1267.48079	1.04108	0.00628885	1789.02315	46406.159	419.8158	6702.844
1355.0	0.52574	0.47426	7.56371	7.54611	-2.26791	23.9509	31.83232	1.25312	0.79801	7.83823	130.02742	2.74453	0.42797	7.78093	2969.95164	1.02129	0.00267567	1788.09978	44764.055	328.4208	8143.338
1350.0	0.60021	0.39979	7.58631	7.52355	-2.56007	23.21737	32.0484	1.24085	0.8059	13.5165	130.43961	4.76804	0.41741	7.90724	5352.5901	1.00189	0.00148007	1787.26753	43448.613	263.0884	9257.63
1345.0	0.65961	0.34039	7.60485	7.50513	-2.79857	22.63016	32.21146	1.23076	0.8125	19.96998	130.85638	7.08713	0.40889	8.03554	8295.34738	0.98286	9.52074E-4	1786.52627	42371.88	215.3466	10133.673
1340.0	0.70769	0.29231	7.62033	7.48976	-2.99763	22.15058	32.33248	1.22237	0.81808	26.75723	131.2766	9.54302	0.40193	8.166	11687.60865	0.96417	6.73652E-4	1785.87524	41473.008	179.7744	10832.313
1335.0	0.74707	0.25293	7.63346	7.47678	-3.16571	21.75569	32.41993	1.21529	0.82285	33.5613	131.70094	12.0191	0.39617	8.29878	15444.60349	0.9458	5.08202E-4	1785.31187	40708.968	152.808	11396.573
1330.0	0.77971	0.22029	7.64476	7.4656	-3.31055	21.42431	32.48033	1.20926	0.82695	40.17813	132.12775	14.43862	0.39134	8.43395	19508.68721	0.92775	4.01082E-4	1784.83417	40048.739	132.0458	11857.476
1325.0	0.80701	0.19299	7.65462	7.45584	-3.43696	21.14336	32.51894	1.20406	0.83053	46.48831	132.55685	16.7554	0.38726	8.57156	23846.69753	0.91001	3.27097E-4	1784.43907	39469.557	115.8364	12237.78
1320.0	0.83006	0.16994	7.66333	7.44722	-3.54859	20.90291	32.53958	1.19953	0.83366	52.42728	132.98761	18.94347	0.38378	8.71188	28441.98173	0.89255	2.73391E-4	1784.12328	38954.454	103.0206	12554.451
1315.0	0.84968	0.15032	7.6711	7.43954	-3.64801	20.69594	32.54553	1.19555	0.83644	57.96839	133.42011	20.99105	0.38079	8.85495	33291.34786	0.87537	2.32834E-4	1783.88309	38490.604	92.77	12820.314
1310.0	0.8665	0.1335	7.67813	7.43259	-3.73814	20.51439	32.5393	1.19201	0.83892	63.11716	133.85288	22.89862	0.37819	9.00089	38405.14973	0.85847	2.01196E-4	1783.716	38068.178	84.4852	13045.193
1305.0	0.88102	0.11898	7.68453	7.42625	-3.82014	20.35514	32.52293	1.18884	0.84115	67.88279	134.28639	24.66825	0.37591	9.14975	43797.19742	0.84183	1.75869E-4	1783.61802	37679.562	77.7232	13236.703
1300.0	0.89363	0.10637	7.69041	7.42043	-3.89557	20.2139	32.49798	1.18599	0.84318	72.28824	134.7199	26.30742	0.37391	9.30175	49489.57866	0.82545	1.55147E-4	1783.58617	37318.787	72.155	13400.808
1295.0	0.90465	0.0953511	7.69587	7.41503	-3.96554	20.08764	32.4658	1.18339	0.84503	76.36018	135.15315	27.8252	0.37214	9.45698	55509.51029	0.80932	1.37882E-4	1783.61744	36981.129	67.5316	13542.231
1290.0	0.91432	0.0856791	7.70096	7.40998	-4.0309	19.97397	32.42752	1.18101	0.84673	80.1292	135.58595	29.23232	0.37056	9.61556	61890.58081	0.79344	1.23272E-4	1783.70867	36662.816	63.6626	13664.741
1285.0	0.92286	0.0771385	7.70574	7.40524	-4.09229	19.87118	32.384	1.17881	0.84831	83.61763	136.01818	30.53656	0.36914	9.77758	68664.93089	0.77779	1.10754E-4	1783.85698	36360.806	60.402	13771.377
1280.0	0.93043	0.0695652	7.71027	7.40075	-4.15043	19.77722	32.33595	1.17678	0.84978	86.8536	136.44942	31.74799	0.36786	9.94321	75872.83287	0.76238	9.99111E-5	1784.06018	36072.631	57.635	13864.605
1275.0	0.93718	0.0628201	7.71457	7.39649	-4.20564	19.6913	32.28401	1.17487	0.85115	89.86024	136.87981	32.87491	0.3667	10.11256	83556.64624	0.7472	9.04313E-5	1784.31511	35796.271	55.272	13946.444
1270.0	0.94321	0.0567878	7.71867	7.39242	-4.25838	19.61208	32.22868	1.17309	0.85245	92.66047	137.30897	33.92561	0.36564	10.28575	91762.90463	0.73225	8.20782E-5	1784.61976	35530.061	53.242	14018.555
1265.0	0.94863	0.0513745	7.72261	7.38851	-4.30891	19.5389	32.1704	1.17141	0.85367	95.27314	137.73702	34.90692	0.36467	10.46299	100541.6995	0.71751	7.46688E-5	1784.97141	35272.622	51.4878	14082.316
1260.0	0.9535	0.0464975	7.7264	7.38475	-4.35765	19.47054	32.10954	1.16981	0.85484	97.71789	138.16369	35.82602	0.36378	10.64433	109948.7606	0.703	6.80583E-5	1785.36893	35022.802	49.964	14138.875
1255.0	0.95791	0.0420898	7.73006	7.38113	-4.40462	19.40701	32.0464	1.1683	0.85595	100.01016	138.58906	36.68855	0.36296	10.82995	120043.4718	0.68869	6.21318E-5	1785.80901	34779.637	48.633	14189.196
1250.0	0.96191	0.0380924	7.73361	7.37761	-4.45019	19.34721	31.98125	1.16685	0.85701	102.16509	139.01291	37.50007	0.3622	11.02001	130890.6256	0.6746	5.67964E-5	1786.29111	34542.31	47.4654	14234.092
1245.0	0.96554	0.034458	7.73707	7.37419	-4.49442	19.29102	31.91431	1.16545	0.85803	104.19505	139.43531	38.26511	0.36149	11.21468	142560.255	0.66072	5.1976E-5	1786.81259	34310.132	46.4356	14274.25
1240.0	0.96886	0.0311435	7.74043	7.37086	-4.53753	19.23783	31.84576	1.16412	0.85902	106.1123	139.85602	38.9882	0.36083	11.41407	155129.3626	0.64704	4.76074E-5	1787.3728	34082.514	45.5236	14310.257
1235.0	0.97189	0.0281128	7.74371	7.36762	-4.57956	19.18754	31.77582	1.16282	0.85998	107.92755	140.27526	39.6733	0.3602	11.61832	168682.7703	0.63356	4.36376E-5	1787.96911	33858.953	44.7122	14342.614
1230.0	0.97467	0.0253342	7.74693	7.36444	-4.6207	19.13958	31.70459	1.16157	0.8609	109.64943	140.69285	40.32359	0.35962	11.82772	183310.0454	0.62028	4.00224E-5	1788.60145	33639.017	43.9872	14371.751
1225.0	0.97722	0.0227812	7.75008	7.36133	-4.66097	19.09395	31.63221	1.16036	0.8618	111.28682	141.10873	40.94236	0.35907	12.04234	199112.2315	0.6072	3.67235E-5	1789.26773	33422.332	43.337	14398.039
1220.0	0.97957	0.0204293	7.75317	7.35828	-4.70047	19.05033	31.5588	1.15918	0.86268	112.84693	141.52305	41.53229	0.35854	12.26242	216197.8698	0.59431	3.37084E-5	1789.96648	33208.575	42.7514	14421.799
1215.0	0.98174	0.0182585	7.75621	7.35529	-4.73928	19.0085	31.48446	1.15802	0.86354	114.33715	141.93558	42.09612	0.35805	12.4881	234687.5316	0.58162	3.09488E-5	1790.69742	32997.466	42.2218	14443.31
1210.0	0.98375	0.0162507	7.75921	7.35234	-4.77745	18.96835	31.40924	1.15689	0.86438	115.76239	142.34637	42.63568	0.35758	12.7196	254709.9642	0.56911	2.84201E-5	1791.45945	32788.758	41.7416	14462.815
1205.0	0.98561	0.0143908	7.76216	7.34944	-4.81499	18.92983	31.33325	1.15579	0.86521	117.12853	142.75539	43.15314	0.35713	12.95715	276409.8003	0.5568	2.61007E-5	1792.25089	32582.239	41.3038	14480.527
1204.29	0.98586	0.0141394	7.76258	7.34903	-4.82034	18.92433	31.32234	1.15563	0.86533	117.31781	142.81368	43.22486	0.35706	12.99148	279649.0887	0.55506	2.57859E-5	1792.36676	32552.971	 	14482.881
1200.0	0.98829	0.0117098	7.76524	7.34629	-4.85582	18.88056	31.25535	1.15475	0.86599	118.50985	143.17701	43.6803	0.35656	13.30541	301102.4688	0.54039	2.38792E-5	1793.76369	32357.693	44.9092	14516.656
1199.46	0.98857	0.011428	7.76557	7.34595	-4.86016	18.87533	31.24693	1.15464	0.86607	118.65216	143.22209	43.73468	0.3565	13.34531	303873.2609	0.53858	2.36528E-5	1793.94148	32333.667	 	14520.543
1197.43	0.98998	0.010022	7.7668	7.34457	-4.87806	18.8511	31.21675	1.15416	0.86643	119.36795	143.39942	44.00772	0.35622	13.51752	315133.056	0.53098	2.27762E-5	1794.84726	32237.248	 	14540.269
1197.43	0.98998	0.010022	7.7668	7.34457	-4.87806	18.8511	31.21675	1.15416	0.86643	119.36795	143.39942	44.00772	0.35622	13.51752	315133.056	0.53098	2.27762E-5	1794.84726	32237.248	 	14540.269
1195.0	0.99238	0.00761718	7.76857	7.34259	-4.90375	18.80818	31.17949	1.15363	0.86683	120.51581	143.62008	44.44569	0.35576	13.73318	330072.5327	0.52178	2.17094E-5	1796.01713	32107.697	49.9992	14578.626
1190.0	0.99664	0.0033608	7.77201	7.33869	-4.95419	18.72709	31.1021	1.15256	0.86763	123.4434	144.06233	45.55313	0.35494	14.18682	362226.1752	0.50337	1.9715E-5	1798.36673	31852.589	51.0216	14646.095
1185.0	1.0	0.0	7.77519	7.33504	-5.00148	18.65548	31.02371	1.15153	0.86841	126.36037	144.49059	46.6534	0.35425	 	396267.2031	 	1.79598E-5	 	31612.837	47.9504	14698.595
1180.0	1.0	0.0	7.77773	7.33262	-5.03288	18.63467	30.9376	1.15077	0.86898	126.85133	144.88037	46.84064	0.35407	 	427882.6702	 	1.65757E-5	 	31416.10875	39.34565	 
1175.0	1.0	0.0	7.78027	7.33022	-5.06386	18.61502	30.85156	1.15001	0.86956	127.34198	145.27005	47.02777	0.3539	 	462269.8824	 	1.52899E-5	 	31234.63061	36.29563	 
1170.0	1.0	0.0	7.7828	7.32784	-5.09478	18.5954	30.76551	1.14925	0.87013	127.83178	145.65791	47.21463	0.35373	 	499688.2344	 	1.40961E-5	 	31053.43973	36.23818	 
1165.0	1.0	0.0	7.78534	7.32545	-5.12564	18.57581	30.67947	1.14848	0.87072	128.32071	146.04394	47.40122	0.35356	 	540427.8064	 	1.29883E-5	 	30872.53567	36.18081	 
1160.0	1.0	0.0	7.78786	7.32308	-5.15644	18.55623	30.59342	1.1477	0.87131	128.80879	146.42815	47.58753	0.35339	 	584808.61	 	1.19609E-5	 	30691.91791	36.12355	 
1155.0	1.0	0.0	7.79039	7.3207	-5.18719	18.53669	30.50737	1.14693	0.8719	129.29601	146.81056	47.77358	0.35322	 	633183.8553	 	1.10086E-5	 	30511.586	36.06638	 
1150.0	1.0	0.0	7.79291	7.31833	-5.21787	18.51716	30.42131	1.14614	0.87249	129.78236	147.19117	47.95935	0.35305	 	685943.6508	 	1.01263E-5	 	30331.53943	36.00931	 
1145.0	1.0	0.0	7.79543	7.31597	-5.24849	18.49767	30.33526	1.14536	0.87309	130.26786	147.56999	48.14484	0.35287	 	743519.1114	 	9.30929E-6	 	30151.77773	35.95234	 
1140.0	1.0	0.0	7.79795	7.31361	-5.27905	18.4782	30.2492	1.14456	0.87369	130.7525	147.94701	48.33007	0.3527	 	806387.0254	 	8.55326E-6	 	29972.30042	35.89546	 
1135.0	1.0	0.0	7.80046	7.31125	-5.30955	18.45875	30.16314	1.14377	0.8743	131.23628	148.32226	48.51502	0.35253	 	875074.9557	 	7.85399E-6	 	29793.10702	35.83868	 
1130.0	1.0	0.0	7.80297	7.3089	-5.33999	18.43933	30.07708	1.14297	0.87491	131.7192	148.69573	48.6997	0.35236	 	950167.131	 	7.2076E-6	 	29614.19704	35.782	 
1125.0	1.0	0.0	7.80547	7.30656	-5.37038	18.41994	29.99101	1.14216	0.87553	132.20126	149.06744	48.8841	0.35219	 	1032310.796	 	6.61043E-6	 	29435.57001	35.72541	 
1120.0	1.0	0.0	7.80797	7.30422	-5.4007	18.40058	29.90495	1.14136	0.87615	132.68246	149.43738	49.06823	0.35202	 	1122223.681	 	6.05906E-6	 	29257.22542	35.66892	 
1115.0	1.0	0.0	7.81047	7.30188	-5.43096	18.38125	29.81888	1.14054	0.87678	133.16281	149.80557	49.25209	0.35185	 	1220701.992	 	5.55026E-6	 	29079.16282	35.61252	 
1110.0	1.0	0.0	7.81297	7.29955	-5.46116	18.36194	29.73281	1.13972	0.87741	133.64229	150.17201	49.43567	0.35168	 	1328629.793	 	5.08103E-6	 	28901.38172	35.55622	 
1105.0	1.0	0.0	7.81546	7.29722	-5.4913	18.34267	29.64673	1.1389	0.87804	134.12092	150.53671	49.61898	0.35151	 	1446989.246	 	4.64855E-6	 	28723.88162	35.50002	 
1100.0	1.0	0.0	7.81795	7.2949	-5.52138	18.32342	29.56066	1.13807	0.87868	134.59868	150.89968	49.80202	0.35134	 	1576872.286	 	4.25019E-6	 	28546.66204	35.44391	 
1095.0	1.0	0.0	7.82043	7.29258	-5.55141	18.30421	29.47458	1.13724	0.87932	135.07559	151.26092	49.98478	0.35117	 	1719493.686	 	3.88347E-6	 	28369.72252	35.38791	 
1090.0	1.0	0.0	7.82291	7.29027	-5.58137	18.28502	29.3885	1.1364	0.87997	135.55164	151.62044	50.16727	0.351	 	1876206.011	 	3.54609E-6	 	28193.06255	35.33199	 
1085.0	1.0	0.0	7.82539	7.28796	-5.61127	18.26587	29.30241	1.13556	0.88062	136.02683	151.97824	50.34948	0.35083	 	2048516.04	 	3.2359E-6	 	28016.68165	35.27618	 
1080.0	1.0	0.0	7.82787	7.28565	-5.64111	18.24675	29.21632	1.13471	0.88128	136.50116	152.33433	50.53142	0.35066	 	2238103.693	 	2.95089E-6	 	27840.57935	35.22046	 
1075.0	1.0	0.0	7.83034	7.28335	-5.67089	18.22767	29.13023	1.13386	0.88194	136.97463	152.68872	50.71309	0.35049	 	2446843.47	 	2.68917E-6	 	27664.75514	35.16484	 
1070.0	1.0	0.0	7.83281	7.28106	-5.70061	18.20861	29.04414	1.13301	0.88261	137.44724	153.04142	50.89448	0.35032	 	2676828.098	 	2.44901E-6	 	27489.20856	35.10932	 
1065.0	1.0	0.0	7.83527	7.27877	-5.73026	18.18959	28.95804	1.13214	0.88328	137.91899	153.39242	51.07559	0.35015	 	2930396.123	 	2.22877E-6	 	27313.93911	35.05389	 
1060.0	1.0	0.0	7.83773	7.27648	-5.75986	18.17061	28.87194	1.13128	0.88396	138.38988	153.74174	51.25643	0.34998	 	3210162.56	 	2.02693E-6	 	27138.94631	34.99856	 
1055.0	1.0	0.0	7.84019	7.2742	-5.7894	18.15166	28.78583	1.13041	0.88464	138.85992	154.08938	51.437	0.34981	 	3519053.527	 	1.84208E-6	 	26964.22966	34.94333	 
1050.0	1.0	0.0	7.84264	7.27193	-5.81888	18.13274	28.69972	1.12953	0.88532	139.32909	154.43535	51.61728	0.34964	 	3860346.291	 	1.6729E-6	 	26789.78868	34.8882	 
1045.0	1.0	0.0	7.84509	7.26966	-5.84829	18.11387	28.61361	1.12865	0.88602	139.79741	154.77966	51.7973	0.34947	 	4237714.003	 	1.51817E-6	 	26615.62289	34.83316	 
1040.0	1.0	0.0	7.84754	7.26739	-5.87765	18.09503	28.5275	1.12776	0.88671	140.26487	155.1223	51.97704	0.3493	 	4655276.391	 	1.37675E-6	 	26441.73178	34.77822	 
1035.0	1.0	0.0	7.84998	7.26513	-5.90694	18.07622	28.44138	1.12687	0.88742	140.73146	155.4633	52.1565	0.34913	 	5117658.412	 	1.24759E-6	 	26268.11489	34.72338	 
1030.0	1.0	0.0	7.85242	7.26287	-5.93618	18.05746	28.35525	1.12597	0.88812	141.1972	155.80264	52.33569	0.34896	 	5630055.892	 	1.12971E-6	 	26094.77171	34.66864	 
1025.0	1.0	0.0	7.85486	7.26062	-5.96535	18.03874	28.26913	1.12507	0.88884	141.66208	156.14035	52.5146	0.34879	 	6198310.846	 	1.02221E-6	 	25921.70174	34.61399	 
1020.0	1.0	0.0	7.85729	7.25837	-5.99447	18.02005	28.18299	1.12416	0.88955	142.1261	156.47641	52.69323	0.34862	 	6828997.396	 	9.24227E-7	 	25748.90451	34.55945	 
1015.0	1.0	0.0	7.85972	7.25613	-6.02352	18.00141	28.09686	1.12325	0.89028	142.58927	156.81085	52.87159	0.34845	 	7529518.912	 	8.34999E-7	 	25576.37952	34.505	 
1010.0	1.0	0.0	7.86215	7.25389	-6.05251	17.98281	28.01072	1.12233	0.89101	143.05157	157.14367	53.04967	0.34828	 	8308220.739	 	7.538E-7	 	25404.12627	34.45065	 
1009.23	1.0	0.0	7.86252	7.25355	-6.05694	17.97997	27.99753	1.12219	0.89112	143.12226	157.19448	53.07691	0.34825	 	8434885.894	 	7.42037E-7	 	25377.78178	 	 
1005.0	1.0	0.0	7.86456	7.25166	-6.08131	17.96473	27.92459	1.1214	0.89174	143.51353	157.47573	53.22766	0.34811	 	9174834.928	 	6.79939E-7	 	25231.89027	34.4472	 
1001.39	1.0	0.0	7.8663	7.25006	-6.10208	17.95173	27.86235	1.12073	0.89228	143.84686	157.71474	53.35612	0.34799	 	9861599.367	 	6.308E-7	 	25107.58033	 	 
1000.0	1.0	0.0	7.86732	7.24912	-6.1143	17.93043	27.82195	1.12114	0.89195	144.05313	157.85027	53.43609	0.3479	 	1.016960883E7	 	6.11029E-7	 	25037.24727	38.9286	 
995.0	1.0	0.0	7.87099	7.24574	-6.15803	17.85442	27.67845	1.12252	0.89085	144.7899	158.33387	53.72179	0.34759	 	1.136745581E7	 	5.44495E-7	 	24785.34948	50.37956	 
990.0	1.0	0.0	7.87461	7.2424	-6.20124	17.7796	27.5377	1.12381	0.88983	145.51624	158.80985	54.00352	0.34728	 	1.271593037E7	 	4.84834E-7	 	24535.99882	49.87013	 
985.0	1.0	0.0	7.8782	7.23911	-6.24396	17.70591	27.39964	1.125	0.88889	146.23252	159.27849	54.28144	0.34698	 	1.423517809E7	 	4.31376E-7	 	24289.12488	49.37479	 
980.0	1.0	0.0	7.88175	7.23584	-6.2862	17.63334	27.26416	1.1261	0.88802	146.93911	159.74008	54.55568	0.34669	 	1.594820246E7	 	3.83511E-7	 	24044.65965	48.89305	 
975.0	1.0	0.0	7.88527	7.23262	-6.32798	17.56184	27.13114	1.12711	0.88723	147.63636	160.19486	54.82637	0.3464	 	1.788129264E7	 	3.40686E-7	 	23802.53753	48.42442	 
970.0	1.0	0.0	7.88875	7.22943	-6.36929	17.49139	27.00049	1.12802	0.88651	148.3246	160.64308	55.09364	0.34611	 	2.00645212E7	 	3.024E-7	 	23562.69511	47.96848	 
965.0	1.0	0.0	7.89219	7.22627	-6.41017	17.42194	26.8721	1.12885	0.88585	149.00415	161.08498	55.3576	0.34583	 	2.253232042E7	 	2.68197E-7	 	23325.07113	47.5248	 
960.0	1.0	0.0	7.8956	7.22315	-6.45062	17.35347	26.74587	1.1296	0.88527	149.67531	161.52076	55.61838	0.34556	 	2.532414978E7	 	2.37666E-7	 	23089.60636	47.09295	 
955.0	1.0	0.0	7.89898	7.22006	-6.49064	17.28595	26.62173	1.13027	0.88475	150.33838	161.95063	55.87608	0.34528	 	2.848527161E7	 	2.10435E-7	 	22856.24346	46.67258	 
950.0	1.0	0.0	7.90233	7.217	-6.53026	17.21935	26.49957	1.13086	0.88429	150.99361	162.37479	56.13081	0.34502	 	3.206765796E7	 	1.86165E-7	 	22624.92701	46.26329	 
945.0	1.0	0.0	7.90565	7.21397	-6.56948	17.15364	26.37931	1.13137	0.88389	151.64129	162.79343	56.38267	0.34475	 	3.613103848E7	 	1.64553E-7	 	22395.60332	45.86474	 
940.0	1.0	0.0	7.90894	7.21097	-6.60831	17.08879	26.26088	1.1318	0.88355	152.28167	163.20672	56.63176	0.34449	 	4.07441288E7	 	1.45324E-7	 	22168.22041	45.47658	 
935.0	1.0	0.0	7.91219	7.208	-6.64677	17.02478	26.1442	1.13217	0.88326	152.91499	163.61482	56.87817	0.34423	 	4.598605973E7	 	1.28228E-7	 	21942.72795	45.09849	 
930.0	1.0	0.0	7.91542	7.20506	-6.68485	16.96158	26.02918	1.13247	0.88303	153.54147	164.0179	57.12198	0.34398	 	5.194804485E7	 	1.13041E-7	 	21719.07717	44.73016	 
925.0	1.0	0.0	7.91862	7.20215	-6.72258	16.89917	25.91577	1.1327	0.88285	154.16136	164.4161	57.36328	0.34373	 	5.873533942E7	 	9.95631E-8	 	21497.22084	44.37127	 
920.0	1.0	0.0	7.9218	7.19926	-6.75996	16.83752	25.8039	1.13286	0.88272	154.77485	164.80958	57.60217	0.34348	 	6.64695204E7	 	8.76111E-8	 	21277.11317	44.02153	 
915.0	1.0	0.0	7.92495	7.1964	-6.797	16.77661	25.6935	1.13296	0.88264	155.38216	165.19847	57.8387	0.34324	 	7.52911666E7	 	7.70219E-8	 	21058.70979	43.68068	 
910.0	1.0	0.0	7.92807	7.19357	-6.83371	16.71642	25.58451	1.133	0.88261	155.98347	165.5829	58.07297	0.343	 	8.536300402E7	 	6.76483E-8	 	20841.96768	43.34842	 
905.0	1.0	0.0	7.93117	7.19076	-6.87009	16.65692	25.47686	1.13298	0.88263	156.579	165.963	58.30503	0.34276	 	9.687358897E7	 	5.93584E-8	 	20626.84515	43.02451	 
900.0	1.0	0.0	7.93424	7.18798	-6.90615	16.59809	25.37051	1.1329	0.88269	157.1689	166.33888	58.53497	0.34252	 	1.100416579E8	 	5.20335E-8	 	20413.30176	42.70868	 
895.0	1.0	0.0	7.93729	7.18522	-6.94191	16.53991	25.26541	1.13276	0.8828	157.75336	166.71067	58.76285	0.34229	 	1.25121225E8	 	4.55674E-8	 	20201.2983	42.40069	 
890.0	1.0	0.0	7.94031	7.18248	-6.97736	16.48236	25.16148	1.13257	0.88295	158.33254	167.07846	58.98872	0.34206	 	1.424076191E8	 	3.98648E-8	 	19990.79676	42.10031	 
885.0	1.0	0.0	7.94331	7.17976	-7.01252	16.42542	25.0587	1.13233	0.88314	158.90661	167.44238	59.21267	0.34183	 	1.622445744E8	 	3.48403E-8	 	19781.76025	41.8073	 
880.0	1.0	0.0	7.94629	7.17707	-7.04739	16.36907	24.95701	1.13203	0.88337	159.47572	167.8025	59.43473	0.3416	 	1.850326116E8	 	3.04175E-8	 	19574.15302	41.52145	 
875.0	1.0	0.0	7.94925	7.1744	-7.08199	16.3133	24.85636	1.13169	0.88363	160.04001	168.15895	59.65498	0.34138	 	2.112390265E8	 	2.65284E-8	 	19367.93988	41.24263	 
870.0	1.0	0.0	7.95219	7.17175	-7.1163	16.25807	24.75672	1.1313	0.88394	160.59963	168.51179	59.87346	0.34116	 	2.414095786E8	 	2.31119E-8	 	19163.08778	40.97042	 
865.0	1.0	0.0	7.95511	7.16912	-7.15035	16.20339	24.65804	1.13086	0.88429	161.15472	168.86113	60.09022	0.34094	 	2.761824823E8	 	2.01136E-8	 	18959.56408	40.70474	 
860.0	1.0	0.0	7.958	7.16651	-7.18414	16.14922	24.56028	1.13037	0.88467	161.70539	169.20704	60.30532	0.34072	 	3.16304962E8	 	1.74851E-8	 	18757.33712	40.44539	 
855.0	1.0	0.0	7.96088	7.16392	-7.21767	16.09555	24.4634	1.12984	0.88508	162.25179	169.5496	60.51881	0.34051	 	3.626529313E8	 	1.51832E-8	 	18556.37618	40.19219	 
850.0	1.0	0.0	7.96373	7.16135	-7.25095	16.04237	24.36737	1.12926	0.88553	162.79403	169.8889	60.73073	0.34029	 	4.162544843E8	 	1.31694E-8	 	18356.65143	39.94495	 
845.0	1.0	0.0	7.96603	7.15929	-7.27772	16.01821	24.28766	1.12793	0.88658	163.21859	170.16574	60.8962	0.34014	 	4.744588685E8	 	1.15024E-8	 	18196.34806	32.06067	 
840.0	1.0	0.0	7.96833	7.15723	-7.30442	15.99403	24.20795	1.12658	0.88764	163.64235	170.44123	61.06141	0.33998	 	5.414381239E8	 	1.00344E-8	 	18033.02466	32.66468	 
835.0	1.0	0.0	7.97062	7.15517	-7.33107	15.96985	24.12823	1.12522	0.88871	164.06529	170.71539	61.22636	0.33983	 	6.186095598E8	 	8.74316E-9	 	17869.9547	32.61399	 
830.0	1.0	0.0	7.97291	7.15312	-7.35765	15.94567	24.0485	1.12386	0.88979	164.48744	170.98821	61.39104	0.33967	 	7.076344878E8	 	7.60873E-9	 	17707.13759	32.56342	 
825.0	1.0	0.0	7.97519	7.15107	-7.38416	15.92147	23.96877	1.12249	0.89088	164.90878	171.2597	61.55545	0.33951	 	8.104628053E8	 	6.61326E-9	 	17544.57276	32.51297	 
820.0	1.0	0.0	7.97747	7.14903	-7.41062	15.89727	23.88902	1.12111	0.89197	165.32931	171.52987	61.71961	0.33936	 	9.293861933E8	 	5.74077E-9	 	17382.25962	32.46263	 
815.0	1.0	0.0	7.97974	7.14699	-7.43701	15.87307	23.80927	1.11972	0.89308	165.74904	171.79872	61.8835	0.3392	 	1.067101684E9	 	4.97702E-9	 	17220.19756	32.41241	 
810.0	1.0	0.0	7.98201	7.14496	-7.46333	15.84885	23.72952	1.11832	0.8942	166.16796	172.06625	62.04712	0.33905	 	1.226787726E9	 	4.30929E-9	 	17058.38598	32.36232	 
805.0	1.0	0.0	7.98428	7.14293	-7.4896	15.82463	23.64975	1.11691	0.89533	166.58608	172.33246	62.21048	0.33889	 	1.412195346E9	 	3.72624E-9	 	16896.82427	32.31234	 
800.0	1.0	0.0	7.98654	7.1409	-7.5158	15.8004	23.56998	1.11549	0.89646	167.00339	172.59737	62.37358	0.33874	 	1.627757547E9	 	3.21779E-9	 	16735.51179	32.2625	 
795.0	1.0	0.0	7.9888	7.13889	-7.54193	15.77617	23.4902	1.11407	0.89761	167.4199	172.86098	62.53641	0.33858	 	1.878720812E9	 	2.77496E-9	 	16574.44792	32.21277	 
790.0	1.0	0.0	7.99105	7.13687	-7.56801	15.75193	23.41041	1.11263	0.89877	167.83561	173.12328	62.69898	0.33842	 	2.171303393E9	 	2.3898E-9	 	16413.63201	32.16318	 
785.0	1.0	0.0	7.9933	7.13486	-7.59402	15.72768	23.33061	1.11119	0.89994	168.25051	173.38429	62.86128	0.33827	 	2.512886163E9	 	2.05523E-9	 	16253.06339	32.11372	 
780.0	1.0	0.0	7.99555	7.13286	-7.61996	15.70342	23.2508	1.10973	0.90112	168.66461	173.644	63.02332	0.33811	 	2.91224306E9	 	1.76502E-9	 	16092.74141	32.0644	 
775.0	1.0	0.0	7.99779	7.13086	-7.64584	15.67916	23.17099	1.10827	0.90231	169.0779	173.90243	63.1851	0.33796	 	3.379819798E9	 	1.51362E-9	 	15932.66538	32.01521	 
770.0	1.0	0.0	8.00002	7.12887	-7.67166	15.65489	23.09116	1.10679	0.90351	169.49039	174.15957	63.34661	0.3378	 	3.928071482E9	 	1.29615E-9	 	15772.8346	31.96616	 
765.0	1.0	0.0	8.00226	7.12688	-7.69742	15.63062	23.01133	1.10531	0.90472	169.90208	174.41544	63.50785	0.33765	 	4.571872246E9	 	1.10829E-9	 	15613.24836	31.91725	 
760.0	1.0	0.0	8.00448	7.1249	-7.72311	15.60634	22.93149	1.10382	0.90595	170.31296	174.67002	63.66884	0.33749	 	5.329013095E9	 	9.46244E-10	 	15453.90594	31.86848	 
755.0	1.0	0.0	8.00671	7.12292	-7.74874	15.58205	22.85164	1.10231	0.90718	170.72304	174.92333	63.82955	0.33734	 	6.220807952E9	 	8.06671E-10	 	15294.80659	31.81987	 
750.0	1.0	0.0	8.00893	7.12094	-7.7743	15.55775	22.77177	1.1008	0.90843	171.13231	175.17538	63.99001	0.33718	 	7.272832676E9	 	6.86629E-10	 	15135.94954	31.77141	 
745.0	1.0	0.0	8.01114	7.11898	-7.7998	15.53345	22.6919	1.09928	0.90969	171.54078	175.42616	64.15019	0.33702	 	8.515827771E9	 	5.83541E-10	 	14977.33402	31.7231	 
740.0	1.0	0.0	8.01335	7.11701	-7.82524	15.50914	22.61202	1.09774	0.91096	171.94845	175.67568	64.31012	0.33687	 	9.986802969E9	 	4.95147E-10	 	14818.95923	31.67496	 
735.0	1.0	0.0	8.01556	7.11505	-7.85061	15.48482	22.53213	1.0962	0.91224	172.35532	175.92394	64.46977	0.33671	 	1.1730399999999998E10	 	4.19469E-10	 	14660.82433	31.62698	 
730.0	1.0	0.0	8.01776	7.1131	-7.87592	15.4605	22.45223	1.09464	0.91354	172.76138	176.17095	64.62917	0.33656	 	1.3800499999999998E10	 	3.54779E-10	 	14502.9285	31.57917	 
725.0	1.0	0.0	8.01996	7.11115	-7.90117	15.43617	22.37232	1.09308	0.91485	173.16664	176.41671	64.78829	0.3364	 	1.6262399999999998E10	 	2.99569E-10	 	14345.27083	31.53153	 
720.0	1.0	0.0	8.02215	7.1092	-7.92635	15.41183	22.2924	1.0915	0.91617	173.5711	176.66122	64.94716	0.33625	 	1.91952E10	 	2.52528E-10	 	14187.85046	31.48407	 
715.0	1.0	0.0	8.02434	7.10727	-7.95147	15.38749	22.21247	1.08991	0.9175	173.97108	176.90076	65.10438	0.33609	 	2.26949E10	 	2.12511E-10	 	14030.66643	31.43681	 
710.0	1.0	0.0	8.02653	7.10533	-7.97652	15.36314	22.13252	1.08832	0.91885	174.37393	177.1428	65.26271	0.33594	 	2.6878499999999996E10	 	1.78526E-10	 	13873.7178	31.38973	 
705.0	1.0	0.0	8.02871	7.1034	-8.00151	15.33878	22.05257	1.08671	0.92021	174.77598	177.38361	65.42078	0.33578	 	3.1888399999999996E10	 	1.49713E-10	 	13717.00358	31.34284	 
700.0	1.0	0.0	8.03088	7.10148	-8.02644	15.31441	21.9726	1.08509	0.92159	175.17723	177.62319	65.57858	0.33563	 	3.78985E10	 	1.25327E-10	 	13560.52273	31.29617	 
695.0	1.0	0.0	8.03305	7.09956	-8.0513	15.29004	21.89263	1.08346	0.92297	175.57768	177.86154	65.73612	0.33547	 	4.51219E10	 	1.04723E-10	 	13404.2742	31.24971	 
690.0	1.0	0.0	8.03522	7.09764	-8.0761	15.26566	21.81264	1.08181	0.92437	175.97732	178.09866	65.89339	0.33532	 	5.381939999999999E10	 	8.73458E-11	 	13248.25688	31.20347	 
685.0	1.0	0.0	8.03738	7.09573	-8.10083	15.24128	21.73264	1.08016	0.92579	176.37617	178.33457	66.05039	0.33516	 	6.431149999999999E10	 	7.27162E-11	 	13092.46961	31.15745	 
680.0	1.0	0.0	8.03954	7.09383	-8.12551	15.21689	21.65262	1.07849	0.92722	176.77421	178.56926	66.20713	0.33501	 	7.69929E10	 	6.04223E-11	 	12936.91121	31.11168	 
675.0	1.0	0.0	8.0417	7.09193	-8.15011	15.19249	21.5726	1.07681	0.92867	177.17145	178.80275	66.36361	0.33485	 	9.235E10	 	5.01103E-11	 	12781.58044	31.06615	 
670.0	1.0	0.0	8.04384	7.09003	-8.17465	15.16808	21.49256	1.07512	0.93012	177.56788	179.03502	66.51982	0.3347	 	1.10984E11	 	4.1477E-11	 	12626.47599	31.02089	 
665.0	1.0	0.0	8.04599	7.08814	-8.19913	15.14367	21.41251	1.07342	0.9316	177.96352	179.26608	66.67576	0.33454	 	1.33639E11	 	3.42629E-11	 	12471.59652	30.97589	 
660.0	1.0	0.0	8.04813	7.08626	-8.22354	15.11925	21.33245	1.07171	0.93309	178.35835	179.49595	66.83144	0.33439	 	1.6124E11	 	2.82465E-11	 	12316.94345	30.93061	 
655.0	1.0	0.0	8.05027	7.08438	-8.24789	15.09483	21.25237	1.06998	0.93459	178.75238	179.72462	66.98685	0.33423	 	1.94936E11	 	2.32388E-11	 	12162.53239	30.88221	 
650.0	1.0	0.0	8.0524	7.0825	-8.27218	15.07039	21.17228	1.06824	0.93612	179.14561	179.9521	67.14199	0.33408	 	2.36157E11	 	1.90791E-11	 	12008.38409	30.82966	 
645.0	1.0	0.0	8.05452	7.08063	-8.2964	15.04595	21.09217	1.06649	0.93765	179.53804	180.17838	67.29687	0.33393	 	2.86694E11	 	1.56308E-11	 	11854.49789	30.77724	 
640.0	1.0	0.0	8.05665	7.07877	-8.32056	15.02151	21.01206	1.06473	0.9392	179.92967	180.40348	67.45148	0.33377	 	3.48786E11	 	1.27782E-11	 	11700.87313	30.72495	 
635.0	1.0	0.0	8.05876	7.07691	-8.34465	14.99705	20.93192	1.06295	0.94077	180.3205	180.62739	67.60583	0.33362	 	4.25243E11	 	1.04234E-11	 	11547.50916	30.67279	 
630.0	1.0	0.0	8.06088	7.07505	-8.36868	14.97259	20.85178	1.06116	0.94236	180.71052	180.85013	67.75991	0.33346	 	5.19598E11	 	8.48358E-12	 	11394.4053	30.62077	 
625.0	1.0	0.0	8.06299	7.0732	-8.39264	14.94813	20.77162	1.05936	0.94396	181.09974	181.07169	67.91372	0.33331	 	6.36307E11	 	6.8892E-12	 	11241.56065	30.56893	 
620.0	1.0	0.0	8.06509	7.07136	-8.41654	14.92365	20.69144	1.05755	0.94558	181.48817	181.29207	68.06727	0.33315	 	7.81001E11	 	5.58161E-12	 	11088.97392	30.51735	 
615.0	1.0	0.0	8.06719	7.06952	-8.44037	14.89917	20.61125	1.05572	0.94722	181.87579	181.51129	68.22055	0.333	 	9.60812E11	 	4.51164E-12	 	10936.64479	30.46583	 
610.0	1.0	0.0	8.06928	7.06768	-8.46415	14.87468	20.53104	1.05388	0.94888	182.26261	181.72934	68.37356	0.33284	 	1.1848E12	 	3.63812E-12	 	10784.57262	30.41443	 
605.0	1.0	0.0	8.07137	7.06585	-8.48785	14.85019	20.45082	1.05202	0.95055	182.64863	181.94623	68.5263	0.33269	 	1.46449E12	 	2.92664E-12	 	10632.75678	30.36317	 
600.0	1.0	0.0	8.07346	7.06402	-8.51149	14.82569	20.37058	1.05015	0.95224	183.03385	182.16196	68.67878	0.33254	 	1.81461E12	 	2.34852E-12	 	10481.19663	30.31203	 
595.0	1.0	0.0	8.07554	7.0622	-8.53507	14.80118	20.29032	1.04827	0.95396	183.41827	182.37653	68.831	0.33238	 	2.25398E12	 	1.87988E-12	 	10329.89153	30.26102	 
590.0	1.0	0.0	8.07762	7.06039	-8.55858	14.77667	20.21005	1.04637	0.95569	183.80189	182.58995	68.98294	0.33223	 	2.80679E12	 	1.50094E-12	 	10178.84089	30.21013	 
585.0	1.0	0.0	8.07969	7.05858	-8.58203	14.75214	20.12976	1.04446	0.95744	184.1847	182.80223	69.13462	0.33207	 	3.50413E12	 	1.19528E-12	 	10028.04404	30.15937	 
580.0	1.0	0.0	8.08176	7.05677	-8.60541	14.72762	20.04945	1.04253	0.9592	184.56672	183.01335	69.28603	0.33192	 	4.3861E12	 	9.49365E-13	 	9877.50038	30.10873	 
575.0	1.0	0.0	8.08382	7.05497	-8.62873	14.70308	19.96913	1.04059	0.96099	184.94794	183.22334	69.43717	0.33176	 	5.50462E12	 	7.52025E-13	 	9727.2093	30.05822	 
570.0	1.0	0.0	8.08588	7.05318	-8.65199	14.67854	19.88879	1.03863	0.9628	185.32835	183.43219	69.58805	0.33161	 	6.92701E12	 	5.94081E-13	 	9577.17016	30.00783	 
565.0	1.0	0.0	8.08793	7.05139	-8.67517	14.65399	19.80843	1.03666	0.96463	185.70797	183.6399	69.73866	0.33146	 	8.74089E12	 	4.68008E-13	 	9427.38236	29.95756	 
560.0	1.0	0.0	8.08998	7.0496	-8.6983	14.62943	19.72805	1.03468	0.96648	186.08679	183.84648	69.889	0.3313	 	1.10606E13	 	3.67648E-13	 	9277.84529	29.90741	 
555.0	1.0	0.0	8.09202	7.04782	-8.72136	14.60487	19.64765	1.03268	0.96836	186.4648	184.05193	70.03907	0.33115	 	1.40357E13	 	2.8798E-13	 	9128.55833	29.85739	 
550.0	1.0	0.0	8.09406	7.04604	-8.74435	14.5803	19.56723	1.03066	0.97025	186.84202	184.25625	70.18888	0.33099	 	1.78627E13	 	2.24915E-13	 	8979.5209	29.80749	 
545.0	1.0	0.0	8.0961	7.04427	-8.76728	14.55573	19.48679	1.02863	0.97217	187.21843	184.45945	70.33842	0.33084	 	2.28003E13	 	1.75138E-13	 	8830.73239	29.7577	 
540.0	1.0	0.0	8.09813	7.04251	-8.79015	14.53114	19.40633	1.02658	0.97411	187.59405	184.66154	70.48769	0.33069	 	2.91902E13	 	1.35963E-13	 	8682.19218	29.70804	 
535.0	1.0	0.0	8.10015	7.04075	-8.81295	14.50655	19.32585	1.02452	0.97607	187.96887	184.86251	70.63669	0.33053	 	3.74853E13	 	1.05225E-13	 	8533.89972	29.65849	 
530.0	1.0	0.0	8.10217	7.03899	-8.83568	14.48196	19.24535	1.02244	0.97805	188.34288	185.06236	70.78543	0.33038	 	4.82878E13	 	8.11794E-14	 	8385.85439	29.60907	 
525.0	1.0	0.0	8.10419	7.03724	-8.85836	14.45735	19.16483	1.02034	0.98006	188.7161	185.26111	70.9339	0.33023	 	6.24011E13	 	6.2428E-14	 	8238.0556	29.55976	 
520.0	1.0	0.0	8.1062	7.0355	-8.88096	14.43274	19.08429	1.01823	0.9821	189.08852	185.45875	71.08209	0.33007	 	8.09004E13	 	4.78511E-14	 	8090.50279	29.51056	 
515.0	1.0	0.0	8.1082	7.03376	-8.9035	14.40812	19.00372	1.0161	0.98416	189.46013	185.65528	71.23002	0.32992	 	1.0523E14	 	3.65558E-14	 	7943.19537	29.46148	 
510.0	1.0	0.0	8.1102	7.03202	-8.92598	14.3835	18.92313	1.01395	0.98624	189.83095	185.85072	71.37769	0.32976	 	1.3733699999999998E14	 	2.7832E-14	 	7796.13278	29.41252	 
505.0	1.0	0.0	8.1122	7.03029	-8.94839	14.35887	18.84252	1.01179	0.98835	190.20097	186.04506	71.52508	0.32961	 	1.79854E14	 	2.11169E-14	 	7649.31443	29.36367	 
500.0	1.0	0.0	8.11419	7.02857	-8.97073	14.33423	18.76189	1.00961	0.99048	190.57019	186.23831	71.67221	0.32946	 	2.36357E14	 	1.59655E-14	 	7502.73978	29.31493	 
495.0	1.0	0.0	8.11618	7.02685	-8.99301	14.30959	18.68123	1.00741	0.99264	190.93861	186.43046	71.81906	0.3293	 	3.11718E14	 	1.20274E-14	 	7356.40825	29.26631	 
490.0	1.0	0.0	8.11816	7.02513	-9.01523	14.28493	18.60055	1.00519	0.99483	191.30623	186.62153	71.96565	0.32915	 	4.12601E14	 	9.02749E-15	 	7210.31929	29.21779	 
485.0	1.0	0.0	8.12014	7.02342	-9.03738	14.26028	18.51984	1.00296	0.99705	191.67305	186.81152	72.11197	0.329	 	5.4815599999999994E14	 	6.75053E-15	 	7064.47234	29.16939	 
480.0	1.0	0.0	8.12211	7.02171	-9.05947	14.23561	18.4391	1.00071	0.99929	192.03907	187.00042	72.25802	0.32884	 	7.30998E14	 	5.02866E-15	 	6918.86688	29.12109	 
475.0	1.0	0.0	8.12407	7.02001	-9.08149	14.21094	18.35834	0.99844	1.00156	192.40429	187.18825	72.4038	0.32869	 	9.78587E14	 	3.73144E-15	 	6773.50236	29.0729	 
470.0	1.0	0.0	8.12604	7.01832	-9.10344	14.18626	18.27756	0.99615	1.00387	192.76872	187.375	72.54932	0.32854	 	1.31519E15	 	2.75788E-15	 	6628.37824	29.02483	 
465.0	1.0	0.0	8.12799	7.01663	-9.12533	14.16157	18.19674	0.99384	1.0062	193.13234	187.56068	72.69456	0.32838	 	1.77466E15	 	2.0301E-15	 	6483.49399	28.97685	 
460.0	1.0	0.0	8.12995	7.01494	-9.14715	14.13688	18.1159	0.99151	1.00856	193.49517	187.74529	72.83954	0.32823	 	2.40445E15	 	1.48821E-15	 	6338.84909	28.92898	 
455.0	1.0	0.0	8.13189	7.01326	-9.16891	14.11218	18.03503	0.98917	1.01095	193.8572	187.92883	72.98424	0.32808	 	3.27137E15	 	1.08637E-15	 	6194.44303	28.88121	 
450.0	1.0	0.0	8.13384	7.01159	-9.19061	14.08748	17.95413	0.9868	1.01337	194.21842	188.11131	73.12868	0.32792	 	4.46985E15	 	7.89628E-16	 	6050.27529	28.83355	 
445.0	1.0	0.0	8.13577	7.00992	-9.21224	14.06276	17.8732	0.98442	1.01583	194.57885	188.29274	73.27284	0.32777	 	6.13399E15	 	5.71424E-16	 	5906.34537	28.78598	 
440.0	1.0	0.0	8.13771	7.00825	-9.2338	14.03804	17.79224	0.98201	1.01832	194.93848	188.4731	73.41674	0.32762	 	8.45514E15	 	4.11668E-16	 	5762.65277	28.73852	 
435.0	1.0	0.0	8.13964	7.00659	-9.2553	14.01332	17.71125	0.97958	1.02084	195.29732	188.65241	73.56037	0.32746	 	1.17076E16	 	2.9522E-16	 	5619.19699	28.69116	 
430.0	1.0	0.0	8.14156	7.00494	-9.27673	13.98858	17.63023	0.97714	1.0234	195.65535	188.83067	73.70373	0.32731	 	1.62863E16	 	2.10723E-16	 	5475.97757	28.64388	 
425.0	1.0	0.0	8.14348	7.00329	-9.29809	13.96384	17.54918	0.97467	1.02599	196.01258	189.00788	73.84682	0.32716	 	2.27631E16	 	1.49694E-16	 	5332.99406	28.5967	 
420.0	1.0	0.0	8.14539	7.00164	-9.3194	13.9391	17.4681	0.97218	1.02861	196.36902	189.18405	73.98964	0.327	 	3.19697E16	 	1.05822E-16	 	5190.24592	28.54963	 
415.0	1.0	0.0	8.1473	7.0	-9.34063	13.91434	17.38698	0.96967	1.03128	196.72466	189.35918	74.13219	0.32685	 	4.51222E16	 	7.44355E-17	 	5047.73287	28.50261	 
410.0	1.0	0.0	8.1492	6.99837	-9.3618	13.88958	17.30582	0.96714	1.03398	197.0795	189.53326	74.27446	0.3267	 	6.40075E16	 	5.20921E-17	 	4905.45469	28.45564	 
405.0	1.0	0.0	8.1511	6.99674	-9.38291	13.86481	17.22463	0.96459	1.03671	197.43354	189.70631	74.41647	0.32654	 	9.12665E16	 	3.62661E-17	 	4763.41117	28.40871	 
400.0	1.0	0.0	8.15299	6.99512	-9.40394	13.84004	17.14341	0.96201	1.03949	197.78678	189.87833	74.55821	0.32639	 	1.30822E17	 	2.51141E-17	 	4621.6021	28.36181	 
395.0	1.0	0.0	8.15488	6.9935	-9.42492	13.81526	17.06215	0.95941	1.0423	198.13922	190.04931	74.69968	0.32624	 	1.88534E17	 	1.7297E-17	 	4480.0273	28.31496	 
390.0	1.0	0.0	8.15676	6.99188	-9.44583	13.79047	16.98085	0.95679	1.04516	198.49087	190.21927	74.84088	0.32609	 	2.73208E17	 	1.18469E-17	 	4338.68659	28.26814	 
385.0	1.0	0.0	8.15864	6.99027	-9.46667	13.76567	16.89951	0.95415	1.04805	198.84172	190.38821	74.98181	0.32593	 	3.98148E17	 	8.06803E-18	 	4197.57979	28.22136	 
380.0	1.0	0.0	8.16051	6.98867	-9.48744	13.74087	16.81814	0.95148	1.05099	199.19177	190.55612	75.12246	0.32578	 	5.83578E17	 	5.46262E-18	 	4056.70674	28.17461	 
375.0	1.0	0.0	8.16238	6.98707	-9.50815	13.71606	16.73672	0.94879	1.05397	199.54102	190.72301	75.26285	0.32563	 	8.6043E17	 	3.6766E-18	 	3916.06729	28.12789	 
370.0	1.0	0.0	8.16424	6.98548	-9.5288	13.69125	16.65526	0.94608	1.057	199.88947	190.88889	75.40297	0.32547	 	1.2763E18	 	2.45949E-18	 	3775.66129	28.0812	 
365.0	1.0	0.0	8.1661	6.98389	-9.54938	13.66643	16.57377	0.94334	1.06006	200.23713	191.05375	75.54281	0.32532	 	1.90492E18	 	1.63506E-18	 	3635.48862	28.03453	 
360.0	1.0	0.0	8.16795	6.9823	-9.56989	13.6416	16.49222	0.94058	1.06318	200.58399	191.2176	75.68239	0.32517	 	2.86118E18	 	1.08006E-18	 	3495.54916	27.98789	 
355.0	1.0	0.0	8.1698	6.98072	-9.59034	13.61676	16.41064	0.93779	1.06634	200.93005	191.38045	75.82169	0.32502	 	4.3254E18	 	7.088E-19	 	3355.84282	27.94127	 
350.0	1.0	0.0	8.17164	6.97915	-9.61072	13.59192	16.32901	0.93497	1.06955	201.27531	191.54228	75.96072	0.32486	 	6.58245E18	 	4.62053E-19	 	3216.36948	27.89467	 
345.0	1.0	0.0	8.17348	6.97758	-9.63104	13.56707	16.24733	0.93213	1.07281	201.61977	191.70312	76.09948	0.32471	 	1.00855E19	 	2.99145E-19	 	3077.12908	27.84808	 
340.0	1.0	0.0	8.17531	6.97602	-9.65128	13.54221	16.16561	0.92927	1.07612	201.96344	191.86296	76.23798	0.32456	 	1.55608E19	 	1.92318E-19	 	2938.12153	27.80151	 
335.0	1.0	0.0	8.17714	6.97446	-9.67147	13.51735	16.08384	0.92638	1.07948	202.30631	192.0218	76.37619	0.32441	 	2.41804E19	 	1.22753E-19	 	2799.34681	27.75494	 
330.0	1.0	0.0	8.17896	6.97291	-9.69159	13.49248	16.00201	0.92346	1.08289	202.64838	192.17964	76.51414	0.32425	 	3.78502E19	 	7.77756E-20	 	2660.80487	27.70839	 
325.0	1.0	0.0	8.18078	6.97136	-9.71164	13.4676	15.92014	0.92051	1.08635	202.98965	192.3365	76.65182	0.3241	 	5.96934E19	 	4.89069E-20	 	2522.49568	27.66184	 
320.0	1.0	0.0	8.18259	6.96982	-9.73162	13.44272	15.83822	0.91754	1.08987	203.33012	192.49236	76.78922	0.32395	 	9.48681E19	 	3.05162E-20	 	2384.41926	27.61528	 
315.0	1.0	0.0	8.18439	6.96828	-9.75154	13.41783	15.75624	0.91454	1.09345	203.6698	192.64724	76.92636	0.3238	 	1.51962E20	 	1.88903E-20	 	2246.57559	27.56873	 
310.0	1.0	0.0	8.18619	6.96674	-9.7714	13.39293	15.67421	0.91151	1.09708	204.00868	192.80114	77.06322	0.32364	 	2.4539099999999997E20	 	1.15987E-20	 	2108.96472	27.52217	 
305.0	1.0	0.0	8.18799	6.96522	-9.79118	13.36802	15.59212	0.90845	1.10078	204.34677	192.95406	77.19981	0.32349	 	3.9956E20	 	7.06229E-21	 	1971.5867	27.4756	 
300.0	1.0	0.0	8.18978	6.96369	-9.81091	13.34311	15.50997	0.90536	1.10453	204.68405	193.106	77.33612	0.32334	 	6.561429999999999E20	 	4.2634E-21	 	1834.44159	27.42902	 
295.0	1.0	0.0	8.19156	6.96218	-9.83056	13.31819	15.42777	0.90225	1.10834	205.02054	193.25696	77.47217	0.32319	 	1.08694E21	 	2.55119E-21	 	1697.52947	27.38242	 
290.0	1.0	0.0	8.19334	6.96066	-9.85015	13.29327	15.34551	0.8991	1.11222	205.35623	193.40695	77.60794	0.32304	 	1.81681E21	 	1.51287E-21	 	1560.85046	27.3358	 
285.0	1.0	0.0	8.19512	6.95916	-9.86967	13.26834	15.26318	0.89593	1.11616	205.69112	193.55597	77.74344	0.32288	 	3.0648400000000003E21	 	8.88854E-22	 	1424.40469	27.28915	 
280.0	1.0	0.0	8.19689	6.95765	-9.88913	13.2434	15.18079	0.89272	1.12017	206.02522	193.70402	77.87867	0.32273	 	5.21929E21	 	5.17271E-22	 	1288.1923	27.24248	 
275.0	1.0	0.0	8.19865	6.95616	-9.90852	13.21845	15.09833	0.88948	1.12425	206.35852	193.85111	78.01363	0.32258	 	8.97497E21	 	2.98094E-22	 	1152.21348	27.19576	 
270.0	1.0	0.0	8.20041	6.95467	-9.92784	13.1935	15.01581	0.88621	1.1284	206.69102	193.99723	78.14831	0.32243	 	1.5587999999999999E22	 	1.70066E-22	 	1016.46842	27.14901	 
265.0	1.0	0.0	8.20217	6.95318	-9.9471	13.16854	14.93322	0.88291	1.13262	207.02272	194.1424	78.28273	0.32228	 	2.7352699999999998E22	 	9.60261E-23	 	880.95736	27.10221	 
260.0	1.0	0.0	8.20391	6.9517	-9.96629	13.14358	14.85055	0.87957	1.13691	207.35363	194.28661	78.41687	0.32212	 	4.85057E22	 	5.36467E-23	 	745.68055	27.05536	 
255.0	1.0	0.0	8.20566	6.95022	-9.98541	13.1186	14.76782	0.87621	1.14128	207.68374	194.42986	78.55073	0.32197	 	8.69552E22	 	2.96448E-23	 	610.63826	27.00846	 
250.0	1.0	0.0	8.20739	6.94875	-10.00447	13.09362	14.68501	0.87281	1.14573	208.01305	194.57216	78.68433	0.32182	 	1.5763199999999998E23	 	1.61983E-23	 	475.83081	26.96149	 
245.0	1.0	0.0	8.20913	6.94728	-10.02346	13.06864	14.60212	0.86937	1.15026	208.34157	194.71352	78.81765	0.32167	 	2.89053E23	 	8.74912E-24	 	341.25856	26.91445	 
240.0	1.0	0.0	8.21085	6.94582	-10.04239	13.04364	14.51915	0.8659	1.15486	208.66929	194.85392	78.95069	0.32152	 	5.36345E23	 	4.66968E-24	 	206.92186	26.86734	 
235.0	1.0	0.0	8.21258	6.94436	-10.06125	13.01864	14.4361	0.8624	1.15956	208.99621	194.99338	79.08347	0.32136	 	1.00738E24	 	2.46198E-24	 	72.82115	26.82014	 
230.0	1.0	0.0	8.21429	6.94291	-10.08004	12.99364	14.35297	0.85886	1.16434	209.32233	195.1319	79.21597	0.32121	 	1.91595E24	 	1.28174E-24	 	-61.04315	26.77286	 
225.0	1.0	0.0	8.216	6.94147	-10.09877	12.96862	14.26975	0.85528	1.1692	209.64766	195.26948	79.3482	0.32106	 	3.6912900000000003E24	 	6.58672E-25	 	-194.67054	26.72548	 
220.0	1.0	0.0	8.21771	6.94003	-10.11743	12.9436	14.18644	0.85167	1.17416	209.97219	195.40613	79.48015	0.32091	 	7.20688E24	 	3.33979E-25	 	-328.06049	26.67799	 
215.0	1.0	0.0	8.21941	6.93859	-10.13602	12.91858	14.10304	0.84802	1.17922	210.29592	195.54184	79.61183	0.32076	 	1.42649E25	 	1.67021E-25	 	-461.21244	26.63039	 
210.0	1.0	0.0	8.2211	6.93716	-10.15454	12.89354	14.01955	0.84433	1.18437	210.61886	195.67661	79.74324	0.32061	 	2.86371E25	 	8.23456E-26	 	-594.12578	26.58267	 
205.0	1.0	0.0	8.22279	6.93574	-10.173	12.8685	13.93596	0.84061	1.18962	210.941	195.81046	79.87438	0.32045	 	5.833340000000001E25	 	4.00068E-26	 	-726.79986	26.53482	 
200.0	1.0	0.0	8.22448	6.93432	-10.1914	12.84345	13.85226	0.83684	1.19497	211.26234	195.94338	80.00524	0.3203	 	1.2062500000000002E26	 	1.91447E-26	 	-859.23395	26.48682	 
195.0	1.0	0.0	8.22616	6.9329	-10.20972	12.8184	13.76847	0.83304	1.20042	211.58289	196.07538	80.13582	0.32015	 	2.53335E26	 	9.01936E-27	 	-991.42732	26.43867	 
190.0	1.0	0.0	8.22783	6.93149	-10.22798	12.79334	13.68457	0.8292	1.20599	211.90264	196.20645	80.26614	0.32	 	5.406460000000001E26	 	4.18114E-27	 	-1123.37915	26.39037	 
185.0	1.0	0.0	8.2295	6.93009	-10.24617	12.76827	13.60056	0.82531	1.21167	212.22159	196.33661	80.39617	0.31985	 	1.1730499999999999E27	 	1.90624E-27	 	-1255.08856	26.34188	 
180.0	1.0	0.0	8.23116	6.92869	-10.2643	12.74319	13.51643	0.82138	1.21746	212.53975	196.46585	80.52594	0.3197	 	2.58906E27	 	8.54252E-28	 	-1386.55462	26.29321	 
175.0	1.0	0.0	8.23282	6.92729	-10.28236	12.71811	13.43219	0.81742	1.22337	212.85711	196.59417	80.65543	0.31955	 	5.81623E27	 	3.7607E-28	 	-1517.77636	26.24435	 
170.0	1.0	0.0	8.23447	6.9259	-10.30035	12.69302	13.34782	0.8134	1.2294	213.17367	196.72158	80.78464	0.31939	 	1.33068E28	 	1.62542E-28	 	-1648.7527	26.19527	 
165.0	1.0	0.0	8.23611	6.92452	-10.31827	12.66793	13.26333	0.80935	1.23556	213.48944	196.84808	80.91359	0.31924	 	3.1024600000000003E28	 	6.89292E-29	 	-1779.48252	26.14596	 
160.0	1.0	0.0	8.23775	6.92314	-10.33613	12.64282	13.17871	0.80525	1.24185	213.80441	196.97367	81.04225	0.31909	 	7.37611E28	 	2.86614E-29	 	-1909.96461	26.09642	 
155.0	1.0	0.0	8.23939	6.92177	-10.35392	12.61771	13.09396	0.80111	1.24827	214.11859	197.09836	81.17065	0.31894	 	1.78951E29	 	1.16775E-29	 	-2040.19768	26.04662	 
150.0	1.0	0.0	8.24102	6.9204	-10.37165	12.5926	13.00906	0.79692	1.25483	214.43196	197.22215	81.29876	0.31879	 	4.4333900000000006E29	 	4.65849E-30	 	-2170.18037	25.99654	 
145.0	1.0	0.0	8.24264	6.91903	-10.3893	12.56747	12.92403	0.79268	1.26154	214.74454	197.34503	81.42661	0.31864	 	1.1224299999999999E30	 	1.81827E-30	 	-2299.91123	25.94617	 
140.0	1.0	0.0	8.24426	6.91768	-10.40689	12.54234	12.83884	0.7884	1.26839	215.05633	197.46702	81.55417	0.31849	 	2.90637E30	 	6.93815E-31	 	-2429.38869	25.89549	 
135.0	1.0	0.0	8.24587	6.91632	-10.42442	12.51721	12.7535	0.78407	1.27539	215.36732	197.58811	81.68147	0.31834	 	7.703069999999999E30	 	2.58609E-31	 	-2558.61111	25.84448	 
130.0	1.0	0.0	8.24748	6.91498	-10.44187	12.49206	12.66801	0.77969	1.28255	215.67751	197.7083	81.80849	0.31819	 	2.09159E31	 	9.40755E-32	 	-2687.57671	25.79312	 
125.0	1.0	0.0	8.24908	6.91363	-10.45926	12.46691	12.58234	0.77527	1.28988	215.9869	197.82761	81.93523	0.31803	 	5.823519999999999E31	 	3.33694E-32	 	-2816.28364	25.74139	 
120.0	1.0	0.0	8.25068	6.9123	-10.47658	12.44176	12.49651	0.77079	1.29737	216.2955	197.94603	82.0617	0.31788	 	1.6642E32	 	1.15303E-32	 	-2944.72991	25.68925	 
115.0	1.0	0.0	8.25227	6.91096	-10.49384	12.41659	12.41049	0.76626	1.30504	216.6033	198.06356	82.18789	0.31773	 	4.88624E32	 	3.87714E-33	 	-3072.91338	25.63669	 
110.0	1.0	0.0	8.25385	6.90964	-10.51103	12.39142	12.32429	0.76168	1.31289	216.91031	198.1802	82.31381	0.31758	 	1.47554E33	 	1.26737E-33	 	-3200.8318	25.58369	 
105.0	1.0	0.0	8.25543	6.90831	-10.52815	12.36624	12.2379	0.75705	1.32092	217.21652	198.29597	82.43945	0.31743	 	4.58799E33	 	4.0228E-34	 	-3328.48278	25.5302	 
100.0	1.0	0.0	8.25701	6.907	-10.5452	12.34106	12.15131	0.75236	1.32915	217.52193	198.41085	82.56481	0.31728	 	1.4706000000000002E34	 	1.23844E-34	 	-3455.86377	25.4762	 
95.0	1.0	0.0	8.25857	6.90569	-10.56218	12.31587	12.06451	0.74762	1.33758	217.82655	198.52486	82.6899	0.31713	 	4.8653E34	 	3.69319E-35	 	-3582.97201	25.42165	 
90.0	1.0	0.0	8.26014	6.90438	-10.5791	12.29067	11.97749	0.74282	1.34621	218.13037	198.63799	82.81472	0.31698	 	1.66354E35	 	1.06547E-35	 	-3709.80464	25.36653	 
85.0	1.0	0.0	8.26169	6.90308	-10.59595	12.26546	11.89025	0.73797	1.35506	218.4334	198.75025	82.93926	0.31683	 	5.8865699999999994E35	 	2.96954E-36	 	-3836.35856	25.31078	 
80.0	1.0	0.0	8.26324	6.90178	-10.61274	12.24025	11.80277	0.73306	1.36414	218.73562	198.86163	83.06352	0.31668	 	2.15891E36	 	7.98384E-37	 	-3962.63047	25.25438	 
75.0	1.0	0.0	8.26479	6.90049	-10.62945	12.21503	11.71505	0.7281	1.37345	219.03706	198.97215	83.1875	0.31653	 	8.21894E36	 	2.06746E-37	 	-4088.61687	25.19728	 
70.0	1.0	0.0	8.26633	6.89921	-10.6461	12.18981	11.62708	0.72307	1.38299	219.33769	199.08181	83.31121	0.31638	 	3.25325E37	 	5.14818E-38	 	-4214.31402	25.13943	 
65.0	1.0	0.0	8.26786	6.89793	-10.66268	12.16457	11.53883	0.71798	1.39279	219.63753	199.19059	83.43465	0.31622	 	1.3411799999999998E38	 	1.23057E-38	 	-4339.71792	25.08078	 
60.0	1.0	0.0	8.26939	6.89665	-10.6792	12.13934	11.45031	0.71283	1.40285	219.93658	199.29852	83.5578	0.31607	 	5.76931E38	 	2.8184E-39	 	-4464.82434	25.02128	 
55.0	1.0	0.0	8.27092	6.89538	-10.69564	12.11409	11.3615	0.70762	1.41318	220.23483	199.40559	83.68069	0.31592	 	2.5946000000000002E39	 	6.1729E-40	 	-4589.6287	24.96087	 
50.0	1.0	0.0	8.27243	6.89412	-10.71202	12.08884	11.27238	0.70235	1.42379	220.53228	199.5118	83.80329	0.31577	 	1.22242E40	 	1.29024E-40	 	-4714.12616	24.89949	 
45.0	1.0	0.0	8.27394	6.89286	-10.72833	12.06358	11.18295	0.69701	1.43469	220.82894	199.61715	83.92562	0.31562	 	6.04687E40	 	2.56796E-41	 	-4838.31153	24.83707	 
40.0	1.0	0.0	8.27545	6.8916	-10.74458	12.03831	11.09318	0.69161	1.4459	221.1248	199.72165	84.04767	0.31547	 	3.14783E41	 	4.85543E-42	 	-4962.17924	24.77354	 
35.0	1.0	0.0	8.27695	6.89035	-10.76075	12.01304	11.00306	0.68614	1.45742	221.41986	199.8253	84.16944	0.31532	 	1.7288E42	 	8.69971E-43	 	-5085.72335	24.70882	 
30.0	1.0	0.0	8.27844	6.88911	-10.77686	11.98776	10.91258	0.68061	1.46928	221.71413	199.9281	84.29094	0.31517	 	1.0043300000000001E43	 	1.47322E-43	 	-5208.93748	24.64283	 
25.0	1.0	0.0	8.27993	6.88787	-10.7929	 	10.82171	0.675	1.48148	222.0076	200.03006	84.41216	0.31502	 	6.18929E43	 	2.35115E-44	 	-5331.81481	 	 
