T (C)	Fraction solid (wt)-TOTAL	Fraction liquid (wt)-LIQUID	Density (g/(cm)^3)-TOTAL	Molar volume (cm^3)-TOTAL	Volume change (%)-  	Average expansion coeff. (10e-6 1/K)-  	Thermal conductivity (W/(m*K))-TOTAL	Electrical resistivity (10e-6 Ohm*m)-TOTAL	Electrical conductivity (10e6 1/(Ohm*m))-TOTAL	Young's modulus (GPa)-TOTAL	Bulk modulus (GPa)-TOTAL	Shear modulus(GPa)-TOTAL	Poisson's ratio-TOTAL	Liquid viscosity (mPa s)-  	Total viscosity (mPa s)-  	Liquid diffusivity (10e-9 (m^2)/s)-  	Total diffusivity (10e-9 (m^2)/s)-  	Surface Tension (mN/m)-  	Enthalpy (J/mole)-TOTAL	Specific heat (J/(mole K))-TOTAL	Latent heat (J/mole)-TOTAL
1400.0	0.0	1.0	7.40511	7.88715	0.0	29.62093	28.42672	1.44203	0.69347	0.0	126.19384	0.0	0.5	7.53348	7.53348	1.08399	1.08399	1770.20693	53359.346	 	0.0
1395.0	0.0	1.0	7.40907	7.88293	-0.0535337	29.58287	28.34962	1.44163	0.69366	0.0	126.35146	0.0	0.5	7.61521	7.61521	1.06915	1.06915	1772.88801	53155.713	40.7266	0.0
1390.0	0.0	1.0	7.41303	7.87872	-0.10691	29.54495	28.27251	1.44123	0.69385	0.0	126.50908	0.0	0.5	7.69833	7.69833	1.05444	1.05444	1775.59731	52952.542	40.6342	0.0
1385.0	0.0	1.0	7.41699	7.87452	-0.16014	29.50718	28.1954	1.44083	0.69405	0.0	126.66671	0.0	0.5	7.78287	7.78287	1.03985	1.03985	1778.33502	52749.83	40.5424	0.0
1380.0	0.0	1.0	7.42093	7.87033	-0.21321	29.46956	28.11829	1.44042	0.69424	0.0	126.82433	0.0	0.5	7.86885	7.86885	1.02539	1.02539	1781.10134	52547.576	40.4508	0.0
1375.0	0.0	1.0	7.42487	7.86616	-0.26612	29.43209	28.04119	1.44001	0.69444	0.0	126.98196	0.0	0.5	7.95632	7.95632	1.01105	1.01105	1783.89641	52345.776	40.36	0.0
1370.0	0.0	1.0	7.4288	7.862	-0.31888	29.39477	27.96408	1.4396	0.69464	0.0	127.13958	0.0	0.5	8.04529	8.04529	0.99683	0.99683	1786.72039	52144.429	40.2694	0.0
1365.0	0.0	1.0	7.43272	7.85785	-0.37149	29.3576	27.88697	1.43919	0.69483	0.0	127.29721	0.0	0.5	8.13582	8.13582	0.98274	0.98274	1789.5734	51943.532	40.1794	0.0
1360.0	0.0	1.0	7.43663	7.85371	-0.42394	29.32058	27.80986	1.43878	0.69504	0.0	127.45483	0.0	0.5	8.22793	8.22793	0.96877	0.96877	1792.45555	51743.083	40.0898	0.0
1355.0	0.0	1.0	7.44054	7.84959	-0.47624	29.28373	27.73276	1.43836	0.69524	0.0	127.61245	0.0	0.5	8.32165	8.32165	0.95493	0.95493	1795.36695	51543.08	40.0006	0.0
1350.0	0.0	1.0	7.44444	7.84547	-0.52838	29.24703	27.65565	1.43794	0.69544	0.0	127.77008	0.0	0.5	8.41704	8.41704	0.94121	0.94121	1798.30766	51343.52	39.912	0.0
1345.0	0.0	1.0	7.44834	7.84137	-0.58037	29.21049	27.57854	1.43752	0.69564	0.0	127.9277	0.0	0.5	8.51411	8.51411	0.92761	0.92761	1801.27774	51144.402	39.8236	0.0
1340.0	0.0	1.0	7.45222	7.83728	-0.6322	29.17411	27.50143	1.4371	0.69585	0.0	128.08533	0.0	0.5	8.61292	8.61292	0.91414	0.91414	1804.27725	50945.722	39.736	0.0
1335.65	0.0	1.0	7.45559	7.83374	-0.67717	29.1426	27.43435	1.43672	0.69603	0.0	128.22245	0.0	0.5	8.70031	8.70031	0.90251	0.90251	1806.91056	50773.249	39.65216	0.0
1335.0	0.02055	0.97945	7.46098	7.82808	-0.74892	28.95217	27.49938	1.43275	0.69796	1.76691E-5	128.34811	5.90079E-6	0.49718	8.71834	8.96665	0.90028	0.87535	1806.70848	50435.211	519.77858	312.266
1330.0	0.16851	0.83149	7.49985	7.78758	-1.26242	27.59121	27.97543	1.40399	0.71226	0.0818477	129.24171	0.0277129	0.47671	8.85847	41.20319	0.88329	0.1899	1805.19964	48002.628	486.5166	2547.042
1325.0	0.28823	0.71177	7.53184	7.75441	-1.68293	26.48737	28.36286	1.38049	0.72438	0.71484	130.00721	0.24482	0.4599	9.00118	286.90532	0.86657	0.0271873	1803.79983	46010.786	398.3684	4341.507
1320.0	0.3861	0.6139	7.55849	7.72707	-2.02965	25.58812	28.68182	1.36087	0.73483	2.34163	130.68146	0.80969	0.446	9.14651	951.24436	0.85013	0.00817431	1802.50947	44358.342	330.4888	5797.006
1315.0	0.46686	0.53314	7.58091	7.70421	-2.31944	24.847	28.94511	1.34426	0.74391	5.08074	131.28691	1.77103	0.4344	9.29453	2143.58023	0.83397	0.00361608	1801.32878	42970.341	277.6002	6988.489
1310.0	0.53407	0.46593	7.6	7.68487	-2.56459	24.23006	29.16187	1.33006	0.75184	8.81505	131.83976	3.09377	0.42465	9.44546	3891.43755	0.81806	0.00198563	1800.25648	41790.616	235.945	7972.122
1305.0	0.59045	0.40955	7.6164	7.66833	-2.7744	23.71156	29.33934	1.31784	0.75882	13.3221	132.35245	4.70286	0.41638	9.59921	6176.51669	0.80242	0.00124707	1799.2905	40776.571	202.809	8790.499
1300.0	0.63809	0.36191	7.63063	7.654	-2.956	23.27177	29.48316	1.30726	0.76496	18.35867	132.83395	6.51324	0.40933	9.75593	8961.17821	0.78702	8.56824E-4	1798.42816	39895.54	176.2062	9476.284
1295.0	0.67861	0.32139	7.6431	7.64154	-3.11396	22.89814	29.59824	1.29804	0.77039	23.7045	133.29212	8.44607	0.40329	9.91581	12205.0816	0.77187	6.27095E-4	1797.66528	39122.214	154.6652	10054.784
1290.0	0.7133	0.2867	7.65412	7.6305	-3.25399	22.57459	29.68852	1.28997	0.77521	29.18202	133.73007	10.43664	0.39806	10.07888	15873.42031	0.75696	4.80637E-4	1796.99972	38436.796	137.0836	10545.792
1285.0	0.74315	0.25685	7.66396	7.6207	-3.37819	22.29543	29.75771	1.28285	0.77951	34.65293	134.15338	12.43364	0.39351	10.24525	19940.02779	0.74229	3.81391E-4	1796.42636	37823.664	122.6264	10964.931
1280.0	0.76898	0.23102	7.67281	7.61191	-3.48968	22.05196	29.80872	1.27654	0.78336	40.01952	134.56441	14.40022	0.38955	10.41497	24388.95815	0.72785	3.10818E-4	1795.94172	37270.385	110.6558	11324.63
1275.0	0.79145	0.20855	7.68082	7.60395	-3.59057	21.83826	29.8439	1.27094	0.78682	45.21029	134.96507	16.30891	0.38606	10.58828	29211.32904	0.71363	2.58671E-4	1795.54198	36766.99	100.679	11634.855
1270.0	0.81107	0.18893	7.68814	7.5967	-3.68252	21.64968	29.86572	1.26591	0.78995	50.18771	135.35776	18.14472	0.38298	10.76516	34412.84788	0.69964	2.18864E-4	1795.22306	36305.427	92.3126	11903.659
1265.0	0.8283	0.1717	7.69487	7.59004	-3.76696	21.48228	29.87572	1.26138	0.79278	54.92081	135.74345	19.89517	0.38025	10.94584	39999.42023	0.68586	1.87686E-4	1794.98138	35879.147	85.256	12137.587
1260.0	0.84347	0.15653	7.7011	7.58391	-3.84476	21.33358	29.87562	1.25729	0.79536	59.4001	136.12363	21.55575	0.37782	11.13043	45989.74768	0.67229	1.62709E-4	1794.81262	35482.79	79.2714	12341.998
1255.0	0.85691	0.14309	7.7069	7.57818	-3.91739	21.19943	29.86673	1.25356	0.79773	63.62604	136.49858	23.12584	0.37565	11.31886	52408.14733	0.65895	1.42316E-4	1794.71425	35111.943	74.1694	12521.302
1250.0	0.86883	0.13117	7.71233	7.57282	-3.98526	21.07871	29.85003	1.25016	0.7999	67.5973	136.86918	24.60422	0.37369	11.5116	59279.79968	0.64579	1.25407E-4	1794.68224	34762.951	69.7984	12679.152
1245.0	0.87945	0.12055	7.71745	7.56779	-4.04905	20.96953	29.82667	1.24703	0.80191	71.32739	137.23617	25.99529	0.37193	11.70856	66642.78408	0.63285	1.11186E-4	1794.71327	34432.771	66.036	12818.589
1240.0	0.88894	0.11106	7.7223	7.56304	-4.10933	20.87025	29.79744	1.24414	0.80377	74.82917	137.60003	27.30333	0.37033	11.90991	74539.9515	0.6201	9.90785E-5	1794.8041	34118.858	62.7826	12942.156
1235.08	0.89732	0.10268	7.72683	7.55858	-4.16591	20.78019	29.76348	1.24151	0.80547	78.0572	137.9547	28.51094	0.3689	12.11245	82867.15637	0.60775	8.88325E-5	1794.95025	33823.801	 	13050.292
1235.0	0.89747	0.10253	7.72691	7.5585	-4.16682	20.77873	29.763	1.24146	0.8055	78.11685	137.96102	28.53325	0.36887	12.11451	83015.66644	0.60761	8.86689E-5	1794.92718	33818.719	60.0278	13052.345
1230.0	0.90663	0.0933669	7.73182	7.55374	-4.22719	20.67755	29.72981	1.23873	0.80728	81.70851	138.34605	29.87871	0.36734	12.24316	92621.14391	0.59923	7.92098E-5	1793.59769	33504.448	62.8542	13177.06
1229.99	0.90665	0.0933538	7.73183	7.55373	-4.22734	20.67722	29.72975	1.23872	0.80728	81.71406	138.34658	29.88079	0.36733	12.24338	92636.56727	0.59922	7.91962E-5	1793.59595	33503.982	 	13177.234
1225.0	0.9177	0.0822974	7.73753	7.54821	-4.29737	20.54495	29.6986	1.23591	0.80912	86.25638	138.84922	31.58426	0.3655	12.30245	104194.0758	0.59436	7.01777E-5	1792.78911	33149.186	71.0524	13343.156
1220.0	0.92697	0.0730318	7.74276	7.54314	-4.36162	20.42981	29.66041	1.23337	0.81079	90.27263	139.32833	33.09289	0.36393	12.36984	116327.5613	0.58915	6.2648E-5	1792.13716	32822.671	65.303	13480.896
1215.0	0.93481	0.0651947	7.74761	7.53846	-4.42097	20.32907	29.61655	1.23106	0.81231	93.8403	139.788	34.43491	0.36257	12.44543	129125.3052	0.58361	5.62499E-5	1791.61899	32518.954	60.7434	13596.225
1210.0	0.9415	0.0584993	7.75214	7.53409	-4.4763	20.24019	29.568	1.22894	0.81371	97.02924	140.23167	35.63595	0.3614	12.52912	142693.3475	0.57777	5.07304E-5	1791.21733	32233.519	57.087	13693.658
1205.0	0.94727	0.0527311	7.75642	7.52997	-4.52861	20.16015	29.51551	1.22697	0.81502	99.89823	140.66155	36.71773	0.36035	12.62114	157140.7228	0.57162	4.5911E-5	1790.92055	31962.944	54.115	13776.614
1200.0	0.95228	0.0477238	7.76049	7.52607	-4.57808	20.08844	29.45971	1.22514	0.81624	102.49239	141.08013	37.69684	0.35943	12.72124	172579.3781	0.5652	4.16624E-5	1790.71584	31704.596	51.6696	13847.726
1195.0	0.95665	0.0433485	7.76438	7.52233	-4.62542	20.02294	29.40108	1.22341	0.81739	104.85228	141.48862	38.58839	0.3586	12.82949	189128.0419	0.55853	3.7888E-5	1790.59686	31456.42	49.6352	13909.046
1192.2	0.95884	0.0411611	7.76648	7.52032	-4.65096	19.98911	29.36702	1.2225	0.818	106.07127	141.71299	39.04923	0.35817	12.89329	198904.8141	0.55471	3.5957E-5	1790.56324	31321.622	 	13939.384
1192.2	0.95884	0.0411611	7.76648	7.52032	-4.65096	19.98911	29.36702	1.2225	0.818	106.07127	141.71299	39.04923	0.35817	12.89329	198904.8141	0.55471	3.5957E-5	1790.56324	31321.622	 	13939.384
1191.48	0.96139	0.0386106	7.76796	7.51888	-4.66917	19.94304	29.35757	1.22229	0.81814	107.37864	141.85934	39.54295	0.35775	12.94558	203197.6864	0.5522	3.51801E-5	1790.25525	31238.317	 	13995.915
1191.03	0.96592	0.0340792	7.77001	7.5169	-4.69433	19.87004	29.3535	1.22208	0.81827	109.67595	142.07945	40.41096	0.35701	12.98147	208486.7066	0.5505	3.4277E-5	1790.00633	31118.285	 	14099.141
1190.0	1.0	0.0	7.78364	7.50383	-4.86006	19.35547	29.37036	1.22052	0.81932	127.81229	143.55358	47.28153	0.35161	 	243408.1335	 	2.93387E-5	 	30282.774	234.7292	14896.214
1185.0	1.0	0.0	7.78623	7.50134	-4.8916	19.3372	29.29022	1.21968	0.81989	128.25847	143.89216	47.45247	0.35144	 	262327.5587	 	2.71297E-5	 	30108.33785	34.88723	 
1180.0	1.0	0.0	7.78881	7.49885	-4.92314	19.31877	29.21008	1.21883	0.82046	128.70388	144.22923	47.62316	0.35127	 	282858.2306	 	2.50743E-5	 	29935.87647	34.49228	 
1175.0	1.0	0.0	7.79139	7.49637	-4.95461	19.3004	29.12993	1.21798	0.82103	129.14849	144.56476	47.7936	0.35111	 	305154.4379	 	2.31622E-5	 	29763.69206	34.43688	 
1170.0	1.0	0.0	7.79397	7.49389	-4.98601	19.28209	29.04977	1.21712	0.82161	129.59232	144.89873	47.96379	0.35094	 	329381.2674	 	2.13845E-5	 	29591.78408	34.38159	 
1165.0	1.0	0.0	7.79654	7.49142	-5.01735	19.26384	28.96961	1.21626	0.82219	130.03535	145.23116	48.13372	0.35077	 	355720.4228	 	1.97325E-5	 	29420.15199	34.32642	 
1160.0	1.0	0.0	7.7991	7.48896	-5.04861	19.24566	28.88945	1.2154	0.82278	130.4776	145.56206	48.30339	0.3506	 	384372.0726	 	1.81981E-5	 	29248.79527	34.27134	 
1155.0	1.0	0.0	7.80167	7.4865	-5.07981	19.22755	28.80927	1.21453	0.82337	130.91905	145.89143	48.47282	0.35044	 	415556.8273	 	1.67737E-5	 	29077.71336	34.21638	 
1150.0	1.0	0.0	7.80423	7.48404	-5.11094	19.2095	28.7291	1.21365	0.82396	131.35971	146.21927	48.64198	0.35027	 	449517.9844	 	1.54522E-5	 	28906.90574	34.16152	 
1145.0	1.0	0.0	7.80678	7.48159	-5.142	19.19152	28.64891	1.21277	0.82456	131.79958	146.5456	48.8109	0.3501	 	486524.0274	 	1.42267E-5	 	28736.37187	34.10677	 
1140.0	1.0	0.0	7.80933	7.47915	-5.17299	19.1736	28.56872	1.21189	0.82516	132.23866	146.87041	48.97956	0.34994	 	526871.4059	 	1.30909E-5	 	28566.11121	34.05213	 
1135.0	1.0	0.0	7.81188	7.47671	-5.20392	19.15576	28.48853	1.211	0.82576	132.67695	147.19372	49.14796	0.34977	 	570887.7062	 	1.20388E-5	 	28396.12321	33.9976	 
1130.0	1.0	0.0	7.81442	7.47427	-5.23477	19.13799	28.40833	1.21011	0.82637	133.11444	147.51553	49.31611	0.3496	 	618935.0589	 	1.10649E-5	 	28226.40734	33.94317	 
1125.0	1.0	0.0	7.81696	7.47184	-5.26556	19.12028	28.32812	1.20921	0.82699	133.55115	147.83584	49.48401	0.34944	 	671414.1543	 	1.01637E-5	 	28056.96307	33.88885	 
1120.0	1.0	0.0	7.8195	7.46942	-5.29628	19.10265	28.2479	1.20831	0.8276	133.98707	148.15467	49.65165	0.34927	 	728768.5119	 	9.33029E-6	 	27887.78986	33.83464	 
1115.0	1.0	0.0	7.82203	7.467	-5.32693	19.08509	28.16768	1.2074	0.82823	134.4222	148.47201	49.81903	0.3491	 	791489.4982	 	8.56008E-6	 	27718.88716	33.78054	 
1110.0	1.0	0.0	7.82456	7.46459	-5.35751	19.0676	28.08745	1.20649	0.82885	134.85654	148.78787	49.98616	0.34894	 	860121.7803	 	7.84867E-6	 	27550.25444	33.72654	 
1105.0	1.0	0.0	7.82708	7.46219	-5.38803	19.05019	28.00721	1.20557	0.82948	135.29009	149.10226	50.15304	0.34877	 	935269.5309	 	7.19195E-6	 	27381.89115	33.67266	 
1100.0	1.0	0.0	7.8296	7.45978	-5.41847	19.03286	27.92697	1.20465	0.83012	135.72284	149.41519	50.31966	0.34861	 	1017603.408	 	6.58607E-6	 	27213.79676	33.61888	 
1095.0	1.0	0.0	7.83212	7.45739	-5.44885	19.0156	27.84672	1.20372	0.83076	136.15481	149.72665	50.48602	0.34844	 	1107868.255	 	6.02743E-6	 	27045.97071	33.56521	 
1090.0	1.0	0.0	7.83463	7.455	-5.47916	18.99842	27.76646	1.20279	0.8314	136.58599	150.03666	50.65213	0.34827	 	1206892.146	 	5.51267E-6	 	26878.41249	33.51165	 
1089.07	1.0	0.0	7.8351	7.45455	-5.48478	18.99524	27.75155	1.20261	0.83152	136.66603	150.0941	50.68297	0.34824	 	1226329.601	 	5.42159E-6	 	26847.3071	 	 
1085.0	1.0	0.0	7.83898	7.45086	-5.5316	18.90297	27.60994	1.20517	0.82976	137.35089	150.51106	50.94973	0.34791	 	1329238.939	 	4.98691E-6	 	26596.05974	56.47055	 
1080.0	1.0	0.0	7.84366	7.44641	-5.58804	18.79244	27.4428	1.20805	0.82778	138.15915	150.99446	51.26496	0.3475	 	1468451.162	 	4.49752E-6	 	26293.07535	60.59688	 
1075.0	1.0	0.0	7.84826	7.44205	-5.64334	18.68493	27.28209	1.21067	0.82599	138.94277	151.45966	51.5708	0.34711	 	1623369.13	 	4.05329E-6	 	25996.01952	59.41117	 
1070.0	1.0	0.0	7.85277	7.43777	-5.69754	18.58033	27.12716	1.21307	0.82435	139.70569	151.91087	51.86871	0.34672	 	1795874.653	 	3.65036E-6	 	25704.63645	58.27661	 
1065.0	1.0	0.0	7.8572	7.43358	-5.75069	18.47849	26.97751	1.21526	0.82287	140.44994	152.35001	52.15945	0.34635	 	1988088.041	 	3.28516E-6	 	25418.67938	57.19141	 
1060.0	1.0	0.0	7.86155	7.42947	-5.80283	18.3793	26.83277	1.21725	0.82152	141.17691	152.77829	52.44355	0.34599	 	2202401.172	 	2.9544E-6	 	25137.91016	56.15384	 
1055.0	1.0	0.0	7.86582	7.42543	-5.85402	18.28265	26.69261	1.21905	0.82031	141.88774	153.19659	52.72142	0.34564	 	2441513.844	 	2.65506E-6	 	24862.09942	55.16215	 
1050.0	1.0	0.0	7.87003	7.42147	-5.90428	18.18841	26.5567	1.22068	0.81922	142.58343	153.60565	52.99346	0.34529	 	2708475.966	 	2.38435E-6	 	24591.02658	54.21457	 
1045.0	1.0	0.0	7.87416	7.41757	-5.95366	18.09647	26.42479	1.22214	0.81824	143.26485	154.00609	53.25999	0.34496	 	3006735.582	 	2.13972E-6	 	24324.47991	53.30933	 
1040.0	1.0	0.0	7.87822	7.41375	-6.0022	18.00674	26.2966	1.22343	0.81737	143.93284	154.39848	53.52133	0.34463	 	3340194.613	 	1.9188E-6	 	24062.25623	52.44474	 
1035.0	1.0	0.0	7.88223	7.40998	-6.04993	17.91909	26.17191	1.22458	0.8166	144.58815	154.78332	53.77778	0.34431	 	3713271.285	 	1.71944E-6	 	23804.1611	51.61903	 
1031.22	1.0	0.0	7.88521	7.40718	-6.08548	17.85421	26.07986	1.22536	0.81609	145.07535	155.0694	53.96848	0.34407	 	4024494.27	 	1.58189E-6	 	23611.75951	 	 
1030.0	1.0	0.0	7.88617	7.40628	-6.09687	17.83353	26.05048	1.22559	0.81593	145.23154	155.16118	54.02962	0.344	 	4130997.507	 	1.53966E-6	 	23549.97769	50.83668	 
1025.0	1.0	0.0	7.89005	7.40264	-6.14303	17.75003	25.93211	1.22646	0.81536	145.86381	155.53268	54.27715	0.34369	 	4599102.536	 	1.37765E-6	 	23299.46114	50.10331	 
1020.0	1.0	0.0	7.89387	7.39905	-6.18849	17.66832	25.8166	1.2272	0.81486	146.48536	155.89786	54.52054	0.3434	 	5123980.143	 	1.23177E-6	 	23052.54888	49.38245	 
1015.0	1.0	0.0	7.89764	7.39552	-6.23328	17.58833	25.70377	1.22782	0.81445	147.09677	156.25705	54.76001	0.3431	 	5712961.318	 	1.1005E-6	 	22809.07868	48.69404	 
1010.0	1.0	0.0	7.90136	7.39204	-6.27743	17.50995	25.59345	1.22833	0.81411	147.69857	156.6106	54.99577	0.34282	 	6374384.125	 	9.82485E-7	 	22568.89613	48.03651	 
1005.0	1.0	0.0	7.90503	7.3886	-6.32096	17.43311	25.48548	1.22873	0.81385	148.29128	156.95879	55.22801	0.34254	 	7117739.344	 	8.76449E-7	 	22331.85437	47.40835	 
1000.0	1.0	0.0	7.90866	7.38522	-6.36391	17.35775	25.37971	1.22902	0.81366	148.87537	157.30191	55.45691	0.34226	 	7953840.885	 	7.81249E-7	 	22097.81378	46.80812	 
995.0	1.0	0.0	7.91224	7.38187	-6.4063	17.28377	25.27601	1.22922	0.81353	149.45127	157.64022	55.68266	0.34199	 	8895020.099	 	6.95842E-7	 	21866.64179	46.2344	 
990.0	1.0	0.0	7.91578	7.37857	-6.44814	17.21112	25.17425	1.22932	0.81346	150.01942	157.97394	55.9054	0.34173	 	9955352.452	 	6.19277E-7	 	21638.21249	45.68586	 
985.0	1.0	0.0	7.91928	7.37531	-6.48947	17.13972	25.07431	1.22933	0.81345	150.58019	158.3033	56.1253	0.34146	 	1.115091898E7	 	5.50692E-7	 	21412.40644	45.16121	 
980.0	1.0	0.0	7.92274	7.37209	-6.5303	17.06952	24.97608	1.22926	0.8135	151.13396	158.62851	56.34249	0.34121	 	1.250010918E7	 	4.89301E-7	 	21189.11027	44.65923	 
975.0	1.0	0.0	7.92616	7.36891	-6.57066	17.00045	24.87946	1.22911	0.81359	151.68107	158.94975	56.55711	0.34095	 	1.402397304E7	 	4.34393E-7	 	20968.21651	44.17875	 
970.0	1.0	0.0	7.92954	7.36576	-6.61056	16.93245	24.78435	1.22889	0.81374	152.22183	159.2672	56.76928	0.34071	 	1.574662789E7	 	3.85321E-7	 	20749.62319	43.71866	 
965.0	1.0	0.0	7.9329	7.36265	-6.65003	16.86548	24.69067	1.22859	0.81394	152.75656	159.58103	56.97912	0.34046	 	1.769573321E7	 	3.41501E-7	 	20533.23364	43.27791	 
960.0	1.0	0.0	7.93622	7.35957	-6.68907	16.79948	24.59833	1.22822	0.81419	153.28552	159.89137	57.18674	0.34022	 	1.990304344E7	 	3.02401E-7	 	20318.95621	42.85549	 
955.0	1.0	0.0	7.9395	7.35652	-6.7277	16.7344	24.50725	1.22779	0.81447	153.80898	160.19838	57.39224	0.33998	 	2.240504753E7	 	2.67542E-7	 	20106.70396	42.45045	 
950.0	1.0	0.0	7.94276	7.35351	-6.76595	16.67019	24.41737	1.22729	0.8148	154.32719	160.50219	57.59571	0.33975	 	2.524372059E7	 	2.3649E-7	 	19896.39446	42.0619	 
945.0	1.0	0.0	7.94599	7.35052	-6.80382	16.60681	24.3286	1.22673	0.81517	154.84039	160.80291	57.79726	0.33951	 	2.84673973E7	 	2.08853E-7	 	19687.9495	41.68899	 
940.0	1.0	0.0	7.94919	7.34756	-6.84133	16.54422	24.2409	1.22612	0.81558	155.34879	161.10067	57.99696	0.33928	 	3.213179306E7	 	1.84275E-7	 	19481.2949	41.33092	 
935.0	1.0	0.0	7.95236	7.34463	-6.87849	16.48237	24.15421	1.22545	0.81603	155.85259	161.39556	58.19489	0.33906	 	3.630119587E7	 	1.62438E-7	 	19276.36025	40.98693	 
930.0	1.0	0.0	7.95551	7.34173	-6.91531	16.42123	24.06846	1.22472	0.81651	156.35199	161.68768	58.39113	0.33883	 	4.104986938E7	 	1.43052E-7	 	19073.07871	40.65631	 
925.0	1.0	0.0	7.95863	7.33885	-6.95181	16.36075	23.98361	1.22395	0.81703	156.84716	161.97714	58.58575	0.33861	 	4.646369247E7	 	1.25859E-7	 	18871.38685	40.33837	 
920.0	1.0	0.0	7.96172	7.33599	-6.988	16.30091	23.8996	1.22312	0.81758	157.33828	162.264	58.77882	0.33839	 	5.264207982E7	 	1.10624E-7	 	18671.22437	40.0325	 
915.0	1.0	0.0	7.9648	7.33316	-7.02389	16.24167	23.81641	1.22225	0.81816	157.8255	162.54836	58.97039	0.33818	 	5.970024747E7	 	9.71364E-8	 	18472.534	39.73807	 
910.0	1.0	0.0	7.96785	7.33036	-7.05948	16.18299	23.73398	1.22134	0.81878	158.30897	162.8303	59.16053	0.33796	 	6.777187055E7	 	8.52073E-8	 	18275.2613	39.45454	 
905.0	1.0	0.0	7.97087	7.32757	-7.09479	16.12486	23.65227	1.22038	0.81942	158.78884	163.10987	59.34928	0.33775	 	7.701222168E7	 	7.46668E-8	 	18079.35449	39.18136	 
900.0	1.0	0.0	7.97388	7.32481	-7.12982	16.06722	23.57125	1.21937	0.82009	159.26523	163.38715	59.53671	0.33754	 	8.760185651E7	 	6.53622E-8	 	17884.76434	38.91803	 
895.0	1.0	0.0	7.97687	7.32207	-7.16459	16.01007	23.49088	1.21833	0.82079	159.73827	163.6622	59.72286	0.33733	 	9.97509866E7	 	5.71568E-8	 	17691.44395	38.66408	 
890.0	1.0	0.0	7.97983	7.31934	-7.1991	15.95337	23.41114	1.21725	0.82152	160.20807	163.93508	59.90778	0.33712	 	1.137046329E8	 	4.9928E-8	 	17499.34871	38.41905	 
885.0	1.0	0.0	7.98278	7.31664	-7.23337	15.89709	23.33199	1.21613	0.82228	160.67475	164.20584	60.0915	0.33692	 	1.297487301E8	 	4.35661E-8	 	17308.4361	38.18252	 
880.0	1.0	0.0	7.98571	7.31396	-7.26739	15.84121	23.2534	1.21497	0.82307	161.1384	164.47454	60.27408	0.33671	 	1.482173495E8	 	3.79729E-8	 	17118.66546	37.95413	 
875.0	1.0	0.0	7.98862	7.31129	-7.30117	15.78572	23.17535	1.21378	0.82388	161.59914	164.74123	60.45554	0.33651	 	1.695013128E8	 	3.30607E-8	 	16929.99794	37.7335	 
870.0	1.0	0.0	7.99151	7.30865	-7.33473	15.73057	23.09781	1.21255	0.82471	162.05704	165.00595	60.63593	0.33631	 	1.940583518E8	 	2.87513E-8	 	16742.39726	37.52014	 
865.0	1.0	0.0	7.99439	7.30602	-7.36807	15.67576	23.02077	1.21128	0.82557	162.51221	165.26875	60.81528	0.33611	 	2.2242526E8	 	2.49748E-8	 	16555.82834	37.31378	 
860.0	1.0	0.0	7.99725	7.30341	-7.40119	15.62125	22.94419	1.20999	0.82645	162.96471	165.52966	60.99362	0.33592	 	2.55232356E8	 	2.1669E-8	 	16370.25767	37.11413	 
855.0	1.0	0.0	8.00009	7.30081	-7.4341	15.56704	22.86805	1.20866	0.82736	163.41463	165.78874	61.17099	0.33572	 	2.932206761E8	 	1.87784E-8	 	16185.65329	36.92088	 
850.0	1.0	0.0	8.00292	7.29823	-7.4668	15.5131	22.79235	1.2073	0.8283	163.86204	166.04602	61.3474	0.33553	 	3.372626334E8	 	1.62538E-8	 	16001.98467	36.73373	 
845.0	1.0	0.0	8.00521	7.29615	-7.49323	15.48713	22.72148	1.20567	0.82941	164.24308	166.29052	61.49651	0.33539	 	3.840603965E8	 	1.42098E-8	 	15849.95969	30.40499	 
840.0	1.0	0.0	8.00749	7.29407	-7.51959	15.46116	22.65061	1.20404	0.83054	164.62344	166.53396	61.64539	0.33525	 	4.378625243E8	 	1.2408E-8	 	15695.06851	30.97824	 
835.0	1.0	0.0	8.00976	7.29199	-7.54588	15.4352	22.57973	1.20239	0.83168	165.00313	166.77634	61.79405	0.33511	 	4.997926219E8	 	1.08217E-8	 	15540.41539	30.93062	 
830.0	1.0	0.0	8.01204	7.28993	-7.5721	15.40924	22.50883	1.20074	0.83282	165.38214	167.01767	61.94248	0.33497	 	5.711664706E8	 	9.42668E-9	 	15385.99966	30.88315	 
825.0	1.0	0.0	8.0143	7.28786	-7.59824	15.38328	22.43792	1.19907	0.83398	165.76048	167.25794	62.09069	0.33483	 	6.535269221E8	 	8.20134E-9	 	15231.82061	30.83581	 
820.0	1.0	0.0	8.01657	7.28581	-7.62432	15.35733	22.36701	1.1974	0.83515	166.13814	167.49717	62.23868	0.33469	 	7.486854948E8	 	7.12635E-9	 	15077.87757	30.78861	 
815.0	1.0	0.0	8.01882	7.28375	-7.65033	15.33139	22.29608	1.19571	0.83632	166.51513	167.73534	62.38644	0.33455	 	8.587720278E8	 	6.1844E-9	 	14924.16978	30.74156	 
810.0	1.0	0.0	8.02108	7.28171	-7.67627	15.30544	22.22513	1.19402	0.83751	166.89144	167.97248	62.53398	0.33441	 	9.862940408E8	 	5.36005E-9	 	14770.69656	30.69465	 
805.0	1.0	0.0	8.02332	7.27967	-7.70213	15.2795	22.15418	1.19231	0.83871	167.26708	168.20857	62.6813	0.33427	 	1.134207799E9	 	4.63952E-9	 	14617.45713	30.64789	 
800.0	1.0	0.0	8.02557	7.27763	-7.72793	15.25357	22.08321	1.1906	0.83992	167.64205	168.44362	62.8284	0.33413	 	1.306003513E9	 	4.01054E-9	 	14464.45075	30.60128	 
795.0	1.0	0.0	8.02781	7.27561	-7.75366	15.22764	22.01223	1.18887	0.84114	168.01634	168.67764	62.97527	0.33399	 	1.505807648E9	 	3.46218E-9	 	14311.67667	30.55482	 
790.0	1.0	0.0	8.03004	7.27358	-7.77932	15.20171	21.94124	1.18713	0.84237	168.38996	168.91063	63.12191	0.33385	 	1.738505946E9	 	2.98473E-9	 	14159.13409	30.50852	 
785.0	1.0	0.0	8.03227	7.27156	-7.8049	15.17579	21.87023	1.18539	0.84361	168.7629	169.14259	63.26833	0.33371	 	2.009891592E9	 	2.56958E-9	 	14006.82221	30.46238	 
780.0	1.0	0.0	8.03449	7.26955	-7.83042	15.14987	21.79922	1.18363	0.84486	169.13517	169.37353	63.41453	0.33357	 	2.32684395E9	 	2.20907E-9	 	13854.74021	30.4164	 
775.0	1.0	0.0	8.03671	7.26754	-7.85586	15.12396	21.72818	1.18186	0.84612	169.50677	169.60343	63.56051	0.33343	 	2.697544485E9	 	1.89645E-9	 	13702.88726	30.37059	 
770.0	1.0	0.0	8.03892	7.26554	-7.88124	15.09805	21.65714	1.18008	0.8474	169.87769	169.83232	63.70626	0.33329	 	3.13173805E9	 	1.62573E-9	 	13551.2625	30.32495	 
765.0	1.0	0.0	8.04113	7.26355	-7.90655	15.07214	21.58608	1.17829	0.84869	170.24794	170.06019	63.85179	0.33315	 	3.641049571E9	 	1.39162E-9	 	13399.86504	30.27949	 
760.0	1.0	0.0	8.04334	7.26156	-7.93178	15.04624	21.51501	1.17649	0.84999	170.61751	170.28705	63.99709	0.33301	 	4.239368499E9	 	1.18946E-9	 	13248.69399	30.23421	 
755.0	1.0	0.0	8.04554	7.25957	-7.95695	15.02034	21.44392	1.17468	0.8513	170.98642	170.51289	64.14217	0.33287	 	4.943316304E9	 	1.01514E-9	 	13097.74842	30.18911	 
750.0	1.0	0.0	8.04773	7.25759	-7.98205	14.99445	21.37282	1.17285	0.85262	171.35465	170.73773	64.28703	0.33273	 	5.772815914E9	 	8.65044E-10	 	12947.02738	30.14421	 
745.0	1.0	0.0	8.04992	7.25562	-8.00707	14.96856	21.30171	1.17102	0.85396	171.7222	170.96156	64.43166	0.33259	 	6.751786498E9	 	7.36003E-10	 	12796.52987	30.0995	 
740.0	1.0	0.0	8.0521	7.25365	-8.03203	14.94267	21.23058	1.16917	0.85531	172.08909	171.18438	64.57607	0.33245	 	7.908992666E9	 	6.25229E-10	 	12646.2549	30.05499	 
735.0	1.0	0.0	8.05428	7.25169	-8.05691	14.91679	21.15943	1.16731	0.85667	172.4553	171.4062	64.72025	0.33231	 	9.279084199E9	 	5.30282E-10	 	12496.20142	30.0107	 
730.0	1.0	0.0	8.05646	7.24973	-8.08173	14.89092	21.08827	1.16544	0.85804	172.82083	171.62703	64.86421	0.33217	 	1.09039E10	 	4.49026E-10	 	12346.36834	29.96661	 
725.0	1.0	0.0	8.05863	7.24778	-8.10647	14.86504	21.01709	1.16356	0.85943	173.1857	171.84686	65.00795	0.33203	 	1.2833899999999998E10	 	3.79598E-10	 	12196.75457	29.92275	 
720.0	1.0	0.0	8.06079	7.24583	-8.13115	14.83917	20.9459	1.16167	0.86083	173.54989	172.0657	65.15146	0.3319	 	1.5130299999999998E10	 	3.20371E-10	 	12047.35894	29.87913	 
715.0	1.0	0.0	8.06295	7.24389	-8.15576	14.81331	20.8747	1.15976	0.86225	173.91341	172.28354	65.29474	0.33176	 	1.78674E10	 	2.69927E-10	 	11898.18026	29.83574	 
710.0	1.0	0.0	8.06511	7.24196	-8.18029	14.78745	20.80347	1.15784	0.86367	174.27626	172.5004	65.43781	0.33162	 	2.11354E10	 	2.27037E-10	 	11749.21729	29.79259	 
705.0	1.0	0.0	8.06726	7.24003	-8.20476	14.76159	20.73224	1.15591	0.86512	174.63843	172.71627	65.58064	0.33148	 	2.5044099999999996E10	 	1.90628E-10	 	11600.46874	29.74971	 
700.0	1.0	0.0	8.0694	7.2381	-8.22916	14.73574	20.66098	1.15397	0.86657	174.99994	172.93117	65.72326	0.33134	 	2.9727399999999996E10	 	1.59776E-10	 	11451.93328	29.70709	 
695.0	1.0	0.0	8.07154	7.23618	-8.25348	14.7099	20.58971	1.15202	0.86804	175.36077	173.14508	65.86565	0.3312	 	3.5349E10	 	1.33676E-10	 	11303.6095	29.66476	 
690.0	1.0	0.0	8.07368	7.23427	-8.27774	14.68405	20.51842	1.15005	0.86953	175.72093	173.35801	66.00781	0.33106	 	4.21093E10	 	1.11636E-10	 	11155.49596	29.62271	 
685.0	1.0	0.0	8.0758	7.23236	-8.30193	14.65821	20.44711	1.14807	0.87103	176.08041	173.56998	66.14975	0.33092	 	5.025419999999999E10	 	9.30567E-11	 	11007.59116	29.58096	 
680.0	1.0	0.0	8.07793	7.23046	-8.32604	14.63238	20.37579	1.14607	0.87254	176.43923	173.78097	66.29147	0.33078	 	6.008589999999999E10	 	7.74239E-11	 	10859.8935	29.53953	 
675.0	1.0	0.0	8.08005	7.22856	-8.35009	14.60655	20.30445	1.14407	0.87407	176.79737	173.99099	66.43296	0.33065	 	7.19766E10	 	6.42943E-11	 	10712.40133	29.49843	 
670.0	1.0	0.0	8.08216	7.22667	-8.37407	14.58072	20.23309	1.14205	0.87562	177.15484	174.20004	66.57422	0.33051	 	8.63856E10	 	5.32876E-11	 	10565.11293	29.45768	 
665.0	1.0	0.0	8.08427	7.22479	-8.39798	14.5549	20.16171	1.14002	0.87718	177.51164	174.40813	66.71526	0.33037	 	1.03881E11	 	4.40781E-11	 	10418.02649	29.41729	 
660.0	1.0	0.0	8.08638	7.22291	-8.42181	14.52908	20.09031	1.13797	0.87876	177.86777	174.61526	66.85608	0.33023	 	1.25167E11	 	3.63872E-11	 	10271.14421	29.37646	 
655.0	1.0	0.0	8.08848	7.22103	-8.44558	14.50326	20.0189	1.13591	0.88035	178.22323	174.82143	66.99667	0.33009	 	1.51118E11	 	2.99771E-11	 	10124.48864	29.33111	 
650.0	1.0	0.0	8.09057	7.21916	-8.46928	14.47745	19.94746	1.13384	0.88196	178.57802	175.02665	67.13704	0.32995	 	1.82821E11	 	2.46452E-11	 	9978.08983	29.27976	 
645.0	1.0	0.0	8.09266	7.2173	-8.49291	14.45165	19.87601	1.13175	0.88359	178.93213	175.23091	67.27718	0.32981	 	2.21636E11	 	2.02191E-11	 	9831.94694	29.22858	 
640.0	1.0	0.0	8.09474	7.21544	-8.51647	14.42585	19.80454	1.12965	0.88523	179.28557	175.43422	67.41709	0.32967	 	2.69258E11	 	1.65524E-11	 	9686.05914	29.17756	 
635.0	1.0	0.0	8.09682	7.21359	-8.53996	14.40005	19.73304	1.12753	0.88689	179.63835	175.63658	67.55678	0.32954	 	3.27814E11	 	1.35213E-11	 	9540.42564	29.1267	 
630.0	1.0	0.0	8.0989	7.21174	-8.56338	14.37426	19.66153	1.1254	0.88857	179.99045	175.838	67.69625	0.3294	 	3.99974E11	 	1.10208E-11	 	9395.04562	29.076	 
625.0	1.0	0.0	8.10097	7.2099	-8.58673	14.34847	19.58999	1.12326	0.89027	180.34188	176.03848	67.83549	0.32926	 	4.89102E11	 	8.96264E-12	 	9249.91794	29.02554	 
620.0	1.0	0.0	8.10303	7.20806	-8.61001	14.32268	19.51844	1.1211	0.89198	180.69264	176.23801	67.97451	0.32912	 	5.99439E11	 	7.2722E-12	 	9105.04105	28.97538	 
615.0	1.0	0.0	8.10509	7.20623	-8.63322	14.2969	19.44686	1.11893	0.89371	181.04273	176.4366	68.1133	0.32898	 	7.36352E11	 	5.88691E-12	 	8960.41452	28.92531	 
610.0	1.0	0.0	8.10714	7.20441	-8.65636	14.27112	19.37526	1.11674	0.89546	181.39214	176.63426	68.25186	0.32884	 	9.06645E11	 	4.75427E-12	 	8816.03758	28.87539	 
605.0	1.0	0.0	8.10919	7.20259	-8.67944	14.24535	19.30364	1.11454	0.89723	181.74089	176.83099	68.3902	0.32871	 	1.11897E12	 	3.83034E-12	 	8671.90942	28.82563	 
600.0	1.0	0.0	8.11123	7.20077	-8.70244	14.21958	19.232	1.11232	0.89902	182.08897	177.02678	68.52831	0.32857	 	1.38435E12	 	3.07844E-12	 	8528.02926	28.77603	 
595.0	1.0	0.0	8.11327	7.19896	-8.72537	14.19382	19.16033	1.11009	0.90083	182.43638	177.22165	68.6662	0.32843	 	1.71687E12	 	2.46799E-12	 	8384.39633	28.72659	 
590.0	1.0	0.0	8.1153	7.19716	-8.74823	14.16806	19.08864	1.10784	0.90266	182.78311	177.41559	68.80387	0.32829	 	2.13458E12	 	1.97361E-12	 	8241.00985	28.6773	 
585.0	1.0	0.0	8.11733	7.19536	-8.77103	14.1423	19.01693	1.10558	0.90451	183.12918	177.6086	68.9413	0.32815	 	2.66066E12	 	1.5742E-12	 	8097.86903	28.62816	 
580.0	1.0	0.0	8.11935	7.19357	-8.79375	14.11655	18.94519	1.1033	0.90637	183.47457	177.8007	69.07851	0.32801	 	3.32497E12	 	1.25234E-12	 	7954.9731	28.57919	 
575.0	1.0	0.0	8.12137	7.19178	-8.81641	14.0908	18.87343	1.101	0.90826	183.8193	177.99188	69.2155	0.32788	 	4.16608E12	 	9.93645E-13	 	7812.32129	28.53036	 
570.0	1.0	0.0	8.12338	7.19	-8.83899	14.06506	18.80165	1.09869	0.91018	184.16335	178.18214	69.35226	0.32774	 	5.23395E12	 	7.86252E-13	 	7669.91284	28.48169	 
565.0	1.0	0.0	8.12539	7.18823	-8.86151	14.03932	18.72984	1.09636	0.91211	184.50674	178.37148	69.48879	0.3276	 	6.59346E12	 	6.20433E-13	 	7527.74698	28.43317	 
560.0	1.0	0.0	8.12739	7.18646	-8.88396	14.01358	18.658	1.09402	0.91406	184.84945	178.55992	69.6251	0.32746	 	8.32916E12	 	4.88212E-13	 	7385.82295	28.38481	 
555.0	1.0	0.0	8.12939	7.18469	-8.90633	13.98785	18.58614	1.09166	0.91604	185.1915	178.74744	69.76118	0.32732	 	1.05515E13	 	3.83073E-13	 	7244.13999	28.33659	 
550.0	1.0	0.0	8.13138	7.18293	-8.92864	13.96212	18.51426	1.08928	0.91804	185.53287	178.93406	69.89704	0.32719	 	1.34053E13	 	2.99703E-13	 	7102.69736	28.28853	 
545.0	1.0	0.0	8.13337	7.18118	-8.95088	13.9364	18.44234	1.08688	0.92006	185.87358	179.11978	70.03267	0.32705	 	1.70807E13	 	2.33783E-13	 	6961.49429	28.24061	 
540.0	1.0	0.0	8.13535	7.17943	-8.97305	13.91068	18.3704	1.08447	0.92211	186.21361	179.30459	70.16807	0.32691	 	2.18289E13	 	1.81813E-13	 	6820.53006	28.19285	 
535.0	1.0	0.0	8.13732	7.17769	-8.99515	13.88497	18.29843	1.08204	0.92418	186.55298	179.4885	70.30325	0.32677	 	2.79818E13	 	1.40962E-13	 	6679.80392	28.14523	 
530.0	1.0	0.0	8.13929	7.17595	-9.01718	13.85926	18.22644	1.0796	0.92627	186.89167	179.67152	70.4382	0.32664	 	3.59801E13	 	1.08948E-13	 	6539.31513	28.09776	 
525.0	1.0	0.0	8.14126	7.17422	-9.03914	13.83355	18.15441	1.07713	0.92839	187.2297	179.85364	70.57293	0.3265	 	4.64106E13	 	8.39371E-14	 	6399.06296	28.05043	 
520.0	1.0	0.0	8.14322	7.17249	-9.06103	13.80785	18.08236	1.07465	0.93054	187.56706	180.03486	70.70742	0.32636	 	6.00573E13	 	6.44579E-14	 	6259.04667	28.00326	 
515.0	1.0	0.0	8.14517	7.17077	-9.08286	13.78215	18.01027	1.07215	0.93271	187.90374	180.2152	70.8417	0.32622	 	7.79713E13	 	4.93357E-14	 	6119.26556	27.95622	 
510.0	1.0	0.0	8.14712	7.16905	-9.10461	13.75646	17.93816	1.06963	0.9349	188.23976	180.39465	70.97574	0.32609	 	1.01567E14	 	3.7634E-14	 	5979.7189	27.90933	 
505.0	1.0	0.0	8.14907	7.16734	-9.1263	13.73077	17.86601	1.06709	0.93713	188.57511	180.57321	71.10956	0.32595	 	1.3275299999999998E14	 	2.86093E-14	 	5840.40598	27.86258	 
500.0	1.0	0.0	8.151	7.16564	-9.14791	13.70508	17.79384	1.06454	0.93938	188.90979	180.75089	71.24315	0.32581	 	1.74116E14	 	2.16726E-14	 	5701.32608	27.81598	 
495.0	1.0	0.0	8.15294	7.16394	-9.16946	13.6794	17.72163	1.06196	0.94165	189.2438	180.92769	71.37652	0.32567	 	2.29176E14	 	1.63593E-14	 	5562.47851	27.76951	 
490.0	1.0	0.0	8.15487	7.16225	-9.19093	13.65372	17.64939	1.05937	0.94396	189.57714	181.1036	71.50966	0.32554	 	3.02734E14	 	1.23037E-14	 	5423.86257	27.72319	 
485.0	1.0	0.0	8.15679	7.16056	-9.21234	13.62805	17.57712	1.05675	0.94629	189.90981	181.27864	71.64257	0.3254	 	4.01374E14	 	9.21918E-15	 	5285.47755	27.677	 
480.0	1.0	0.0	8.15871	7.15887	-9.23368	13.60238	17.50482	1.05412	0.94866	190.24182	181.45281	71.77525	0.32526	 	5.3415099999999994E14	 	6.88184E-15	 	5147.32279	27.63095	 
475.0	1.0	0.0	8.16062	7.1572	-9.25495	13.57672	17.43248	1.05147	0.95105	190.57315	181.62611	71.90771	0.32512	 	7.1357E14	 	5.11727E-15	 	5009.3976	27.58504	 
470.0	1.0	0.0	8.16253	7.15552	-9.27615	13.55106	17.3601	1.04879	0.95348	190.90381	181.79853	72.03994	0.32499	 	9.56979E14	 	3.79019E-15	 	4871.70129	27.53926	 
465.0	1.0	0.0	8.16443	7.15386	-9.29728	13.5254	17.28769	1.0461	0.95593	191.23381	181.97008	72.17194	0.32485	 	1.28853E15	 	2.796E-15	 	4734.23322	27.49362	 
460.0	1.0	0.0	8.16632	7.1522	-9.31834	13.49975	17.21525	1.04339	0.95842	191.56314	182.14077	72.30372	0.32471	 	1.742E15	 	2.05414E-15	 	4596.9927	27.4481	 
455.0	1.0	0.0	8.16821	7.15054	-9.33934	13.4741	17.14277	1.04065	0.96094	191.89179	182.3106	72.43527	0.32457	 	2.36484E15	 	1.50281E-15	 	4459.97909	27.40272	 
450.0	1.0	0.0	8.1701	7.14889	-9.36026	13.44846	17.07025	1.0379	0.96349	192.21978	182.47957	72.56659	0.32444	 	3.22397E15	 	1.09477E-15	 	4323.19174	27.35747	 
445.0	1.0	0.0	8.17198	7.14725	-9.38112	13.42282	16.99769	1.03512	0.96607	192.5471	182.64767	72.69769	0.3243	 	4.41422E15	 	7.94051E-16	 	4186.63	27.31235	 
440.0	1.0	0.0	8.17386	7.14561	-9.4019	13.39718	16.9251	1.03232	0.96869	192.87376	182.81492	72.82855	0.32416	 	6.07058E15	 	5.73374E-16	 	4050.29325	27.26735	 
435.0	1.0	0.0	8.17572	7.14397	-9.42262	13.37155	16.85247	1.0295	0.97134	193.19974	182.98131	72.95919	0.32403	 	8.38611E15	 	4.12147E-16	 	3914.18085	27.22248	 
430.0	1.0	0.0	8.17759	7.14234	-9.44327	13.34592	16.77979	1.02666	0.97403	193.52505	183.14685	73.08961	0.32389	 	1.16382E16	 	2.94882E-16	 	3778.29219	27.17773	 
425.0	1.0	0.0	8.17945	7.14072	-9.46385	13.3203	16.70708	1.0238	0.97675	193.8497	183.31154	73.21979	0.32375	 	1.62275E16	 	2.09983E-16	 	3642.62671	27.1331	 
420.0	1.0	0.0	8.1813	7.1391	-9.48436	13.29468	16.63432	1.02091	0.97952	194.17368	183.47539	73.34975	0.32362	 	2.27352E16	 	1.48804E-16	 	3507.18373	27.0886	 
415.0	1.0	0.0	8.18315	7.13749	-9.5048	13.26907	16.56152	1.018	0.98232	194.49699	183.63838	73.47948	0.32348	 	3.20092E16	 	1.04929E-16	 	3371.96288	27.04417	 
410.0	1.0	0.0	8.18499	7.13588	-9.52517	13.24346	16.48868	1.01507	0.98515	194.81963	183.80053	73.60898	0.32334	 	4.52923E16	 	7.3617E-17	 	3236.96393	26.99979	 
405.0	1.0	0.0	8.18683	7.13428	-9.54547	13.21785	16.41579	1.01212	0.98803	195.1416	183.96184	73.73825	0.3232	 	6.44167E16	 	5.13824E-17	 	3102.18664	26.95546	 
400.0	1.0	0.0	8.18866	7.13269	-9.56571	13.19225	16.34286	1.00914	0.99095	195.4629	184.12231	73.8673	0.32307	 	9.20967E16	 	3.56742E-17	 	2967.63079	26.91117	 
395.0	1.0	0.0	8.19049	7.1311	-9.58587	13.16665	16.26988	1.00613	0.9939	195.78354	184.28194	73.99612	0.32293	 	1.32377E17	 	2.46347E-17	 	2833.29615	26.86693	 
390.0	1.0	0.0	8.19231	7.12951	-9.60597	13.14105	16.19686	1.00311	0.9969	196.10351	184.44074	74.12471	0.32279	 	1.91319E17	 	1.69176E-17	 	2699.18253	26.82272	 
385.0	1.0	0.0	8.19412	7.12793	-9.626	13.11547	16.12379	1.00006	0.99994	196.42281	184.5987	74.25307	0.32266	 	2.78058E17	 	1.15525E-17	 	2565.28971	26.77856	 
380.0	1.0	0.0	8.19593	7.12636	-9.64596	13.08988	16.05067	0.99698	1.00303	196.74102	184.75544	74.38105	0.32252	 	4.0644E17	 	7.84337E-18	 	2431.61754	26.73443	 
375.0	1.0	0.0	8.19774	7.12479	-9.66585	13.0643	15.9775	0.99388	1.00616	197.05897	184.91172	74.50895	0.32238	 	5.97588E17	 	5.29371E-18	 	2298.16582	26.69034	 
370.0	1.0	0.0	8.19954	7.12322	-9.68567	13.03872	15.90427	0.99075	1.00934	197.37625	185.06718	74.63662	0.32225	 	8.83915E17	 	3.55131E-18	 	2164.93439	26.64628	 
365.0	1.0	0.0	8.20133	7.12167	-9.70542	13.01315	15.831	0.9876	1.01256	197.69286	185.22182	74.76406	0.32211	 	1.31548E18	 	2.3677E-18	 	2031.92312	26.60225	 
360.0	1.0	0.0	8.20312	7.12011	-9.72511	12.98758	15.75767	0.98442	1.01583	198.00881	185.37563	74.89128	0.32198	 	1.97007E18	 	1.5686E-18	 	1899.13187	26.55825	 
355.0	1.0	0.0	8.2049	7.11857	-9.74472	12.96201	15.68429	0.98122	1.01914	198.32409	185.52862	75.01826	0.32184	 	2.96944E18	 	1.03247E-18	 	1766.56051	26.51427	 
350.0	1.0	0.0	8.20668	7.11703	-9.76427	12.93645	15.61086	0.97798	1.02251	198.6387	185.68079	75.14502	0.3217	 	4.50532E18	 	6.75078E-19	 	1634.20894	26.47031	 
345.0	1.0	0.0	8.20845	7.11549	-9.78375	12.9109	15.53736	0.97473	1.02593	198.95264	185.83214	75.27155	0.32157	 	6.88186E18	 	4.38404E-19	 	1502.07708	26.42637	 
340.0	1.0	0.0	8.21022	7.11396	-9.80316	12.88534	15.46381	0.97144	1.0294	199.26591	185.98267	75.39785	0.32143	 	1.05849E19	 	2.82727E-19	 	1370.16483	26.38245	 
335.0	1.0	0.0	8.21198	7.11243	-9.8225	12.8598	15.39021	0.96813	1.03292	199.57852	186.1324	75.52392	0.32129	 	1.63962E19	 	1.81032E-19	 	1238.47213	26.33854	 
330.0	1.0	0.0	8.21373	7.11091	-9.84177	12.83425	15.31654	0.96479	1.0365	199.89045	186.28131	75.64976	0.32116	 	2.55828E19	 	1.1507E-19	 	1106.99895	26.29464	 
325.0	1.0	0.0	8.21548	7.1094	-9.86097	12.80871	15.2428	0.96142	1.04013	200.20172	186.42941	75.77538	0.32102	 	4.02148E19	 	7.25958E-20	 	975.74526	26.25074	 
320.0	1.0	0.0	8.21723	7.10789	-9.88011	12.78318	15.16901	0.95802	1.04382	200.51233	186.5767	75.90076	0.32088	 	6.36992E19	 	4.54483E-20	 	844.71105	26.20684	 
315.0	1.0	0.0	8.21897	7.10638	-9.89918	12.75764	15.09515	0.95459	1.04757	200.82226	186.72319	76.02592	0.32075	 	1.0169E20	 	2.82291E-20	 	713.89632	26.16295	 
310.0	1.0	0.0	8.2207	7.10489	-9.91817	12.73212	15.02122	0.95113	1.05138	201.13153	186.86888	76.15084	0.32061	 	1.63646E20	 	1.73924E-20	 	583.30111	26.11904	 
305.0	1.0	0.0	8.22243	7.10339	-9.9371	12.70659	14.94723	0.94765	1.05525	201.44013	187.01376	76.27554	0.32048	 	2.6552699999999997E20	 	1.06272E-20	 	452.92546	26.07513	 
300.0	1.0	0.0	8.22415	7.10191	-9.95596	12.68107	14.87317	0.94413	1.05918	201.74806	187.15784	76.40001	0.32034	 	4.3448899999999997E20	 	6.43838E-21	 	322.76945	26.0312	 
295.0	1.0	0.0	8.22587	7.10042	-9.97476	12.65556	14.79904	0.94058	1.06317	202.05532	187.30113	76.52425	0.3202	 	7.171539999999999E20	 	3.86667E-21	 	192.83317	25.98726	 
290.0	1.0	0.0	8.22758	7.09895	-9.99348	12.63005	14.72483	0.937	1.06724	202.36192	187.44362	76.64826	0.32007	 	1.19429E21	 	2.30144E-21	 	63.11673	25.94329	 
285.0	1.0	0.0	8.22928	7.09748	-10.01213	12.60454	14.65055	0.93339	1.07136	202.66785	187.58532	76.77204	0.31993	 	2.0071400000000001E21	 	1.35725E-21	 	-66.37973	25.89929	 
280.0	1.0	0.0	8.23098	7.09601	-10.03072	12.57904	14.57619	0.92975	1.07556	202.97311	187.72622	76.89559	0.3198	 	3.40503E21	 	7.92883E-22	 	-195.65604	25.85526	 
275.0	1.0	0.0	8.23268	7.09455	-10.04924	12.55354	14.50176	0.92607	1.07983	203.2777	187.86633	77.01891	0.31966	 	5.83245E21	 	4.58706E-22	 	-324.71202	25.8112	 
270.0	1.0	0.0	8.23437	7.09309	-10.06769	12.52805	14.42724	0.92236	1.08417	203.58163	188.00566	77.142	0.31953	 	1.00899E22	 	2.62737E-22	 	-453.54743	25.76708	 
265.0	1.0	0.0	8.23605	7.09164	-10.08607	12.50256	14.35265	0.91862	1.08859	203.88489	188.1442	77.26486	0.31939	 	1.7633599999999998E22	 	1.48953E-22	 	-582.16206	25.72292	 
260.0	1.0	0.0	8.23773	7.0902	-10.10438	12.47707	14.27796	0.91485	1.09308	204.18748	188.28195	77.38749	0.31925	 	3.1142E22	 	8.35583E-23	 	-710.55559	25.67871	 
255.0	1.0	0.0	8.2394	7.08876	-10.12263	12.45159	14.2032	0.91104	1.09765	204.48941	188.41893	77.50989	0.31912	 	5.559399999999999E22	 	4.63677E-23	 	-838.72774	25.63443	 
250.0	1.0	0.0	8.24107	7.08733	-10.1408	12.42611	14.12834	0.9072	1.1023	204.79066	188.55512	77.63206	0.31898	 	1.0035099999999999E23	 	2.54444E-23	 	-966.67816	25.59008	 
245.0	1.0	0.0	8.24273	7.0859	-10.15891	12.40064	14.05339	0.90332	1.10703	205.09125	188.69053	77.754	0.31885	 	1.83216E23	 	1.38032E-23	 	-1094.40647	25.54566	 
240.0	1.0	0.0	8.24438	7.08448	-10.17695	12.37517	13.97835	0.8994	1.11185	205.39117	188.82517	77.87571	0.31871	 	3.3845399999999996E23	 	7.39998E-24	 	-1221.91226	25.50116	 
235.0	1.0	0.0	8.24603	7.08306	-10.19492	12.3497	13.90322	0.89545	1.11675	205.69043	188.95903	77.9972	0.31858	 	6.328239999999999E23	 	3.91919E-24	 	-1349.19508	25.45656	 
230.0	1.0	0.0	8.24768	7.08165	-10.21283	12.32424	13.82798	0.89147	1.12175	205.98902	189.09212	78.11845	0.31844	 	1.19803E24	 	2.04983E-24	 	-1476.25444	25.41187	 
225.0	1.0	0.0	8.24932	7.08024	-10.23066	12.29879	13.75264	0.88744	1.12683	206.28694	189.22443	78.23947	0.3183	 	2.29729E24	 	1.05835E-24	 	-1603.08981	25.36707	 
220.0	1.0	0.0	8.25095	7.07884	-10.24843	12.27333	13.6772	0.88338	1.13201	206.58419	189.35598	78.36026	0.31817	 	4.46373E24	 	5.39223E-25	 	-1729.7006	25.32216	 
215.0	1.0	0.0	8.25258	7.07744	-10.26612	12.24789	13.60165	0.87928	1.13729	206.88078	189.48676	78.48082	0.31803	 	8.79203E24	 	2.70988E-25	 	-1856.0862	25.27712	 
210.0	1.0	0.0	8.2542	7.07605	-10.28375	12.22244	13.526	0.87514	1.14267	207.1767	189.61677	78.60114	0.3179	 	1.7562E25	 	1.34275E-25	 	-1982.24595	25.23195	 
205.0	1.0	0.0	8.25581	7.07467	-10.30132	12.197	13.45022	0.87097	1.14815	207.47195	189.74602	78.72124	0.31776	 	3.5591300000000004E25	 	6.55704E-26	 	-2108.1791	25.18663	 
200.0	1.0	0.0	8.25743	7.07329	-10.31881	12.17157	13.37434	0.86675	1.15374	207.76654	189.87451	78.84111	0.31763	 	7.32143E25	 	3.1542E-26	 	-2233.88489	25.14116	 
195.0	1.0	0.0	8.25903	7.07191	-10.33623	12.14613	13.29833	0.86249	1.15943	208.06046	190.00223	78.96075	0.31749	 	1.52947E26	 	1.49394E-26	 	-2359.36248	25.09552	 
190.0	1.0	0.0	8.26063	7.07054	-10.35359	12.12071	13.2222	0.85819	1.16524	208.35371	190.1292	79.08015	0.31736	 	3.2463300000000005E26	 	6.96332E-27	 	-2484.61098	25.0497	 
185.0	1.0	0.0	8.26222	7.06918	-10.37088	12.09528	13.14594	0.85385	1.17116	208.64629	190.25541	79.19933	0.31722	 	7.004520000000001E26	 	3.19239E-27	 	-2609.62944	25.00369	 
180.0	1.0	0.0	8.26381	7.06782	-10.3881	12.06986	13.06954	0.84947	1.17721	208.93821	190.38087	79.31827	0.31709	 	1.53722E27	 	1.43878E-27	 	-2734.41684	24.95748	 
175.0	1.0	0.0	8.26539	7.06647	-10.40525	12.04445	12.99302	0.84504	1.18337	209.22946	190.50557	79.43698	0.31695	 	3.4332699999999996E27	 	6.37091E-28	 	-2858.97207	24.91105	 
170.0	1.0	0.0	8.26697	7.06512	-10.42234	12.01904	12.91635	0.84058	1.18966	209.52004	190.62952	79.55547	0.31682	 	7.808299999999999E27	 	2.77001E-28	 	-2983.29397	24.86438	 
165.0	1.0	0.0	8.26854	7.06378	-10.43936	11.99363	12.83954	0.83606	1.19608	209.80996	190.75272	79.67372	0.31668	 	1.80946E28	 	1.18184E-28	 	-3107.3813	24.81747	 
160.0	1.0	0.0	8.2701	7.06244	-10.4563	11.96823	12.76258	0.83151	1.20264	210.09921	190.87518	79.79173	0.31655	 	4.2753200000000005E28	 	4.94489E-29	 	-3231.23273	24.77029	 
155.0	1.0	0.0	8.27166	7.06111	-10.47318	11.94283	12.68547	0.8269	1.20933	210.38779	190.99688	79.90952	0.31641	 	1.03065E29	 	2.02756E-29	 	-3354.84684	24.72282	 
150.0	1.0	0.0	8.27322	7.05979	-10.49	11.91743	12.6082	0.82226	1.21617	210.67571	191.11784	80.02708	0.31628	 	2.5367700000000002E29	 	8.14141E-30	 	-3478.22214	24.67506	 
145.0	1.0	0.0	8.27477	7.05847	-10.50674	11.89204	12.53076	0.81756	1.22315	210.96296	191.23806	80.1444	0.31614	 	6.379820000000001E29	 	3.19897E-30	 	-3601.357	24.62697	 
140.0	1.0	0.0	8.27631	7.05715	-10.52342	11.86666	12.45315	0.81282	1.23028	211.24954	191.35754	80.2615	0.31601	 	1.6407E30	 	1.22904E-30	 	-3724.24971	24.57854	 
135.0	1.0	0.0	8.27784	7.05584	-10.54003	11.84128	12.37537	0.80803	1.23758	211.53546	191.47628	80.37836	0.31587	 	4.3181899999999997E30	 	4.61323E-31	 	-3846.89846	24.52975	 
130.0	1.0	0.0	8.27937	7.05454	-10.55657	11.8159	12.29741	0.80319	1.24503	211.82071	191.59428	80.49499	0.31574	 	1.16412E31	 	1.69027E-31	 	-3969.30131	24.48057	 
125.0	1.0	0.0	8.2809	7.05324	-10.57304	11.79053	12.21926	0.7983	1.25266	212.10529	191.71154	80.61139	0.3156	 	3.21745E31	 	6.03979E-32	 	-4091.45619	24.43098	 
120.0	1.0	0.0	8.28242	7.05194	-10.58944	11.76516	12.14091	0.79337	1.26045	212.38921	191.82807	80.72755	0.31547	 	9.12549E31	 	2.10276E-32	 	-4213.3609	24.38094	 
115.0	1.0	0.0	8.28393	7.05065	-10.60578	11.73979	12.06236	0.78838	1.26843	212.67246	191.94387	80.84349	0.31533	 	2.65867E32	 	7.12561E-33	 	-4335.01312	24.33044	 
110.0	1.0	0.0	8.28544	7.04937	-10.62205	11.71443	11.9836	0.78333	1.27659	212.95504	192.05894	80.95919	0.3152	 	7.96514E32	 	2.34781E-33	 	-4456.41033	24.27944	 
105.0	1.0	0.0	8.28694	7.04809	-10.63825	11.68907	11.90463	0.77824	1.28495	213.23695	192.17328	81.07466	0.31507	 	2.4565400000000002E33	 	7.51323E-34	 	-4577.5499	24.22791	 
100.0	1.0	0.0	8.28844	7.04682	-10.65438	11.66372	11.82542	0.77309	1.2935	213.5182	192.28689	81.1899	0.31493	 	7.80842E33	 	2.33242E-34	 	-4698.42902	24.17582	 
95.0	1.0	0.0	8.28993	7.04555	-10.67045	11.63837	11.74599	0.76789	1.30226	213.79879	192.39977	81.3049	0.3148	 	2.5612E34	 	7.01564E-35	 	-4819.04465	24.12313	 
90.0	1.0	0.0	8.29141	7.04429	-10.68644	11.61303	11.66631	0.76264	1.31124	214.0787	192.51193	81.41968	0.31466	 	8.68023E34	 	2.04193E-35	 	-4939.39364	24.0698	 
85.0	1.0	0.0	8.29289	7.04304	-10.70237	11.58769	11.58637	0.75733	1.32043	214.35795	192.62337	81.53422	0.31453	 	3.04382E35	 	5.74292E-36	 	-5059.47254	24.01578	 
80.0	1.0	0.0	8.29437	7.04178	-10.71823	11.56235	11.50617	0.75196	1.32986	214.63653	192.73409	81.64853	0.31439	 	1.1059499999999999E36	 	1.55851E-36	 	-5179.27773	23.96104	 
75.0	1.0	0.0	8.29583	7.04054	-10.73403	11.53702	11.4257	0.74653	1.33952	214.91445	192.84408	81.7626	0.31426	 	4.1700999999999996E36	 	4.0748E-37	 	-5298.80535	23.90552	 
70.0	1.0	0.0	8.2973	7.0393	-10.74975	11.51169	11.34494	0.74105	1.34944	215.1917	192.95336	81.87644	0.31412	 	1.6343899999999998E37	 	1.02474E-37	 	-5418.05127	23.84918	 
65.0	1.0	0.0	8.29875	7.03806	-10.76541	11.48637	11.26388	0.73551	1.3596	215.46828	193.06193	81.99006	0.31399	 	6.669699999999999E37	 	2.47451E-38	 	-5537.01106	23.79196	 
60.0	1.0	0.0	8.3002	7.03683	-10.781	11.46105	11.18251	0.72991	1.37004	215.7442	193.16978	82.10343	0.31386	 	2.83916E38	 	5.72712E-39	 	-5655.68004	23.7338	 
55.0	1.0	0.0	8.30165	7.03561	-10.79652	11.43573	11.10081	0.72424	1.38075	216.01945	193.27691	82.21658	0.31372	 	1.26312E39	 	1.26798E-39	 	-5774.05319	23.67463	 
50.0	1.0	0.0	8.30309	7.03439	-10.81198	11.41042	11.01878	0.71852	1.39176	216.29403	193.38334	82.32949	0.31359	 	5.88519E39	 	2.67997E-40	 	-5892.12513	23.61439	 
45.0	1.0	0.0	8.30452	7.03318	-10.82737	11.38511	10.93638	0.71273	1.40306	216.56795	193.48906	82.44217	0.31345	 	2.87794E40	 	5.39556E-41	 	-6009.89013	23.553	 
40.0	1.0	0.0	8.30594	7.03197	-10.84269	11.35981	10.85362	0.70688	1.41467	216.8412	193.59407	82.55461	0.31332	 	1.48053E41	 	1.03234E-41	 	-6127.34205	23.49038	 
35.0	1.0	0.0	8.30737	7.03077	-10.85794	11.33452	10.77046	0.70096	1.42661	217.11379	193.69837	82.66683	0.31319	 	8.032190000000001E41	 	1.87247E-42	 	-6244.47432	23.42645	 
30.0	1.0	0.0	8.30878	7.02957	-10.87312	11.30922	10.6869	0.69498	1.43889	217.3857	193.80197	82.77881	0.31305	 	4.6076299999999995E42	 	3.21119E-43	 	-6361.27988	23.36111	 
25.0	1.0	0.0	8.31019	7.02838	-10.88824	 	10.60291	0.68893	1.45152	217.65696	193.90486	82.89055	0.31292	 	2.8026400000000003E43	 	5.19223E-44	 	-6477.75121	 	 
