T (C)	Fraction solid (wt)-TOTAL	Fraction liquid (wt)-LIQUID	Density (g/(cm)^3)-TOTAL	Molar volume (cm^3)-TOTAL	Volume change (%)-  	Average expansion coeff. (10e-6 1/K)-  	Thermal conductivity (W/(m*K))-TOTAL	Electrical resistivity (10e-6 Ohm*m)-TOTAL	Electrical conductivity (10e6 1/(Ohm*m))-TOTAL	Young's modulus (GPa)-TOTAL	Bulk modulus (GPa)-TOTAL	Shear modulus(GPa)-TOTAL	Poisson's ratio-TOTAL	Liquid viscosity (mPa s)-  	Total viscosity (mPa s)-  	Liquid diffusivity (10e-9 (m^2)/s)-  	Total diffusivity (10e-9 (m^2)/s)-  	Surface Tension (mN/m)-  	Enthalpy (J/mole)-TOTAL	Specific heat (J/(mole K))-TOTAL	Latent heat (J/mole)-TOTAL
1400.0	0.0	1.0	6.86208	7.99797	0.0	32.62533	27.98789	1.46464	0.68276	0.0	119.52961	0.0	0.5	6.39071	6.39071	1.27783	1.27783	1735.4676	48756.108	 	0.0
1395.0	0.0	1.0	6.86596	7.99346	-0.0564266	32.58863	27.91083	1.46429	0.68292	0.0	119.68314	0.0	0.5	6.45661	6.45661	1.26101	1.26101	1737.45642	48554.286	40.3644	0.0
1390.0	0.0	1.0	6.86982	7.98896	-0.11269	32.55211	27.83377	1.46395	0.68308	0.0	119.83667	0.0	0.5	6.5236	6.5236	1.24432	1.24432	1739.46185	48352.902	40.2768	0.0
1385.0	0.0	1.0	6.87369	7.98447	-0.1688	32.51576	27.75672	1.4636	0.68325	0.0	119.9902	0.0	0.5	6.59169	6.59169	1.22776	1.22776	1741.48412	48151.956	40.1892	0.0
1380.0	0.0	1.0	6.87754	7.97999	-0.22475	32.47959	27.67966	1.46325	0.68341	0.0	120.14373	0.0	0.5	6.6609	6.6609	1.21134	1.21134	1743.52342	47951.443	40.1026	0.0
1375.0	0.0	1.0	6.88139	7.97553	-0.28053	32.4436	27.6026	1.46289	0.68358	0.0	120.29726	0.0	0.5	6.73128	6.73128	1.19505	1.19505	1745.57993	47751.363	40.016	0.0
1370.0	0.0	1.0	6.88523	7.97108	-0.33616	32.4078	27.52554	1.46254	0.68374	0.0	120.45079	0.0	0.5	6.80283	6.80283	1.17889	1.17889	1747.65384	47551.712	39.9302	0.0
1365.0	0.0	1.0	6.88906	7.96665	-0.39163	32.37217	27.44848	1.46218	0.68391	0.0	120.60432	0.0	0.5	6.87558	6.87558	1.16287	1.16287	1749.74532	47352.489	39.8446	0.0
1360.0	0.0	1.0	6.89289	7.96222	-0.44693	32.33674	27.37142	1.46182	0.68408	0.0	120.75785	0.0	0.5	6.94957	6.94957	1.14698	1.14698	1751.85452	47153.692	39.7594	0.0
1355.0	0.0	1.0	6.89671	7.95781	-0.50208	32.30149	27.29436	1.46146	0.68425	0.0	120.91138	0.0	0.5	7.02481	7.02481	1.13122	1.13122	1753.98161	46955.318	39.6748	0.0
1350.0	0.0	1.0	6.90052	7.95342	-0.55707	32.26643	27.21731	1.4611	0.68442	0.0	121.06491	0.0	0.5	7.10134	7.10134	1.11559	1.11559	1756.12671	46757.365	39.5906	0.0
1345.0	0.0	1.0	6.90433	7.94903	-0.6119	32.23157	27.14025	1.46073	0.68459	0.0	121.21844	0.0	0.5	7.17919	7.17919	1.1001	1.1001	1758.28998	46559.832	39.5066	0.0
1340.0	0.0	1.0	6.90813	7.94466	-0.66656	32.1969	27.06319	1.46037	0.68476	0.0	121.37197	0.0	0.5	7.25837	7.25837	1.08473	1.08473	1760.47154	46362.715	39.4234	0.0
1335.0	0.0	1.0	6.91192	7.9403	-0.72107	32.16243	26.98613	1.46	0.68493	0.0	121.5255	0.0	0.5	7.33894	7.33894	1.0695	1.0695	1762.67149	46166.014	39.3402	0.0
1330.0	0.0	1.0	6.91571	7.93595	-0.77542	32.12815	26.90907	1.45963	0.68511	0.0	121.67903	0.0	0.5	7.4209	7.4209	1.0544	1.0544	1764.88995	45969.725	39.2578	0.0
1325.0	0.0	1.0	6.91949	7.93162	-0.82961	32.09408	26.83201	1.45925	0.68528	0.0	121.83256	0.0	0.5	7.50431	7.50431	1.03943	1.03943	1767.127	45773.847	39.1756	0.0
1322.31	0.0	1.0	6.92151	7.9293	-0.85865	32.07586	26.79062	1.45905	0.68538	0.0	121.91503	0.0	0.5	7.54971	7.54971	1.03144	1.03144	1768.33635	45668.797	39.11326	0.0010
1320.0	0.0625203	0.93748	6.9375	7.91108	-1.08644	31.46795	27.02282	1.44442	0.69232	0.00133767	122.1067	4.48364E-4	0.49173	7.58931	8.50378	1.02457	0.91439	1767.87839	44693.98	421.231	884.396
1315.0	0.18406	0.81594	6.96898	7.87529	-1.53385	30.27824	27.48115	1.41587	0.70628	0.10284	122.51836	0.0348479	0.47549	7.67589	30.34006	1.00983	0.25548	1766.98285	42789.809	380.8342	2593.506
1310.0	0.28564	0.71436	6.99591	7.84505	-1.91197	29.28319	27.8695	1.39174	0.71852	0.60844	122.93337	0.20812	0.46176	7.76396	136.60434	0.99523	0.0565645	1766.21686	41177.455	322.4708	4011.202
1305.0	0.37127	0.62873	7.01916	7.81905	-2.23708	28.437	28.20162	1.37101	0.72939	1.76753	123.34928	0.60947	0.45005	7.85351	389.07312	0.98078	0.0197972	1765.57095	39798.081	275.8748	5196.32
1300.0	0.44403	0.55597	7.03943	7.79657	-2.51813	27.71485	28.48741	1.35295	0.73912	3.6737	123.76817	1.27559	0.44	7.94466	825.14556	0.96646	0.00930521	1765.03465	38606.472	238.3218	6194.075
1295.0	0.50631	0.49369	7.05723	7.77686	-2.76456	27.09013	28.73332	1.33711	0.74788	6.29888	124.18741	2.20039	0.43131	8.03746	1460.94503	0.95226	0.0052389	1764.5996	37567.503	207.7938	7039.589
1290.0	0.55995	0.44005	7.07299	7.75959	-2.98056	26.55142	28.94484	1.32311	0.7558	9.54532	124.61009	3.35215	0.42376	8.13204	2298.98815	0.93818	0.00331857	1764.2562	36653.621	182.7764	7760.412
1285.0	0.60643	0.39357	7.08709	7.74413	-3.17374	26.07695	29.12617	1.31067	0.76297	13.2887	125.03285	4.68852	0.41715	8.2285	3334.76075	0.92422	0.00228051	1763.99849	35843.01	162.1222	8378.359
1280.0	0.64691	0.35309	7.09973	7.73035	-3.34607	25.66154	29.28066	1.29957	0.76949	17.39768	125.4566	6.16349	0.41135	8.32674	4560.3834	0.91038	0.00166226	1763.81811	35118.252	144.9516	8910.845
1275.0	0.68234	0.31766	7.11119	7.71788	-3.50202	25.29233	29.41149	1.28962	0.77542	21.7544	125.8805	7.73506	0.40622	8.42717	5968.23274	0.89664	0.00126606	1763.7099	34465.327	130.585	9371.889
1270.0	0.71349	0.28651	7.1216	7.70661	-3.64296	24.96579	29.5214	1.28067	0.78084	26.25744	126.30492	9.36647	0.40167	8.52957	7552.50824	0.88301	9.97249E-4	1763.66693	33872.871	118.4912	9772.854
1265.0	0.741	0.259	7.13113	7.69632	-3.77161	24.67407	29.61269	1.27259	0.7858	30.82127	126.72912	11.02636	0.39762	8.63416	9308.54407	0.86949	8.06499E-4	1763.68469	33331.605	108.2532	10123.017
1260.0	0.76537	0.23463	7.13992	7.68682	-3.89037	24.41029	29.68756	1.26525	0.79036	35.38145	127.1523	12.69074	0.39399	8.74117	11235.03367	0.85606	6.66035E-4	1763.75945	32833.903	99.5404	10429.998
1255.0	0.78704	0.21296	7.14803	7.6781	-3.99941	24.17426	29.74771	1.25857	0.79455	39.88275	127.5751	14.33879	0.39073	8.85045	13332.18237	0.84273	5.59437E-4	1763.88542	32373.466	92.0874	10700.1
1250.0	0.80638	0.19362	7.15557	7.67002	-4.10044	23.961	29.79477	1.25247	0.79842	44.28761	127.99687	15.95613	0.38779	8.9623	15603.30925	0.82949	4.76445E-4	1764.05951	31945.052	85.6828	10938.559
1245.0	0.82369	0.17631	7.16263	7.66245	-4.19501	23.76606	29.83033	1.24687	0.80201	48.57218	128.41728	17.53339	0.38513	9.07694	18054.98347	0.81632	4.10397E-4	1764.27938	31544.283	80.1538	11149.753
1240.0	0.83924	0.16076	7.16923	7.65539	-4.28337	23.58881	29.8555	1.24172	0.80533	52.71417	128.83606	19.06175	0.38272	9.19413	20694.54907	0.80326	3.56872E-4	1764.54108	31167.479	75.3608	11337.359
1235.0	0.85324	0.14676	7.17546	7.64873	-4.36663	23.42605	29.87152	1.23695	0.80844	56.70498	129.25334	20.53751	0.38052	9.31434	23533.15551	0.79028	3.12789E-4	1764.84282	30811.535	71.1888	11504.481
1230.0	0.86587	0.13413	7.18134	7.64244	-4.44519	23.27668	29.87922	1.23253	0.81134	60.53557	129.6688	21.95683	0.37851	9.43762	26582.55808	0.77737	2.75989E-4	1765.18193	30473.818	67.5434	11653.751
1225.0	0.8773	0.1227	7.18692	7.63651	-4.51939	23.13984	29.87946	1.22843	0.81405	64.19958	130.0826	23.31689	0.37668	9.56405	29856.04615	0.76454	2.44912E-4	1765.556	30152.084	64.3468	11787.408
1220.0	0.88766	0.11234	7.19223	7.63085	-4.59013	23.01277	29.87312	1.22458	0.8166	67.70542	130.49434	24.62044	0.37498	9.69393	33373.28323	0.75178	2.18369E-4	1765.96439	29844.417	61.5334	11907.37
1215.0	0.89709	0.10291	7.1973	7.62546	-4.65759	22.89508	29.86084	1.22099	0.81901	71.05293	130.90415	25.86707	0.37342	9.82719	37152.32503	0.7391	1.955E-4	1766.4052	29549.169	59.0496	12015.28
1210.0	0.90567	0.0943313	7.20215	7.62029	-4.72213	22.78568	29.84308	1.21761	0.82128	74.24219	131.31172	27.0565	0.37198	9.96425	41212.44745	0.72649	1.75648E-4	1766.87754	29264.923	56.8492	12112.555
1205.0	0.9135	0.0864959	7.20681	7.61534	-4.78407	22.68371	29.8205	1.21442	0.82344	77.28451	131.71724	28.19267	0.37065	10.10534	45580.18109	0.71393	1.58281E-4	1767.38011	28990.453	54.894	12200.42
1204.84	0.91373	0.0862677	7.20695	7.6152	-4.78586	22.68102	29.81966	1.21433	0.8235	77.375	131.73004	28.22648	0.37061	10.1097	45721.81501	0.71354	1.57774E-4	1767.39608	28982.038	 	12202.973
1200.0	0.9219	0.0781029	7.21147	7.61035	-4.84651	22.57928	29.80106	1.2111	0.82569	80.63895	132.13993	29.44708	0.36922	10.25268	50536.95001	0.70129	1.42274E-4	1768.49844	28707.488	56.593	12297.142
1195.0	0.92952	0.0704827	7.21595	7.60555	-4.90653	22.48178	29.77669	1.20798	0.82783	83.81826	132.55824	30.63762	0.3679	10.40356	55865.66848	0.68877	1.28266E-4	1769.64515	28434.685	54.5606	12384.063
1190.0	0.9364	0.0635959	7.22025	7.60093	-4.96429	22.39076	29.74758	1.20505	0.82984	86.81333	132.97174	31.76061	0.36668	10.55806	61587.24499	0.67638	1.15954E-4	1770.80079	28171.492	52.6386	12461.733
1189.15	0.93747	0.0625263	7.22096	7.60017	-4.97379	22.37618	29.74199	1.20457	0.83017	87.29187	133.04114	31.94018	0.36649	10.58449	62590.78386	0.6743	1.14029E-4	1770.99729	28128.126	 	12473.718
1187.42	0.94021	0.0597941	7.22267	7.59841	-4.99574	22.33818	29.73229	1.20354	0.83088	88.49124	133.20492	32.39025	0.36602	10.60467	64832.81064	0.67222	1.09955E-4	1771.33399	28027.038	 	12510.511
1185.0	0.94788	0.0521232	7.22591	7.59489	-5.03979	22.24111	29.77746	1.19972	0.83353	90.98035	133.54148	33.33187	0.36477	10.69825	69223.40137	0.66524	1.0281E-4	1772.06754	27817.033	70.8918	12631.026
1180.0	0.96247	0.0375311	7.23208	7.58812	-5.12447	22.06012	29.85731	1.19241	0.83864	95.91419	134.21187	35.20116	0.36237	10.8996	78862.63476	0.65071	8.99344E-5	1773.57906	27406.567	82.0932	12856.683
1175.0	0.97435	0.0256497	7.23738	7.58226	-5.19774	21.91507	29.9102	1.18621	0.84302	100.61345	134.82646	36.9796	0.36039	11.11268	88880.65582	0.63604	7.9523E-5	1775.08704	27041.638	72.9858	13037.156
1170.0	0.98401	0.0159949	7.24198	7.57712	-5.26195	21.79869	29.94357	1.18079	0.84689	106.23401	135.39418	39.09264	0.35875	11.33831	99317.50316	0.62123	7.09206E-5	1776.5955	26713.495	65.6286	13181.197
1168.38	0.98649	0.0135116	7.24329	7.57563	-5.28053	21.76811	29.94798	1.17929	0.84796	108.15145	135.56469	39.811	0.35831	11.41429	102698.5013	0.6164	6.85088E-5	1777.08597	26617.231	 	13217.878
1168.38	0.98649	0.0135116	7.24329	7.57563	-5.28053	21.76811	29.94798	1.17929	0.84796	108.15145	135.56469	39.811	0.35831	11.41429	102698.5013	0.6164	6.85088E-5	1777.08597	26617.231	 	13217.878
1165.0	1.0	0.0	7.24924	7.56912	-5.36197	21.56246	29.99495	1.17469	0.85129	117.67255	136.28637	43.3865	0.3561	 	113878.0103	 	6.16384E-5	 	26235.368	95.6254	13475.571
1160.0	1.0	0.0	7.25181	7.56643	-5.39561	21.54538	29.91539	1.17372	0.85199	118.14657	136.64796	43.56761	0.3559	 	122569.6881	 	5.70683E-5	 	26027.81633	41.51033	 
1155.0	1.0	0.0	7.25438	7.56376	-5.42906	21.52875	29.83584	1.17274	0.8527	118.61994	137.0083	43.74852	0.3557	 	131993.3229	 	5.28091E-5	 	25854.07071	34.74912	 
1150.0	1.0	0.0	7.25694	7.56109	-5.46244	21.51223	29.75628	1.17176	0.85342	119.09247	137.36686	43.92917	0.35551	 	142215.4839	 	4.88417E-5	 	25680.59077	34.69599	 
1145.0	1.0	0.0	7.2595	7.55842	-5.49574	21.49582	29.67672	1.17077	0.85414	119.56415	137.72365	44.10955	0.35531	 	153309.9089	 	4.5148E-5	 	25507.37598	34.64296	 
1140.0	1.0	0.0	7.26205	7.55576	-5.52896	21.47952	29.59715	1.16978	0.85486	120.03498	138.07867	44.28966	0.35511	 	165357.7039	 	4.1711E-5	 	25334.42578	34.59004	 
1135.0	1.0	0.0	7.2646	7.55311	-5.56211	21.46332	29.51756	1.16878	0.85559	120.50497	138.43193	44.46951	0.35492	 	178448.1071	 	3.85144E-5	 	25161.73964	34.53723	 
1130.0	1.0	0.0	7.26714	7.55047	-5.59519	21.44724	29.43797	1.16778	0.85632	120.97411	138.78344	44.64909	0.35472	 	192679.3918	 	3.55431E-5	 	24989.31703	34.48452	 
1125.0	1.0	0.0	7.26968	7.54783	-5.62819	21.43127	29.35837	1.16678	0.85706	121.44241	139.13322	44.82841	0.35453	 	208159.831	 	3.27826E-5	 	24817.15739	34.43193	 
1120.0	1.0	0.0	7.27222	7.5452	-5.66111	21.41542	29.27876	1.16577	0.85781	121.90986	139.48126	45.00746	0.35433	 	225008.7937	 	3.02193E-5	 	24645.26019	34.37944	 
1115.0	1.0	0.0	7.27476	7.54257	-5.69396	21.39968	29.19914	1.16475	0.85855	122.37646	139.82757	45.18624	0.35413	 	243357.9644	 	2.78405E-5	 	24473.62487	34.32706	 
1110.0	1.0	0.0	7.27728	7.53995	-5.72674	21.38406	29.11951	1.16373	0.85931	122.84223	140.17218	45.36476	0.35394	 	263352.7001	 	2.56341E-5	 	24302.25091	34.27479	 
1105.01	1.0	0.0	7.2798	7.53734	-5.75936	21.36859	29.04005	1.1627	0.86006	123.30605	140.51427	45.54259	0.35374	 	285100.3675	 	2.35933E-5	 	24131.53751	 	 
1105.0	1.0	0.0	7.27982	7.53732	-5.75952	21.36824	29.03943	1.16272	0.86005	123.30862	140.51587	45.54359	0.35374	 	285156.6801	 	2.35885E-5	 	24130.72766	34.30465	 
1100.0	1.0	0.0	7.28533	7.53162	-5.83089	21.21655	28.78917	1.16857	0.85575	124.34771	141.13618	45.9472	0.35316	 	310424.0979	 	2.15898E-5	 	23788.40834	68.46386	 
1095.0	1.0	0.0	7.29074	7.52603	-5.90076	21.06873	28.55072	1.17404	0.85176	125.34593	141.72075	46.33551	0.35259	 	338277.1702	 	1.974E-5	 	23453.38435	67.0048	 
1090.0	1.0	0.0	7.29604	7.52056	-5.96912	20.92489	28.32541	1.17905	0.84814	126.31404	142.28276	46.71244	0.35204	 	369005.7151	 	1.80301E-5	 	23125.37523	65.60182	 
1085.0	1.0	0.0	7.30124	7.51521	-6.03602	20.78491	28.11061	1.18371	0.8448	127.25415	142.82449	47.07876	0.3515	 	402934.3691	 	1.64513E-5	 	22804.10325	64.2544	 
1080.0	1.0	0.0	7.30633	7.50997	-6.10151	20.64864	27.90493	1.18804	0.84172	128.1678	143.34747	47.43504	0.35098	 	440427.0133	 	1.49954E-5	 	22489.29389	62.96187	 
1075.0	1.0	0.0	7.31132	7.50484	-6.16565	20.51596	27.70756	1.19208	0.83887	129.05637	143.85302	47.78179	0.35048	 	481892.1699	 	1.36545E-5	 	22180.67594	61.72359	 
1071.49	1.0	0.0	7.31478	7.5013	-6.20994	20.42479	27.5735	1.19476	0.83699	129.66651	144.1985	48.02002	0.35013	 	513652.8321	 	1.27768E-5	 	21967.36433	 	 
1070.0	1.0	0.0	7.31622	7.49982	-6.22846	20.38682	27.51789	1.19585	0.83623	129.92128	144.34249	48.11953	0.34998	 	527792.6067	 	1.24208E-5	 	21877.92612	60.54996	 
1065.0	1.0	0.0	7.32102	7.4949	-6.28997	20.26114	27.33541	1.19935	0.83379	130.76387	144.81713	48.44876	0.34951	 	578650.0729	 	1.12869E-5	 	21580.70713	59.4438	 
1060.0	1.0	0.0	7.32574	7.49007	-6.3503	20.13858	27.15966	1.2026	0.83153	131.58505	145.27749	48.76982	0.34904	 	635035.4817	 	1.02463E-5	 	21288.91705	58.35802	 
1055.0	1.0	0.0	7.33037	7.48534	-6.40949	20.01899	26.99025	1.20561	0.82946	132.38594	145.72447	49.08314	0.34859	 	697601.8523	 	9.29236E-6	 	21002.30572	57.32227	 
1050.0	1.0	0.0	7.33493	7.48069	-6.46761	19.90223	26.82677	1.20839	0.82755	133.1676	146.15891	49.38911	0.34815	 	767085.1993	 	8.41884E-6	 	20720.63043	56.33506	 
1045.0	1.0	0.0	7.33941	7.47613	-6.52468	19.78815	26.66888	1.21095	0.8258	133.93105	146.58157	49.68811	0.34772	 	844315.8382	 	7.61985E-6	 	20443.65641	55.3948	 
1040.0	1.0	0.0	7.34381	7.47164	-6.58078	19.67663	26.51621	1.2133	0.8242	134.67726	146.99317	49.98052	0.3473	 	930231.3544	 	6.88985E-6	 	20171.15715	54.49985	 
1035.0	1.0	0.0	7.34815	7.46723	-6.63593	19.56753	26.36846	1.21545	0.82274	135.40714	147.39438	50.26667	0.34689	 	1025891.582	 	6.22362E-6	 	19902.91473	53.64848	 
1030.0	1.0	0.0	7.35242	7.46289	-6.69018	19.46071	26.22532	1.21742	0.82141	136.12156	147.7858	50.5469	0.34649	 	1132495.591	 	5.61623E-6	 	19638.71996	52.83895	 
1025.0	1.0	0.0	7.35663	7.45862	-6.74358	19.35606	26.0865	1.2192	0.82021	136.82135	148.16801	50.82152	0.3461	 	1251401.412	 	5.06308E-6	 	19378.37249	52.06949	 
1020.0	1.0	0.0	7.36078	7.45441	-6.79616	19.25346	25.95174	1.22081	0.81913	137.50729	148.54153	51.09083	0.34571	 	1384148.581	 	4.55987E-6	 	19121.6808	51.33834	 
1015.0	1.0	0.0	7.36488	7.45027	-6.84797	19.15279	25.8208	1.22226	0.81816	138.18011	148.90686	51.35511	0.34534	 	1532484.304	 	4.10258E-6	 	18868.46216	50.64373	 
1010.0	1.0	0.0	7.36892	7.44619	-6.89904	19.05393	25.69343	1.22355	0.81729	138.84051	149.26444	51.61462	0.34497	 	1698393.346	 	3.68745E-6	 	18618.54243	49.98395	 
1005.0	1.0	0.0	7.37291	7.44216	-6.94941	18.95678	25.56942	1.22469	0.81653	139.48913	149.6147	51.86962	0.34461	 	1884132.741	 	3.31098E-6	 	18371.756	49.35729	 
1000.0	1.0	0.0	7.37685	7.43818	-6.9991	18.86123	25.44857	1.22569	0.81586	140.1266	149.95802	52.12034	0.34426	 	2092271.77	 	2.96994E-6	 	18127.9454	48.76212	 
995.0	1.0	0.0	7.38074	7.43426	-7.04816	18.76719	25.33069	1.22656	0.81529	140.75349	150.29478	52.367	0.34391	 	2325738.452	 	2.66132E-6	 	17886.9612	48.19684	 
990.0	1.0	0.0	7.38459	7.43039	-7.0966	18.67456	25.21561	1.2273	0.8148	141.37035	150.62529	52.60982	0.34357	 	2587873.1	 	2.38231E-6	 	17648.66159	47.65992	 
985.0	1.0	0.0	7.3884	7.42656	-7.14447	18.58325	25.10315	1.22792	0.81438	141.97768	150.94988	52.84898	0.34324	 	2882490.375	 	2.13035E-6	 	17412.91213	47.14989	 
980.0	1.0	0.0	7.39216	7.42277	-7.19179	18.49317	24.99317	1.22842	0.81405	142.57597	151.26883	53.08467	0.34291	 	3213951.802	 	1.90305E-6	 	17179.58547	46.66533	 
975.0	1.0	0.0	7.39589	7.41903	-7.23857	18.40425	24.88553	1.22881	0.81379	143.16567	151.58242	53.31707	0.34259	 	3587249.514	 	1.69821E-6	 	16948.56092	46.20491	 
970.0	1.0	0.0	7.39958	7.41533	-7.28486	18.31639	24.7801	1.2291	0.8136	143.74719	151.89088	53.54633	0.34227	 	4008103.87	 	1.51381E-6	 	16719.72424	45.76734	 
965.0	1.0	0.0	7.40324	7.41167	-7.33066	18.22953	24.67674	1.22928	0.81348	144.32093	152.19446	53.77262	0.34196	 	4483077.406	 	1.34798E-6	 	16492.96721	45.35141	 
960.0	1.0	0.0	7.40686	7.40804	-7.37601	18.14359	24.57536	1.22937	0.81343	144.88727	152.49337	53.99607	0.34165	 	5019707.662	 	1.19901E-6	 	16268.1874	44.95596	 
955.0	1.0	0.0	7.41046	7.40445	-7.42092	18.0585	24.47585	1.22936	0.81343	145.44654	152.78781	54.21682	0.34134	 	5626661.61	 	1.06534E-6	 	16045.28782	44.57992	 
950.0	1.0	0.0	7.41402	7.40089	-7.46542	17.9742	24.3781	1.22927	0.81349	145.99908	153.07797	54.435	0.34104	 	6313917.756	 	9.45513E-7	 	15824.17663	44.22224	 
945.0	1.0	0.0	7.41756	7.39736	-7.50951	17.89062	24.28203	1.22908	0.81361	146.54519	153.36402	54.65071	0.34074	 	7092977.513	 	8.38222E-7	 	15604.76686	43.88195	 
940.0	1.0	0.0	7.42106	7.39387	-7.55322	17.8077	24.18755	1.22882	0.81379	147.08517	153.64614	54.86409	0.34045	 	7977115.109	 	7.42259E-7	 	15386.97611	43.55815	 
935.0	1.0	0.0	7.42454	7.3904	-7.59657	17.72539	24.09459	1.22848	0.81402	147.61927	153.92446	55.07522	0.34016	 	8981668.218	 	6.56524E-7	 	15170.72635	43.24995	 
930.0	1.0	0.0	7.428	7.38696	-7.63957	17.64362	24.00306	1.22806	0.81429	148.14775	154.19914	55.28421	0.33987	 	1.012438297E7	 	5.80013E-7	 	14955.9436	42.95655	 
925.0	1.0	0.0	7.43143	7.38355	-7.68224	17.56235	23.91292	1.22757	0.81462	148.67084	154.47032	55.49114	0.33959	 	1.142581636E7	 	5.11812E-7	 	14742.55776	42.67717	 
920.0	1.0	0.0	7.43484	7.38016	-7.72459	17.48153	23.82408	1.227	0.815	149.18878	154.73811	55.69612	0.33931	 	1.290981374E7	 	4.51089E-7	 	14530.50237	42.41108	 
915.0	1.0	0.0	7.43823	7.3768	-7.76663	17.4011	23.7365	1.22637	0.81542	149.70177	155.00264	55.89921	0.33903	 	1.460407018E7	 	3.97086E-7	 	14319.7144	42.15759	 
910.0	1.0	0.0	7.4416	7.37346	-7.80837	17.32102	23.65011	1.22567	0.81588	150.21001	155.26402	56.10049	0.33876	 	1.654079458E7	 	3.49116E-7	 	14110.13408	41.91606	 
905.0	1.0	0.0	7.44495	7.37014	-7.84983	17.24124	23.56488	1.2249	0.81639	150.71368	155.52236	56.30003	0.33849	 	1.875749545E7	 	3.06558E-7	 	13901.70471	41.68587	 
900.0	1.0	0.0	7.44828	7.36685	-7.89103	17.16172	23.48075	1.22407	0.81694	151.21295	155.77776	56.49791	0.33822	 	2.129791312E7	 	2.68846E-7	 	13694.37248	41.46645	 
895.0	1.0	0.0	7.45159	7.36357	-7.93196	17.08242	23.39768	1.22318	0.81754	151.708	156.03032	56.69418	0.33795	 	2.421312267E7	 	2.35469E-7	 	13488.08636	41.25722	 
890.0	1.0	0.0	7.45488	7.36032	-7.97264	17.0033	23.31563	1.22224	0.81817	152.19897	156.28012	56.88891	0.33769	 	2.756284864E7	 	2.05967E-7	 	13282.79792	41.05769	 
885.0	1.0	0.0	7.45816	7.35709	-8.01308	16.92432	23.23456	1.22123	0.81885	152.68601	156.52726	57.08215	0.33742	 	3.141702919E7	 	1.79923E-7	 	13078.46122	40.86734	 
880.0	1.0	0.0	7.46142	7.35387	-8.05328	16.84545	23.15444	1.22016	0.81956	153.16926	156.77182	57.27395	0.33716	 	3.585767193E7	 	1.56961E-7	 	12875.03248	40.68575	 
875.0	1.0	0.0	7.46467	7.35067	-8.09326	16.76665	23.07523	1.21904	0.82032	153.64884	157.01388	57.46437	0.33691	 	4.098108615E7	 	1.36742E-7	 	12672.47026	40.51245	 
870.0	1.0	0.0	7.4679	7.34749	-8.13303	16.68788	22.99691	1.21787	0.82111	154.12489	157.25352	57.65345	0.33665	 	4.690053055E7	 	1.18963E-7	 	12470.73584	40.34688	 
865.0	1.0	0.0	7.47112	7.34433	-8.17259	16.60912	22.91945	1.21664	0.82194	154.59752	157.49081	57.84124	0.3364	 	5.37493938E7	 	1.03351E-7	 	12269.79215	40.18874	 
860.0	1.0	0.0	7.47432	7.34118	-8.21194	16.53034	22.84282	1.21536	0.8228	155.06683	157.72582	58.02778	0.33614	 	6.168500897E7	 	8.96591E-8	 	12069.60408	40.03761	 
855.0	1.0	0.0	7.47751	7.33805	-8.2511	16.4515	22.76699	1.21402	0.82371	155.53293	157.95863	58.21311	0.33589	 	7.089322669E7	 	7.76692E-8	 	11870.13843	39.89313	 
850.0	1.0	0.0	7.48069	7.33493	-8.29006	16.37258	22.69196	1.21264	0.82465	155.99593	158.1893	58.39726	0.33564	 	8.159391394E7	 	6.71841E-8	 	11671.3638	39.75493	 
845.0	1.0	0.0	7.48295	7.33272	-8.31775	16.34471	22.62433	1.21085	0.82587	156.38284	158.43774	58.54865	0.33549	 	9.234311097E7	 	5.90993E-8	 	11516.16558	31.03964	 
840.0	1.0	0.0	7.4852	7.33051	-8.34536	16.31686	22.55669	1.20905	0.8271	156.76909	158.68514	58.69981	0.33535	 	1.046246629E8	 	5.19286E-8	 	11358.02507	31.6281	 
835.0	1.0	0.0	7.48745	7.32831	-8.37289	16.28902	22.48904	1.20724	0.82834	157.15466	158.9315	58.85075	0.3352	 	1.18673298E8	 	4.55756E-8	 	11200.11101	31.58281	 
830.0	1.0	0.0	7.48969	7.32611	-8.40035	16.2612	22.42137	1.20542	0.82959	157.53956	159.17681	59.00148	0.33505	 	1.347621641E8	 	3.99534E-8	 	11042.42254	31.53769	 
825.0	1.0	0.0	7.49193	7.32392	-8.42773	16.23338	22.3537	1.20359	0.83085	157.9238	159.42109	59.15198	0.3349	 	1.532095162E8	 	3.49834E-8	 	10884.95876	31.49276	 
820.0	1.0	0.0	7.49417	7.32174	-8.45504	16.20558	22.28601	1.20175	0.83212	158.30736	159.66433	59.30226	0.33475	 	1.743866381E8	 	3.05952E-8	 	10727.71879	31.44799	 
815.0	1.0	0.0	7.4964	7.31956	-8.48227	16.1778	22.21831	1.1999	0.83341	158.69025	159.90655	59.45232	0.3346	 	1.987272369E8	 	2.6725E-8	 	10570.70168	31.40342	 
810.0	1.0	0.0	7.49862	7.31739	-8.50942	16.15002	22.15059	1.19803	0.8347	159.07247	160.14774	59.60215	0.33445	 	2.26738602E8	 	2.33158E-8	 	10413.90648	31.35904	 
805.0	1.0	0.0	7.50084	7.31522	-8.5365	16.12226	22.08287	1.19616	0.83601	159.45402	160.3879	59.75177	0.3343	 	2.590148742E8	 	2.03161E-8	 	10257.33221	31.31485	 
800.0	1.0	0.0	7.50306	7.31306	-8.5635	16.09451	22.01513	1.19428	0.83733	159.8349	160.62705	59.90116	0.33416	 	2.962528513E8	 	1.76801E-8	 	10100.97787	31.27087	 
795.0	1.0	0.0	7.50527	7.31091	-8.59043	16.06677	21.94738	1.19238	0.83866	160.21512	160.86518	60.05034	0.33401	 	3.392708376E8	 	1.53664E-8	 	9944.84241	31.22709	 
790.0	1.0	0.0	7.50747	7.30876	-8.61728	16.03905	21.87961	1.19048	0.84	160.59466	161.1023	60.19929	0.33386	 	3.890311584E8	 	1.33382E-8	 	9788.92478	31.18353	 
785.0	1.0	0.0	7.50967	7.30662	-8.64405	16.01134	21.81183	1.18856	0.84135	160.97354	161.33841	60.34802	0.33371	 	4.466670915E8	 	1.15625E-8	 	9633.22387	31.14018	 
780.0	1.0	0.0	7.51187	7.30449	-8.67075	15.98364	21.74403	1.18663	0.84272	161.35175	161.57351	60.49653	0.33356	 	5.13515128E8	 	1.00098E-8	 	9477.73853	31.09707	 
775.0	1.0	0.0	7.51406	7.30236	-8.69737	15.95596	21.67622	1.18469	0.8441	161.72929	161.80762	60.64481	0.33341	 	5.911536786E8	 	8.65386E-9	 	9322.46759	31.05419	 
770.0	1.0	0.0	7.51624	7.30023	-8.72392	15.92829	21.6084	1.18274	0.84549	162.10616	162.04072	60.79288	0.33327	 	6.814495804E8	 	7.47136E-9	 	9167.40984	31.01155	 
765.0	1.0	0.0	7.51842	7.29812	-8.75039	15.90063	21.54056	1.18078	0.8469	162.48236	162.27282	60.94072	0.33312	 	7.86614066E8	 	6.44147E-9	 	9012.564	30.96917	 
760.0	1.0	0.0	7.5206	7.29601	-8.77678	15.87298	21.47271	1.17881	0.84832	162.8579	162.50393	61.08834	0.33297	 	9.092702224E8	 	5.54571E-9	 	8857.92879	30.92704	 
755.0	1.0	0.0	7.52277	7.2939	-8.8031	15.84535	21.40484	1.17682	0.84975	163.23277	162.73406	61.23575	0.33282	 	1.052534431E9	 	4.76768E-9	 	8703.50285	30.88519	 
750.0	1.0	0.0	7.52494	7.2918	-8.82934	15.81773	21.33695	1.17482	0.85119	163.60697	162.96319	61.38293	0.33267	 	1.220114844E9	 	4.09285E-9	 	8549.28475	30.84362	 
745.0	1.0	0.0	7.5271	7.28971	-8.85551	15.79012	21.26905	1.17282	0.85265	163.98051	163.19135	61.52988	0.33253	 	1.41643065E9	 	3.50835E-9	 	8395.27305	30.80234	 
740.0	1.0	0.0	7.52925	7.28762	-8.8816	15.76252	21.20113	1.17079	0.85412	164.35338	163.41852	61.67662	0.33238	 	1.646756767E9	 	3.00283E-9	 	8241.46622	30.76137	 
735.0	1.0	0.0	7.5314	7.28554	-8.90762	15.73494	21.1332	1.16876	0.85561	164.72558	163.64471	61.82313	0.33223	 	1.917399675E9	 	2.56625E-9	 	8087.86268	30.72071	 
730.0	1.0	0.0	7.53355	7.28347	-8.93356	15.70737	21.06525	1.16672	0.85711	165.09712	163.86994	61.96943	0.33209	 	2.235911444E9	 	2.18977E-9	 	7934.46077	30.68038	 
725.0	1.0	0.0	7.53569	7.2814	-8.95943	15.67982	20.99728	1.16466	0.85862	165.46799	164.09419	62.1155	0.33194	 	2.611350724E9	 	1.86559E-9	 	7781.25877	30.6404	 
720.0	1.0	0.0	7.53782	7.27933	-8.98522	15.65227	20.92929	1.16259	0.86015	165.83819	164.31747	62.26135	0.33179	 	3.054601539E9	 	1.58689E-9	 	7628.25487	30.60078	 
715.0	1.0	0.0	7.53995	7.27728	-9.01094	15.62474	20.86129	1.16051	0.86169	166.20773	164.53979	62.40698	0.33164	 	3.578763397E9	 	1.34765E-9	 	7475.44719	30.56154	 
710.0	1.0	0.0	7.54208	7.27523	-9.03658	15.59722	20.79327	1.15841	0.86325	166.57661	164.76115	62.55238	0.3315	 	4.199629515E9	 	1.1426E-9	 	7322.83376	30.52269	 
705.0	1.0	0.0	7.5442	7.27318	-9.06215	15.56972	20.72523	1.1563	0.86482	166.94482	164.98155	62.69757	0.33135	 	4.936274153E9	 	9.67148E-10	 	7170.41251	30.48425	 
700.0	1.0	0.0	7.54632	7.27114	-9.08764	15.54223	20.65717	1.15418	0.86641	167.31236	165.20099	62.84253	0.3312	 	5.81177527E9	 	8.17255E-10	 	7018.18128	30.44625	 
695.0	1.0	0.0	7.54843	7.26911	-9.11305	15.51475	20.58909	1.15205	0.86802	167.67924	165.41948	62.98727	0.33106	 	6.854105369E9	 	6.89412E-10	 	6866.13777	30.4087	 
690.0	1.0	0.0	7.55053	7.26708	-9.13839	15.48728	20.52099	1.1499	0.86964	168.04546	165.63703	63.13179	0.33091	 	8.097231768E9	 	5.80556E-10	 	6714.27963	30.37163	 
685.0	1.0	0.0	7.55263	7.26506	-9.16366	15.45983	20.45287	1.14774	0.87127	168.41101	165.85362	63.27609	0.33076	 	9.582478172E9	 	4.88025E-10	 	6562.60433	30.33506	 
680.0	1.0	0.0	7.55473	7.26305	-9.18885	15.43238	20.38473	1.14557	0.87293	168.7759	166.06927	63.42017	0.33062	 	1.13602E10	 	4.09507E-10	 	6411.10921	30.29902	 
675.0	1.0	0.0	7.55682	7.26104	-9.21397	15.40496	20.31657	1.14339	0.8746	169.14012	166.28399	63.56402	0.33047	 	1.3491899999999998E10	 	3.42996E-10	 	6259.79152	30.26354	 
670.0	1.0	0.0	7.5589	7.25904	-9.23901	15.37754	20.24839	1.14119	0.87628	169.50368	166.49776	63.70765	0.33032	 	1.6052899999999998E10	 	2.86756E-10	 	6108.64829	30.22865	 
665.0	1.0	0.0	7.56098	7.25704	-9.26398	15.35014	20.18019	1.13897	0.87798	169.86658	166.7106	63.85106	0.33018	 	1.91355E10	 	2.39287E-10	 	5957.67644	30.19437	 
660.0	1.0	0.0	7.56306	7.25505	-9.28887	15.32275	20.11197	1.13674	0.8797	170.22881	166.92251	63.99425	0.33003	 	2.28529E10	 	1.99295E-10	 	5806.88069	30.15915	 
655.0	1.0	0.0	7.56513	7.25306	-9.31369	15.29537	20.04372	1.1345	0.88144	170.59038	167.13349	64.13722	0.32989	 	2.7344799999999996E10	 	1.65665E-10	 	5656.30522	30.11509	 
650.0	1.0	0.0	7.56719	7.25108	-9.33843	15.26801	19.97545	1.13225	0.8832	170.95129	167.34354	64.27996	0.32974	 	3.2783199999999996E10	 	1.37438E-10	 	5506.00872	30.0593	 
645.0	1.0	0.0	7.56925	7.24911	-9.3631	15.24066	19.90716	1.12998	0.88497	171.31153	167.55267	64.42248	0.32959	 	3.93809E10	 	1.13793E-10	 	5355.99002	30.00374	 
640.0	1.0	0.0	7.5713	7.24714	-9.3877	15.21332	19.83885	1.1277	0.88676	171.67111	167.76088	64.56478	0.32945	 	4.740159999999999E10	 	9.40233E-11	 	5206.24793	29.94842	 
635.0	1.0	0.0	7.57335	7.24518	-9.41222	15.18599	19.77051	1.1254	0.88858	172.03003	167.96818	64.70686	0.3293	 	5.717249999999999E10	 	7.75278E-11	 	5056.78129	29.89333	 
630.0	1.0	0.0	7.5754	7.24323	-9.43666	15.15868	19.70214	1.12308	0.8904	172.38829	168.17456	64.84871	0.32916	 	6.91006E10	 	6.37918E-11	 	4907.58891	29.83848	 
625.0	1.0	0.0	7.57744	7.24128	-9.46104	15.13138	19.63376	1.12076	0.89225	172.74588	168.38002	64.99035	0.32901	 	8.36937E10	 	5.23773E-11	 	4758.66933	29.78391	 
620.0	1.0	0.0	7.57947	7.23934	-9.48533	15.1041	19.56534	1.11842	0.89412	173.10282	168.58458	65.13176	0.32887	 	1.01586E11	 	4.29117E-11	 	4610.02067	29.72973	 
615.0	1.0	0.0	7.5815	7.2374	-9.50956	15.07682	19.4969	1.11606	0.89601	173.45909	168.78824	65.27294	0.32872	 	1.23574E11	 	3.5079E-11	 	4461.64212	29.67571	 
610.0	1.0	0.0	7.58352	7.23547	-9.53371	15.04956	19.42844	1.11369	0.89792	173.81469	168.99098	65.41391	0.32858	 	1.50653E11	 	2.86116E-11	 	4313.53254	29.62192	 
605.0	1.0	0.0	7.58554	7.23354	-9.55778	15.02231	19.35995	1.1113	0.89985	174.16964	169.19283	65.55465	0.32843	 	1.84083E11	 	2.32832E-11	 	4165.69078	29.56835	 
600.0	1.0	0.0	7.58756	7.23162	-9.58178	14.99508	19.29143	1.1089	0.9018	174.52393	169.39378	65.69517	0.32829	 	2.25446E11	 	1.89031E-11	 	4018.1157	29.51502	 
595.0	1.0	0.0	7.58957	7.22971	-9.60571	14.96785	19.22288	1.10648	0.90377	174.87755	169.59384	65.83547	0.32814	 	2.7675E11	 	1.53107E-11	 	3870.80617	29.46191	 
590.0	1.0	0.0	7.59157	7.2278	-9.62957	14.94064	19.15431	1.10404	0.90576	175.23051	169.793	65.97555	0.328	 	3.40536E11	 	1.23711E-11	 	3723.76103	29.40903	 
585.0	1.0	0.0	7.59357	7.2259	-9.65335	14.91345	19.0857	1.10159	0.90778	175.58282	169.99128	66.1154	0.32785	 	4.20038E11	 	9.97151E-12	 	3576.97917	29.35637	 
580.0	1.0	0.0	7.59556	7.224	-9.67705	14.88626	19.01707	1.09913	0.90981	175.93446	170.18866	66.25503	0.32771	 	5.19377E11	 	8.01732E-12	 	3430.45943	29.30395	 
575.0	1.0	0.0	7.59755	7.22211	-9.70068	14.85909	18.94841	1.09665	0.91187	176.28544	170.38516	66.39444	0.32756	 	6.43818E11	 	6.42978E-12	 	3284.20072	29.25174	 
570.0	1.0	0.0	7.59953	7.22023	-9.72424	14.83193	18.87971	1.09415	0.91395	176.63576	170.58078	66.53362	0.32742	 	8.00111E11	 	5.14329E-12	 	3138.2019	29.19976	 
565.0	1.0	0.0	7.60151	7.21835	-9.74773	14.80479	18.81099	1.09163	0.91606	176.98542	170.77552	66.67258	0.32727	 	9.96928E11	 	4.10341E-12	 	2992.46185	29.14801	 
560.0	1.0	0.0	7.60348	7.21648	-9.77114	14.77766	18.74223	1.0891	0.91819	177.33442	170.96939	66.81132	0.32713	 	1.24544E12	 	3.26503E-12	 	2846.97946	29.09648	 
555.0	1.0	0.0	7.60545	7.21461	-9.79448	14.75054	18.67344	1.08655	0.92034	177.68276	171.16238	66.94984	0.32698	 	1.56009E12	 	2.59087E-12	 	2701.75362	29.04517	 
550.0	1.0	0.0	7.60741	7.21275	-9.81774	14.72343	18.60462	1.08399	0.92252	178.03043	171.3545	67.08813	0.32684	 	1.95959E12	 	2.05022E-12	 	2556.78322	28.99408	 
545.0	1.0	0.0	7.60937	7.21089	-9.84093	14.69633	18.53576	1.08141	0.92472	178.37745	171.54575	67.2262	0.3267	 	2.46826E12	 	1.61782E-12	 	2412.06715	28.94321	 
540.0	1.0	0.0	7.61132	7.20905	-9.86405	14.66925	18.46687	1.07881	0.92695	178.72381	171.73613	67.36405	0.32655	 	3.1178E12	 	1.27294E-12	 	2267.60433	28.89256	 
535.0	1.0	0.0	7.61326	7.2072	-9.88709	14.64219	18.39795	1.07619	0.9292	179.06951	171.92566	67.50167	0.32641	 	3.94968E12	 	9.98657E-13	 	2123.39367	28.84213	 
530.0	1.0	0.0	7.61521	7.20537	-9.91006	14.61513	18.32899	1.07355	0.93148	179.41455	172.11432	67.63907	0.32626	 	5.01828E12	 	7.8114E-13	 	1979.43408	28.79192	 
525.0	1.0	0.0	7.61714	7.20353	-9.93296	14.58809	18.25999	1.0709	0.93379	179.75893	172.30212	67.77625	0.32612	 	6.39513E12	 	6.09146E-13	 	1835.72446	28.74192	 
520.0	1.0	0.0	7.61907	7.20171	-9.95579	14.56106	18.19096	1.06823	0.93613	180.10265	172.48906	67.9132	0.32598	 	8.17471E12	 	4.73554E-13	 	1692.26374	28.69214	 
515.0	1.0	0.0	7.621	7.19989	-9.97854	14.53404	18.12189	1.06554	0.93849	180.44572	172.67516	68.04993	0.32583	 	1.04821E13	 	3.66984E-13	 	1549.05087	28.64258	 
510.0	1.0	0.0	7.62292	7.19808	-10.00122	14.50704	18.05278	1.06284	0.94088	180.78812	172.8604	68.18644	0.32569	 	1.34835E13	 	2.83484E-13	 	1406.08476	28.59322	 
505.0	1.0	0.0	7.62483	7.19627	-10.02382	14.48004	17.98363	1.06011	0.9433	181.12986	173.04479	68.32272	0.32555	 	1.74005E13	 	2.18267E-13	 	1263.36435	28.54408	 
500.0	1.0	0.0	7.62674	7.19447	-10.04635	14.45307	17.91444	1.05737	0.94574	181.47095	173.22834	68.45878	0.3254	 	2.25296E13	 	1.67493E-13	 	1120.88861	28.49515	 
495.0	1.0	0.0	7.62865	7.19267	-10.06881	14.4261	17.8452	1.05461	0.94822	181.81137	173.41104	68.59462	0.32526	 	2.9269E13	 	1.28093E-13	 	978.65646	28.44643	 
490.0	1.0	0.0	7.63055	7.19088	-10.0912	14.39915	17.77593	1.05183	0.95073	182.15114	173.5929	68.73023	0.32512	 	3.81548E13	 	9.76219E-14	 	836.66686	28.39792	 
485.0	1.0	0.0	7.63244	7.18909	-10.11351	14.37221	17.70661	1.04902	0.95327	182.49025	173.77393	68.86562	0.32497	 	4.99126E13	 	7.41365E-14	 	694.91879	28.34961	 
480.0	1.0	0.0	7.63433	7.18732	-10.13575	14.34528	17.63725	1.0462	0.95584	182.8287	173.95412	69.00079	0.32483	 	6.55269E13	 	5.60981E-14	 	553.41121	28.30152	 
475.0	1.0	0.0	7.63621	7.18554	-10.15792	14.31837	17.56785	1.04336	0.95844	183.16649	174.13347	69.13573	0.32469	 	8.63395E13	 	4.22927E-14	 	412.14311	28.25362	 
470.0	1.0	0.0	7.63809	7.18378	-10.18002	14.29146	17.4984	1.04051	0.96107	183.50363	174.31199	69.27045	0.32454	 	1.14186E14	 	3.17652E-14	 	271.11346	28.20593	 
465.0	1.0	0.0	7.63997	7.18201	-10.20204	14.26457	17.4289	1.03763	0.96374	183.8401	174.48969	69.40494	0.3244	 	1.51585E14	 	2.3767E-14	 	130.32125	28.15844	 
460.0	1.0	0.0	7.64183	7.18026	-10.22399	14.2377	17.35936	1.03473	0.96644	184.17592	174.66655	69.53921	0.32426	 	2.02014E14	 	1.77132E-14	 	-10.23452	28.11115	 
455.0	1.0	0.0	7.6437	7.17851	-10.24587	14.21084	17.28976	1.03181	0.96917	184.51108	174.8426	69.67326	0.32412	 	2.7028399999999997E14	 	1.31488E-14	 	-150.55483	28.06406	 
450.0	1.0	0.0	7.64555	7.17676	-10.26767	14.18399	17.22012	1.02886	0.97195	184.84559	175.01782	69.80708	0.32397	 	3.63083E14	 	9.72096E-15	 	-290.64068	28.01717	 
445.0	1.0	0.0	7.64741	7.17503	-10.2894	14.15715	17.15043	1.0259	0.97475	185.17943	175.19222	69.94068	0.32383	 	4.89753E14	 	7.1569E-15	 	-430.49304	27.97047	 
440.0	1.0	0.0	7.64925	7.17329	-10.31106	14.13032	17.08068	1.02292	0.97759	185.51262	175.3658	70.07405	0.32369	 	6.63392E14	 	5.24683E-15	 	-570.11289	27.92397	 
435.0	1.0	0.0	7.65109	7.17157	-10.33265	14.10351	17.01088	1.01992	0.98047	185.84515	175.53857	70.2072	0.32355	 	9.02454E14	 	3.8299E-15	 	-709.50118	27.87766	 
430.0	1.0	0.0	7.65293	7.16985	-10.35417	14.07671	16.94103	1.01689	0.98339	186.17702	175.71053	70.34012	0.32341	 	1.23305E15	 	2.78326E-15	 	-848.65886	27.83154	 
425.0	1.0	0.0	7.65476	7.16813	-10.37561	14.04993	16.87112	1.01384	0.98635	186.50823	175.88168	70.47282	0.32326	 	1.6923E15	 	2.01353E-15	 	-987.58675	27.78558	 
420.0	1.0	0.0	7.65659	7.16642	-10.39698	14.02315	16.80116	1.01077	0.98934	186.83879	176.05202	70.6053	0.32312	 	2.33323E15	 	1.44996E-15	 	-1126.28599	27.73985	 
415.0	1.0	0.0	7.65841	7.16472	-10.41828	13.99639	16.73113	1.00768	0.99238	187.16869	176.22155	70.73755	0.32298	 	3.23196E15	 	1.03921E-15	 	-1264.757	27.6942	 
410.0	1.0	0.0	7.66022	7.16302	-10.43951	13.96965	16.66105	1.00457	0.99545	187.49794	176.39028	70.86958	0.32284	 	4.49826E15	 	7.41239E-16	 	-1403.00005	27.64861	 
405.0	1.0	0.0	7.66203	7.16133	-10.46066	13.94291	16.59091	1.00143	0.99857	187.82652	176.55821	71.00138	0.3227	 	6.2913E15	 	5.26104E-16	 	-1541.01537	27.60306	 
400.0	1.0	0.0	7.66384	7.15964	-10.48175	13.91619	16.5207	0.99827	1.00173	188.15445	176.72534	71.13295	0.32255	 	8.84303E15	 	3.71533E-16	 	-1678.8032	27.55757	 
395.0	1.0	0.0	7.66564	7.15796	-10.50276	13.88948	16.45043	0.99509	1.00493	188.48172	176.89167	71.26431	0.32241	 	1.24932E16	 	2.61027E-16	 	-1816.36376	27.51211	 
390.0	1.0	0.0	7.66743	7.15629	-10.5237	13.86279	16.3801	0.99188	1.00818	188.80834	177.05721	71.39543	0.32227	 	1.7742400000000002E16	 	1.82426E-16	 	-1953.69724	27.4667	 
385.0	1.0	0.0	7.66922	7.15462	-10.54457	13.8361	16.3097	0.98866	1.01147	189.1343	177.22196	71.52634	0.32213	 	2.53316E16	 	1.26809E-16	 	-2090.80386	27.42132	 
380.0	1.0	0.0	7.671	7.15296	-10.56536	13.80943	16.23923	0.9854	1.01481	189.4596	177.38592	71.65701	0.32199	 	3.63648E16	 	8.76634E-17	 	-2227.68379	27.37599	 
375.0	1.0	0.0	7.67278	7.1513	-10.58609	13.78277	16.16869	0.98212	1.0182	189.78425	177.54909	71.78747	0.32185	 	5.24956E16	 	6.02614E-17	 	-2364.33721	27.33068	 
370.0	1.0	0.0	7.67455	7.14965	-10.60674	13.75613	16.09809	0.97882	1.02164	190.10824	177.71147	71.91769	0.32171	 	7.62155E16	 	4.11866E-17	 	-2500.76425	27.28541	 
365.0	1.0	0.0	7.67632	7.148	-10.62732	13.7295	16.0274	0.9755	1.02512	190.43157	177.87307	72.04769	0.32157	 	1.11302E17	 	2.79839E-17	 	-2636.96507	27.24016	 
360.0	1.0	0.0	7.67808	7.14636	-10.64783	13.70288	15.95665	0.97215	1.02865	190.75425	178.03389	72.17747	0.32143	 	1.63515E17	 	1.88989E-17	 	-2772.93979	27.19494	 
355.0	1.0	0.0	7.67984	7.14472	-10.66827	13.67627	15.88581	0.96877	1.03224	191.07627	178.19393	72.30702	0.32128	 	2.41697E17	 	1.26846E-17	 	-2908.68852	27.14975	 
350.0	1.0	0.0	7.68159	7.1431	-10.68863	13.64968	15.8149	0.96537	1.03588	191.39764	178.35319	72.43635	0.32114	 	3.59509E17	 	8.45998E-18	 	-3044.21133	27.10456	 
345.0	1.0	0.0	7.68334	7.14147	-10.70893	13.6231	15.74391	0.96194	1.03957	191.71835	178.51168	72.56545	0.321	 	5.38193E17	 	5.60586E-18	 	-3179.50833	27.0594	 
340.0	1.0	0.0	7.68508	7.13986	-10.72915	13.59653	15.67283	0.95849	1.04331	192.0384	178.6694	72.69432	0.32086	 	8.11006E17	 	3.69003E-18	 	-3314.57954	27.01424	 
335.0	1.0	0.0	7.68681	7.13824	-10.7493	13.56998	15.60167	0.95501	1.04711	192.3578	178.82634	72.82297	0.32072	 	1.23038E18	 	2.41246E-18	 	-3449.42503	26.9691	 
330.0	1.0	0.0	7.68854	7.13664	-10.76938	13.54343	15.53042	0.9515	1.05097	192.67654	178.98252	72.9514	0.32058	 	1.87955E18	 	1.56624E-18	 	-3584.0448	26.92395	 
325.0	1.0	0.0	7.69027	7.13504	-10.78939	13.5169	15.45908	0.94797	1.05489	192.99463	179.13793	73.07959	0.32044	 	2.89165E18	 	1.00961E-18	 	-3718.43886	26.87881	 
320.0	1.0	0.0	7.69199	7.13344	-10.80933	13.49039	15.38766	0.9444	1.05887	193.31206	179.29257	73.20757	0.3203	 	4.48116E18	 	6.46041E-19	 	-3852.60718	26.83366	 
315.0	1.0	0.0	7.6937	7.13185	-10.8292	13.46389	15.31613	0.94082	1.06291	193.62884	179.44646	73.33531	0.32016	 	6.99635E18	 	4.10302E-19	 	-3986.54972	26.78851	 
310.0	1.0	0.0	7.69541	7.13027	-10.849	13.43739	15.24452	0.9372	1.06701	193.94496	179.59958	73.46283	0.32002	 	1.1007E19	 	2.58581E-19	 	-4120.2664	26.74334	 
305.0	1.0	0.0	7.69711	7.12869	-10.86872	13.41092	15.1728	0.93356	1.07117	194.26042	179.75195	73.59013	0.31988	 	1.74531E19	 	1.6168E-19	 	-4253.75714	26.69815	 
300.0	1.0	0.0	7.69881	7.12712	-10.88838	13.38445	15.10098	0.92989	1.0754	194.57523	179.90356	73.71719	0.31974	 	2.78976E19	 	1.00274E-19	 	-4387.02184	26.65294	 
295.0	1.0	0.0	7.7005	7.12555	-10.90796	13.358	15.02906	0.92618	1.0797	194.88938	180.05441	73.84404	0.3196	 	4.49623E19	 	6.16739E-20	 	-4520.06033	26.6077	 
290.0	1.0	0.0	7.70219	7.12399	-10.92747	13.33156	14.95703	0.92245	1.08406	195.20288	180.20452	73.97065	0.31946	 	7.30818E19	 	3.76098E-20	 	-4652.87246	26.56243	 
285.0	1.0	0.0	7.70387	7.12244	-10.94692	13.30513	14.88488	0.9187	1.0885	195.51573	180.35387	74.09704	0.31932	 	1.1982599999999998E20	 	2.27346E-20	 	-4785.45803	26.51711	 
280.0	1.0	0.0	7.70555	7.12089	-10.96629	13.27872	14.81263	0.91491	1.09301	195.82792	180.50248	74.2232	0.31918	 	1.98232E20	 	1.36193E-20	 	-4917.8168	26.47175	 
275.0	1.0	0.0	7.70722	7.11935	-10.98559	13.25232	14.74026	0.91109	1.09759	196.13945	180.65034	74.34914	0.31904	 	3.3096699999999997E20	 	8.08353E-21	 	-5049.94854	26.42635	 
270.0	1.0	0.0	7.70888	7.11781	-11.00482	13.22593	14.66777	0.90724	1.10225	196.45033	180.79746	74.47485	0.3189	 	5.5782099999999997E20	 	4.75238E-21	 	-5181.85293	26.38088	 
265.0	1.0	0.0	7.71054	7.11628	-11.02398	13.19956	14.59516	0.90336	1.10698	196.76056	180.94383	74.60033	0.31876	 	9.493309999999999E20	 	2.76677E-21	 	-5313.52967	26.33535	 
260.0	1.0	0.0	7.7122	7.11475	-11.04307	13.17319	14.52242	0.89945	1.11179	197.07013	181.08947	74.72559	0.31863	 	1.6318200000000001E21	 	1.59465E-21	 	-5444.9784	26.28974	 
255.0	1.0	0.0	7.71385	7.11323	-11.06209	13.14685	14.44955	0.89551	1.11669	197.37904	181.23437	74.85062	0.31849	 	2.83387E21	 	9.09628E-22	 	-5576.19871	26.24406	 
250.0	1.0	0.0	7.71549	7.11171	-11.08103	13.12051	14.37655	0.89153	1.12166	197.6873	181.37853	74.97542	0.31835	 	4.9736E21	 	5.13384E-22	 	-5707.19017	26.19829	 
245.0	1.0	0.0	7.71713	7.1102	-11.09991	13.09419	14.30341	0.88753	1.12672	197.99491	181.52196	75.1	0.31821	 	8.82421E21	 	2.86594E-22	 	-5837.95231	26.15243	 
240.0	1.0	0.0	7.71876	7.1087	-11.11872	13.06787	14.23012	0.88349	1.13187	198.30186	181.66465	75.22435	0.31807	 	1.5831899999999999E22	 	1.58197E-22	 	-5968.48461	26.10646	 
235.0	1.0	0.0	7.72039	7.1072	-11.13745	13.04158	14.15669	0.87942	1.13711	198.60816	181.80662	75.34847	0.31793	 	2.8733399999999996E22	 	8.63162E-23	 	-6098.78652	26.06038	 
230.0	1.0	0.0	7.72201	7.10571	-11.15612	13.01529	14.08311	0.87532	1.14244	198.91381	181.94786	75.47237	0.31779	 	5.27697E22	 	4.65371E-23	 	-6228.85741	26.01418	 
225.0	1.0	0.0	7.72363	7.10422	-11.17472	12.98902	14.00938	0.87118	1.14787	199.2188	182.08837	75.59604	0.31765	 	9.81029E22	 	2.47836E-23	 	-6358.69663	25.96784	 
220.0	1.0	0.0	7.72524	7.10274	-11.19324	12.96276	13.93548	0.86701	1.15339	199.52313	182.22816	75.71948	0.31752	 	1.8468899999999998E23	 	1.30324E-23	 	-6488.30347	25.92137	 
215.0	1.0	0.0	7.72684	7.10126	-11.2117	12.93651	13.86142	0.8628	1.15901	199.82682	182.36723	75.84269	0.31738	 	3.5223099999999995E23	 	6.76415E-24	 	-6617.67717	25.87474	 
210.0	1.0	0.0	7.72844	7.09979	-11.23009	12.91028	13.78719	0.85856	1.16474	200.12985	182.50557	75.96568	0.31724	 	6.80796E23	 	3.46379E-24	 	-6746.81691	25.82795	 
205.0	1.0	0.0	7.73004	7.09833	-11.2484	12.88406	13.71278	0.85429	1.17056	200.43222	182.6432	76.08844	0.3171	 	1.33411E24	 	1.74928E-24	 	-6875.72179	25.78098	 
200.0	1.0	0.0	7.73163	7.09687	-11.26665	12.85785	13.63819	0.84998	1.1765	200.73394	182.78011	76.21097	0.31696	 	2.65181E24	 	8.70848E-25	 	-7004.39089	25.73382	 
195.0	1.0	0.0	7.73321	7.09541	-11.28483	12.83165	13.56341	0.84563	1.18255	201.03501	182.91631	76.33327	0.31682	 	5.348930000000001E24	 	4.27174E-25	 	-7132.82318	25.68646	 
190.0	1.0	0.0	7.73479	7.09396	-11.30293	12.80547	13.48844	0.84125	1.1887	201.33542	183.05179	76.45535	0.31669	 	1.09539E25	 	2.06366E-25	 	-7261.01759	25.63888	 
185.0	1.0	0.0	7.73636	7.09252	-11.32097	12.7793	13.41326	0.83683	1.19498	201.63518	183.18656	76.5772	0.31655	 	2.2786000000000003E25	 	9.81357E-26	 	-7388.97296	25.59107	 
180.0	1.0	0.0	7.73793	7.09108	-11.33894	12.75315	13.33789	0.83238	1.20138	201.93429	183.32063	76.69882	0.31641	 	4.817090000000001E25	 	4.59139E-26	 	-7516.68805	25.54302	 
175.0	1.0	0.0	7.7395	7.08965	-11.35684	12.727	13.26229	0.82789	1.20789	202.23275	183.45399	76.82022	0.31627	 	1.0355200000000002E26	 	2.11229E-26	 	-7644.16156	25.4947	 
170.0	1.0	0.0	7.74105	7.08823	-11.37466	12.70087	13.18648	0.82336	1.21454	202.53055	183.58664	76.94138	0.31614	 	2.2648000000000003E26	 	9.55011E-27	 	-7771.39206	25.4461	 
165.0	1.0	0.0	7.7426	7.08681	-11.39242	12.67475	13.11043	0.81879	1.22132	202.8277	183.71859	77.06232	0.316	 	5.04265E26	 	4.24083E-27	 	-7898.37806	25.3972	 
160.0	1.0	0.0	7.74415	7.08539	-11.41011	12.64865	13.03415	0.81418	1.22823	203.12419	183.84983	77.18303	0.31586	 	1.1437E27	 	1.84847E-27	 	-8025.11799	25.34799	 
155.0	1.0	0.0	7.74569	7.08398	-11.42773	12.62256	12.95762	0.80954	1.23527	203.42003	183.98038	77.30351	0.31572	 	2.64408E27	 	7.90328E-28	 	-8151.61013	25.29843	 
150.0	1.0	0.0	7.74722	7.08258	-11.44528	12.59648	12.88083	0.80485	1.24246	203.71522	184.11023	77.42377	0.31559	 	6.23502E27	 	3.3124E-28	 	-8277.85268	25.24851	 
145.0	1.0	0.0	7.74875	7.08118	-11.46276	12.57041	12.80379	0.80013	1.2498	204.00976	184.23939	77.54379	0.31545	 	1.50076E28	 	1.3599E-28	 	-8403.84372	25.19821	 
140.0	1.0	0.0	7.75028	7.07979	-11.48017	12.54435	12.72646	0.79536	1.25729	204.30365	184.36785	77.66359	0.31531	 	3.6899200000000003E28	 	5.46484E-29	 	-8529.58121	25.1475	 
135.0	1.0	0.0	7.7518	7.0784	-11.49751	12.51831	12.64886	0.79056	1.26493	204.59688	184.49561	77.78316	0.31517	 	9.2746E28	 	2.14789E-29	 	-8655.06295	25.09635	 
130.0	1.0	0.0	7.75331	7.07702	-11.51479	12.49229	12.57095	0.78571	1.27273	204.88946	184.62269	77.90251	0.31504	 	2.3850800000000003E29	 	8.24994E-30	 	-8780.28667	25.04474	 
125.0	1.0	0.0	7.75482	7.07564	-11.53199	12.46627	12.49274	0.78083	1.28069	205.18139	184.74908	78.02162	0.3149	 	6.280770000000001E29	 	3.094E-30	 	-8905.24987	24.99264	 
120.0	1.0	0.0	7.75632	7.07427	-11.54912	12.44027	12.41421	0.7759	1.28883	205.47266	184.87478	78.14051	0.31476	 	1.69519E30	 	1.13195E-30	 	-9029.94995	24.94002	 
115.0	1.0	0.0	7.75782	7.07291	-11.56619	12.41428	12.33535	0.77093	1.29714	205.76329	184.9998	78.25916	0.31463	 	4.6939099999999996E30	 	4.03601E-31	 	-9154.38413	24.88683	 
110.0	1.0	0.0	7.75931	7.07155	-11.58319	12.3883	12.25615	0.76592	1.30563	206.05326	185.12413	78.37759	0.31449	 	1.33473E31	 	1.40108E-31	 	-9278.54945	24.83306	 
105.0	1.0	0.0	7.76079	7.0702	-11.60011	12.36234	12.17658	0.76086	1.3143	206.34259	185.24779	78.49579	0.31435	 	3.9017199999999998E31	 	4.73037E-32	 	-9402.44275	24.77866	 
100.0	1.0	0.0	7.76227	7.06885	-11.61697	12.33639	12.09665	0.75576	1.32317	206.63126	185.37076	78.61376	0.31422	 	1.17382E32	 	1.55156E-32	 	-9526.06069	24.72359	 
95.0	1.0	0.0	7.76375	7.0675	-11.63376	12.31045	12.01632	0.75062	1.33223	206.91928	185.49306	78.73151	0.31408	 	3.63866E32	 	4.93822E-33	 	-9649.3997	24.6678	 
90.0	1.0	0.0	7.76522	7.06617	-11.65048	12.28452	11.93558	0.74543	1.3415	207.20664	185.61468	78.84902	0.31395	 	1.16362E33	 	1.52322E-33	 	-9772.45599	24.61126	 
85.0	1.0	0.0	7.76668	7.06484	-11.66714	12.25861	11.85443	0.7402	1.35098	207.49336	185.73562	78.96631	0.31381	 	3.84394E33	 	4.54752E-34	 	-9895.22551	24.5539	 
80.0	1.0	0.0	7.76814	7.06351	-11.68372	12.23271	11.77283	0.73493	1.36068	207.77943	185.8559	79.08337	0.31367	 	1.31352E34	 	1.31222E-34	 	-10017.70396	24.49569	 
75.0	1.0	0.0	7.76959	7.06219	-11.70023	12.20682	11.69077	0.72961	1.3706	208.06485	185.9755	79.2002	0.31354	 	4.64973E34	 	3.65448E-35	 	-10139.88675	24.43656	 
70.0	1.0	0.0	7.77104	7.06087	-11.71668	12.18095	11.60822	0.72424	1.38075	208.34961	186.09444	79.3168	0.3134	 	1.70772E35	 	9.80741E-36	 	-10261.76898	24.37645	 
65.0	1.0	0.0	7.77248	7.05956	-11.73306	12.15509	11.52517	0.71883	1.39114	208.63373	186.21271	79.43317	0.31327	 	6.51798E35	 	2.53211E-36	 	-10383.34545	24.31529	 
60.0	1.0	0.0	7.77392	7.05826	-11.74937	12.12924	11.4416	0.71338	1.40178	208.9172	186.33031	79.54932	0.31313	 	2.58982E36	 	6.27851E-37	 	-10504.61059	24.25303	 
55.0	1.0	0.0	7.77535	7.05696	-11.76561	12.1034	11.35747	0.70788	1.41268	209.20001	186.44725	79.66523	0.31299	 	1.07321E37	 	1.49236E-37	 	-10625.55845	24.18957	 
50.0	1.0	0.0	7.77678	7.05567	-11.78178	12.07758	11.27276	0.70233	1.42384	209.48218	186.56353	79.78092	0.31286	 	4.64737E37	 	3.39378E-38	 	-10746.18269	24.12485	 
45.0	1.0	0.0	7.7782	7.05438	-11.79788	12.05177	11.18744	0.69673	1.43527	209.7637	186.67915	79.89638	0.31272	 	2.10735E38	 	7.36855E-39	 	-10866.47652	24.05877	 
40.0	1.0	0.0	7.77961	7.0531	-11.81392	12.02597	11.10148	0.69109	1.44698	210.04457	186.79412	80.01161	0.31259	 	1.0028400000000001E39	 	1.52408E-39	 	-10986.43269	23.99123	 
35.0	1.0	0.0	7.78102	7.05182	-11.82989	12.00019	11.01486	0.68541	1.45898	210.3248	186.90842	80.12661	0.31245	 	5.0200800000000004E39	 	2.99597E-40	 	-11106.04343	23.92215	 
30.0	1.0	0.0	7.78242	7.05055	-11.84579	11.97442	10.92753	0.67968	1.47129	210.60437	187.02208	80.24138	0.31232	 	2.65011E40	 	5.58316E-41	 	-11225.30042	23.8514	 
25.0	1.0	0.0	7.78382	7.04928	-11.86162	 	10.83945	0.6739	1.48391	210.8833	187.13508	80.35592	0.31218	 	1.47929E41	 	9.83713E-42	 	-11344.19473	 	 
