T (C)	Fraction solid (wt)-TOTAL	Fraction liquid (wt)-LIQUID	Density (g/(cm)^3)-TOTAL	Molar volume (cm^3)-TOTAL	Volume change (%)-  	Average expansion coeff. (10e-6 1/K)-  	Thermal conductivity (W/(m*K))-TOTAL	Electrical resistivity (10e-6 Ohm*m)-TOTAL	Electrical conductivity (10e6 1/(Ohm*m))-TOTAL	Young's modulus (GPa)-TOTAL	Bulk modulus (GPa)-TOTAL	Shear modulus(GPa)-TOTAL	Poisson's ratio-TOTAL	Liquid viscosity (mPa s)-  	Total viscosity (mPa s)-  	Liquid diffusivity (10e-9 (m^2)/s)-  	Total diffusivity (10e-9 (m^2)/s)-  	Surface Tension (mN/m)-  	Enthalpy (J/mole)-TOTAL	Specific heat (J/(mole K))-TOTAL	Latent heat (J/mole)-TOTAL
1400.0	0.0	1.0	6.87226	8.00803	0.0	33.04463	28.26894	1.45008	0.68962	0.0	119.36786	0.0	0.5	6.31883	6.31883	1.29236	1.29236	1734.93802	46872.041	 	0.0
1395.0	0.0	1.0	6.87615	8.0035	-0.0565392	33.00891	28.18919	1.44983	0.68973	0.0	119.5176	0.0	0.5	6.38403	6.38403	1.27534	1.27534	1736.92083	46670.682	40.2718	0.0
1390.0	0.0	1.0	6.88003	7.99898	-0.11292	32.97338	28.10945	1.44959	0.68985	0.0	119.66733	0.0	0.5	6.4503	6.4503	1.25846	1.25846	1738.92063	46469.762	40.184	0.0
1385.0	0.0	1.0	6.8839	7.99448	-0.16914	32.93803	28.0297	1.44934	0.68997	0.0	119.81706	0.0	0.5	6.51766	6.51766	1.24171	1.24171	1740.93768	46269.277	40.097	0.0
1380.0	0.0	1.0	6.88777	7.98999	-0.2252	32.90286	27.94996	1.4491	0.69009	0.0	119.9668	0.0	0.5	6.58614	6.58614	1.22509	1.22509	1742.9722	46069.227	40.01	0.0
1375.0	0.0	1.0	6.89163	7.98552	-0.2811	32.86789	27.87021	1.44885	0.6902	0.0	120.11653	0.0	0.5	6.65576	6.65576	1.20861	1.20861	1745.02439	45869.609	39.9236	0.0
1370.0	0.0	1.0	6.89549	7.98105	-0.33684	32.8331	27.79046	1.4486	0.69032	0.0	120.26627	0.0	0.5	6.72655	6.72655	1.19226	1.19226	1747.09445	45670.419	39.838	0.0
1365.0	0.0	1.0	6.89933	7.9766	-0.39242	32.79851	27.71072	1.44834	0.69044	0.0	120.416	0.0	0.5	6.79853	6.79853	1.17605	1.17605	1749.18258	45471.657	39.7524	0.0
1360.0	0.0	1.0	6.90317	7.97216	-0.44784	32.76411	27.63097	1.44809	0.69056	0.0	120.56574	0.0	0.5	6.87173	6.87173	1.15997	1.15997	1751.28896	45273.32	39.6674	0.0
1355.0	0.0	1.0	6.90701	7.96774	-0.5031	32.72991	27.55123	1.44784	0.69069	0.0	120.71547	0.0	0.5	6.94617	6.94617	1.14403	1.14403	1753.41376	45075.405	39.583	0.0
1350.0	0.0	1.0	6.91084	7.96333	-0.5582	32.69591	27.47148	1.44758	0.69081	0.0	120.86521	0.0	0.5	7.02189	7.02189	1.12821	1.12821	1755.55717	44877.91	39.499	0.0
1345.0	0.0	1.0	6.91466	7.95893	-0.61314	32.66211	27.39173	1.44732	0.69093	0.0	121.01494	0.0	0.5	7.0989	7.0989	1.11254	1.11254	1757.71933	44680.834	39.4152	0.0
1340.0	0.0	1.0	6.91847	7.95454	-0.66792	32.62851	27.31199	1.44706	0.69105	0.0	121.16468	0.0	0.5	7.17725	7.17725	1.09699	1.09699	1759.9004	44484.174	39.332	0.0
1335.0	0.0	1.0	6.92228	7.95017	-0.72254	32.59512	27.23224	1.4468	0.69118	0.0	121.31441	0.0	0.5	7.25696	7.25696	1.08158	1.08158	1762.1005	44287.928	39.2492	0.0
1330.0	0.0	1.0	6.92607	7.9458	-0.777	32.56194	27.1525	1.44654	0.6913	0.0	121.46415	0.0	0.5	7.33806	7.33806	1.0663	1.0663	1764.31978	44092.093	39.167	0.0
1325.0	0.0	1.0	6.92987	7.94146	-0.8313	32.52896	27.07275	1.44628	0.69143	0.0	121.61388	0.0	0.5	7.42057	7.42057	1.05115	1.05115	1766.55834	43896.668	39.085	0.0
1320.25	0.0	1.0	6.93346	7.93734	-0.88275	32.49783	26.99697	1.44602	0.69155	0.0	121.75617	0.0	0.5	7.50034	7.50034	1.03688	1.03688	1768.70354	43711.344	39.00466	0.0
1320.0	0.0065	0.9935	6.93522	7.9353	-0.90813	32.42985	27.02007	1.44456	0.69225	1.54442E-7	121.79422	5.15096E-8	0.49916	7.50471	7.56988	1.03612	1.0272	1768.66314	43611.458	401.68094	90.191
1315.0	0.1318	0.8682	6.96932	7.89646	-1.3932	31.13127	27.4739	1.41624	0.70609	0.0268004	122.55541	0.00903701	0.48282	7.59408	14.4536	1.02071	0.53629	1767.89817	41687.572	384.7772	1819.466
1310.0	0.23729	0.76271	6.99862	7.86345	-1.80541	30.03738	27.85998	1.39222	0.71828	0.28758	123.26779	0.0978913	0.46889	7.68516	70.41787	1.00544	0.10973	1767.24295	40048.475	327.8194	3264.353
1305.0	0.32673	0.67327	7.024	7.83501	-2.16051	29.1039	28.19138	1.37151	0.72912	1.05339	123.93818	0.36151	0.45693	7.77805	238.77882	0.99029	0.0322581	1766.69026	38639.075	281.88	4479.946
1300.0	0.40309	0.59691	7.04613	7.81038	-2.46805	28.30442	28.47748	1.35343	0.73887	2.48158	124.57478	0.85772	0.44661	7.87286	567.25208	0.97527	0.0135357	1766.23218	37416.506	244.5138	5509.106
1295.0	0.46867	0.53133	7.0656	7.78888	-2.73662	27.61486	28.72526	1.33749	0.74767	4.60455	125.1839	1.60141	0.43766	7.96961	1082.7696	0.96037	0.00706868	1765.86183	36347.092	213.8828	6385.509
1290.0	0.52533	0.47467	7.08282	7.76994	-2.97307	27.01603	28.93941	1.32336	0.75565	7.36971	125.76889	2.5771	0.42984	8.06842	1796.55504	0.94558	0.00424665	1765.57279	35404.135	188.5914	7135.85
1285.0	0.57453	0.42547	7.09812	7.75322	-3.1819	26.49548	29.12394	1.31077	0.76291	10.67649	126.33379	3.7514	0.423	8.16923	2709.55709	0.93093	0.00280671	1765.35858	34566.297	167.5676	7781.465
1280.0	0.61745	0.38255	7.11187	7.73822	-3.36919	26.03577	29.28226	1.2995	0.76953	14.4101	126.88061	5.08485	0.41696	8.27235	3817.96022	0.91637	0.00198549	1765.21499	33816.387	149.982	8339.543
1275.0	0.65508	0.34492	7.12425	7.72477	-3.53715	25.63096	29.41706	1.28938	0.77557	18.45307	127.4122	6.5361	0.41163	8.37778	5115.4803	0.90193	0.00147711	1765.13622	33140.458	135.1858	8824.029
1270.0	0.68818	0.31182	7.13547	7.7126	-3.68915	25.27147	29.53096	1.28026	0.78109	22.70278	127.92968	8.06846	0.40688	8.4856	6596.82491	0.88759	0.00114172	1765.11799	32527.115	122.6686	9246.315
1265.0	0.71742	0.28258	7.14571	7.70155	-3.82708	24.95204	29.62618	1.27201	0.78616	27.06797	128.43543	9.64883	0.40266	8.59602	8257.35874	0.87335	9.09168E-4	1765.15595	31966.993	112.0244	9615.766
1260.0	0.74333	0.25667	7.15508	7.69147	-3.953	24.66687	29.70473	1.26452	0.79082	31.47298	128.93038	11.24942	0.39887	8.70898	10094.17227	0.85922	7.41311E-4	1765.24647	31452.346	102.9294	9940.126
1255.0	0.76637	0.23363	7.16371	7.68218	-4.06893	24.41014	29.7684	1.2577	0.7951	35.86114	129.41523	12.84913	0.39547	8.82468	12107.5558	0.84519	6.16022E-4	1765.38676	30976.734	95.1224	10225.832
1250.0	0.78693	0.21307	7.17169	7.67361	-4.17595	24.17887	29.81873	1.25147	0.79906	40.18564	129.89101	14.43032	0.3924	8.94327	14299.40688	0.83125	5.1989E-4	1765.5735	30534.771	88.3926	10478.268
1245.0	0.80533	0.19467	7.1791	7.66566	-4.27526	23.96964	29.85725	1.24575	0.80273	44.41375	130.35874	15.98044	0.38963	9.06477	16674.66403	0.81742	4.4437E-4	1765.80416	30121.935	82.5672	10701.954
1240.0	0.82182	0.17818	7.18602	7.65828	-4.36741	23.78101	29.88505	1.24049	0.80613	48.51656	130.81931	17.4883	0.38711	9.18942	19238.93526	0.80367	3.83873E-4	1766.07567	29734.408	77.5054	10900.706
1235.0	0.83666	0.16334	7.19251	7.65136	-4.45389	23.60857	29.90341	1.23563	0.8093	52.4821	131.27286	18.949	0.38482	9.3174	22002.52659	0.79002	3.34548E-4	1766.38708	29368.954	73.0908	11077.759
1230.0	0.85003	0.14997	7.1986	7.64486	-4.53499	23.45162	29.91316	1.23114	0.81226	56.29628	131.71975	20.35685	0.38274	9.44861	24975.87148	0.77646	2.93744E-4	1766.73581	29022.817	69.2274	11235.866
1225.0	0.86213	0.13787	7.20436	7.63873	-4.61154	23.30772	29.91526	1.22695	0.81503	59.95584	132.16068	21.71019	0.38082	9.58354	28173.36929	0.76299	2.59539E-4	1767.12066	28693.643	65.8348	11377.38
1220.0	0.87307	0.12693	7.20981	7.63293	-4.68401	23.17551	29.91045	1.22306	0.81762	63.45638	132.59584	23.00701	0.37907	9.72208	31609.73987	0.7496	2.30552E-4	1767.54036	28379.411	62.8464	11504.319
1215.0	0.88301	0.11699	7.215	7.62743	-4.75267	23.05435	29.89938	1.21941	0.82007	66.79838	133.02579	24.24709	0.37745	9.86451	35303.11788	0.7363	2.05741E-4	1767.99301	28078.382	60.2058	11618.423
1210.0	0.89205	0.10795	7.21994	7.62219	-4.81818	22.94225	29.88275	1.21599	0.82237	69.98808	133.45063	25.43247	0.37596	10.01089	39275.21193	0.7231	1.84312E-4	1768.47823	27789.052	57.866	11721.19
1205.0	0.90027	0.0997271	7.22467	7.61718	-4.88068	22.83883	29.86098	1.21278	0.82455	73.02391	133.87075	26.56225	0.37458	10.16162	43546.04274	0.70997	1.65675E-4	1768.99485	27510.119	55.7866	11813.923
1201.22	0.90599	0.0940133	7.2281	7.61353	-4.92621	22.76568	29.84117	1.21048	0.82612	75.21305	134.18529	27.3779	0.37361	10.27852	46986.57877	0.7001	1.53151E-4	1769.40805	27305.719	 	11877.682
1200.0	0.908	0.0919992	7.22922	7.61235	-4.94098	22.74163	29.83569	1.2097	0.82665	75.9918	134.29133	27.66823	0.37327	10.31772	48188.07779	0.69687	1.49209E-4	1769.68698	27237.256	54.5726	11900.946
1195.0	0.91597	0.084028	7.23373	7.60755	-5.00094	22.64471	29.81158	1.20657	0.8288	79.15037	134.72334	28.84681	0.37191	10.48122	53390.48158	0.68367	1.34213E-4	1770.84037	26960.275	55.3962	11992.445
1190.0	0.92317	0.0768325	7.23804	7.60296	-5.05824	22.55561	29.78253	1.20363	0.83082	82.12471	135.14825	29.95812	0.37066	10.64895	58977.04806	0.67061	1.21086E-4	1772.00109	26693.397	53.3756	12074.198
1185.0	0.92968	0.0703217	7.24218	7.59856	-5.11321	22.47333	29.74906	1.20087	0.83273	84.92632	135.56656	31.00618	0.36951	10.82075	64982.85177	0.65771	1.09519E-4	1773.16863	26435.419	51.5956	12147.406
1180.77	0.93469	0.0653136	7.24557	7.59495	-5.15824	22.40806	29.71745	1.19866	0.83427	87.16171	135.91564	31.84334	0.3686	10.96955	70415.5735	0.6469	1.00776E-4	1774.16241	26223.555	 	12203.17
1180.0	0.93591	0.0640911	7.24623	7.59423	-5.16723	22.39347	29.71863	1.19798	0.83474	87.59441	135.98824	32.00639	0.36839	11.01623	71553.91712	0.64382	9.91206E-5	1774.40378	26179.519	51.18	12218.888
1179.73	0.93633	0.0636702	7.24646	7.59398	-5.17042	22.38822	29.71898	1.19774	0.83491	87.74406	136.01369	32.06279	0.36832	11.03283	71955.58723	0.64273	9.8549E-5	1774.48868	26164.181	 	12224.296
1175.0	0.95131	0.048692	7.25261	7.5874	-5.2526	22.20965	29.80724	1.1903	0.84012	92.56494	136.6809	33.8846	0.36589	11.23547	81876.64741	0.62908	8.63257E-5	1775.89812	25754.801	84.9436	12459.539
1170.0	0.96419	0.0358104	7.25819	7.58141	-5.32734	22.05939	29.86899	1.18374	0.84478	97.06055	137.32095	35.58564	0.36376	11.46237	92740.55224	0.6145	7.59501E-5	1777.39291	25371.881	76.584	12658.742
1168.7	0.96682	0.0331841	7.25945	7.58005	-5.34428	22.02841	29.87748	1.18234	0.84578	98.0878	137.47174	35.97399	0.36332	11.5239	95518.93727	0.61067	7.36744E-5	1777.78426	25283.792	 	12699.05
1168.7	0.96682	0.0331841	7.25945	7.58005	-5.34428	22.02841	29.87748	1.18234	0.84578	98.0878	137.47174	35.97399	0.36332	11.5239	95518.93727	0.61067	7.36744E-5	1777.78426	25283.792	 	12699.05
1165.0	0.98695	0.0130495	7.26778	7.57119	-5.45503	21.7319	29.96063	1.17603	0.85032	109.51044	138.46666	40.25907	0.36007	11.72787	109374.6985	0.59851	6.41762E-5	1778.47892	24750.892	124.1978	13096.36
1160.0	1.0	0.0	7.27427	7.56425	-5.54166	21.53855	29.97942	1.17121	0.85382	118.78613	139.28776	43.74004	0.35786	 	123975.8259	 	5.64211E-5	 	24314.786	87.2212	13349.442
1155.0	1.0	0.0	7.27678	7.56163	-5.57439	21.52414	29.89953	1.17024	0.85452	119.25873	139.64142	43.92067	0.35766	 	133511.8668	 	5.22084E-5	 	24130.59567	36.83807	 
1150.0	1.0	0.0	7.27929	7.55902	-5.60693	21.51023	29.81963	1.16927	0.85524	119.73069	139.99398	44.10109	0.35746	 	143857.0608	 	4.82843E-5	 	23959.89643	34.13985	 
1145.0	1.0	0.0	7.2818	7.55642	-5.63941	21.49642	29.73973	1.16829	0.85595	120.20177	140.34471	44.28123	0.35725	 	155085.4427	 	4.46311E-5	 	23789.44917	34.08945	 
1140.0	1.0	0.0	7.2843	7.55383	-5.67181	21.48273	29.65982	1.16731	0.85667	120.67199	140.69362	44.46111	0.35705	 	167279.1708	 	4.12319E-5	 	23619.25344	34.03915	 
1135.0	1.0	0.0	7.2868	7.55124	-5.70415	21.46916	29.57989	1.16632	0.8574	121.14134	141.04071	44.64071	0.35685	 	180528.6453	 	3.80706E-5	 	23449.30874	33.98894	 
1130.0	1.0	0.0	7.28929	7.54865	-5.73642	21.4557	29.49996	1.16533	0.85813	121.60983	141.386	44.82004	0.35665	 	194933.4223	 	3.51321E-5	 	23279.61463	33.93882	 
1127.6	1.0	0.0	7.29048	7.54742	-5.75186	21.44929	29.46165	1.16485	0.85848	121.83407	141.55087	44.9059	0.35655	 	202278.9932	 	3.37985E-5	 	23198.36821	 	 
1125.0	1.0	0.0	7.29344	7.54436	-5.79	21.36872	29.31879	1.16835	0.85591	122.42712	141.91635	45.13537	0.35622	 	211083.9453	 	3.23285E-5	 	23016.30003	52.66292	 
1120.0	1.0	0.0	7.29903	7.53858	-5.86219	21.21658	29.05102	1.1749	0.85113	123.52064	142.5723	45.55924	0.3556	 	229253.8977	 	2.96598E-5	 	22672.27607	68.80479	 
1115.0	1.0	0.0	7.30451	7.53292	-5.93285	21.06838	28.79833	1.18096	0.84677	124.57642	143.19625	45.96899	0.35501	 	249231.6929	 	2.71844E-5	 	22335.43165	67.36888	 
1110.0	1.0	0.0	7.30989	7.52739	-6.00199	20.9241	28.55755	1.18663	0.84272	125.60002	143.79515	46.36663	0.35442	 	271215.1275	 	2.4891E-5	 	22005.49269	65.98779	 
1105.0	1.0	0.0	7.31515	7.52197	-6.06967	20.78362	28.32711	1.19196	0.83896	126.59385	144.37178	46.75305	0.35386	 	295425.1221	 	2.27686E-5	 	21682.19311	64.65992	 
1100.0	1.0	0.0	7.32032	7.51666	-6.13593	20.64681	28.10609	1.19697	0.83544	127.55964	144.92801	47.12887	0.35331	 	322108.6455	 	2.08067E-5	 	21365.27411	63.3838	 
1095.0	1.0	0.0	7.32538	7.51146	-6.20083	20.51355	27.89383	1.20169	0.83216	128.49885	145.46531	47.49462	0.35277	 	351542.0533	 	1.89952E-5	 	21054.48317	62.15819	 
1090.0	1.0	0.0	7.33035	7.50637	-6.26442	20.3837	27.68981	1.20612	0.82911	129.41281	145.98497	47.8508	0.35225	 	384034.8311	 	1.73245E-5	 	20749.57403	60.98183	 
1085.0	1.0	0.0	7.33523	7.50138	-6.32675	20.25714	27.49354	1.21027	0.82626	130.30276	146.48816	48.19786	0.35175	 	419933.8268	 	1.57853E-5	 	20450.30657	59.85349	 
1082.64	1.0	0.0	7.33749	7.49906	-6.35568	20.19863	27.40366	1.21214	0.82499	130.71395	146.71977	48.3583	0.35152	 	438132.1445	 	1.51034E-5	 	20311.23465	 	 
1080.0	1.0	0.0	7.34001	7.49649	-6.38782	20.13389	27.30459	1.21416	0.82361	131.17006	146.97623	48.53631	0.35126	 	459634.737	 	1.43688E-5	 	20156.34409	58.7925	 
1075.0	1.0	0.0	7.34471	7.49169	-6.44769	20.01378	27.12255	1.21779	0.82116	132.01576	147.45005	48.86652	0.35078	 	503574.4119	 	1.30666E-5	 	19867.48694	57.77143	 
1070.0	1.0	0.0	7.34933	7.48699	-6.50645	19.89655	26.94703	1.22118	0.81888	132.84077	147.91024	49.18885	0.35031	 	552238.6036	 	1.18709E-5	 	19583.60636	56.77612	 
1065.0	1.0	0.0	7.35386	7.48237	-6.56415	19.78208	26.77765	1.22433	0.81677	133.6461	148.35761	49.50367	0.34986	 	606179.274	 	1.07743E-5	 	19304.48579	55.82411	 
1060.0	1.0	0.0	7.35833	7.47783	-6.62082	19.67025	26.61408	1.22725	0.81483	134.43272	148.79293	49.81135	0.34942	 	666017.6539	 	9.76967E-6	 	19029.91551	54.91406	 
1055.0	1.0	0.0	7.36272	7.47337	-6.67651	19.56093	26.45596	1.22996	0.81304	135.20157	149.21691	50.11223	0.34899	 	732453.5255	 	8.85021E-6	 	18759.69276	54.04455	 
1050.0	1.0	0.0	7.36704	7.46898	-6.73127	19.454	26.30299	1.23245	0.81139	135.95353	149.63021	50.40666	0.34857	 	806275.8751	 	8.00962E-6	 	18493.62183	53.21418	 
1045.0	1.0	0.0	7.3713	7.46467	-6.78513	19.34936	26.15487	1.23475	0.80988	136.68945	150.03344	50.69494	0.34816	 	888375.0441	 	7.24194E-6	 	18231.51415	52.42154	 
1040.0	1.0	0.0	7.37549	7.46043	-6.83813	19.24689	26.01131	1.23685	0.8085	137.41014	150.42718	50.97739	0.34776	 	979756.764	 	6.54158E-6	 	17973.18829	51.66517	 
1035.0	1.0	0.0	7.37963	7.45625	-6.89031	19.14649	25.87204	1.23878	0.80725	138.11636	150.81196	51.2543	0.34736	 	1081558.027	 	5.90329E-6	 	17718.47	50.94366	 
1030.0	1.0	0.0	7.3837	7.45213	-6.9417	19.04805	25.73682	1.24053	0.80611	138.80886	151.18828	51.52595	0.34698	 	1195065.605	 	5.32218E-6	 	17467.19212	50.25557	 
1025.0	1.0	0.0	7.38772	7.44808	-6.99235	18.95146	25.6054	1.24211	0.80508	139.48832	151.55662	51.7926	0.3466	 	1321736.991	 	4.79365E-6	 	17219.19461	49.5995	 
1020.0	1.0	0.0	7.39169	7.44408	-7.04227	18.85664	25.47757	1.24353	0.80416	140.1554	151.91739	52.0545	0.34624	 	1463224.783	 	4.31345E-6	 	16974.32438	48.97405	 
1015.0	1.0	0.0	7.39561	7.44014	-7.09152	18.76349	25.35311	1.2448	0.80334	140.81074	152.27102	52.31189	0.34588	 	1621404.571	 	3.87759E-6	 	16732.43517	48.37784	 
1010.0	1.0	0.0	7.39948	7.43625	-7.1401	18.67191	25.23183	1.24593	0.80261	141.45492	152.61788	52.565	0.34552	 	1798407.127	 	3.48238E-6	 	16493.38745	47.80955	 
1005.0	1.0	0.0	7.4033	7.4324	-7.18806	18.58182	25.11354	1.24692	0.80197	142.08851	152.95832	52.81404	0.34518	 	1996655.594	 	3.12439E-6	 	16257.04817	47.26786	 
1000.0	1.0	0.0	7.40708	7.42861	-7.23541	18.49313	24.99808	1.24778	0.80142	142.71203	153.29268	53.05922	0.34484	 	2218908.246	 	2.80044E-6	 	16023.29064	46.75151	 
995.0	1.0	0.0	7.41082	7.42487	-7.2822	18.40577	24.88529	1.24852	0.80095	143.32598	153.62125	53.30074	0.3445	 	2468308.351	 	2.5076E-6	 	15791.99425	46.25928	 
990.0	1.0	0.0	7.41451	7.42116	-7.32844	18.31966	24.77501	1.24913	0.80056	143.93085	153.94434	53.53876	0.34417	 	2748441.188	 	2.24313E-6	 	15563.04431	45.78999	 
985.0	1.0	0.0	7.41817	7.4175	-7.37415	18.23472	24.66711	1.24963	0.80024	144.52706	154.2622	53.77346	0.34385	 	3063401.003	 	2.00454E-6	 	15336.33178	45.34251	 
980.0	1.0	0.0	7.4218	7.41388	-7.41936	18.15088	24.56145	1.25001	0.79999	145.11506	154.57509	54.00501	0.34353	 	3417867.845	 	1.78951E-6	 	15111.75306	44.91574	 
975.0	1.0	0.0	7.42538	7.4103	-7.46409	18.06807	24.45792	1.2503	0.79981	145.69522	154.88325	54.23355	0.34322	 	3817197.233	 	1.59591E-6	 	14889.20973	44.50867	 
970.0	1.0	0.0	7.42894	7.40676	-7.50835	17.98623	24.3564	1.25048	0.79969	146.26793	155.18689	54.45923	0.34291	 	4267524.264	 	1.42179E-6	 	14668.60833	44.12028	 
965.0	1.0	0.0	7.43246	7.40325	-7.55218	17.9053	24.25678	1.25056	0.79964	146.83353	155.48622	54.68219	0.34261	 	4775885.403	 	1.26534E-6	 	14449.86014	43.74964	 
960.0	1.0	0.0	7.43595	7.39977	-7.59559	17.82522	24.15897	1.25056	0.79964	147.39235	155.78143	54.90256	0.34231	 	5350358.874	 	1.12491E-6	 	14232.88091	43.39585	 
955.0	1.0	0.0	7.43941	7.39633	-7.63859	17.74592	24.06288	1.25046	0.79971	147.94472	156.07269	55.12045	0.34201	 	6000230.252	 	9.99011E-7	 	14017.59067	43.05805	 
950.0	1.0	0.0	7.44285	7.39291	-7.6812	17.66735	23.96841	1.25028	0.79982	148.49092	156.36019	55.33598	0.34172	 	6736184.773	 	8.86242E-7	 	13803.91353	42.73543	 
945.0	1.0	0.0	7.44625	7.38953	-7.72344	17.58947	23.87549	1.25001	0.79999	149.03122	156.64406	55.54925	0.34143	 	7570532.648	 	7.85346E-7	 	13591.77741	42.42722	 
940.0	1.0	0.0	7.44963	7.38618	-7.76532	17.51222	23.78405	1.24967	0.80021	149.56589	156.92447	55.76037	0.34115	 	8517472.974	 	6.95169E-7	 	13381.11388	42.13271	 
935.0	1.0	0.0	7.45299	7.38285	-7.80686	17.43554	23.69401	1.24925	0.80048	150.09518	157.20156	55.96943	0.34087	 	9593402.862	 	6.1466E-7	 	13171.85798	41.85118	 
930.0	1.0	0.0	7.45632	7.37955	-7.84807	17.35941	23.60531	1.24875	0.8008	150.61931	157.47544	56.17652	0.34059	 	1.081727995E7	 	5.42861E-7	 	12963.94798	41.582	 
925.0	1.0	0.0	7.45963	7.37628	-7.88896	17.28376	23.51788	1.24819	0.80116	151.1385	157.74625	56.38172	0.34031	 	1.221104991E7	 	4.789E-7	 	12757.32529	41.32454	 
920.0	1.0	0.0	7.46292	7.37303	-7.92954	17.20856	23.43168	1.24755	0.80157	151.65297	158.0141	56.58512	0.34004	 	1.380014848E7	 	4.21986E-7	 	12551.93422	41.07822	 
915.0	1.0	0.0	7.46619	7.3698	-7.96983	17.13377	23.34665	1.24685	0.80202	152.16289	158.2791	56.78679	0.33977	 	1.561409257E7	 	3.71399E-7	 	12347.72184	40.84247	 
910.0	1.0	0.0	7.46944	7.3666	-8.00984	17.05935	23.26274	1.24608	0.80252	152.66845	158.54135	56.9868	0.33951	 	1.768717885E7	 	3.26489E-7	 	12144.63789	40.61679	 
905.0	1.0	0.0	7.47266	7.36341	-8.04957	16.98526	23.1799	1.24525	0.80305	153.16982	158.80095	57.18521	0.33924	 	2.005930965E7	 	2.86663E-7	 	11942.63454	40.40067	 
900.0	1.0	0.0	7.47587	7.36025	-8.08904	16.91146	23.0981	1.24435	0.80363	153.66718	159.05799	57.38209	0.33898	 	2.277696613E7	 	2.51388E-7	 	11741.66636	40.19364	 
895.0	1.0	0.0	7.47906	7.35711	-8.12826	16.83792	23.01728	1.2434	0.80425	154.16066	159.31256	57.5775	0.33872	 	2.589436875E7	 	2.20181E-7	 	11541.69014	39.99524	 
890.0	1.0	0.0	7.48224	7.35399	-8.16722	16.76461	22.93742	1.24239	0.8049	154.65042	159.56475	57.7715	0.33847	 	2.947484422E7	 	1.92606E-7	 	11342.66476	39.80508	 
885.0	1.0	0.0	7.48539	7.35089	-8.20596	16.69149	22.85847	1.24132	0.80559	155.13658	159.81462	57.96413	0.33821	 	3.359245694E7	 	1.68271E-7	 	11144.55117	39.62272	 
880.0	1.0	0.0	7.48854	7.34781	-8.24446	16.61854	22.78041	1.2402	0.80632	155.61929	160.06227	58.15545	0.33796	 	3.833394689E7	 	1.46821E-7	 	10947.31196	39.44784	 
875.0	1.0	0.0	7.49166	7.34474	-8.28274	16.54571	22.70321	1.23902	0.80709	156.09866	160.30775	58.3455	0.33771	 	4.380103825E7	 	1.27938E-7	 	10750.91165	39.28006	 
870.0	1.0	0.0	7.49477	7.34169	-8.3208	16.47299	22.62683	1.23779	0.80789	156.5748	160.55113	58.53434	0.33746	 	5.011319037E7	 	1.11337E-7	 	10555.31717	39.11889	 
865.0	1.0	0.0	7.49787	7.33866	-8.35866	16.40035	22.55125	1.2365	0.80873	157.04783	160.79249	58.72199	0.33721	 	5.741089324E7	 	9.67591E-8	 	10360.49661	38.96411	 
860.0	1.0	0.0	7.50095	7.33565	-8.39631	16.32776	22.47645	1.23517	0.80961	157.51785	161.03189	58.90851	0.33697	 	6.585958977E7	 	8.3976E-8	 	10166.41962	38.8154	 
855.0	1.0	0.0	7.50402	7.33265	-8.43377	16.2552	22.40239	1.23378	0.81052	157.98495	161.26938	59.09392	0.33673	 	7.565440336E7	 	7.27812E-8	 	9973.05738	38.67245	 
850.0	1.0	0.0	7.50707	7.32966	-8.47103	16.18264	22.32906	1.23235	0.81146	158.44924	161.50502	59.27827	0.33649	 	8.702578625E7	 	6.29907E-8	 	9780.38253	38.53497	 
845.0	1.0	0.0	7.5093	7.32749	-8.49813	16.15613	22.26288	1.23051	0.81267	158.83261	161.74483	59.42848	0.33633	 	9.851959558E7	 	5.53942E-8	 	9627.2411	30.62828	 
840.0	1.0	0.0	7.51151	7.32533	-8.52515	16.12964	22.19669	1.22866	0.8139	159.21532	161.98359	59.57847	0.33618	 	1.116557952E8	 	4.86585E-8	 	9471.19017	31.21019	 
835.0	1.0	0.0	7.51373	7.32317	-8.55211	16.10316	22.13048	1.2268	0.81513	159.59735	162.2213	59.72824	0.33603	 	1.266865335E8	 	4.26928E-8	 	9315.35647	31.16674	 
830.0	1.0	0.0	7.51594	7.32102	-8.57899	16.07668	22.06427	1.22493	0.81637	159.9787	162.45797	59.87779	0.33588	 	1.439053173E8	 	3.74149E-8	 	9159.73919	31.12346	 
825.0	1.0	0.0	7.51814	7.31887	-8.60581	16.05022	21.99804	1.22305	0.81763	160.35939	162.6936	60.02712	0.33572	 	1.636542269E8	 	3.27507E-8	 	9004.33751	31.08034	 
820.0	1.0	0.0	7.52034	7.31673	-8.63255	16.02376	21.9318	1.22116	0.8189	160.7394	162.9282	60.17622	0.33557	 	1.86332463E8	 	2.86337E-8	 	8849.15058	31.03739	 
815.0	1.0	0.0	7.52254	7.31459	-8.65922	15.99731	21.86555	1.21925	0.82017	161.11874	163.16176	60.32511	0.33542	 	2.124064877E8	 	2.50039E-8	 	8694.1775	30.99461	 
810.0	1.0	0.0	7.52473	7.31246	-8.68581	15.97087	21.79928	1.21734	0.82146	161.4974	163.3943	60.47377	0.33527	 	2.42422072E8	 	2.18074E-8	 	8539.4174	30.95202	 
805.0	1.0	0.0	7.52692	7.31034	-8.71234	15.94444	21.733	1.21542	0.82276	161.8754	163.62581	60.62221	0.33512	 	2.770186281E8	 	1.89958E-8	 	8384.86934	30.90961	 
800.0	1.0	0.0	7.5291	7.30822	-8.73879	15.91802	21.66671	1.21348	0.82407	162.25272	163.8563	60.77043	0.33496	 	3.169462849E8	 	1.65258E-8	 	8230.53236	30.86739	 
795.0	1.0	0.0	7.53128	7.30611	-8.76517	15.89161	21.60041	1.21154	0.8254	162.62937	164.08577	60.91843	0.33481	 	3.630862601E8	 	1.43585E-8	 	8076.40549	30.82537	 
790.0	1.0	0.0	7.53345	7.304	-8.79148	15.8652	21.53409	1.20958	0.82673	163.00535	164.31423	61.0662	0.33466	 	4.164752001E8	 	1.24593E-8	 	7922.4877	30.78356	 
785.0	1.0	0.0	7.53562	7.3019	-8.81772	15.83881	21.46776	1.20761	0.82808	163.38066	164.54168	61.21376	0.33451	 	4.783343047E8	 	1.0797E-8	 	7768.77793	30.74195	 
780.0	1.0	0.0	7.53778	7.2998	-8.84389	15.81242	21.40141	1.20563	0.82944	163.7553	164.76812	61.36109	0.33436	 	5.501042274E8	 	9.34398E-9	 	7615.27511	30.70056	 
775.0	1.0	0.0	7.53994	7.29772	-8.86999	15.78604	21.33506	1.20364	0.83081	164.12927	164.99355	61.5082	0.33421	 	6.334869612E8	 	8.07556E-9	 	7461.97809	30.6594	 
770.0	1.0	0.0	7.54209	7.29563	-8.89601	15.75967	21.26868	1.20163	0.8322	164.50257	165.21798	61.65509	0.33406	 	7.304961842E8	 	6.96972E-9	 	7308.88571	30.61848	 
765.0	1.0	0.0	7.54424	7.29355	-8.92197	15.73331	21.2023	1.19962	0.8336	164.8752	165.44142	61.80176	0.3339	 	8.435178666E8	 	6.00693E-9	 	7155.99675	30.57779	 
760.0	1.0	0.0	7.54639	7.29148	-8.94785	15.70696	21.13589	1.19759	0.83501	165.24715	165.66386	61.94821	0.33375	 	9.753833481E8	 	5.16981E-9	 	7003.30996	30.53736	 
755.0	1.0	0.0	7.54853	7.28941	-8.97366	15.68062	21.06948	1.19555	0.83643	165.61844	165.88531	62.09443	0.3336	 	1.129457588E9	 	4.44297E-9	 	6850.82401	30.49719	 
750.0	1.0	0.0	7.55066	7.28735	-8.9994	15.65428	21.00304	1.1935	0.83787	165.98906	166.10577	62.24043	0.33345	 	1.309745914E9	 	3.81276E-9	 	6698.53753	30.45729	 
745.0	1.0	0.0	7.55279	7.2853	-9.02507	15.62796	20.93659	1.19144	0.83932	166.35901	166.32525	62.38621	0.3333	 	1.521023356E9	 	3.2671E-9	 	6546.44912	30.41768	 
740.0	1.0	0.0	7.55492	7.28325	-9.05067	15.60164	20.87013	1.18936	0.84079	166.72829	166.54374	62.53177	0.33315	 	1.768991604E9	 	2.79534E-9	 	6394.55728	30.37837	 
735.0	1.0	0.0	7.55704	7.2812	-9.07619	15.57533	20.80365	1.18728	0.84226	167.0969	166.76126	62.67711	0.333	 	2.060469817E9	 	2.38806E-9	 	6242.86046	30.33936	 
730.0	1.0	0.0	7.55915	7.27916	-9.10165	15.54903	20.73715	1.18518	0.84376	167.46485	166.9778	62.82222	0.33285	 	2.403626965E9	 	2.03697E-9	 	6091.35704	30.30068	 
725.0	1.0	0.0	7.56127	7.27713	-9.12703	15.52274	20.67064	1.18306	0.84526	167.83212	167.19337	62.96712	0.3327	 	2.808265249E9	 	1.73478E-9	 	5940.04532	30.26234	 
720.0	1.0	0.0	7.56337	7.2751	-9.15235	15.49646	20.60411	1.18094	0.84678	168.19873	167.40796	63.11179	0.33255	 	3.286166434E9	 	1.47507E-9	 	5788.92355	30.22435	 
715.0	1.0	0.0	7.56547	7.27308	-9.17759	15.47019	20.53756	1.1788	0.84832	168.56467	167.6216	63.25624	0.3324	 	3.8515158E9	 	1.25221E-9	 	5637.98985	30.18674	 
710.0	1.0	0.0	7.56757	7.27107	-9.20276	15.44393	20.471	1.17665	0.84987	168.92994	167.83427	63.40046	0.33225	 	4.521422066E9	 	1.06128E-9	 	5487.24229	30.14951	 
705.0	1.0	0.0	7.56966	7.26906	-9.22786	15.41767	20.40441	1.17448	0.85144	169.29454	168.04598	63.54447	0.3321	 	5.316556161E9	 	8.9797E-10	 	5336.6788	30.1127	 
700.0	1.0	0.0	7.57175	7.26705	-9.25289	15.39142	20.33781	1.17231	0.85302	169.65847	168.25673	63.68825	0.33194	 	6.261937482E9	 	7.58504E-10	 	5186.29725	30.07631	 
695.0	1.0	0.0	7.57384	7.26505	-9.27785	15.36519	20.27119	1.17012	0.85462	170.02174	168.46653	63.83181	0.33179	 	7.38790352E9	 	6.396E-10	 	5036.09538	30.04037	 
690.0	1.0	0.0	7.57591	7.26306	-9.30274	15.33896	20.20455	1.16791	0.85623	170.38434	168.67538	63.97515	0.33164	 	8.731307901E9	 	5.38395E-10	 	4886.07081	30.00491	 
685.0	1.0	0.0	7.57799	7.26107	-9.32756	15.31274	20.1379	1.1657	0.85786	170.74627	168.88328	64.11827	0.33149	 	1.0337E10	 	4.52403E-10	 	4736.22105	29.96995	 
680.0	1.0	0.0	7.58006	7.25909	-9.3523	15.28652	20.07122	1.16347	0.8595	171.10754	169.09024	64.26116	0.33134	 	1.2259699999999998E10	 	3.79462E-10	 	4586.54344	29.93552	 
675.0	1.0	0.0	7.58212	7.25712	-9.37698	15.26032	20.00452	1.16122	0.86116	171.46814	169.29625	64.40383	0.3312	 	1.4566199999999998E10	 	3.17701E-10	 	4437.03522	29.90164	 
670.0	1.0	0.0	7.58418	7.25514	-9.40158	15.23413	19.9378	1.15896	0.86284	171.82807	169.50133	64.54628	0.33105	 	1.73382E10	 	2.65499E-10	 	4287.69344	29.86836	 
665.0	1.0	0.0	7.58623	7.25318	-9.42612	15.20794	19.87106	1.15669	0.86454	172.18734	169.70547	64.68851	0.3309	 	2.06762E10	 	2.21456E-10	 	4138.515	29.83569	 
660.0	1.0	0.0	7.58828	7.25122	-9.45058	15.18177	19.8043	1.1544	0.86625	172.54593	169.90868	64.83051	0.33075	 	2.4703399999999996E10	 	1.84366E-10	 	3989.50481	29.80204	 
655.0	1.0	0.0	7.59033	7.24927	-9.47497	15.1556	19.73752	1.1521	0.86798	172.90387	170.11096	64.97229	0.3306	 	2.9571599999999996E10	 	1.5319E-10	 	3840.70829	29.7593	 
650.0	1.0	0.0	7.59237	7.24732	-9.4993	15.12944	19.67072	1.14979	0.86972	173.26113	170.31231	65.11385	0.33045	 	3.54682E10	 	1.27034E-10	 	3692.18574	29.70451	 
645.0	1.0	0.0	7.5944	7.24538	-9.52355	15.10329	19.6039	1.14746	0.87149	173.61774	170.51273	65.25519	0.3303	 	4.2625E10	 	1.05132E-10	 	3543.93602	29.64994	 
640.0	1.0	0.0	7.59643	7.24344	-9.54773	15.07715	19.53705	1.14512	0.87327	173.97367	170.71224	65.3963	0.33015	 	5.132899999999999E10	 	8.68293E-11	 	3395.958	29.59561	 
635.0	1.0	0.0	7.59846	7.24151	-9.57184	15.05102	19.47018	1.14276	0.87508	174.32894	170.91083	65.53719	0.33	 	6.193699999999999E10	 	7.15639E-11	 	3248.25054	29.54149	 
630.0	1.0	0.0	7.60048	7.23959	-9.59588	15.02489	19.40329	1.14038	0.8769	174.68355	171.1085	65.67786	0.32985	 	7.48929E10	 	5.88581E-11	 	3100.8125	29.48761	 
625.0	1.0	0.0	7.6025	7.23767	-9.61985	14.99878	19.33637	1.13799	0.87874	175.03748	171.30526	65.8183	0.3297	 	9.07507E10	 	4.83043E-11	 	2953.64244	29.43401	 
620.0	1.0	0.0	7.60451	7.23575	-9.64375	14.97267	19.26943	1.13559	0.8806	175.39076	171.50111	65.95853	0.32955	 	1.10203E11	 	3.95565E-11	 	2806.73837	29.38081	 
615.0	1.0	0.0	7.60651	7.23384	-9.66758	14.94657	19.20246	1.13317	0.88248	175.74337	171.69605	66.09853	0.3294	 	1.34118E11	 	3.23212E-11	 	2660.09959	29.32775	 
610.0	1.0	0.0	7.60851	7.23194	-9.69134	14.92049	19.13547	1.13074	0.88438	176.09531	171.89009	66.2383	0.32926	 	1.63585E11	 	2.63498E-11	 	2513.72504	29.27491	 
605.0	1.0	0.0	7.61051	7.23004	-9.71503	14.89441	19.06845	1.12829	0.8863	176.44659	172.08322	66.37786	0.32911	 	1.99979E11	 	2.14324E-11	 	2367.61357	29.22229	 
600.0	1.0	0.0	7.6125	7.22815	-9.73865	14.86833	19.00141	1.12582	0.88824	176.7972	172.27546	66.51719	0.32896	 	2.45033E11	 	1.73921E-11	 	2221.7641	29.16989	 
595.0	1.0	0.0	7.61449	7.22627	-9.7622	14.84227	18.93434	1.12334	0.8902	177.14715	172.4668	66.65629	0.32881	 	3.00941E11	 	1.40799E-11	 	2076.17554	29.11771	 
590.0	1.0	0.0	7.61647	7.22439	-9.78568	14.81622	18.86724	1.12084	0.89219	177.49644	172.65725	66.79518	0.32866	 	3.70485E11	 	1.13711E-11	 	1930.84677	29.06575	 
585.0	1.0	0.0	7.61845	7.22251	-9.80909	14.79017	18.80012	1.11833	0.89419	177.84506	172.8468	66.93384	0.32851	 	4.57208E11	 	9.16086E-12	 	1785.77673	29.01401	 
580.0	1.0	0.0	7.62042	7.22064	-9.83243	14.76414	18.73296	1.1158	0.89622	178.19301	173.03547	67.07228	0.32837	 	5.65623E11	 	7.36182E-12	 	1640.96431	28.96248	 
575.0	1.0	0.0	7.62239	7.21878	-9.8557	14.73811	18.66578	1.11325	0.89827	178.54031	173.22326	67.21049	0.32822	 	7.01503E11	 	5.90106E-12	 	1496.40843	28.91118	 
570.0	1.0	0.0	7.62435	7.21692	-9.8789	14.71209	18.59857	1.11069	0.90034	178.88693	173.41016	67.34848	0.32807	 	8.72251E11	 	4.71792E-12	 	1352.108	28.86008	 
565.0	1.0	0.0	7.62631	7.21507	-9.90203	14.68608	18.53133	1.10811	0.90244	179.2329	173.59618	67.48625	0.32792	 	1.08738E12	 	3.76207E-12	 	1208.06196	28.80921	 
560.0	1.0	0.0	7.62826	7.21322	-9.92509	14.66008	18.46406	1.10551	0.90456	179.5782	173.78132	67.62379	0.32777	 	1.35916E12	 	2.99184E-12	 	1064.26923	28.75855	 
555.0	1.0	0.0	7.6302	7.21138	-9.94807	14.63409	18.39676	1.10289	0.90671	179.92284	173.96559	67.76111	0.32763	 	1.70346E12	 	2.37282E-12	 	920.72874	28.7081	 
550.0	1.0	0.0	7.63215	7.20955	-9.97099	14.60811	18.32943	1.10026	0.90887	180.26681	174.14899	67.89821	0.32748	 	2.14083E12	 	1.87665E-12	 	777.43942	28.65786	 
545.0	1.0	0.0	7.63408	7.20772	-9.99384	14.58213	18.26206	1.09761	0.91107	180.61012	174.33152	68.03508	0.32733	 	2.69803E12	 	1.48004E-12	 	634.40022	28.60784	 
540.0	1.0	0.0	7.63602	7.20589	-10.01662	14.55617	18.19467	1.09495	0.91329	180.95277	174.51318	68.17173	0.32718	 	3.40993E12	 	1.16389E-12	 	491.61008	28.55803	 
535.0	1.0	0.0	7.63795	7.20407	-10.03933	14.53021	18.12723	1.09226	0.91553	181.29475	174.69398	68.30816	0.32704	 	4.32219E12	 	9.12589E-13	 	349.06793	28.50843	 
530.0	1.0	0.0	7.63987	7.20226	-10.06197	14.50426	18.05977	1.08956	0.9178	181.63607	174.87392	68.44436	0.32689	 	5.49469E12	 	7.13411E-13	 	206.77273	28.45904	 
525.0	1.0	0.0	7.64179	7.20045	-10.08454	14.47832	17.99227	1.08684	0.9201	181.97673	175.05299	68.58034	0.32674	 	7.00631E12	 	5.56009E-13	 	64.72345	28.40986	 
520.0	1.0	0.0	7.6437	7.19865	-10.10705	14.45239	17.92473	1.0841	0.92243	182.31672	175.23121	68.71609	0.32659	 	8.96119E12	 	4.31993E-13	 	-77.08096	28.36088	 
515.0	1.0	0.0	7.64561	7.19685	-10.12948	14.42647	17.85716	1.08134	0.92478	182.65605	175.40858	68.85162	0.32645	 	1.14974E13	 	3.34578E-13	 	-218.64154	28.31212	 
510.0	1.0	0.0	7.64751	7.19506	-10.15184	14.40055	17.78955	1.07856	0.92716	182.99472	175.58509	68.98692	0.3263	 	1.47983E13	 	2.58297E-13	 	-359.9593	28.26355	 
505.0	1.0	0.0	7.64941	7.19328	-10.17413	14.37465	17.72191	1.07577	0.92957	183.33273	175.76076	69.122	0.32615	 	1.91089E13	 	1.98753E-13	 	-501.03529	28.2152	 
500.0	1.0	0.0	7.6513	7.1915	-10.19635	14.34875	17.65422	1.07295	0.93201	183.67007	175.93558	69.25686	0.32601	 	2.47569E13	 	1.52425E-13	 	-641.87051	28.16704	 
495.0	1.0	0.0	7.65319	7.18973	-10.21851	14.32287	17.5865	1.07012	0.93447	184.00675	176.10955	69.39149	0.32586	 	3.21824E13	 	1.16497E-13	 	-782.46597	28.11909	 
490.0	1.0	0.0	7.65507	7.18796	-10.24059	14.29699	17.51874	1.06727	0.93697	184.34277	176.28269	69.5259	0.32571	 	4.19793E13	 	8.87282E-14	 	-922.82269	28.07134	 
485.0	1.0	0.0	7.65695	7.18619	-10.26261	14.27112	17.45093	1.06439	0.9395	184.67812	176.45498	69.66008	0.32557	 	5.49507E13	 	6.73393E-14	 	-1062.94167	28.0238	 
480.0	1.0	0.0	7.65882	7.18444	-10.28455	14.24526	17.38309	1.0615	0.94206	185.01282	176.62644	69.79404	0.32542	 	7.21879E13	 	5.09218E-14	 	-1202.82388	27.97644	 
475.0	1.0	0.0	7.66069	7.18268	-10.30643	14.21941	17.3152	1.05859	0.94465	185.34685	176.79706	69.92778	0.32527	 	9.51786E13	 	3.83651E-14	 	-1342.47035	27.92929	 
470.0	1.0	0.0	7.66255	7.18094	-10.32824	14.19356	17.24727	1.05566	0.94728	185.68022	176.96686	70.06129	0.32513	 	1.2595899999999998E14	 	2.87961E-14	 	-1481.88204	27.88234	 
465.0	1.0	0.0	7.66441	7.1792	-10.34997	14.16773	17.17929	1.0527	0.94994	186.01293	177.13582	70.19457	0.32498	 	1.67328E14	 	2.15309E-14	 	-1621.05992	27.83558	 
460.0	1.0	0.0	7.66626	7.17746	-10.37164	14.14191	17.11127	1.04973	0.95263	186.34497	177.30396	70.32763	0.32483	 	2.23147E14	 	1.60357E-14	 	-1760.00496	27.78901	 
455.0	1.0	0.0	7.66811	7.17573	-10.39324	14.11609	17.0432	1.04673	0.95535	186.67636	177.47127	70.46046	0.32469	 	2.98765E14	 	1.18954E-14	 	-1898.71814	27.74264	 
450.0	1.0	0.0	7.66995	7.17401	-10.41477	14.09028	16.97509	1.04372	0.95811	187.00708	177.63776	70.59307	0.32454	 	4.01625E14	 	8.78809E-15	 	-2037.20039	27.69645	 
445.0	1.0	0.0	7.67179	7.17229	-10.43623	14.06448	16.90693	1.04068	0.96091	187.33714	177.80343	70.72546	0.3244	 	5.4212699999999994E14	 	6.46548E-15	 	-2175.45267	27.65046	 
440.0	1.0	0.0	7.67363	7.17058	-10.45762	14.03869	16.83871	1.03762	0.96374	187.66654	177.96828	70.85762	0.32425	 	7.34866E14	 	4.73652E-15	 	-2313.47592	27.60465	 
435.0	1.0	0.0	7.67545	7.16887	-10.47894	14.01291	16.77045	1.03454	0.96661	187.99528	178.13231	70.98955	0.32411	 	1.00042E15	 	3.45487E-15	 	-2451.27106	27.55903	 
430.0	1.0	0.0	7.67728	7.16717	-10.5002	13.98714	16.70214	1.03144	0.96952	188.32335	178.29554	71.12126	0.32396	 	1.36791E15	 	2.50886E-15	 	-2588.83901	27.51359	 
425.0	1.0	0.0	7.67909	7.16547	-10.52138	13.96137	16.63377	1.02831	0.97247	188.65077	178.45795	71.25275	0.32381	 	1.87881E15	 	1.81365E-15	 	-2726.18057	27.46831	 
420.0	1.0	0.0	7.68091	7.16378	-10.5425	13.93562	16.56535	1.02516	0.97546	188.97752	178.61956	71.38401	0.32367	 	2.59236E15	 	1.30502E-15	 	-2863.29684	27.42325	 
415.0	1.0	0.0	7.68271	7.16209	-10.56355	13.90987	16.49688	1.02199	0.97848	189.30361	178.78036	71.51504	0.32352	 	3.59369E15	 	9.34608E-16	 	-3000.18821	27.37827	 
410.0	1.0	0.0	7.68452	7.16041	-10.58452	13.88413	16.42835	1.0188	0.98155	189.62904	178.94035	71.64585	0.32338	 	5.00565E15	 	6.66104E-16	 	-3136.8549	27.33334	 
405.0	1.0	0.0	7.68631	7.15874	-10.60543	13.8584	16.35976	1.01558	0.98466	189.95381	179.09955	71.77643	0.32323	 	7.00654E15	 	4.72399E-16	 	-3273.29711	27.28844	 
400.0	1.0	0.0	7.68811	7.15707	-10.62627	13.83268	16.29111	1.01234	0.98781	190.27792	179.25794	71.90678	0.32309	 	9.85635E15	 	3.33336E-16	 	-3409.51503	27.24358	 
395.0	1.0	0.0	7.68989	7.15541	-10.64705	13.80697	16.2224	1.00908	0.991	190.60137	179.41554	72.03692	0.32294	 	1.39363E16	 	2.33999E-16	 	-3545.50883	27.19876	 
390.0	1.0	0.0	7.69167	7.15375	-10.66775	13.78127	16.15363	1.00579	0.99424	190.92416	179.57235	72.16682	0.3228	 	1.98083E16	 	1.634E-16	 	-3681.27869	27.15397	 
385.0	1.0	0.0	7.69345	7.1521	-10.68838	13.75558	16.0848	1.00248	0.99753	191.24629	179.72836	72.2965	0.32265	 	2.83051E16	 	1.13487E-16	 	-3816.82476	27.10921	 
380.0	1.0	0.0	7.69522	7.15045	-10.70895	13.72989	16.0159	0.99914	1.00086	191.56775	179.88358	72.42595	0.32251	 	4.06685E16	 	7.83865E-17	 	-3952.14716	27.06448	 
375.0	1.0	0.0	7.69699	7.14881	-10.72944	13.70421	15.94694	0.99578	1.00424	191.88856	180.03802	72.55518	0.32236	 	5.87596E16	 	5.38373E-17	 	-4087.24606	27.01978	 
370.0	1.0	0.0	7.69875	7.14717	-10.74987	13.67855	15.87791	0.9924	1.00766	192.2087	180.19167	72.68418	0.32222	 	8.53857E16	 	3.67632E-17	 	-4222.12157	26.9751	 
365.0	1.0	0.0	7.70051	7.14554	-10.77023	13.65289	15.80881	0.98898	1.01114	192.52819	180.34453	72.81295	0.32207	 	1.24806E17	 	2.4956E-17	 	-4356.77377	26.93044	 
360.0	1.0	0.0	7.70226	7.14392	-10.79052	13.62724	15.73964	0.98555	1.01466	192.84701	180.49662	72.9415	0.32193	 	1.83522E17	 	1.68386E-17	 	-4491.20275	26.8858	 
355.0	1.0	0.0	7.70401	7.1423	-10.81075	13.6016	15.6704	0.98209	1.01824	193.16517	180.64792	73.06982	0.32178	 	2.71523E17	 	1.12913E-17	 	-4625.40862	26.84117	 
350.0	1.0	0.0	7.70575	7.14068	-10.8309	13.57596	15.60108	0.9786	1.02187	193.48268	180.79845	73.19792	0.32164	 	4.04255E17	 	7.52357E-18	 	-4759.39142	26.79656	 
345.0	1.0	0.0	7.70748	7.13908	-10.85099	13.55034	15.53169	0.97508	1.02555	193.79952	180.9482	73.32579	0.3215	 	6.0576E17	 	4.98058E-18	 	-4893.15118	26.75195	 
340.0	1.0	0.0	7.70922	7.13747	-10.871	13.52473	15.46221	0.97154	1.02929	194.1157	181.09718	73.45343	0.32135	 	9.13714E17	 	3.27524E-18	 	-5026.68794	26.70735	 
335.0	1.0	0.0	7.71094	7.13588	-10.89095	13.49912	15.39266	0.96797	1.03309	194.43123	181.2454	73.58085	0.32121	 	1.38757E18	 	2.13916E-18	 	-5160.00171	26.66275	 
330.0	1.0	0.0	7.71266	7.13428	-10.91084	13.47352	15.32303	0.96438	1.03694	194.74609	181.39284	73.70804	0.32106	 	2.12182E18	 	1.38741E-18	 	-5293.09248	26.61815	 
325.0	1.0	0.0	7.71438	7.1327	-10.93065	13.44793	15.25331	0.96075	1.04085	195.06029	181.53951	73.835	0.32092	 	3.26772E18	 	8.93411E-19	 	-5425.96023	26.57355	 
320.0	1.0	0.0	7.71609	7.13112	-10.95039	13.42235	15.18351	0.9571	1.04482	195.37384	181.68543	73.96173	0.32078	 	5.06925E18	 	5.71093E-19	 	-5558.60491	26.52894	 
315.0	1.0	0.0	7.71779	7.12954	-10.97007	13.39678	15.11361	0.95342	1.04885	195.68672	181.83058	74.08824	0.32063	 	7.92292E18	 	3.62318E-19	 	-5691.02644	26.48431	 
310.0	1.0	0.0	7.71949	7.12797	-10.98968	13.37122	15.04363	0.94972	1.05295	195.99894	181.97497	74.21452	0.32049	 	1.24782E19	 	2.28095E-19	 	-5823.22475	26.43966	 
305.0	1.0	0.0	7.72119	7.12641	-11.00922	13.34567	14.97355	0.94598	1.05711	196.31051	182.1186	74.34058	0.32035	 	1.98076E19	 	1.42461E-19	 	-5955.19974	26.395	 
300.0	1.0	0.0	7.72288	7.12485	-11.02869	13.32012	14.90338	0.94221	1.06133	196.62141	182.26148	74.46641	0.3202	 	3.16965E19	 	8.8256E-20	 	-6086.95125	26.3503	 
295.0	1.0	0.0	7.72456	7.12329	-11.04809	13.29459	14.83311	0.93842	1.06562	196.93165	182.4036	74.59201	0.32006	 	5.11428E19	 	5.42207E-20	 	-6218.47912	26.30558	 
290.0	1.0	0.0	7.72624	7.12174	-11.06743	13.26906	14.76273	0.93459	1.06998	197.24124	182.54497	74.71738	0.31992	 	8.3224E19	 	3.30265E-20	 	-6349.7832	26.26082	 
285.0	1.0	0.0	7.72792	7.1202	-11.08669	13.24354	14.69226	0.93074	1.07441	197.55016	182.68559	74.84253	0.31977	 	1.3661599999999998E20	 	1.99406E-20	 	-6480.86328	26.21601	 
280.0	1.0	0.0	7.72959	7.11866	-11.10589	13.21803	14.62167	0.92686	1.07892	197.85843	182.82547	74.96744	0.31963	 	2.2627899999999997E20	 	1.19312E-20	 	-6611.71909	26.17116	 
275.0	1.0	0.0	7.73125	7.11713	-11.12503	13.19253	14.55098	0.92294	1.08349	198.16604	182.9646	75.09213	0.31949	 	3.78256E20	 	7.07295E-21	 	-6742.35039	26.12626	 
270.0	1.0	0.0	7.73291	7.1156	-11.14409	13.16704	14.48017	0.91899	1.08815	198.47298	183.10298	75.2166	0.31934	 	6.383149999999999E20	 	4.15309E-21	 	-6872.75688	26.0813	 
265.0	1.0	0.0	7.73456	7.11408	-11.16309	13.14155	14.40925	0.91501	1.09288	198.77927	183.24063	75.34083	0.3192	 	1.0877E21	 	2.41481E-21	 	-7002.93825	26.03627	 
260.0	1.0	0.0	7.73621	7.11257	-11.18201	13.11608	14.33821	0.911	1.09769	199.0849	183.37753	75.46484	0.31906	 	1.87207E21	 	1.39E-21	 	-7132.89413	25.99118	 
255.0	1.0	0.0	7.73785	7.11106	-11.20087	13.09061	14.26704	0.90696	1.10258	199.38987	183.5137	75.58862	0.31891	 	3.25537E21	 	7.91851E-22	 	-7262.62413	25.946	 
250.0	1.0	0.0	7.73949	7.10955	-11.21967	13.06516	14.19575	0.90289	1.10756	199.69418	183.64913	75.71217	0.31877	 	5.721E21	 	4.46314E-22	 	-7392.12782	25.90074	 
245.0	1.0	0.0	7.74112	7.10805	-11.23839	13.03971	14.12433	0.89878	1.11262	199.99784	183.78383	75.8355	0.31863	 	1.0164099999999998E22	 	2.48813E-22	 	-7521.40473	25.85538	 
240.0	1.0	0.0	7.74275	7.10656	-11.25705	13.01427	14.05278	0.89464	1.11777	200.30083	183.9178	75.95859	0.31849	 	1.8261299999999999E22	 	1.37151E-22	 	-7650.45435	25.80993	 
235.0	1.0	0.0	7.74437	7.10507	-11.27564	12.98884	13.98108	0.89047	1.12301	200.60316	184.05104	76.08146	0.31834	 	3.3189499999999998E22	 	7.4727E-23	 	-7779.27616	25.76436	 
230.0	1.0	0.0	7.74599	7.10359	-11.29416	12.96342	13.90925	0.88626	1.12834	200.90484	184.18355	76.2041	0.3182	 	6.104179999999999E22	 	4.02306E-23	 	-7907.86955	25.71868	 
225.0	1.0	0.0	7.7476	7.10211	-11.31262	12.938	13.83727	0.88201	1.13377	201.20586	184.31533	76.32651	0.31806	 	1.13649E23	 	2.13935E-23	 	-8036.23389	25.67287	 
220.0	1.0	0.0	7.74921	7.10064	-11.331	12.9126	13.76513	0.87774	1.13929	201.50622	184.44639	76.44869	0.31792	 	2.14278E23	 	1.12328E-23	 	-8164.3685	25.62692	 
215.0	1.0	0.0	7.75081	7.09917	-11.34932	12.8872	13.69284	0.87343	1.14492	201.80592	184.57674	76.57065	0.31778	 	4.09291E23	 	5.82113E-24	 	-8292.27264	25.58083	 
210.0	1.0	0.0	7.75241	7.09771	-11.36757	12.86181	13.6204	0.86908	1.15065	202.10496	184.70636	76.69237	0.31763	 	7.92326E23	 	2.97622E-24	 	-8419.94552	25.53458	 
205.0	1.0	0.0	7.754	7.09625	-11.38576	12.83644	13.54778	0.86469	1.15648	202.40334	184.83526	76.81387	0.31749	 	1.55516E24	 	1.50064E-24	 	-8547.3863	25.48816	 
200.0	1.0	0.0	7.75558	7.0948	-11.40388	12.81107	13.47499	0.86027	1.16242	202.70107	184.96345	76.93514	0.31735	 	3.09625E24	 	7.45848E-25	 	-8674.59409	25.44156	 
195.0	1.0	0.0	7.75716	7.09336	-11.42192	12.78571	13.40203	0.85582	1.16848	202.99814	185.09092	77.05618	0.31721	 	6.25582E24	 	3.65248E-25	 	-8801.56792	25.39477	 
190.0	1.0	0.0	7.75874	7.09192	-11.43991	12.76036	13.32888	0.85132	1.17464	203.29455	185.21768	77.17699	0.31707	 	1.2833E25	 	1.76149E-25	 	-8928.30676	25.34777	 
185.0	1.0	0.0	7.76031	7.09048	-11.45782	12.73501	13.25555	0.84679	1.18093	203.5903	185.34373	77.29758	0.31693	 	2.67413E25	 	8.36202E-26	 	-9054.80953	25.30055	 
180.0	1.0	0.0	7.76187	7.08905	-11.47567	12.70968	13.18202	0.84222	1.18734	203.88539	185.46907	77.41793	0.31678	 	5.66336E25	 	3.9053E-26	 	-9181.07503	25.2531	 
175.0	1.0	0.0	7.76343	7.08763	-11.49345	12.68435	13.10828	0.83761	1.19387	204.17983	185.59371	77.53806	0.31664	 	1.21966E26	 	1.79338E-26	 	-9307.10204	25.2054	 
170.0	1.0	0.0	7.76499	7.08621	-11.51116	12.65904	13.03434	0.83297	1.20053	204.47361	185.71764	77.65795	0.3165	 	2.6725100000000003E26	 	8.09317E-27	 	-9432.88923	25.15744	 
165.0	1.0	0.0	7.76654	7.0848	-11.52881	12.63373	12.96018	0.82828	1.20732	204.76673	185.84087	77.77762	0.31636	 	5.96177E26	 	3.58702E-27	 	-9558.43519	25.10919	 
160.0	1.0	0.0	7.76808	7.08339	-11.54639	12.60843	12.8858	0.82356	1.21425	205.05919	185.9634	77.89706	0.31622	 	1.3548099999999998E27	 	1.56044E-27	 	-9683.73841	25.06064	 
155.0	1.0	0.0	7.76962	7.08199	-11.5639	12.58314	12.81119	0.81879	1.22131	205.351	186.08523	78.01627	0.31608	 	3.13838E27	 	6.65852E-28	 	-9808.7973	25.01178	 
150.0	1.0	0.0	7.77115	7.08059	-11.58135	12.55786	12.73633	0.81398	1.22853	205.64215	186.20637	78.13525	0.31594	 	7.41574E27	 	2.78501E-28	 	-9933.61016	24.96257	 
145.0	1.0	0.0	7.77268	7.0792	-11.59872	12.53258	12.66123	0.80914	1.23588	205.93264	186.32681	78.254	0.3158	 	1.78869E28	 	1.14099E-28	 	-10058.17521	24.91301	 
140.0	1.0	0.0	7.7742	7.07781	-11.61603	12.50732	12.58587	0.80425	1.2434	206.22247	186.44655	78.37252	0.31566	 	4.40729E28	 	4.57534E-29	 	-10182.49049	24.86306	 
135.0	1.0	0.0	7.77572	7.07643	-11.63328	12.48206	12.51024	0.79932	1.25106	206.51165	186.56561	78.49082	0.31551	 	1.1102E29	 	1.79434E-29	 	-10306.554	24.8127	 
130.0	1.0	0.0	7.77723	7.07505	-11.65046	12.45682	12.43433	0.79435	1.2589	206.80017	186.68398	78.60888	0.31537	 	2.86145E29	 	6.87649E-30	 	-10430.36354	24.76191	 
125.0	1.0	0.0	7.77874	7.07368	-11.66757	12.43158	12.35813	0.78933	1.26689	207.08804	186.80165	78.72672	0.31523	 	7.55262E29	 	2.57298E-30	 	-10553.91684	24.71066	 
120.0	1.0	0.0	7.78024	7.07232	-11.68461	12.40635	12.28163	0.78427	1.27506	207.37525	186.91865	78.84432	0.31509	 	2.0432899999999998E30	 	9.39107E-31	 	-10677.21144	24.65892	 
115.0	1.0	0.0	7.78173	7.07096	-11.70159	12.38113	12.20482	0.77917	1.28341	207.6618	187.03496	78.9617	0.31495	 	5.6715E30	 	3.34032E-31	 	-10800.24474	24.60666	 
110.0	1.0	0.0	7.78322	7.06961	-11.71849	12.35592	12.12768	0.77403	1.29194	207.9477	187.15058	79.07884	0.31481	 	1.61673E31	 	1.15669E-31	 	-10923.01398	24.55385	 
105.0	1.0	0.0	7.78471	7.06826	-11.73534	12.33072	12.05021	0.76884	1.30066	208.23294	187.26553	79.19576	0.31467	 	4.73815E31	 	3.89531E-32	 	-11045.51623	24.50045	 
100.0	1.0	0.0	7.78619	7.06691	-11.75211	12.30552	11.97238	0.76361	1.30958	208.51752	187.3798	79.31244	0.31453	 	1.4291999999999999E32	 	1.27432E-32	 	-11167.74834	24.44642	 
95.0	1.0	0.0	7.78766	7.06558	-11.76882	12.28034	11.89418	0.75833	1.31869	208.80145	187.4934	79.4289	0.31439	 	4.44224E32	 	4.04491E-33	 	-11289.70702	24.39174	 
90.0	1.0	0.0	7.78913	7.06424	-11.78547	12.25516	11.81561	0.753	1.32802	209.08473	187.60631	79.54513	0.31425	 	1.42454E33	 	1.24423E-33	 	-11411.38872	24.33634	 
85.0	1.0	0.0	7.7906	7.06292	-11.80204	12.22999	11.73663	0.74763	1.33756	209.36735	187.71856	79.66113	0.31411	 	4.7192700000000003E33	 	3.70405E-34	 	-11532.78969	24.28019	 
80.0	1.0	0.0	7.79205	7.06159	-11.81855	12.20483	11.65723	0.74222	1.34732	209.64931	187.83014	79.7769	0.31397	 	1.61736E34	 	1.06571E-34	 	-11653.9059	24.22324	 
75.0	1.0	0.0	7.79351	7.06028	-11.835	12.17968	11.5774	0.73675	1.35731	209.93063	187.94105	79.89244	0.31383	 	5.74252E34	 	2.95904E-35	 	-11774.73312	24.16544	 
70.0	1.0	0.0	7.79496	7.05897	-11.85137	12.15454	11.49711	0.73124	1.36754	210.21128	188.05129	80.00775	0.31369	 	2.11561E35	 	7.91653E-36	 	-11895.26679	24.10673	 
65.0	1.0	0.0	7.7964	7.05766	-11.86768	12.12941	11.41635	0.72569	1.37801	210.49128	188.16086	80.12283	0.31355	 	8.1006E35	 	2.03741E-36	 	-12015.50206	24.04705	 
60.0	1.0	0.0	7.79784	7.05636	-11.88393	12.10429	11.33509	0.72008	1.38873	210.77063	188.26978	80.23768	0.31341	 	3.2292399999999996E36	 	5.03531E-37	 	-12135.43377	23.98634	 
55.0	1.0	0.0	7.79927	7.05506	-11.9001	12.07917	11.2533	0.71443	1.39972	211.04933	188.37803	80.3523	0.31327	 	1.3427199999999998E37	 	1.19282E-37	 	-12255.05642	23.92453	 
50.0	1.0	0.0	7.80069	7.05377	-11.91621	12.05407	11.17097	0.70873	1.41098	211.32737	188.48562	80.46669	0.31314	 	5.834759999999999E37	 	2.70314E-38	 	-12374.36411	23.86154	 
45.0	1.0	0.0	7.80211	7.05249	-11.93226	12.02897	11.08806	0.70298	1.42252	211.60476	188.59256	80.58085	0.313	 	2.6553E38	 	5.84796E-39	 	-12493.35057	23.79729	 
40.0	1.0	0.0	7.80353	7.05121	-11.94824	12.00388	11.00454	0.69718	1.43434	211.8815	188.69884	80.69479	0.31286	 	1.2683000000000002E39	 	1.20509E-39	 	-12612.00907	23.7317	 
35.0	1.0	0.0	7.80494	7.04993	-11.96415	11.9788	10.9204	0.69134	1.44647	212.15759	188.80447	80.80849	0.31272	 	6.373320000000001E39	 	2.35984E-40	 	-12730.33242	23.66467	 
30.0	1.0	0.0	7.80635	7.04866	-11.98	11.95373	10.83558	0.68544	1.45891	212.43302	188.90944	80.92196	0.31258	 	3.3778399999999998E40	 	4.38031E-41	 	-12848.31292	23.5961	 
25.0	1.0	0.0	7.80775	7.0474	-11.99578	 	10.75007	0.6795	1.47167	212.7078	189.01377	81.03521	0.31244	 	1.89324E41	 	7.68628E-42	 	-12965.94233	 	 
