T (C)	Fraction solid (wt)-TOTAL	Fraction liquid (wt)-LIQUID	Density (g/(cm)^3)-TOTAL	Molar volume (cm^3)-TOTAL	Volume change (%)-  	Average expansion coeff. (10e-6 1/K)-  	Thermal conductivity (W/(m*K))-TOTAL	Electrical resistivity (10e-6 Ohm*m)-TOTAL	Electrical conductivity (10e6 1/(Ohm*m))-TOTAL	Young's modulus (GPa)-TOTAL	Bulk modulus (GPa)-TOTAL	Shear modulus(GPa)-TOTAL	Poisson's ratio-TOTAL	Liquid viscosity (mPa s)-  	Total viscosity (mPa s)-  	Liquid diffusivity (10e-9 (m^2)/s)-  	Total diffusivity (10e-9 (m^2)/s)-  	Surface Tension (mN/m)-  	Enthalpy (J/mole)-TOTAL	Specific heat (J/(mole K))-TOTAL	Latent heat (J/mole)-TOTAL
1400.0	0.0	1.0	7.54606	7.84244	0.0	28.84529	28.91834	1.41751	0.70546	0.0	124.82418	0.0	0.5	7.83838	7.83838	1.04183	1.04183	1804.4736	53007.485	 	0.0
1395.0	0.0	1.0	7.55012	7.83822	-0.0537835	28.80413	28.83804	1.41721	0.70561	0.0	124.97823	0.0	0.5	7.92308	7.92308	1.02761	1.02761	1807.90032	52802.027	41.0916	0.0
1390.0	0.0	1.0	7.55418	7.83402	-0.10741	28.7631	28.75774	1.41691	0.70576	0.0	125.13229	0.0	0.5	8.00921	8.00921	1.01351	1.01351	1811.36567	52597.051	40.9952	0.0
1385.0	0.0	1.0	7.55822	7.82982	-0.16088	28.7222	28.67744	1.41661	0.70591	0.0	125.28634	0.0	0.5	8.09681	8.09681	0.99953	0.99953	1814.86976	52392.554	40.8994	0.0
1380.0	0.0	1.0	7.56226	7.82564	-0.2142	28.68142	28.59714	1.4163	0.70606	0.0	125.44039	0.0	0.5	8.1859	8.1859	0.98567	0.98567	1818.41267	52188.535	40.8038	0.0
1375.0	0.0	1.0	7.56629	7.82147	-0.26736	28.64077	28.51684	1.41599	0.70622	0.0	125.59445	0.0	0.5	8.27652	8.27652	0.97193	0.97193	1821.99447	51984.99	40.709	0.0
1370.0	0.0	1.0	7.57031	7.81732	-0.32036	28.60025	28.43654	1.41568	0.70637	0.0	125.7485	0.0	0.5	8.3687	8.3687	0.95831	0.95831	1825.61519	51781.917	40.6146	0.0
1365.0	0.0	1.0	7.57433	7.81317	-0.37321	28.55987	28.35625	1.41537	0.70653	0.0	125.90255	0.0	0.5	8.46249	8.46249	0.94481	0.94481	1829.27485	51579.313	40.5208	0.0
1364.52	0.0	1.0	7.57472	7.81277	-0.37828	28.55599	28.34852	1.41534	0.70654	0.0	125.91737	0.0	0.5	8.47159	8.47159	0.94351	0.94351	1829.62895	51559.846	40.47277	0.0010
1360.0	0.14084	0.85916	7.60966	7.77686	-0.83628	27.37302	28.82862	1.38793	0.7205	0.040094	127.71771	0.0135353	0.48109	8.56107	20.97916	0.93108	0.37995	1828.18616	49302.988	499.41425	2074.184
1355.0	0.26802	0.73198	7.64177	7.7442	-1.2527	26.3081	29.26434	1.36308	0.73363	0.53624	129.39776	0.18317	0.4638	8.65998	160.58011	0.91762	0.0494868	1826.65458	47240.663	412.465	3934.834
1350.0	0.37128	0.62872	7.66836	7.71733	-1.59531	25.44289	29.61997	1.34258	0.74483	2.00759	130.81505	0.69246	0.4496	8.75893	592.77496	0.90447	0.0133646	1825.20575	45540.834	339.9658	5433.45
1345.0	0.45607	0.54393	7.69069	7.69494	-1.88082	24.73249	29.91245	1.32536	0.75451	4.63674	132.02916	1.61243	0.43781	8.85807	1412.83395	0.89159	0.00559003	1823.8451	44120.406	284.0856	6653.122
1340.0	0.52642	0.47358	7.70967	7.67601	-2.1222	24.14186	30.15337	1.31071	0.76295	8.33216	133.08384	2.91757	0.42793	8.95741	2647.96379	0.87898	0.00297337	1822.57673	42918.096	240.462	7655.135
1335.0	0.58528	0.41472	7.72599	7.6598	-2.32883	23.64569	30.35121	1.29813	0.77034	12.87404	134.01195	4.53446	0.41958	9.05699	4286.65579	0.86662	0.00183103	1821.40267	41888.039	206.0114	8485.347
1330.0	0.63495	0.36505	7.74017	7.6458	-2.50733	23.22608	30.51239	1.28725	0.77685	18.0076	134.83803	6.37452	0.41247	9.15703	6299.55239	0.85449	0.00124208	1820.32318	40995.448	178.5182	9178.543
1325.0	0.67715	0.32285	7.75262	7.63359	-2.66312	22.86843	30.64255	1.27779	0.7826	23.50244	135.58225	8.35572	0.40637	9.2575	8655.32498	0.84258	9.01199E-4	1819.33784	40213.618	156.366	9761.428
1320.0	0.71325	0.28675	7.76365	7.62276	-2.80115	22.55915	30.74608	1.2695	0.78771	29.16531	136.2582	10.40801	0.4011	9.35855	11324.80094	0.83087	6.86614E-4	1818.44679	39521.819	138.3598	10254.728
1315.0	0.7443	0.2557	7.77351	7.61314	-2.92388	22.29172	30.82689	1.2622	0.79227	34.84671	136.87871	12.47625	0.39652	9.46026	14285.74208	0.81936	5.42595E-4	1817.64709	38903.798	123.6042	10674.692
1310.0	0.77116	0.22884	7.7824	7.60452	-3.03374	22.05956	30.88815	1.25573	0.79635	40.43429	137.45315	14.51832	0.39253	9.56268	17521.80301	0.80803	4.40991E-4	1816.93629	38346.69	111.4216	11034.185
1305.0	0.7945	0.2055	7.79049	7.59669	-3.13357	21.85483	30.93264	1.24996	0.80002	45.85697	137.98846	16.50703	0.38901	9.66592	21026.3773	0.79688	3.66328E-4	1816.31333	37840.225	101.293	11343.474
1300.0	0.8149	0.1851	7.79789	7.58955	-3.22465	21.6741	30.96264	1.2448	0.80334	51.06284	138.491	18.42213	0.38591	9.7701	24797.0602	0.78588	3.0964E-4	1815.77482	37376.138	92.8174	11610.821
1295.0	0.83279	0.16721	7.80471	7.58299	-3.30823	21.51396	30.98013	1.24014	0.80636	56.02107	138.96589	20.25114	0.38316	9.87525	28837.62423	0.77504	2.65409E-4	1815.31787	36947.73	85.6816	11842.922
1290.0	0.84855	0.15145	7.81104	7.57694	-3.38549	21.37119	30.98672	1.23592	0.80911	60.71621	139.417	21.98738	0.38071	9.98151	33156.98872	0.76435	2.30098E-4	1814.93981	36549.532	79.6396	12045.245
1285.0	0.86249	0.13751	7.81696	7.5713	-3.45738	21.24317	30.9839	1.23208	0.81164	65.14493	139.84781	23.62876	0.37851	10.08898	37769.53694	0.75379	2.01351E-4	1814.63786	36177.052	74.496	12222.28
1280.0	0.87485	0.12515	7.82251	7.56602	-3.52473	21.12765	30.97288	1.22856	0.81396	69.31246	140.26097	25.17646	0.37653	10.19768	42694.60791	0.74336	1.77553E-4	1814.40927	35826.576	70.0952	12377.737
1275.0	0.88586	0.11414	7.82775	7.56105	-3.5881	21.02304	30.9547	1.22533	0.81611	73.22648	140.65898	26.63269	0.37475	10.30773	47954.25489	0.73305	1.5757E-4	1814.25121	35495.018	66.3116	12514.701
1270.0	0.8957	0.1043	7.83272	7.55636	-3.64786	20.92844	30.9301	1.22234	0.8181	76.89152	141.04363	27.99859	0.37313	10.41933	53570.26178	0.72286	1.40595E-4	1814.16039	35179.799	63.0438	12635.749
1265.0	0.90452	0.0954777	7.83745	7.55189	-3.70479	20.84159	30.9	1.21957	0.81996	80.32882	141.41649	29.28162	0.37166	10.53239	59576.67073	0.71278	1.26011E-4	1814.13537	34878.753	60.2092	12743.042
1260.0	0.91244	0.0875591	7.84199	7.54764	-3.75909	20.76198	30.86506	1.21698	0.82171	83.55217	141.77924	30.48652	0.37031	10.64717	66006.94726	0.70281	1.13366E-4	1814.17284	34590.054	57.7398	12838.408
1255.0	0.91958	0.080417	7.84634	7.54356	-3.81107	20.68874	30.82573	1.21456	0.82334	86.571	142.13278	31.61649	0.36908	10.76364	72894.76539	0.69294	1.02319E-4	1814.27044	34312.152	55.5804	12923.391
1250.0	0.92604	0.0739635	7.85053	7.53965	-3.86087	20.62155	30.78256	1.21228	0.82489	89.40204	142.47832	32.67748	0.36795	10.88199	80282.55658	0.68316	9.25994E-5	1814.42479	34043.73	53.6844	12999.307
1245.0	0.93188	0.0681167	7.85458	7.53588	-3.909	20.55891	30.73595	1.21014	0.82635	92.05909	142.81635	33.67445	0.3669	11.00229	88214.52301	0.67347	8.39965E-5	1814.6354	33783.661	52.0138	13067.281
1240.0	0.93719	0.0628067	7.8585	7.53223	-3.95556	20.50058	30.68629	1.2081	0.82774	94.55562	143.14786	34.61224	0.36593	11.12461	96741.02809	0.66387	7.6341E-5	1814.89938	33530.98	50.5362	13128.277
1235.0	0.94203	0.0579726	7.86232	7.52869	-4.00061	20.44643	30.63391	1.20617	0.82907	96.90377	143.47354	35.49521	0.36503	11.24903	105915.9838	0.65436	6.94976E-5	1815.21383	33284.856	49.2248	13183.122
1230.0	0.94644	0.053563	7.86603	7.52526	-4.0444	20.39572	30.57907	1.20433	0.83034	99.11497	143.79386	36.32752	0.36419	11.37572	115798.4575	0.64493	6.33558E-5	1815.57748	33044.568	48.0576	13232.535
1229.35	0.94697	0.0530299	7.8665	7.52482	-4.04999	20.38934	30.57177	1.2041	0.8305	99.38728	143.83481	36.43008	0.36408	11.39227	117125.039	0.64371	6.26113E-5	1815.62829	33014.042	 	13238.447
1225.0	0.95056	0.049444	7.8698	7.52189	-4.08739	20.34706	30.5219	1.20257	0.83155	101.21584	144.11219	37.11907	0.36339	11.47415	126460.9562	0.63727	5.7821E-5	1815.12172	32806.742	47.5652	13279.889
1220.0	0.95434	0.0456635	7.87349	7.51859	-4.12943	20.30097	30.46278	1.20088	0.83272	103.20215	144.42535	37.86817	0.36265	11.57189	137969.5848	0.62978	5.2821E-5	1814.6299	32573.515	46.6454	13323.043
1215.0	0.95779	0.0422136	7.8771	7.51538	-4.17038	20.25792	30.40178	1.19926	0.83385	105.07328	144.73343	38.57445	0.36195	11.67353	150392.046	0.6222	4.82957E-5	1814.22431	32344.998	45.7034	13361.887
1210.0	0.96094	0.0390559	7.88062	7.51224	-4.21043	20.21733	30.33912	1.1977	0.83493	106.83989	145.03689	39.24186	0.3613	11.77914	163813.9569	0.61455	4.41897E-5	1813.90002	32120.677	44.8642	13396.928
1205.0	0.96384	0.0361602	7.88408	7.50916	-4.24974	20.17876	30.27496	1.19619	0.83599	108.51079	145.33621	39.87365	0.36068	11.88878	178328.8333	0.60683	4.04561E-5	1813.65209	31900.115	44.1124	13428.606
1200.0	0.9665	0.0334963	7.88747	7.50613	-4.28831	20.14218	30.20945	1.19473	0.83701	110.09567	145.63174	40.4734	0.3601	12.00232	194041.6473	0.59906	3.70543E-5	1813.47487	31682.928	43.4374	13457.3
1195.13	0.96889	0.0311068	7.89072	7.50324	-4.32518	20.10842	30.14451	1.19335	0.83798	111.56028	145.91607	41.02807	0.35956	12.11675	210586.9047	0.59144	3.40303E-5	1813.36498	31474.511	 	13482.659
1195.0	0.96897	0.0310276	7.89081	7.50316	-4.32625	20.10729	30.1428	1.19331	0.83801	111.60788	145.92431	41.04609	0.35954	12.11974	211076.7369	0.59124	3.39482E-5	1813.36058	31468.557	42.8742	13483.568
1190.0	0.97183	0.0281715	7.89417	7.50012	-4.36492	20.06979	30.07839	1.19179	0.83907	113.33836	146.22725	41.70168	0.35892	12.23235	230117.839	0.5838	3.10331E-5	1813.22426	31248.096	44.0922	13516.312
1185.0	0.97442	0.025575	7.89748	7.49714	-4.40296	20.03399	30.01253	1.19033	0.84011	114.96418	146.52527	42.31813	0.35833	12.34894	250737.5514	0.57631	2.83837E-5	1813.15194	31031.452	43.3288	13545.625
1180.0	0.97679	0.0232067	7.90072	7.4942	-4.44046	19.99961	29.94538	1.1889	0.84111	116.49733	146.81879	42.89994	0.35778	12.46922	273092.4776	0.5688	2.59709E-5	1813.13898	30818.198	42.6508	13571.931
1175.59	0.97871	0.0212909	7.90355	7.49164	-4.47306	19.97056	29.88519	1.18768	0.84198	117.77637	147.07446	43.38568	0.35732	12.57865	294373.3686	0.56214	2.40203E-5	1813.17082	30632.712	 	13592.869
1175.0	0.97906	0.0209421	7.90398	7.49124	-4.4782	19.96416	29.87616	1.18756	0.84206	117.90383	147.11281	43.43511	0.35724	12.60273	297478.3306	0.56084	2.37599E-5	1813.14264	30605.13	42.6136	13598.433
1170.0	0.98192	0.0180814	7.90761	7.48789	-4.52095	19.91207	29.8005	1.18646	0.84284	118.96967	147.43378	43.84843	0.3566	12.80842	325080.3836	0.54992	2.16674E-5	1812.91701	30373.308	46.3644	13644.067
1165.0	0.98451	0.0154923	7.91114	7.48462	-4.56262	19.86307	29.72475	1.18536	0.84362	120.02945	147.74649	44.25858	0.356	13.01845	355029.4218	0.53918	1.97709E-5	1812.70982	30146.603	45.341	13684.962
1164.78	0.98461	0.0153875	7.91129	7.48448	-4.56441	19.861	29.72148	1.18532	0.84366	120.07616	147.76005	44.27661	0.35598	13.02772	356382.5809	0.53871	1.96929E-5	1812.70055	30136.925	 	13686.584
1160.0	0.99232	0.00768332	7.91839	7.47924	-4.63117	19.72529	29.63107	1.18498	0.8439	125.00888	148.3355	46.14536	0.35451	13.16116	396670.5733	0.53148	1.76339E-5	1815.22019	29851.578	59.005	13794.552
1150.0	1.0	0.0	7.92744	7.47102	-4.73602	19.55298	29.47385	1.18299	0.84532	131.64483	149.14025	48.65338	0.35288	 	479301.0428	 	1.4492E-5	 	29323.515	52.8063	13952.861
1145.0	1.0	0.0	7.92994	7.46868	-4.76587	19.54089	29.39242	1.1821	0.84595	132.03653	149.39718	48.80478	0.3527	 	518957.9261	 	1.33376E-5	 	29129.62892	38.77722	 
1140.0	1.0	0.0	7.93243	7.46633	-4.79587	19.52815	29.31097	1.1812	0.8466	132.42741	149.65234	48.95593	0.35252	 	562194.9124	 	1.22684E-5	 	28953.25943	35.2739	 
1135.0	1.0	0.0	7.93493	7.46398	-4.82582	19.51548	29.22951	1.1803	0.84724	132.81756	149.90613	49.10684	0.35233	 	609380.3895	 	1.12784E-5	 	28777.16227	35.21943	 
1130.0	1.0	0.0	7.93742	7.46163	-4.85571	19.50289	29.14804	1.1794	0.84789	133.20698	150.15854	49.25752	0.35215	 	660905.6839	 	1.03622E-5	 	28601.33699	35.16506	 
1125.0	1.0	0.0	7.93991	7.45929	-4.88555	19.49036	29.06658	1.17849	0.84854	133.59567	150.4096	49.40798	0.35196	 	717203.8725	 	9.51476E-6	 	28425.78312	35.11077	 
1120.0	1.0	0.0	7.9424	7.45696	-4.91533	19.4779	28.98511	1.17758	0.8492	133.98364	150.6593	49.5582	0.35178	 	778754.5651	 	8.7314E-6	 	28250.50023	35.05658	 
1115.0	1.0	0.0	7.94488	7.45463	-4.94506	19.46552	28.90363	1.17666	0.84986	134.37088	150.90765	49.70819	0.3516	 	846089.255	 	8.00768E-6	 	28075.48784	35.00248	 
1110.0	1.0	0.0	7.94737	7.4523	-4.97473	19.45322	28.82215	1.17573	0.85053	134.75739	151.15465	49.85795	0.35141	 	919797.3245	 	7.33946E-6	 	27900.74552	34.94846	 
1105.0	1.0	0.0	7.94984	7.44998	-5.00435	19.44098	28.74067	1.1748	0.85121	135.14317	151.40031	50.00747	0.35123	 	1000532.79	 	6.72283E-6	 	27726.2728	34.89454	 
1100.0	1.0	0.0	7.95232	7.44766	-5.03391	19.42883	28.65918	1.17387	0.85188	135.52823	151.64464	50.15677	0.35105	 	1089021.861	 	6.15415E-6	 	27552.06923	34.84071	 
1095.0	1.0	0.0	7.95479	7.44534	-5.06342	19.41675	28.57769	1.17293	0.85256	135.91256	151.88764	50.30583	0.35086	 	1186071.566	 	5.63001E-6	 	27378.13435	34.78698	 
1090.0	1.0	0.0	7.95726	7.44303	-5.09288	19.40475	28.4962	1.17199	0.85325	136.29616	152.12931	50.45466	0.35068	 	1292579.179	 	5.14723E-6	 	27204.4677	34.73333	 
1085.0	1.0	0.0	7.95972	7.44073	-5.12228	19.39284	28.4147	1.17104	0.85394	136.67903	152.36966	50.60326	0.3505	 	1409543.252	 	4.70279E-6	 	27031.06884	34.67977	 
1080.0	1.0	0.0	7.96219	7.43843	-5.15162	19.381	28.33319	1.17008	0.85464	137.06118	152.6087	50.75163	0.35031	 	1538075.571	 	4.29393E-6	 	26857.93729	34.62631	 
1075.0	1.0	0.0	7.96465	7.43613	-5.18091	19.36924	28.25169	1.16912	0.85534	137.4426	152.84643	50.89976	0.35013	 	1679415.133	 	3.91802E-6	 	26685.0726	34.57294	 
1070.0	1.0	0.0	7.9671	7.43384	-5.21014	19.35757	28.17017	1.16816	0.85605	137.82329	153.08286	51.04767	0.34995	 	1834943.559	 	3.57263E-6	 	26512.47432	34.51966	 
1065.0	1.0	0.0	7.96956	7.43155	-5.23932	19.34599	28.08865	1.16719	0.85676	138.20325	153.31799	51.19534	0.34976	 	2006202.673	 	3.25549E-6	 	26340.14197	34.46647	 
1060.0	1.0	0.0	7.97201	7.42927	-5.26845	19.33449	28.00713	1.16621	0.85748	138.58248	153.55182	51.34277	0.34958	 	2194914.416	 	2.96448E-6	 	26168.07512	34.41337	 
1055.0	1.0	0.0	7.97445	7.42699	-5.29751	19.32308	27.9256	1.16523	0.8582	138.96099	153.78437	51.48998	0.3494	 	2403003.032	 	2.69761E-6	 	25996.27327	34.36037	 
1050.0	1.0	0.0	7.9769	7.42471	-5.32653	19.31176	27.84407	1.16424	0.85893	139.33877	154.01563	51.63695	0.34922	 	2632621.075	 	2.45306E-6	 	25824.73599	34.30746	 
1046.9	1.0	0.0	7.97841	7.4233	-5.3445	19.30478	27.79348	1.16362	0.85938	139.57278	154.15847	51.72801	0.3491	 	2786943.308	 	2.31179E-6	 	25718.44802	 	 
1045.0	1.0	0.0	7.98024	7.4216	-5.36616	19.26151	27.72329	1.16489	0.85845	139.85526	154.32386	51.83821	0.34896	 	2895405.822	 	2.22199E-6	 	25608.30429	43.28634	 
1040.0	1.0	0.0	7.98502	7.41716	-5.42281	19.14821	27.54582	1.16795	0.8562	140.56632	154.7244	52.11626	0.34858	 	3203334.455	 	2.00078E-6	 	25321.23656	57.41354	 
1035.0	1.0	0.0	7.98973	7.41278	-5.47863	19.03684	27.37521	1.17076	0.85415	141.25201	155.10203	52.38478	0.34822	 	3546537.952	 	1.80028E-6	 	25038.5019	56.54693	 
1030.0	1.0	0.0	7.99438	7.40847	-5.53357	18.92765	27.20996	1.17336	0.85225	141.92032	155.46639	52.64672	0.34786	 	3929331.764	 	1.61869E-6	 	24759.93329	55.71372	 
1025.0	1.0	0.0	7.99896	7.40423	-5.58763	18.82066	27.04947	1.1758	0.85049	142.57397	155.82059	52.90306	0.3475	 	4356593.0	 	1.45434E-6	 	24485.37172	54.91232	 
1020.0	1.0	0.0	8.00347	7.40006	-5.64083	18.71581	26.89337	1.17807	0.84885	143.21441	156.16609	53.15436	0.34716	 	4833837.915	 	1.3057E-6	 	24214.66493	54.14136	 
1015.0	1.0	0.0	8.00791	7.39595	-5.69319	18.61305	26.74137	1.18018	0.84733	143.84265	156.50381	53.40097	0.34682	 	5367310.899	 	1.17138E-6	 	23947.66767	53.39945	 
1010.0	1.0	0.0	8.01229	7.39191	-5.74475	18.5123	26.59325	1.18215	0.84592	144.45943	156.8344	53.6432	0.34648	 	5964086.971	 	1.05007E-6	 	23684.24055	52.68542	 
1005.81	1.0	0.0	8.01592	7.38857	-5.78739	18.42928	26.47186	1.18369	0.84482	144.96835	157.10652	53.84313	0.34621	 	6519180.11	 	9.57524E-7	 	23465.9828	 	 
1005.0	1.0	0.0	8.01661	7.38793	-5.79552	18.41351	26.44879	1.18397	0.84461	145.06545	157.15842	53.88129	0.34616	 	6632197.385	 	9.40613E-7	 	23424.24556	51.999	 
1000.0	1.0	0.0	8.02086	7.38401	-5.84548	18.31682	26.30783	1.18566	0.84341	145.66138	157.47647	54.1155	0.34584	 	7380811.337	 	8.41903E-7	 	23167.5195	51.34521	 
995.0	1.0	0.0	8.02506	7.38015	-5.89471	18.22193	26.17016	1.18722	0.84231	146.24761	157.78868	54.34598	0.34552	 	8220213.449	 	7.52964E-7	 	22913.98289	50.70732	 
990.0	1.0	0.0	8.0292	7.37635	-5.94323	18.12877	26.0356	1.18865	0.84129	146.82462	158.09539	54.57291	0.34522	 	9162164.181	 	6.72889E-7	 	22663.51828	50.09292	 
985.0	1.0	0.0	8.03329	7.37259	-5.99108	18.03728	25.90399	1.18996	0.84037	147.39285	158.39688	54.79647	0.34491	 	1.022004536E7	 	6.0085E-7	 	22416.01364	49.50093	 
980.0	1.0	0.0	8.03732	7.36889	-6.03827	17.9474	25.77519	1.19115	0.83952	147.95271	158.69342	55.01681	0.34461	 	1.140909763E7	 	5.36091E-7	 	22171.36116	48.9305	 
979.01	1.0	0.0	8.03812	7.36816	-6.04757	17.92975	25.74993	1.19138	0.83937	148.06296	158.75175	55.06021	0.34456	 	1.166240023E7	 	5.24032E-7	 	22123.08666	 	 
978.99	1.0	0.0	8.03814	7.36814	-6.04785	17.92902	25.74934	1.19138	0.83936	148.06516	158.75288	55.06108	0.34455	 	1.166745263E7	 	5.23797E-7	 	22121.95172	 	 
975.0	1.0	0.0	8.04131	7.36523	-6.08492	17.85872	25.64895	1.19224	0.83876	148.50476	158.98541	55.23414	0.34432	 	1.27468837E7	 	4.77914E-7	 	21929.18476	48.43528	 
970.0	1.0	0.0	8.04525	7.36163	-6.13085	17.77192	25.52533	1.19321	0.83807	149.04916	159.27295	55.44853	0.34403	 	1.425300834E7	 	4.257E-7	 	21689.8462	47.86771	 
965.0	1.0	0.0	8.04914	7.35808	-6.17619	17.68653	25.40412	1.19408	0.83746	149.58627	159.55619	55.66011	0.34375	 	1.595016473E7	 	3.78874E-7	 	21453.07092	47.35506	 
960.0	1.0	0.0	8.05298	7.35456	-6.22097	17.60251	25.2852	1.19486	0.83692	150.11642	159.83534	55.86901	0.34347	 	1.786423767E7	 	3.36913E-7	 	21218.76749	46.86069	 
955.0	1.0	0.0	8.05678	7.3511	-6.26518	17.51979	25.16844	1.19553	0.83645	150.63992	160.11057	56.07536	0.34319	 	2.002484575E7	 	2.99343E-7	 	20986.84863	46.38377	 
950.0	1.0	0.0	8.06053	7.34767	-6.30887	17.43834	25.05374	1.19612	0.83604	151.15705	160.38204	56.27925	0.34292	 	2.246591437E7	 	2.65731E-7	 	20757.2304	45.92365	 
945.0	1.0	0.0	8.06425	7.34429	-6.35204	17.3581	24.94101	1.19661	0.83569	151.66808	160.64991	56.4808	0.34265	 	2.522633691E7	 	2.35686E-7	 	20529.83239	45.4796	 
940.0	1.0	0.0	8.06793	7.34094	-6.3947	17.27902	24.83014	1.19702	0.83541	152.17327	160.91432	56.68011	0.34239	 	2.835075185E7	 	2.08851E-7	 	20304.57787	45.05091	 
935.0	1.0	0.0	8.07156	7.33763	-6.43689	17.20105	24.72105	1.19735	0.83518	152.67286	161.17542	56.87726	0.34213	 	3.189043588E7	 	1.84904E-7	 	20081.39299	44.63697	 
930.0	1.0	0.0	8.07516	7.33436	-6.4786	17.12415	24.61365	1.19759	0.83501	153.16708	161.43331	57.07236	0.34187	 	3.590435874E7	 	1.63553E-7	 	19860.20714	44.23717	 
925.0	1.0	0.0	8.07873	7.33112	-6.51987	17.04828	24.50785	1.19777	0.83489	153.65615	161.68812	57.26547	0.34161	 	4.046040212E7	 	1.44533E-7	 	19640.95261	43.85091	 
920.0	1.0	0.0	8.08226	7.32792	-6.56069	16.97339	24.40358	1.19786	0.83482	154.14026	161.93997	57.45668	0.34136	 	4.563679131E7	 	1.27605E-7	 	19423.5645	43.47762	 
915.0	1.0	0.0	8.08575	7.32475	-6.60109	16.89944	24.30077	1.19789	0.8348	154.61961	162.18894	57.64606	0.34111	 	5.152376312E7	 	1.12551E-7	 	19207.98065	43.11677	 
910.0	1.0	0.0	8.08922	7.32162	-6.64108	16.82638	24.19935	1.19785	0.83483	155.09438	162.43513	57.83369	0.34087	 	5.822552745E7	 	9.91775E-8	 	18994.14157	42.76782	 
905.0	1.0	0.0	8.09265	7.31851	-6.68066	16.75419	24.09926	1.19774	0.8349	155.56475	162.67865	58.01963	0.34062	 	6.586255773E7	 	8.73069E-8	 	18781.98988	42.43034	 
900.0	1.0	0.0	8.09605	7.31544	-6.71986	16.68282	24.00042	1.19757	0.83502	156.03088	162.91956	58.20395	0.34038	 	7.457428333E7	 	7.67805E-8	 	18571.47102	42.10377	 
895.0	1.0	0.0	8.09942	7.31239	-6.75869	16.61224	23.90279	1.19734	0.83519	156.49292	163.15794	58.38671	0.34014	 	8.45222531E7	 	6.7455E-8	 	18362.53231	41.78774	 
890.0	1.0	0.0	8.10276	7.30938	-6.79715	16.54242	23.80631	1.19704	0.83539	156.95102	163.39388	58.56795	0.33991	 	9.589385769E7	 	5.92014E-8	 	18155.1232	41.48182	 
885.0	1.0	0.0	8.10608	7.30639	-6.83526	16.47331	23.71092	1.19669	0.83564	157.40531	163.62744	58.74775	0.33967	 	1.08906704E8	 	5.19035E-8	 	17949.19531	41.18558	 
880.0	1.0	0.0	8.10936	7.30343	-6.87303	16.40488	23.61658	1.19629	0.83592	157.85594	163.85869	58.92614	0.33944	 	1.238137866E8	 	4.54573E-8	 	17744.7023	40.8986	 
875.0	1.0	0.0	8.11263	7.30049	-6.91046	16.33711	23.52323	1.19583	0.83624	158.30302	164.08768	59.10318	0.33921	 	1.40909599E8	 	3.9769E-8	 	17541.5993	40.6206	 
870.0	1.0	0.0	8.11586	7.29758	-6.94758	16.26995	23.43084	1.19531	0.8366	158.74666	164.31448	59.27891	0.33898	 	1.605373149E8	 	3.47547E-8	 	17339.84419	40.35102	 
865.0	1.0	0.0	8.11907	7.29469	-6.98438	16.20339	23.33937	1.19475	0.837	159.187	164.53914	59.45338	0.33875	 	1.830973548E8	 	3.03392E-8	 	17139.39598	40.08964	 
860.0	1.0	0.0	8.12226	7.29183	-7.02088	16.13738	23.24876	1.19414	0.83743	159.62412	164.76172	59.62663	0.33853	 	2.090574791E8	 	2.6455E-8	 	16940.21538	39.83612	 
855.0	1.0	0.0	8.12542	7.28899	-7.05708	16.07191	23.15899	1.19348	0.83789	160.05813	164.98226	59.7987	0.33831	 	2.389648034E8	 	2.3042E-8	 	16742.26452	39.59017	 
850.0	1.0	0.0	8.12856	7.28618	-7.09299	16.00693	23.07001	1.19277	0.83839	160.48912	165.2008	59.96962	0.33809	 	2.734600635E8	 	2.00461E-8	 	16545.50715	39.35147	 
845.0	1.0	0.0	8.13086	7.28412	-7.11925	15.9851	22.9974	1.19121	0.83948	160.83413	165.38994	60.10584	0.33792	 	3.111807849E8	 	1.75378E-8	 	16387.61897	31.57764	 
840.0	1.0	0.0	8.13316	7.28206	-7.14545	15.96326	22.92479	1.18964	0.84059	161.1785	165.57808	60.24185	0.33776	 	3.545159491E8	 	1.53251E-8	 	16226.74966	32.17386	 
835.0	1.0	0.0	8.13545	7.28001	-7.17159	15.94141	22.85217	1.18806	0.84171	161.52224	165.76523	60.37766	0.3376	 	4.043614575E8	 	1.33757E-8	 	16066.12332	32.12527	 
830.0	1.0	0.0	8.13773	7.27797	-7.19768	15.91957	22.77954	1.18647	0.84284	161.86533	165.95139	60.51325	0.33744	 	4.617656731E8	 	1.166E-8	 	15905.73935	32.07679	 
825.0	1.0	0.0	8.14002	7.27593	-7.2237	15.89772	22.7069	1.18487	0.84398	162.20778	166.13656	60.64864	0.33727	 	5.279569701E8	 	1.0152E-8	 	15745.59714	32.02844	 
820.0	1.0	0.0	8.1423	7.27389	-7.24967	15.87587	22.63425	1.18326	0.84512	162.5496	166.32074	60.78382	0.33711	 	6.043765504E8	 	8.82793E-9	 	15585.69613	31.9802	 
815.0	1.0	0.0	8.14457	7.27186	-7.27558	15.85401	22.56159	1.18164	0.84628	162.89077	166.50395	60.9188	0.33695	 	6.927175877E8	 	7.66689E-9	 	15426.03568	31.93209	 
810.0	1.0	0.0	8.14684	7.26983	-7.30143	15.83215	22.48893	1.18001	0.84745	163.23131	166.68618	61.05356	0.33679	 	7.949719878E8	 	6.65003E-9	 	15266.61518	31.8841	 
805.0	1.0	0.0	8.14911	7.26781	-7.32723	15.81029	22.41626	1.17837	0.84863	163.5712	166.86743	61.18812	0.33663	 	9.134863255E8	 	5.76055E-9	 	15107.43397	31.83624	 
800.0	1.0	0.0	8.15137	7.26579	-7.35297	15.78843	22.34358	1.17672	0.84982	163.91046	167.04771	61.32246	0.33646	 	1.051028858E9	 	4.98348E-9	 	14948.49144	31.78851	 
795.0	1.0	0.0	8.15363	7.26377	-7.37864	15.76656	22.27089	1.17506	0.85102	164.24908	167.22702	61.4566	0.3363	 	1.210869926E9	 	4.30548E-9	 	14789.7869	31.74091	 
790.0	1.0	0.0	8.15589	7.26176	-7.40427	15.74469	22.19819	1.17339	0.85223	164.58706	167.40537	61.59054	0.33614	 	1.396878566E9	 	3.71469E-9	 	14631.3197	31.69344	 
785.0	1.0	0.0	8.15814	7.25976	-7.42983	15.72281	22.12548	1.17171	0.85345	164.9244	167.58275	61.72426	0.33598	 	1.613638773E9	 	3.20057E-9	 	14473.08913	31.64611	 
780.0	1.0	0.0	8.16039	7.25776	-7.45533	15.70094	22.05277	1.17002	0.85469	165.2611	167.75918	61.85777	0.33582	 	1.866589625E9	 	2.75377E-9	 	14315.0945	31.59893	 
775.0	1.0	0.0	8.16263	7.25576	-7.48078	15.67906	21.98004	1.16832	0.85593	165.59716	167.93465	61.99108	0.33565	 	2.162194445E9	 	2.366E-9	 	14157.33508	31.55188	 
770.0	1.0	0.0	8.16487	7.25377	-7.50617	15.65717	21.9073	1.16661	0.85719	165.93258	168.10916	62.12418	0.33549	 	2.508145324E9	 	2.02993E-9	 	13999.81012	31.50499	 
765.0	1.0	0.0	8.16711	7.25179	-7.5315	15.63529	21.83456	1.16488	0.85846	166.26737	168.28272	62.25706	0.33533	 	2.913610795E9	 	1.73906E-9	 	13842.51889	31.45825	 
760.0	1.0	0.0	8.16934	7.2498	-7.55677	15.6134	21.7618	1.16315	0.85974	166.60151	168.45534	62.38974	0.33517	 	3.389536272E9	 	1.48768E-9	 	13685.46058	31.41166	 
755.0	1.0	0.0	8.17157	7.24783	-7.58199	15.5915	21.68904	1.1614	0.86103	166.93501	168.62701	62.52221	0.33501	 	3.949009068E9	 	1.27074E-9	 	13528.63441	31.36524	 
750.0	1.0	0.0	8.1738	7.24585	-7.60714	15.56961	21.61626	1.15964	0.86233	167.26788	168.79773	62.65447	0.33484	 	4.607702626E9	 	1.08378E-9	 	13372.03953	31.31898	 
745.0	1.0	0.0	8.17602	7.24389	-7.63224	15.54771	21.54347	1.15788	0.86365	167.6001	168.96752	62.78652	0.33468	 	5.384418085E9	 	9.22911E-10	 	13215.67512	31.27288	 
740.0	1.0	0.0	8.17824	7.24192	-7.65728	15.52581	21.47068	1.1561	0.86498	167.93169	169.13637	62.91837	0.33452	 	6.301745621E9	 	7.84693E-10	 	13059.54028	31.22697	 
735.0	1.0	0.0	8.18045	7.23996	-7.68226	15.5039	21.39787	1.15431	0.86632	168.26263	169.30428	63.05	0.33436	 	7.386873468E9	 	6.66118E-10	 	12903.63412	31.18123	 
730.0	1.0	0.0	8.18266	7.23801	-7.70719	15.48199	21.32505	1.1525	0.86768	168.59294	169.47127	63.18142	0.3342	 	8.672579364E9	 	5.64552E-10	 	12747.95569	31.13569	 
725.0	1.0	0.0	8.18486	7.23606	-7.73205	15.46008	21.25222	1.15069	0.86905	168.92261	169.63733	63.31263	0.33404	 	1.01984E10	 	4.77693E-10	 	12592.50402	31.09033	 
720.0	1.0	0.0	8.18706	7.23411	-7.75686	15.43817	21.17938	1.14886	0.87043	169.25163	169.80246	63.44364	0.33387	 	1.2012399999999998E10	 	4.03527E-10	 	12437.27813	31.04518	 
715.0	1.0	0.0	8.18926	7.23217	-7.78161	15.41625	21.10652	1.14702	0.87182	169.58002	169.96667	63.57443	0.33371	 	1.4172399999999998E10	 	3.40304E-10	 	12282.27696	31.00024	 
710.0	1.0	0.0	8.19145	7.23024	-7.8063	15.39433	21.03366	1.14517	0.87323	169.90777	170.12996	63.70501	0.33355	 	1.6748899999999998E10	 	2.86497E-10	 	12127.49943	30.9555	 
705.0	1.0	0.0	8.19364	7.2283	-7.83093	15.37241	20.96078	1.14331	0.87465	170.23488	170.29233	63.83539	0.33339	 	1.98277E10	 	2.40779E-10	 	11972.94443	30.911	 
700.0	1.0	0.0	8.19583	7.22638	-7.85551	15.35048	20.88789	1.14144	0.87609	170.56135	170.45379	63.96555	0.33323	 	2.3513199999999996E10	 	2.02001E-10	 	11818.61078	30.86673	 
695.0	1.0	0.0	8.19801	7.22445	-7.88002	15.32855	20.81499	1.13955	0.87754	170.88717	170.61433	64.0955	0.33307	 	2.7932899999999996E10	 	1.69166E-10	 	11664.49727	30.8227	 
690.0	1.0	0.0	8.20019	7.22254	-7.90448	15.30662	20.74207	1.13765	0.87901	171.21236	170.77397	64.22525	0.33291	 	3.3242699999999996E10	 	1.41411E-10	 	11510.60263	30.77893	 
685.0	1.0	0.0	8.20236	7.22062	-7.92888	15.28468	20.66915	1.13574	0.88049	171.53691	170.9327	64.35478	0.33274	 	3.96338E10	 	1.17992E-10	 	11356.92553	30.73542	 
680.0	1.0	0.0	8.20453	7.21871	-7.95322	15.26274	20.5962	1.13381	0.88198	171.86082	171.09053	64.4841	0.33258	 	4.734089999999999E10	 	9.82678E-11	 	11203.4646	30.69219	 
675.0	1.0	0.0	8.2067	7.21681	-7.97751	15.2408	20.52325	1.13187	0.88349	172.18409	171.24745	64.61321	0.33242	 	5.665279999999999E10	 	8.16851E-11	 	11050.21838	30.64924	 
670.0	1.0	0.0	8.20886	7.21491	-8.00173	15.21886	20.45028	1.12992	0.88502	172.50672	171.40348	64.74211	0.33226	 	6.792549999999999E10	 	6.77696E-11	 	10897.18536	30.6066	 
665.0	1.0	0.0	8.21101	7.21301	-8.0259	15.19691	20.3773	1.12795	0.88656	172.82871	171.55862	64.8708	0.3321	 	8.15988E10	 	5.61145E-11	 	10744.36395	30.56428	 
660.0	1.0	0.0	8.21317	7.21112	-8.05001	15.17496	20.30431	1.12598	0.88812	173.15006	171.71286	64.99928	0.33194	 	9.821749999999998E10	 	4.63713E-11	 	10591.75614	30.52156	 
655.0	1.0	0.0	8.21531	7.20924	-8.07406	15.153	20.2313	1.12399	0.88969	173.47077	171.86621	65.12754	0.33178	 	1.18457E11	 	3.82423E-11	 	10439.38206	30.47482	 
650.0	1.0	0.0	8.21746	7.20736	-8.09805	15.13104	20.15827	1.12198	0.89128	173.79084	172.01867	65.2556	0.33162	 	1.43158E11	 	3.14734E-11	 	10287.26849	30.42272	 
645.0	1.0	0.0	8.2196	7.20548	-8.12198	15.10908	20.08523	1.11996	0.89289	174.11027	172.17025	65.38344	0.33146	 	1.73366E11	 	2.58485E-11	 	10135.41471	30.37076	 
640.0	1.0	0.0	8.22174	7.20361	-8.14586	15.08712	20.01218	1.11793	0.89451	174.42906	172.32094	65.51108	0.33129	 	2.1039E11	 	2.11838E-11	 	9983.82003	30.31894	 
635.0	1.0	0.0	8.22387	7.20174	-8.16967	15.06515	19.93911	1.11588	0.89615	174.74721	172.47076	65.6385	0.33113	 	2.55865E11	 	1.73234E-11	 	9832.48374	30.26726	 
630.0	1.0	0.0	8.226	7.19987	-8.19343	15.04318	19.86602	1.11382	0.89781	175.06472	172.6197	65.76571	0.33097	 	3.11844E11	 	1.41354E-11	 	9681.40514	30.21572	 
625.0	1.0	0.0	8.22812	7.19802	-8.21713	15.02121	19.79292	1.11174	0.89949	175.38159	172.76776	65.89271	0.33081	 	3.80909E11	 	1.15084E-11	 	9530.5832	30.16439	 
620.0	1.0	0.0	8.23024	7.19616	-8.24077	14.99923	19.7198	1.10966	0.90118	175.69782	172.91495	66.0195	0.33065	 	4.66314E11	 	9.34831E-12	 	9380.01645	30.11335	 
615.0	1.0	0.0	8.23236	7.19431	-8.26436	14.97725	19.64667	1.10755	0.90289	176.01341	173.06128	66.14607	0.33049	 	5.72168E11	 	7.57616E-12	 	9229.70459	30.06237	 
610.0	1.0	0.0	8.23447	7.19247	-8.28788	14.95527	19.57351	1.10543	0.90462	176.32836	173.20673	66.27243	0.33033	 	7.0368E11	 	6.12556E-12	 	9079.64696	30.01153	 
605.0	1.0	0.0	8.23658	7.19063	-8.31135	14.93329	19.50035	1.1033	0.90637	176.64267	173.35132	66.39858	0.33017	 	8.67461E11	 	4.94089E-12	 	8929.84286	29.96082	 
600.0	1.0	0.0	8.23868	7.18879	-8.33476	14.9113	19.42716	1.10115	0.90814	176.95634	173.49505	66.52452	0.33001	 	1.07193E12	 	3.97567E-12	 	8780.29165	29.91024	 
595.0	1.0	0.0	8.24078	7.18696	-8.35811	14.88931	19.35396	1.09898	0.90993	177.26936	173.63792	66.65025	0.32985	 	1.32782E12	 	3.19111E-12	 	8630.99264	29.8598	 
590.0	1.0	0.0	8.24287	7.18513	-8.3814	14.86731	19.28073	1.0968	0.91174	177.58175	173.77994	66.77577	0.32969	 	1.64889E12	 	2.55494E-12	 	8481.94516	29.8095	 
585.0	1.0	0.0	8.24496	7.18331	-8.40463	14.84531	19.20749	1.09461	0.91357	177.8935	173.9211	66.90107	0.32953	 	2.05276E12	 	2.04038E-12	 	8333.14856	29.75932	 
580.0	1.0	0.0	8.24705	7.18149	-8.4278	14.82331	19.13423	1.0924	0.91542	178.20461	174.0614	67.02616	0.32937	 	2.56213E12	 	1.62521E-12	 	8184.60217	29.70928	 
575.0	1.0	0.0	8.24913	7.17968	-8.45092	14.80131	19.06096	1.09017	0.91729	178.51507	174.20086	67.15103	0.32921	 	3.20626E12	 	1.2911E-12	 	8036.30534	29.65937	 
570.0	1.0	0.0	8.25121	7.17787	-8.47397	14.7793	18.98766	1.08793	0.91918	178.8249	174.33947	67.2757	0.32905	 	4.02302E12	 	1.02291E-12	 	7888.2574	29.60959	 
565.0	1.0	0.0	8.25328	7.17607	-8.49697	14.75729	18.91434	1.08567	0.92109	179.13409	174.47724	67.40015	0.32888	 	5.06152E12	 	8.08216E-13	 	7740.45771	29.55994	 
560.0	1.0	0.0	8.25535	7.17427	-8.51991	14.73528	18.841	1.08339	0.92303	179.44263	174.61417	67.52439	0.32872	 	6.38567E12	 	6.368E-13	 	7592.90562	29.51042	 
555.0	1.0	0.0	8.25742	7.17248	-8.54279	14.71326	18.76764	1.0811	0.92498	179.75054	174.75025	67.64841	0.32856	 	8.07888E12	 	5.00316E-13	 	7445.60048	29.46103	 
550.0	1.0	0.0	8.25948	7.17069	-8.56562	14.69124	18.69426	1.07879	0.92696	180.0578	174.8855	67.77223	0.3284	 	1.02503E13	 	3.91949E-13	 	7298.54166	29.41177	 
545.0	1.0	0.0	8.26154	7.1689	-8.58838	14.66922	18.62086	1.07646	0.92897	180.36443	175.01991	67.89582	0.32824	 	1.30432E13	 	3.0615E-13	 	7151.72851	29.36263	 
540.0	1.0	0.0	8.26359	7.16712	-8.61108	14.64719	18.54744	1.07412	0.93099	180.67041	175.15349	68.01921	0.32808	 	1.66464E13	 	2.38417E-13	 	7005.16039	29.31362	 
535.0	1.0	0.0	8.26564	7.16534	-8.63373	14.62516	18.47399	1.07176	0.93305	180.97576	175.28624	68.14238	0.32792	 	2.13092E13	 	1.85102E-13	 	6858.83669	29.26474	 
530.0	1.0	0.0	8.26768	7.16357	-8.65632	14.60313	18.40052	1.06938	0.93512	181.28046	175.41817	68.26534	0.32776	 	2.73621E13	 	1.43263E-13	 	6712.75678	29.21598	 
525.0	1.0	0.0	8.26972	7.16181	-8.67885	14.5811	18.32703	1.06699	0.93722	181.58452	175.54927	68.38809	0.3276	 	3.52446E13	 	1.1053E-13	 	6566.92002	29.16735	 
520.0	1.0	0.0	8.27176	7.16004	-8.70132	14.55906	18.25352	1.06457	0.93935	181.88794	175.67954	68.51062	0.32744	 	4.55429E13	 	8.50004E-14	 	6421.32581	29.11884	 
515.0	1.0	0.0	8.27379	7.15829	-8.72373	14.53702	18.17998	1.06214	0.9415	182.19072	175.809	68.63294	0.32728	 	5.90421E13	 	6.51529E-14	 	6275.97354	29.07045	 
510.0	1.0	0.0	8.27582	7.15653	-8.74608	14.51497	18.10642	1.05969	0.94367	182.49286	175.93763	68.75504	0.32712	 	7.67967E13	 	4.97724E-14	 	6130.86258	29.02219	 
505.0	1.0	0.0	8.27784	7.15479	-8.76838	14.49293	18.03283	1.05722	0.94588	182.79436	176.06545	68.87693	0.32696	 	1.00228E14	 	3.7893E-14	 	5985.99234	28.97405	 
500.0	1.0	0.0	8.27986	7.15304	-8.79061	14.47088	17.95921	1.05473	0.94811	183.09522	176.19246	68.9986	0.3268	 	1.3126099999999998E14	 	2.87485E-14	 	5841.36221	28.92603	 
495.0	1.0	0.0	8.28187	7.1513	-8.81279	14.44882	17.88557	1.05223	0.95037	183.39544	176.31866	69.12007	0.32664	 	1.72506E14	 	2.17335E-14	 	5696.9716	28.87812	 
490.0	1.0	0.0	8.28388	7.14957	-8.83491	14.42676	17.81191	1.0497	0.95265	183.69501	176.44404	69.24131	0.32648	 	2.27524E14	 	1.63708E-14	 	5552.81994	28.83033	 
485.0	1.0	0.0	8.28588	7.14784	-8.85697	14.40471	17.73821	1.04716	0.95497	183.99395	176.56862	69.36235	0.32632	 	3.01188E14	 	1.22858E-14	 	5408.90662	28.78266	 
480.0	1.0	0.0	8.28788	7.14611	-8.87897	14.38264	17.66449	1.04459	0.95731	184.29224	176.6924	69.48316	0.32616	 	4.00188E14	 	9.18553E-15	 	5265.23106	28.73511	 
475.0	1.0	0.0	8.28988	7.14439	-8.90091	14.36058	17.59074	1.04201	0.95969	184.5899	176.81537	69.60377	0.32601	 	5.3375399999999994E14	 	6.84124E-15	 	5121.7927	28.68767	 
470.0	1.0	0.0	8.29187	7.14268	-8.9228	14.33851	17.51696	1.0394	0.96209	184.88691	176.93755	69.72416	0.32585	 	7.14662E14	 	5.07531E-15	 	4978.59097	28.64035	 
465.0	1.0	0.0	8.29386	7.14096	-8.94462	14.31644	17.44316	1.03678	0.96453	185.18328	177.05892	69.84433	0.32569	 	9.60678E14	 	3.75019E-15	 	4835.6253	28.59313	 
460.0	1.0	0.0	8.29584	7.13926	-8.96639	14.29436	17.36932	1.03413	0.96699	185.47901	177.1795	69.96429	0.32553	 	1.2966E15	 	2.75977E-15	 	4692.89514	28.54603	 
455.0	1.0	0.0	8.29782	7.13755	-8.98809	14.27228	17.29545	1.03147	0.96949	185.7741	177.29929	70.08404	0.32537	 	1.75722E15	 	2.02247E-15	 	4550.39994	28.49904	 
450.0	1.0	0.0	8.2998	7.13586	-9.00974	14.2502	17.22155	1.02878	0.97203	186.06855	177.41829	70.20356	0.32521	 	2.39149E15	 	1.47586E-15	 	4408.13916	28.45216	 
445.0	1.0	0.0	8.30177	7.13416	-9.03133	14.22812	17.14762	1.02607	0.97459	186.36236	177.5365	70.32288	0.32505	 	3.26871E15	 	1.07232E-15	 	4266.11226	28.40538	 
440.0	1.0	0.0	8.30373	7.13247	-9.05286	14.20603	17.07366	1.02334	0.97719	186.65552	177.65392	70.44198	0.32489	 	4.48731E15	 	7.75678E-16	 	4124.31871	28.35871	 
435.0	1.0	0.0	8.30569	7.13079	-9.07433	14.18394	16.99966	1.02059	0.97983	186.94805	177.77056	70.56086	0.32473	 	6.18785E15	 	5.58563E-16	 	3982.75799	28.31214	 
430.0	1.0	0.0	8.30765	7.12911	-9.09574	14.16184	16.92563	1.01782	0.9825	187.23993	177.88641	70.67953	0.32457	 	8.57191E15	 	4.00366E-16	 	3841.42958	28.26568	 
425.0	1.0	0.0	8.3096	7.12744	-9.1171	14.13975	16.85156	1.01502	0.9852	187.53118	178.00149	70.79798	0.32441	 	1.19301E16	 	2.85622E-16	 	3700.33305	28.21931	 
420.0	1.0	0.0	8.31155	7.12577	-9.13839	14.11765	16.77746	1.0122	0.98795	187.82178	178.11579	70.91622	0.32425	 	1.6683200000000002E16	 	2.02784E-16	 	3559.46778	28.17305	 
415.0	1.0	0.0	8.31349	7.1241	-9.15963	14.09554	16.70332	1.00936	0.99073	188.11174	178.22931	71.03424	0.32409	 	2.34441E16	 	1.43264E-16	 	3418.83353	28.12685	 
410.0	1.0	0.0	8.31543	7.12244	-9.1808	14.07344	16.62915	1.0065	0.99355	188.40106	178.34206	71.15204	0.32393	 	3.3109200000000004E16	 	1.00706E-16	 	3278.4301	28.08069	 
405.0	1.0	0.0	8.31736	7.12078	-9.20192	14.05133	16.55493	1.00361	0.9964	188.68974	178.45403	71.26963	0.32377	 	4.69975E16	 	7.04267E-17	 	3138.25732	28.03455	 
400.0	1.0	0.0	8.31929	7.11913	-9.22298	14.02922	16.48068	1.0007	0.9993	188.97777	178.56524	71.38701	0.32361	 	6.7059700000000008E16	 	4.89933E-17	 	2998.31505	27.98845	 
395.0	1.0	0.0	8.32122	7.11749	-9.24398	14.0071	16.40639	0.99776	1.00224	189.26517	178.67569	71.50416	0.32346	 	9.61964E16	 	3.39002E-17	 	2858.60312	27.94239	 
390.0	1.0	0.0	8.32314	7.11584	-9.26492	13.98498	16.33206	0.9948	1.00522	189.55192	178.78536	71.6211	0.3233	 	1.38745E17	 	2.33281E-17	 	2719.12139	27.89635	 
385.0	1.0	0.0	8.32505	7.11421	-9.2858	13.96286	16.25769	0.99182	1.00825	189.83804	178.89428	71.73783	0.32314	 	2.01231E17	 	1.59631E-17	 	2579.86973	27.85033	 
380.0	1.0	0.0	8.32696	7.11257	-9.30663	13.94073	16.18327	0.98881	1.01132	190.12351	179.00243	71.85434	0.32298	 	2.93525E17	 	1.08606E-17	 	2440.84801	27.80434	 
375.0	1.0	0.0	8.32887	7.11094	-9.32739	13.91861	16.10881	0.98578	1.01443	190.40834	179.10982	71.97063	0.32282	 	4.30648E17	 	7.3458E-18	 	2302.05614	27.75838	 
370.0	1.0	0.0	8.33077	7.10932	-9.3481	13.89648	16.03431	0.98272	1.01759	190.69253	179.21646	72.0867	0.32266	 	6.35609E17	 	4.93866E-18	 	2163.494	27.71243	 
365.0	1.0	0.0	8.33267	7.1077	-9.36874	13.87434	15.95976	0.97963	1.02079	190.97607	179.32235	72.20256	0.3225	 	9.43857E17	 	3.29992E-18	 	2025.16151	27.6665	 
360.0	1.0	0.0	8.33457	7.10609	-9.38933	13.8522	15.88517	0.97652	1.02405	191.25898	179.42748	72.3182	0.32234	 	1.41038E18	 	2.19108E-18	 	1887.05862	27.62058	 
355.0	1.0	0.0	8.33645	7.10448	-9.40986	13.83006	15.81052	0.97338	1.02735	191.54124	179.53186	72.43363	0.32218	 	2.121E18	 	1.44547E-18	 	1749.18524	27.57468	 
350.0	1.0	0.0	8.33834	7.10287	-9.43032	13.80792	15.73583	0.97022	1.0307	191.82286	179.63549	72.54883	0.32203	 	3.21062E18	 	9.47306E-19	 	1611.54133	27.52878	 
345.0	1.0	0.0	8.34022	7.10127	-9.45073	13.78577	15.66109	0.96703	1.0341	192.10384	179.73838	72.66382	0.32187	 	4.89272E18	 	6.16637E-19	 	1474.12686	27.48289	 
340.0	1.0	0.0	8.34209	7.09968	-9.47108	13.76362	15.5863	0.96381	1.03755	192.38418	179.84052	72.7786	0.32171	 	7.50752E18	 	3.98618E-19	 	1336.94182	27.43701	 
335.0	1.0	0.0	8.34396	7.09808	-9.49138	13.74147	15.51146	0.96056	1.04106	192.66388	179.94192	72.89315	0.32155	 	1.16011E19	 	2.55857E-19	 	1199.98619	27.39113	 
330.0	1.0	0.0	8.34583	7.0965	-9.51161	13.71932	15.43656	0.95728	1.04462	192.94294	180.04258	73.00749	0.32139	 	1.80566E19	 	1.63033E-19	 	1063.25999	27.34524	 
325.0	1.0	0.0	8.34769	7.09492	-9.53178	13.69716	15.36161	0.95398	1.04824	193.22135	180.14251	73.12161	0.32123	 	2.8313E19	 	1.03112E-19	 	926.76326	27.29935	 
320.0	1.0	0.0	8.34955	7.09334	-9.55189	13.675	15.2866	0.95065	1.05191	193.49912	180.24169	73.23551	0.32107	 	4.4733E19	 	6.47177E-20	 	790.49602	27.25345	 
315.0	1.0	0.0	8.3514	7.09177	-9.57195	13.65283	15.21153	0.94729	1.05565	193.77625	180.34014	73.3492	0.32092	 	7.12275E19	 	4.0302E-20	 	654.45836	27.20753	 
310.0	1.0	0.0	8.35324	7.0902	-9.59194	13.63066	15.13641	0.94389	1.05944	194.05274	180.43786	73.46267	0.32076	 	1.1432299999999998E20	 	2.48963E-20	 	518.65034	27.1616	 
305.0	1.0	0.0	8.35509	7.08863	-9.61188	13.60849	15.06122	0.94047	1.06329	194.32859	180.53486	73.57592	0.3206	 	1.84999E20	 	1.52531E-20	 	383.07209	27.11565	 
300.0	1.0	0.0	8.35692	7.08708	-9.63176	13.58632	14.98597	0.93702	1.06721	194.6038	180.63112	73.68895	0.32044	 	3.0189499999999997E20	 	9.26615E-21	 	247.72371	27.06968	 
295.0	1.0	0.0	8.35876	7.08552	-9.65158	13.56414	14.91066	0.93354	1.07119	194.87836	180.72665	73.80176	0.32028	 	4.9691799999999993E20	 	5.5804E-21	 	112.60536	27.02367	 
290.0	1.0	0.0	8.36059	7.08397	-9.67133	13.54196	14.83528	0.93002	1.07524	195.15228	180.82147	73.91436	0.32012	 	8.251949999999999E20	 	3.33084E-21	 	-22.28281	26.97763	 
285.0	1.0	0.0	8.36241	7.08243	-9.69103	13.51978	14.75984	0.92648	1.07936	195.42556	180.91556	74.02673	0.31997	 	1.38285E21	 	1.96998E-21	 	-156.94061	26.93156	 
280.0	1.0	0.0	8.36423	7.08089	-9.71067	13.49759	14.68432	0.9229	1.08354	195.6982	181.00892	74.13889	0.31981	 	2.33909E21	 	1.1542E-21	 	-291.36781	26.88544	 
275.0	1.0	0.0	8.36604	7.07935	-9.73025	13.4754	14.60874	0.91929	1.0878	195.9702	181.10158	74.25083	0.31965	 	3.9947E21	 	6.69734E-22	 	-425.56419	26.83928	 
270.0	1.0	0.0	8.36785	7.07782	-9.74978	13.45321	14.53308	0.91565	1.09212	196.24155	181.19351	74.36255	0.31949	 	6.88969E21	 	3.84775E-22	 	-559.52947	26.79306	 
265.0	1.0	0.0	8.36966	7.07629	-9.76924	13.43101	14.45735	0.91197	1.09653	196.51226	181.28473	74.47406	0.31933	 	1.2003699999999999E22	 	2.18814E-22	 	-693.26338	26.74678	 
260.0	1.0	0.0	8.37146	7.07477	-9.78864	13.40881	14.38154	0.90826	1.10101	196.78233	181.37524	74.58534	0.31918	 	2.1132499999999998E22	 	1.23136E-22	 	-826.76557	26.70044	 
255.0	1.0	0.0	8.37325	7.07325	-9.80798	13.38661	14.30565	0.90451	1.10556	197.05176	181.46504	74.69641	0.31902	 	3.7604499999999996E22	 	6.85495E-23	 	-960.03571	26.65403	 
250.0	1.0	0.0	8.37504	7.07174	-9.82727	13.3644	14.22968	0.90074	1.1102	197.32055	181.55413	74.80725	0.31886	 	6.765689999999999E22	 	3.77399E-23	 	-1093.07342	26.60754	 
245.0	1.0	0.0	8.37683	7.07023	-9.84649	13.3422	14.15363	0.89692	1.11493	197.5887	181.64251	74.91788	0.3187	 	1.23114E23	 	2.05417E-23	 	-1225.87826	26.56097	 
240.0	1.0	0.0	8.37861	7.06873	-9.86566	13.31998	14.07749	0.89307	1.11973	197.8562	181.73018	75.02829	0.31854	 	2.26657E23	 	1.105E-23	 	-1358.4498	26.51431	 
235.0	1.0	0.0	8.38039	7.06723	-9.88476	13.29777	14.00126	0.88918	1.12463	198.12306	181.81716	75.13848	0.31839	 	4.22325E23	 	5.87263E-24	 	-1490.78755	26.46755	 
230.0	1.0	0.0	8.38216	7.06574	-9.90381	13.27555	13.92494	0.88526	1.12961	198.38928	181.90343	75.24845	0.31823	 	7.967019999999999E23	 	3.0824E-24	 	-1622.89097	26.42068	 
225.0	1.0	0.0	8.38393	7.06425	-9.9228	13.25333	13.84853	0.8813	1.13469	198.65486	181.98901	75.3582	0.31807	 	1.5222300000000001E24	 	1.59723E-24	 	-1754.75952	26.37371	 
220.0	1.0	0.0	8.38569	7.06277	-9.94173	13.23111	13.77202	0.8773	1.13986	198.9198	182.07388	75.46773	0.31791	 	2.94689E24	 	8.16774E-25	 	-1886.39258	26.32661	 
215.0	1.0	0.0	8.38744	7.06129	-9.9606	13.20888	13.69541	0.87326	1.14513	199.18409	182.15806	75.57704	0.31776	 	5.78263E24	 	4.12016E-25	 	-2017.78948	26.27938	 
210.0	1.0	0.0	8.3892	7.05981	-9.9794	13.18665	13.6187	0.86919	1.1505	199.44774	182.24155	75.68613	0.3176	 	1.15066E25	 	2.04938E-25	 	-2148.94955	26.23201	 
205.0	1.0	0.0	8.39095	7.05834	-9.99815	13.16442	13.54189	0.86507	1.15598	199.71075	182.32435	75.79501	0.31744	 	2.32283E25	 	1.00469E-25	 	-2279.87202	26.18449	 
200.0	1.0	0.0	8.39269	7.05688	-10.01684	13.14218	13.46496	0.86091	1.16156	199.97312	182.40645	75.90366	0.31728	 	4.75922E25	 	4.85232E-26	 	-2410.5561	26.13682	 
195.0	1.0	0.0	8.39443	7.05541	-10.03547	13.11994	13.38792	0.85672	1.16725	200.23485	182.48787	76.01209	0.31712	 	9.901670000000001E25	 	2.30762E-26	 	-2541.00094	26.08897	 
190.0	1.0	0.0	8.39616	7.05396	-10.05405	13.0977	13.31077	0.85248	1.17305	200.49593	182.5686	76.1203	0.31697	 	2.09291E26	 	1.08008E-26	 	-2671.20562	26.04094	 
185.0	1.0	0.0	8.39789	7.05251	-10.07256	13.07545	13.2335	0.8482	1.17896	200.75638	182.64865	76.2283	0.31681	 	4.4966400000000007E26	 	4.97286E-27	 	-2801.16918	25.99271	 
180.0	1.0	0.0	8.39961	7.05106	-10.09101	13.0532	13.1561	0.84388	1.185	201.01618	182.72801	76.33607	0.31665	 	9.825490000000001E26	 	2.25099E-27	 	-2930.89058	25.94428	 
175.0	1.0	0.0	8.40133	7.04962	-10.1094	13.03095	13.07857	0.83952	1.19116	201.27534	182.80669	76.44362	0.3165	 	2.18472E27	 	1.00119E-27	 	-3060.36872	25.89563	 
170.0	1.0	0.0	8.40304	7.04818	-10.12774	13.0087	13.00092	0.83511	1.19745	201.53385	182.8847	76.55095	0.31634	 	4.94616E27	 	4.3729E-28	 	-3189.60242	25.84674	 
165.0	1.0	0.0	8.40475	7.04675	-10.14601	12.98644	12.92312	0.83066	1.20387	201.79173	182.96202	76.65807	0.31618	 	1.14088E28	 	1.87443E-28	 	-3318.59045	25.7976	 
160.0	1.0	0.0	8.40646	7.04532	-10.16422	12.96418	12.84519	0.82616	1.21042	202.04896	183.03868	76.76496	0.31602	 	2.6828200000000003E28	 	7.88012E-29	 	-3447.33145	25.7482	 
155.0	1.0	0.0	8.40816	7.04389	-10.18238	12.94192	12.76711	0.82162	1.21711	202.30556	183.11465	76.87163	0.31587	 	6.43602E28	 	3.24687E-29	 	-3575.82405	25.69852	 
150.0	1.0	0.0	8.40985	7.04247	-10.20047	12.91965	12.68888	0.81703	1.22395	202.56151	183.18996	76.97808	0.31571	 	1.57624E29	 	1.31026E-29	 	-3704.06672	25.64853	 
145.0	1.0	0.0	8.41154	7.04106	-10.21851	12.89738	12.61049	0.81239	1.23093	202.81682	183.2646	77.08431	0.31555	 	3.9439600000000004E29	 	5.17471E-30	 	-3832.05789	25.59823	 
140.0	1.0	0.0	8.41322	7.03965	-10.23648	12.8751	12.53194	0.80771	1.23807	203.07148	183.33857	77.19032	0.31539	 	1.00898E30	 	1.99854E-30	 	-3959.79586	25.54759	 
135.0	1.0	0.0	8.4149	7.03824	-10.2544	12.85283	12.45323	0.80298	1.24536	203.32551	183.41187	77.2961	0.31524	 	2.6413599999999997E30	 	7.54187E-31	 	-4087.27884	25.4966	 
130.0	1.0	0.0	8.41658	7.03684	-10.27226	12.83055	12.37434	0.7982	1.25282	203.57889	183.48451	77.40167	0.31508	 	7.08173E30	 	2.77852E-31	 	-4214.50489	25.44521	 
125.0	1.0	0.0	8.41825	7.03545	-10.29005	12.80827	12.29526	0.79337	1.26045	203.83164	183.55648	77.50702	0.31492	 	1.9462999999999998E31	 	9.98446E-32	 	-4341.47202	25.39343	 
120.0	1.0	0.0	8.41991	7.03406	-10.30779	12.78598	12.21601	0.78849	1.26825	204.08374	183.62779	77.61214	0.31477	 	5.48841E31	 	3.49622E-32	 	-4468.17805	25.34121	 
115.0	1.0	0.0	8.42157	7.03267	-10.32547	12.76369	12.13655	0.78356	1.27623	204.3352	183.69845	77.71704	0.31461	 	1.5895799999999999E32	 	1.1918E-32	 	-4594.62071	25.28853	 
110.0	1.0	0.0	8.42323	7.03129	-10.34308	12.7414	12.0569	0.77857	1.2844	204.58602	183.76845	77.82173	0.31445	 	4.73341E32	 	3.95076E-33	 	-4720.79756	25.23537	 
105.0	1.0	0.0	8.42488	7.02991	-10.36064	12.7191	11.97704	0.77354	1.29276	204.83619	183.83779	77.92619	0.3143	 	1.45076E33	 	1.2722E-33	 	-4846.70601	25.18169	 
100.0	1.0	0.0	8.42652	7.02854	-10.37814	12.69681	11.89695	0.76845	1.30133	205.08573	183.90648	78.03043	0.31414	 	4.582E33	 	3.9748E-34	 	-4972.34333	25.12746	 
95.0	1.0	0.0	8.42816	7.02717	-10.39558	12.6745	11.81665	0.7633	1.3101	205.33463	183.97451	78.13445	0.31398	 	1.4930700000000001E34	 	1.20346E-34	 	-5097.70659	25.07265	 
90.0	1.0	0.0	8.4298	7.02581	-10.41296	12.6522	11.7361	0.7581	1.31908	205.58288	184.0419	78.23824	0.31383	 	5.02611E34	 	3.52647E-35	 	-5222.79268	25.01722	 
85.0	1.0	0.0	8.43143	7.02445	-10.43028	12.62989	11.65531	0.75285	1.32829	205.83049	184.10863	78.34182	0.31367	 	1.75026E35	 	9.98732E-36	 	-5347.59831	24.96112	 
80.0	1.0	0.0	8.43305	7.0231	-10.44754	12.60758	11.57426	0.74754	1.33773	206.07747	184.17472	78.44517	0.31351	 	6.314189999999999E35	 	2.72979E-36	 	-5472.11995	24.90433	 
75.0	1.0	0.0	8.43467	7.02175	-10.46474	12.58527	11.49295	0.74217	1.34741	206.3238	184.24017	78.54831	0.31336	 	2.3633999999999998E36	 	7.18979E-37	 	-5596.35388	24.84679	 
70.0	1.0	0.0	8.43629	7.02041	-10.48188	12.56295	11.41136	0.73674	1.35734	206.56949	184.30497	78.65122	0.3132	 	9.193089999999999E36	 	1.82184E-37	 	-5720.29612	24.78845	 
65.0	1.0	0.0	8.4379	7.01907	-10.49896	12.54063	11.32947	0.73125	1.36752	206.81454	184.36913	78.75391	0.31304	 	3.72247E37	 	4.43369E-38	 	-5843.94241	24.72926	 
60.0	1.0	0.0	8.4395	7.01773	-10.51598	12.51831	11.24728	0.7257	1.37798	207.05895	184.43265	78.85638	0.31289	 	1.57193E38	 	1.03441E-38	 	-5967.28824	24.66917	 
55.0	1.0	0.0	8.4411	7.0164	-10.53294	12.49598	11.16478	0.72009	1.38871	207.30272	184.49553	78.95862	0.31273	 	6.93582E38	 	2.3092E-39	 	-6090.32878	24.60811	 
50.0	1.0	0.0	8.4427	7.01508	-10.54984	12.47365	11.08194	0.71442	1.39973	207.54585	184.55777	79.06065	0.31257	 	3.2041500000000005E39	 	4.92241E-40	 	-6213.0589	24.54602	 
45.0	1.0	0.0	8.44429	7.01375	-10.56668	12.45132	10.99875	0.70869	1.41106	207.78834	184.61938	79.16245	0.31242	 	1.55317E40	 	9.99772E-41	 	-6335.47309	24.48284	 
40.0	1.0	0.0	8.44587	7.01244	-10.58346	12.42899	10.9152	0.70289	1.4227	208.0302	184.68036	79.26403	0.31226	 	7.91796E40	 	1.9303E-41	 	-6457.56551	24.41848	 
35.0	1.0	0.0	8.44745	7.01113	-10.60018	12.40665	10.83127	0.69703	1.43467	208.27141	184.74071	79.36539	0.3121	 	4.25564E41	 	3.53414E-42	 	-6579.32986	24.35287	 
30.0	1.0	0.0	8.44902	7.00982	-10.61684	12.38431	10.74693	0.6911	1.44697	208.51198	184.80043	79.46653	0.31195	 	2.41774E42	 	6.11977E-43	 	-6700.75945	24.28592	 
25.0	1.0	0.0	8.45059	7.00852	-10.63344	 	10.66218	0.6851	1.45964	208.75191	184.85952	79.56744	0.31179	 	1.45599E43	 	9.99458E-44	 	-6821.84711	 	 
