T (C)	Fraction solid (wt)-TOTAL	Fraction liquid (wt)-LIQUID	Density (g/(cm)^3)-TOTAL	Molar volume (cm^3)-TOTAL	Volume change (%)-  	Average expansion coeff. (10e-6 1/K)-  	Thermal conductivity (W/(m*K))-TOTAL	Electrical resistivity (10e-6 Ohm*m)-TOTAL	Electrical conductivity (10e6 1/(Ohm*m))-TOTAL	Young's modulus (GPa)-TOTAL	Bulk modulus (GPa)-TOTAL	Shear modulus(GPa)-TOTAL	Poisson's ratio-TOTAL	Liquid viscosity (mPa s)-  	Total viscosity (mPa s)-  	Liquid diffusivity (10e-9 (m^2)/s)-  	Total diffusivity (10e-9 (m^2)/s)-  	Surface Tension (mN/m)-  	Enthalpy (J/mole)-TOTAL	Specific heat (J/(mole K))-TOTAL	Latent heat (J/mole)-TOTAL
1500.0	0.0	1.0	7.09096	7.81461	0.0	26.85919	30.62798	1.88645	0.5301	0.0	111.05045	0.0	0.4971	6.84329	6.84329	1.26464	1.26464	1765.18627	65472.722	 	0.0
1495.0	0.0	1.0	7.09488	7.8103	-0.0551949	26.81051	30.55633	1.88554	0.53035	0.0	111.2377	0.0	0.4971	6.90502	6.90502	1.2498	1.2498	1766.97232	65252.271	44.0902	0.0
1490.0	0.0	1.0	7.09879	7.80599	-0.11023	26.7619	30.48467	1.88463	0.53061	0.0	111.42495	0.0	0.4971	6.96766	6.96766	1.23506	1.23506	1768.75627	65032.245	44.0052	0.0
1485.0	0.0	1.0	7.10269	7.80171	-0.16512	26.71336	30.41302	1.88371	0.53087	0.0	111.61221	0.0	0.4971	7.03123	7.03123	1.22043	1.22043	1770.53809	64812.643	43.9204	0.0
1480.0	0.0	1.0	7.10658	7.79743	-0.21984	26.66488	30.34136	1.88279	0.53113	0.0	111.79946	0.0	0.4971	7.09575	7.09575	1.20589	1.20589	1772.31777	64593.462	43.8362	0.0
1475.0	0.0	1.0	7.11047	7.79316	-0.27441	26.61647	30.26971	1.88186	0.53139	0.0	111.98671	0.0	0.4971	7.16123	7.16123	1.19146	1.19146	1774.09528	64374.699	43.7526	0.0
1470.0	0.0	1.0	7.11435	7.78891	-0.32883	26.56812	30.19805	1.88093	0.53165	0.0	112.17396	0.0	0.4971	7.2277	7.2277	1.17712	1.17712	1775.8706	64156.354	43.669	0.0
1465.0	0.0	1.0	7.11823	7.78467	-0.38309	26.51985	30.1264	1.88	0.53192	0.0	112.36121	0.0	0.4971	7.29517	7.29517	1.16289	1.16289	1777.6437	63938.422	43.5864	0.0
1460.0	0.0	1.0	7.1221	7.78044	-0.43719	26.47164	30.05474	1.87906	0.53218	0.0	112.54846	0.0	0.4971	7.36367	7.36367	1.14876	1.14876	1779.41456	63720.904	43.5036	0.0
1455.0	0.0	1.0	7.12596	7.77623	-0.49113	26.42351	29.98309	1.87812	0.53245	0.0	112.73571	0.0	0.4971	7.43322	7.43322	1.13473	1.13473	1781.18315	63503.795	43.4218	0.0
1450.0	0.0	1.0	7.12981	7.77202	-0.54492	26.37545	29.91143	1.87717	0.53272	0.0	112.92296	0.0	0.4971	7.50383	7.50383	1.1208	1.1208	1782.94945	63287.145	43.33	0.0
1445.0	0.0	1.0	7.13366	7.76783	-0.59856	26.32745	29.83978	1.87622	0.53299	0.0	113.11021	0.0	0.4971	7.57553	7.57553	1.10697	1.10697	1784.71343	63071.04	43.221	0.0
1440.0	0.0	1.0	7.1375	7.76365	-0.65203	26.27953	29.76812	1.87526	0.53326	0.0	113.29747	0.0	0.4971	7.64833	7.64833	1.09324	1.09324	1786.47506	62855.466	43.1148	0.0
1435.0	0.0	1.0	7.14133	7.75949	-0.70536	26.23169	29.69647	1.8743	0.53353	0.0	113.48472	0.0	0.4971	7.72227	7.72227	1.07961	1.07961	1788.23432	62640.421	43.009	0.0
1430.0	0.0	1.0	7.14516	7.75533	-0.75852	26.18391	29.62481	1.87333	0.53381	0.0	113.67197	0.0	0.4971	7.79737	7.79737	1.06608	1.06608	1789.99118	62425.9	42.9042	0.0
1425.0	0.0	1.0	7.14898	7.75119	-0.81153	26.13621	29.55316	1.87236	0.53408	0.0	113.85922	0.0	0.4971	7.87364	7.87364	1.05266	1.05266	1791.74561	62211.902	42.7996	0.0
1420.0	0.0	1.0	7.15279	7.74706	-0.86438	26.08859	29.4815	1.87139	0.53436	0.0	114.04647	0.0	0.4971	7.95112	7.95112	1.03933	1.03933	1793.49759	61998.423	42.6958	0.0
1415.0	0.0	1.0	7.15659	7.74294	-0.91708	26.04104	29.40985	1.87041	0.53464	0.0	114.23372	0.0	0.4971	8.02982	8.02982	1.0261	1.0261	1795.24708	61785.46	42.5926	0.0
1410.0	0.0	1.0	7.16039	7.73884	-0.96962	25.99357	29.33819	1.86942	0.53492	0.0	114.42097	0.0	0.4971	8.10978	8.10978	1.01298	1.01298	1796.99405	61573.01	42.49	0.0
1405.0	0.0	1.0	7.16418	7.73474	-1.022	25.94618	29.26654	1.86843	0.53521	0.0	114.60822	0.0	0.4971	8.19102	8.19102	0.99995	0.99995	1798.73848	61361.069	42.3882	0.0
1400.0	0.0	1.0	7.16796	7.73066	-1.07423	25.89887	29.19488	1.86744	0.53549	0.0	114.79548	0.0	0.4971	8.27357	8.27357	0.98703	0.98703	1800.48034	61149.634	42.287	0.0
1399.21	0.0	1.0	7.16856	7.73002	-1.08246	25.89142	29.18358	1.86728	0.53554	0.0	114.82501	0.0	0.4971	8.28671	8.28671	0.985	0.985	1800.75482	61116.339	42.2209	0.0
1395.0	0.16519	0.83481	7.19062	7.70631	-1.38583	25.14514	29.54974	1.8395	0.54363	0.0647299	113.75097	0.0219586	0.47391	8.35772	21.50132	0.97417	0.37867	1799.16757	59051.192	490.369	1887.508
1390.0	0.31894	0.68106	7.21167	7.68383	-1.67348	24.45132	29.89063	1.81307	0.55155	0.91368	112.76588	0.31461	0.45207	8.44312	176.19891	0.96142	0.0460696	1797.3912	57085.365	393.165	3642.904
1385.0	0.43737	0.56263	7.22846	7.66597	-1.90212	23.91422	30.15035	1.79205	0.55802	3.2739	112.03972	1.14069	0.43505	8.52969	626.16829	0.94881	0.0129247	1795.71882	55523.12	312.449	4995.215
1380.0	0.53026	0.46974	7.2422	7.65148	-2.08742	23.49244	30.34904	1.77495	0.5634	7.15382	111.5096	2.51619	0.42156	8.61747	1414.22246	0.93631	0.00570534	1794.14465	54252.095	254.205	6056.8
1375.0	0.6043	0.3957	7.25369	7.63936	-2.24253	23.15094	30.50003	1.76082	0.56792	12.18747	111.1274	4.31968	0.41069	8.70648	2513.75668	0.92393	0.00320008	1792.66721	53195.451	211.329	6904.497
1370.0	0.66416	0.33584	7.2635	7.62916	-2.37307	22.87503	30.61383	1.74895	0.57177	17.9409	110.86263	6.39913	0.40182	8.79714	3876.11524	0.91164	0.00206903	1791.27796	52299.564	179.177	7591.926
1365.0	0.71317	0.28683	7.27208	7.62021	-2.48761	22.64159	30.69745	1.73888	0.57508	24.04631	110.68793	8.62196	0.39448	8.88869	5453.71736	0.8995	0.00146605	1789.98009	51526.199	154.673	8157.319
1364.7	0.71568	0.28432	7.27255	7.61975	-2.49357	22.63015	30.70123	1.73834	0.57526	24.3974	110.6823	8.75021	0.3941	8.8942	5550.23472	0.89878	0.00144029	1789.90018	51484.391	 	8186.526
1360.0	0.77245	0.22755	7.28263	7.6093	-2.6272	22.33643	30.88821	1.72286	0.58043	30.66875	110.3246	11.06749	0.38553	8.94308	7835.93004	0.8913	0.00101724	1787.80124	50661.616	172.917	8814.413
1355.0	0.81915	0.18085	7.29183	7.59989	-2.74762	22.08274	31.02395	1.71007	0.58477	37.00912	110.1157	13.42452	0.37842	8.99548	10402.70864	0.8834	7.63897E-4	1785.74013	49922.784	147.766	9346.236
1350.0	0.85579	0.14421	7.29996	7.59167	-2.85281	21.86997	31.11273	1.69996	0.58825	43.16259	110.03024	15.72097	0.37277	9.0487	13060.93593	0.87551	6.06556E-4	1783.83465	49284.847	127.587	9777.642
1345.0	0.88529	0.11471	7.30737	7.58424	-2.94788	21.68422	31.16804	1.69171	0.59112	49.46316	110.03122	18.07634	0.36817	9.1029	15805.81613	0.86761	4.99676E-4	1782.06862	48718.84	113.201	10137.594
1340.0	0.90965	0.0903526	7.31436	7.57733	-3.0363	21.51588	31.19915	1.68481	0.59354	56.29547	110.09396	20.63112	0.36433	9.15819	18652.99503	0.85971	4.22098E-4	1780.42579	48205.067	102.755	10445.786
1335.0	0.93015	0.0698548	7.32108	7.57076	-3.12045	21.35843	31.21218	1.67888	0.59563	63.91774	110.20203	23.48088	0.36106	9.21496	21619.48413	0.85176	3.63051E-4	1778.89392	47730.767	94.86	10714.972
1330.0	0.9477	0.052302	7.32766	7.56438	-3.20212	21.20688	31.21148	1.6737	0.59748	72.26119	110.34412	26.60151	0.35822	9.27257	24727.67907	0.84384	3.1643E-4	1777.46487	47286.91	88.7714	10954.185
1325.0	0.963	0.0369977	7.33418	7.55811	-3.28234	21.05832	31.20031	1.66908	0.59913	80.77234	110.51209	29.78987	0.3557	9.33181	28006.6905	0.83587	2.78511E-4	1776.12414	46866.545	84.073	11170.369
1320.0	0.97659	0.0234121	7.34074	7.55186	-3.36227	20.90942	31.18094	1.66489	0.60064	88.58026	110.6997	32.72419	0.35344	9.39282	31490.56086	0.82784	2.46924E-4	1774.86276	46464.354	80.4382	11368.841
1315.0	0.98883	0.0111742	7.34739	7.54557	-3.44278	20.75771	31.15453	1.66107	0.60202	95.05238	110.90237	35.16899	0.35137	9.45519	35211.27177	0.8198	2.20139E-4	1773.67646	46076.62	77.5468	11553.316
1310.0	1.0	0.0	7.35418	7.53919	-3.52444	20.60147	31.12125	1.65761	0.60328	100.37363	111.11691	37.19064	0.34945	 	39203.71766	 	1.97098E-4	 	45700.492	75.2256	11726.643
1305.0	1.0	0.0	7.35684	7.53647	-3.55925	20.58051	31.05114	1.65611	0.60383	100.78269	111.4305	37.34741	0.34926	 	41789.57651	 	1.84318E-4	 	45453.212	49.456	 
1300.0	1.0	0.0	7.35949	7.53375	-3.594	20.55957	30.98103	1.6546	0.60438	101.1915	111.74303	37.50414	0.34907	 	44564.16998	 	1.72294E-4	 	45259.651	38.7122	 
1295.0	1.0	0.0	7.36214	7.53104	-3.62869	20.53866	30.91092	1.65308	0.60493	101.60005	112.05451	37.66081	0.34888	 	47542.5534	 	1.60987E-4	 	45066.411	38.648	 
1290.0	1.0	0.0	7.36479	7.52834	-3.66331	20.51776	30.84081	1.65155	0.60549	102.00836	112.36493	37.81744	0.34869	 	50741.08257	 	1.50358E-4	 	44873.502	38.5818	 
1285.0	1.0	0.0	7.36743	7.52563	-3.69787	20.49689	30.7707	1.65002	0.60605	102.41641	112.67431	37.97401	0.34851	 	54177.53449	 	1.40371E-4	 	44680.923	38.5158	 
1280.0	1.0	0.0	7.37007	7.52294	-3.73236	20.47604	30.70059	1.64848	0.60662	102.82421	112.98263	38.13053	0.34832	 	57871.24012	 	1.3099E-4	 	44488.671	38.4504	 
1275.0	1.0	0.0	7.37271	7.52025	-3.7668	20.45521	30.63048	1.64694	0.60719	103.23175	113.28991	38.287	0.34813	 	61843.23034	 	1.22182E-4	 	44296.746	38.385	 
1270.0	1.0	0.0	7.37534	7.51756	-3.80117	20.4344	30.56036	1.64538	0.60776	103.63903	113.59615	38.44342	0.34794	 	66116.39663	 	1.13916E-4	 	44105.146	38.32	 
1265.0	1.0	0.0	7.37797	7.51488	-3.83547	20.41361	30.49025	1.64382	0.60834	104.04605	113.90135	38.59979	0.34775	 	70715.66792	 	1.06162E-4	 	43913.873	38.2546	 
1260.0	1.0	0.0	7.3806	7.51221	-3.86972	20.39284	30.42013	1.64226	0.60892	104.45281	114.2055	38.7561	0.34757	 	75668.2054	 	9.88913E-5	 	43722.925	38.1896	 
1255.0	1.0	0.0	7.38322	7.50953	-3.9039	20.3721	30.35002	1.64068	0.6095	104.8593	114.50862	38.91236	0.34738	 	81003.61725	 	9.20764E-5	 	43532.303	38.1244	 
1250.0	1.0	0.0	7.38585	7.50687	-3.93802	20.35137	30.2799	1.6391	0.61009	105.26553	114.8107	39.06856	0.34719	 	86754.19545	 	8.56917E-5	 	43342.006	38.0594	 
1245.0	1.0	0.0	7.38847	7.50421	-3.97208	20.33067	30.20978	1.63751	0.61068	105.6715	115.11174	39.22471	0.347	 	92955.17698	 	7.97128E-5	 	43152.033	37.9946	 
1240.0	1.0	0.0	7.39108	7.50155	-4.00607	20.30999	30.13967	1.63592	0.61128	106.07719	115.41176	39.3808	0.34681	 	99645.0323	 	7.41162E-5	 	42962.379	37.9308	 
1235.0	1.0	0.0	7.3937	7.4989	-4.04	20.28933	30.06955	1.63431	0.61188	106.48261	115.71074	39.53684	0.34663	 	106865.7838	 	6.88799E-5	 	42773.039	37.868	 
1230.0	1.0	0.0	7.39631	7.49625	-4.07387	20.26869	29.99943	1.6327	0.61248	106.88776	116.0087	39.69282	0.34644	 	114663.3582	 	6.3983E-5	 	42584.013	37.8052	 
1225.0	1.0	0.0	7.39891	7.49361	-4.10768	20.24808	29.92931	1.63108	0.61309	107.29264	116.30563	39.84874	0.34625	 	123087.9752	 	5.94055E-5	 	42395.299	37.7428	 
1220.0	1.0	0.0	7.40152	7.49097	-4.14142	20.22748	29.85919	1.62946	0.6137	107.69725	116.60154	40.0046	0.34606	 	132194.5792	 	5.51285E-5	 	42206.898	37.6802	 
1215.0	1.0	0.0	7.40412	7.48834	-4.17511	20.20691	29.78906	1.62782	0.61432	108.10157	116.89643	40.1604	0.34587	 	142043.3154	 	5.11343E-5	 	42018.808	37.618	 
1210.0	1.0	0.0	7.40672	7.48571	-4.20873	20.18636	29.71894	1.62618	0.61494	108.50562	117.19029	40.31614	0.34568	 	152700.0584	 	4.74059E-5	 	41831.029	37.5558	 
1205.0	1.0	0.0	7.40932	7.48309	-4.24228	20.16583	29.64882	1.62453	0.61556	108.90939	117.48314	40.47182	0.3455	 	164236.9979	 	4.39273E-5	 	41643.56	37.4938	 
1200.0	1.0	0.0	7.41191	7.48047	-4.27578	20.14532	29.57869	1.62288	0.61619	109.31287	117.77498	40.62744	0.34531	 	176733.2879	 	4.06832E-5	 	41456.401	37.4318	 
1195.0	1.0	0.0	7.4145	7.47786	-4.30922	20.12483	29.50857	1.62121	0.61682	109.71608	118.06579	40.783	0.34512	 	190275.7673	 	3.76594E-5	 	41269.551	37.37	 
1190.0	1.0	0.0	7.41708	7.47525	-4.34259	20.10436	29.43844	1.61954	0.61746	110.11899	118.3556	40.9385	0.34493	 	204959.7602	 	3.48423E-5	 	41083.009	37.3084	 
1185.0	1.0	0.0	7.41967	7.47265	-4.3759	20.08392	29.36831	1.61786	0.6181	110.52163	118.6444	41.09393	0.34474	 	220889.965	 	3.22191E-5	 	40896.775	37.2468	 
1180.0	1.0	0.0	7.42225	7.47005	-4.40915	20.06349	29.29818	1.61617	0.61875	110.92397	118.93219	41.2493	0.34456	 	238181.4428	 	2.97776E-5	 	40710.848	37.1854	 
1175.0	1.0	0.0	7.42483	7.46746	-4.44234	20.04309	29.22805	1.61448	0.6194	111.32602	119.21897	41.40461	0.34437	 	256960.7169	 	2.75064E-5	 	40525.227	37.1242	 
1170.0	1.0	0.0	7.4274	7.46487	-4.47547	20.02271	29.15792	1.61277	0.62005	111.72779	119.50476	41.55985	0.34418	 	277366.9968	 	2.53947E-5	 	40339.912	37.063	 
1165.0	1.0	0.0	7.42997	7.46228	-4.50854	20.00235	29.08779	1.61106	0.62071	112.12926	119.78953	41.71502	0.34399	 	299553.5414	 	2.34324E-5	 	40154.902	37.002	 
1160.0	1.0	0.0	7.43254	7.4597	-4.54154	19.98201	29.01766	1.60934	0.62137	112.53043	120.07331	41.87013	0.3438	 	323689.179	 	2.16098E-5	 	39970.196	36.9412	 
1155.0	1.0	0.0	7.43511	7.45713	-4.57449	19.9617	28.94753	1.60761	0.62204	112.93132	120.35609	42.02518	0.34362	 	349960.0013	 	1.99178E-5	 	39785.794	36.8804	 
1150.0	1.0	0.0	7.43767	7.45456	-4.60737	19.9414	28.8774	1.60587	0.62272	113.3319	120.63788	42.18015	0.34343	 	378571.2554	 	1.8348E-5	 	39601.695	36.8198	 
1145.0	1.0	0.0	7.44023	7.452	-4.6402	19.92113	28.80726	1.60412	0.62339	113.73218	120.91867	42.33506	0.34324	 	409749.4554	 	1.68924E-5	 	39417.899	36.7592	 
1140.0	1.0	0.0	7.44279	7.44944	-4.67296	19.90087	28.73713	1.60237	0.62408	114.13217	121.19846	42.4899	0.34305	 	443744.7432	 	1.55432E-5	 	39234.405	36.6988	 
1135.0	1.0	0.0	7.44534	7.44688	-4.70566	19.88064	28.66699	1.60061	0.62476	114.53185	121.47727	42.64467	0.34286	 	480833.5278	 	1.42936E-5	 	39051.211	36.6388	 
1130.0	1.0	0.0	7.44789	7.44433	-4.7383	19.86043	28.59685	1.59883	0.62546	114.93123	121.75509	42.79937	0.34267	 	521321.4389	 	1.31367E-5	 	38868.319	36.5784	 
1125.0	1.0	0.0	7.45044	7.44178	-4.77088	19.84025	28.52672	1.59705	0.62615	115.3303	122.03192	42.954	0.34249	 	565546.6345	 	1.20662E-5	 	38685.726	36.5186	 
1120.0	1.0	0.0	7.45299	7.43924	-4.8034	19.82008	28.45658	1.59527	0.62685	115.72907	122.30777	43.10856	0.3423	 	613883.5072	 	1.10764E-5	 	38503.432	36.4588	 
1115.0	1.0	0.0	7.45553	7.4367	-4.83586	19.79993	28.38644	1.59347	0.62756	116.12752	122.58264	43.26305	0.34211	 	666746.84	 	1.01616E-5	 	38321.437	36.399	 
1110.0	1.0	0.0	7.45807	7.43417	-4.86826	19.77981	28.3163	1.59166	0.62827	116.52567	122.85652	43.41746	0.34192	 	724596.4703	 	9.31665E-6	 	38139.739	36.3396	 
1105.0	1.0	0.0	7.46061	7.43165	-4.9006	19.75971	28.24615	1.58985	0.62899	116.92351	123.12943	43.57181	0.34173	 	787942.5268	 	8.53667E-6	 	37958.339	36.28	 
1100.0	1.0	0.0	7.46314	7.42912	-4.93288	19.73963	28.17601	1.58802	0.62971	117.32103	123.40136	43.72608	0.34155	 	857351.3151	 	7.8171E-6	 	37777.236	36.2206	 
1095.0	1.0	0.0	7.46567	7.42661	-4.9651	19.71957	28.10587	1.58619	0.63044	117.71824	123.67231	43.88027	0.34136	 	933451.9361	 	7.15366E-6	 	37596.428	36.1616	 
1090.0	1.0	0.0	7.4682	7.42409	-4.99726	19.69953	28.03572	1.58434	0.63118	118.11514	123.94229	44.03439	0.34117	 	1016943.735	 	6.54234E-6	 	37415.915	36.1026	 
1085.0	1.0	0.0	7.47072	7.42158	-5.02936	19.67951	27.96558	1.58249	0.63191	118.51172	124.2113	44.18844	0.34098	 	1108604.689	 	5.9794E-6	 	37235.697	36.0436	 
1080.0	1.0	0.0	7.47324	7.41908	-5.0614	19.65952	27.89543	1.58063	0.63266	118.90798	124.47934	44.34241	0.34079	 	1209300.867	 	5.46133E-6	 	37055.773	35.9848	 
1075.0	1.0	0.0	7.47576	7.41658	-5.09338	19.63954	27.82529	1.57876	0.63341	119.30391	124.74641	44.4963	0.3406	 	1319997.09	 	4.98485E-6	 	36876.143	35.926	 
1070.0	1.0	0.0	7.47827	7.41409	-5.1253	19.61959	27.75514	1.57688	0.63416	119.69953	125.01251	44.65012	0.34042	 	1441768.973	 	4.5469E-6	 	36696.804	35.8678	 
1065.0	1.0	0.0	7.48079	7.4116	-5.15716	19.59966	27.68499	1.57499	0.63492	120.09482	125.27766	44.80386	0.34023	 	1575816.529	 	4.14463E-6	 	36517.758	35.8092	 
1060.0	1.0	0.0	7.4833	7.40911	-5.18896	19.57975	27.61484	1.57309	0.63569	120.48979	125.54184	44.95753	0.34004	 	1723479.541	 	3.77537E-6	 	36339.003	35.751	 
1055.0	1.0	0.0	7.4858	7.40663	-5.2207	19.55986	27.54469	1.57118	0.63646	120.88444	125.80506	45.11111	0.33985	 	1886254.97	 	3.43664E-6	 	36160.538	35.693	 
1050.0	1.0	0.0	7.48831	7.40416	-5.25239	19.53999	27.47453	1.56927	0.63724	121.27875	126.06732	45.26461	0.33966	 	2065816.651	 	3.12611E-6	 	35982.364	35.6348	 
1045.0	1.0	0.0	7.49081	7.40168	-5.28401	19.52015	27.40438	1.56734	0.63802	121.67274	126.32863	45.41804	0.33948	 	2264037.63	 	2.84163E-6	 	35804.478	35.5772	 
1040.0	1.0	0.0	7.4933	7.39922	-5.31558	19.50032	27.33423	1.5654	0.63881	122.06639	126.58898	45.57138	0.33929	 	2483015.49	 	2.5812E-6	 	35626.881	35.5194	 
1035.0	1.0	0.0	7.4958	7.39675	-5.34708	19.48052	27.26407	1.56345	0.63961	122.45972	126.84838	45.72465	0.3391	 	2725101.108	 	2.34294E-6	 	35449.572	35.4618	 
1030.0	1.0	0.0	7.49829	7.3943	-5.37853	19.46074	27.19391	1.56149	0.64041	122.85271	127.10682	45.87783	0.33891	 	2992931.319	 	2.12512E-6	 	35272.55	35.4044	 
1025.0	1.0	0.0	7.50078	7.39184	-5.40992	19.44098	27.12376	1.55953	0.64122	123.24537	127.36432	46.03093	0.33872	 	3289466.071	 	1.92613E-6	 	35095.814	35.3472	 
1020.0	1.0	0.0	7.50326	7.3894	-5.44125	19.42124	27.0536	1.55755	0.64203	123.63769	127.62087	46.18395	0.33854	 	3618030.694	 	1.74447E-6	 	34919.365	35.2898	 
1015.0	1.0	0.0	7.50574	7.38695	-5.47252	19.40153	26.98344	1.55556	0.64286	124.02967	127.87648	46.33689	0.33835	 	3982364.066	 	1.57875E-6	 	34743.2	35.233	 
1010.0	1.0	0.0	7.50822	7.38451	-5.50373	19.38183	26.91328	1.55356	0.64368	124.42131	128.13114	46.48974	0.33816	 	4386673.51	 	1.42767E-6	 	34567.32	35.176	 
1005.0	1.0	0.0	7.5107	7.38208	-5.53489	19.36216	26.84312	1.55155	0.64452	124.81261	128.38487	46.6425	0.33797	 	4835697.441	 	1.29006E-6	 	34391.723	35.1194	 
1000.0	1.0	0.0	7.51317	7.37965	-5.56598	19.3425	26.77295	1.54953	0.64536	125.20357	128.63765	46.79519	0.33778	 	5334776.921	 	1.1648E-6	 	34216.409	35.0628	 
995.0	1.0	0.0	7.51564	7.37722	-5.59702	19.32287	26.70279	1.5475	0.6462	125.59419	128.88949	46.94778	0.33759	 	5889937.448	 	1.05086E-6	 	34041.378	35.0062	 
990.0	1.0	0.0	7.51811	7.3748	-5.628	19.30326	26.63262	1.54546	0.64706	125.98447	129.1404	47.10029	0.33741	 	6507982.535	 	9.47317E-7	 	33866.628	34.95	 
985.0	1.0	0.0	7.52057	7.37239	-5.65892	19.28367	26.56246	1.54341	0.64792	126.37439	129.39037	47.25272	0.33722	 	7196600.889	 	8.5328E-7	 	33692.16	34.8936	 
980.0	1.0	0.0	7.52304	7.36997	-5.68978	19.26411	26.49229	1.54135	0.64878	126.76397	129.63941	47.40506	0.33703	 	7964489.265	 	7.67948E-7	 	33517.971	34.8378	 
975.0	1.0	0.0	7.52549	7.36757	-5.72059	19.24456	26.42212	1.53928	0.64966	127.1532	129.88752	47.55731	0.33684	 	8821493.425	 	6.90576E-7	 	33344.062	34.7818	 
970.0	1.0	0.0	7.52795	7.36516	-5.75134	19.22504	26.35195	1.53719	0.65054	127.54208	130.13471	47.70947	0.33665	 	9778770.03	 	6.20477E-7	 	33170.432	34.726	 
965.0	1.0	0.0	7.5304	7.36277	-5.78203	19.20554	26.28178	1.5351	0.65142	127.93061	130.38096	47.86154	0.33647	 	1.084897275E7	 	5.57021E-7	 	32997.08	34.6704	 
960.0	1.0	0.0	7.53285	7.36037	-5.81266	19.18605	26.21161	1.53299	0.65232	128.31879	130.62629	48.01353	0.33628	 	1.204646643E7	 	4.99624E-7	 	32824.005	34.615	 
955.0	1.0	0.0	7.5353	7.35798	-5.84323	19.16659	26.14144	1.53087	0.65322	128.70661	130.8707	48.16542	0.33609	 	1.338757375E7	 	4.47751E-7	 	32651.207	34.5596	 
950.0	1.0	0.0	7.53774	7.3556	-5.87375	19.14716	26.07126	1.52875	0.65413	129.09408	131.11418	48.31722	0.3359	 	1.489085969E7	 	4.0091E-7	 	32478.685	34.5044	 
945.0	1.0	0.0	7.54018	7.35322	-5.90421	19.12774	26.00109	1.52661	0.65505	129.48119	131.35674	48.46894	0.33571	 	1.657745976E7	 	3.58649E-7	 	32306.438	34.4494	 
940.0	1.0	0.0	7.54262	7.35084	-5.93461	19.10834	25.93091	1.52445	0.65597	129.86794	131.59839	48.62056	0.33552	 	1.847145933E7	 	3.20553E-7	 	32134.465	34.3946	 
935.0	1.0	0.0	7.54505	7.34847	-5.96496	19.08897	25.86074	1.52229	0.6569	130.25433	131.83912	48.77209	0.33534	 	2.060033224E7	 	2.86242E-7	 	31962.766	34.3398	 
930.0	1.0	0.0	7.54748	7.3461	-5.99524	19.06962	25.79056	1.52012	0.65784	130.64036	132.07894	48.92353	0.33515	 	2.299544869E7	 	2.55367E-7	 	31791.341	34.285	 
925.0	1.0	0.0	7.54991	7.34374	-6.02547	19.05028	25.72038	1.51793	0.65879	131.02603	132.31784	49.07487	0.33496	 	2.569266384E7	 	2.27609E-7	 	31620.187	34.2308	 
920.0	1.0	0.0	7.55233	7.34138	-6.05565	19.03097	25.6502	1.51573	0.65975	131.41133	132.55583	49.22612	0.33477	 	2.873300074E7	 	2.02675E-7	 	31449.305	34.1764	 
915.0	1.0	0.0	7.55476	7.33903	-6.08577	19.01169	25.58002	1.51352	0.66071	131.79627	132.79291	49.37728	0.33458	 	3.216344356E7	 	1.803E-7	 	31278.693	34.1224	 
910.0	1.0	0.0	7.55717	7.33668	-6.11583	18.99242	25.50983	1.5113	0.66168	132.18084	133.02909	49.52834	0.3344	 	3.603785991E7	 	1.60239E-7	 	31108.352	34.0682	 
905.0	1.0	0.0	7.55959	7.33434	-6.14583	18.97317	25.43965	1.50906	0.66266	132.56505	133.26436	49.67931	0.33421	 	4.041807449E7	 	1.42269E-7	 	30938.28	34.0144	 
900.0	1.0	0.0	7.562	7.332	-6.17578	18.95395	25.36946	1.50682	0.66365	132.94888	133.49873	49.83018	0.33402	 	4.537512034E7	 	1.26189E-7	 	30768.476	33.9608	 
895.0	1.0	0.0	7.56441	7.32966	-6.20567	18.93475	25.29928	1.50456	0.66465	133.33235	133.73219	49.98095	0.33383	 	5.09906986E7	 	1.11814E-7	 	30598.94	33.9072	 
890.0	1.0	0.0	7.56682	7.32733	-6.2355	18.91556	25.22909	1.50228	0.66565	133.71544	133.96475	50.13163	0.33364	 	5.735888367E7	 	9.89741E-8	 	30429.671	33.8538	 
885.0	1.0	0.0	7.56922	7.325	-6.26528	18.8964	25.1589	1.5	0.66667	134.09817	134.19642	50.28221	0.33346	 	6.458811713E7	 	8.75183E-8	 	30260.668	33.8006	 
880.0	1.0	0.0	7.57162	7.32268	-6.295	18.87727	25.08871	1.4977	0.66769	134.48051	134.42719	50.43269	0.33327	 	7.280354233E7	 	7.73072E-8	 	30091.93	33.7476	 
875.0	1.0	0.0	7.57402	7.32036	-6.32466	18.85815	25.01852	1.49539	0.66872	134.86249	134.65706	50.58308	0.33308	 	8.214974085E7	 	6.82149E-8	 	29923.456	33.6948	 
870.0	1.0	0.0	7.57642	7.31805	-6.35427	18.83905	24.94832	1.49307	0.66976	135.24408	134.88604	50.73336	0.33289	 	9.279394416E7	 	6.01271E-8	 	29755.247	33.6418	 
865.0	1.0	0.0	7.57881	7.31574	-6.38383	18.81998	24.87813	1.49073	0.67081	135.6253	135.11413	50.88355	0.3327	 	1.049298073E8	 	5.29404E-8	 	29587.3	33.5894	 
860.0	1.0	0.0	7.5812	7.31343	-6.41332	18.80093	24.80793	1.48838	0.67187	136.00614	135.34133	51.03364	0.33251	 	1.187818489E8	 	4.65612E-8	 	29419.616	33.5368	 
855.0	1.0	0.0	7.58358	7.31113	-6.44276	18.78189	24.73774	1.48602	0.67294	136.3866	135.56764	51.18362	0.33233	 	1.346106811E8	 	4.09048E-8	 	29252.192	33.4848	 
850.0	1.0	0.0	7.58597	7.30884	-6.47215	18.76288	24.66754	1.48364	0.67402	136.76667	135.79306	51.33351	0.33214	 	1.527191784E8	 	3.58947E-8	 	29085.029	33.4326	 
845.0	1.0	0.0	7.58835	7.30654	-6.50148	18.7439	24.59734	1.48125	0.6751	137.14637	136.0176	51.48329	0.33195	 	1.73459763E8	 	3.14621E-8	 	28918.126	33.3806	 
840.0	1.0	0.0	7.59072	7.30426	-6.53075	18.72493	24.52714	1.47885	0.6762	137.52567	136.24126	51.63297	0.33176	 	1.972430198E8	 	2.75447E-8	 	28751.481	33.329	 
835.0	1.0	0.0	7.5931	7.30197	-6.55997	18.70598	24.45693	1.47643	0.67731	137.9046	136.46404	51.78255	0.33157	 	2.245478978E8	 	2.40866E-8	 	28585.094	33.2774	 
830.0	1.0	0.0	7.59547	7.29969	-6.58913	18.68706	24.38673	1.474	0.67842	138.28313	136.68593	51.93203	0.33139	 	2.559338053E8	 	2.10375E-8	 	28418.964	33.226	 
825.0	1.0	0.0	7.59783	7.29742	-6.61824	18.66816	24.31653	1.47156	0.67955	138.66128	136.90695	52.0814	0.3312	 	2.920549708E8	 	1.8352E-8	 	28253.091	33.1746	 
820.0	1.0	0.0	7.6002	7.29515	-6.6473	18.64927	24.24632	1.4691	0.68069	139.03904	137.12709	52.23067	0.33101	 	3.33677517E8	 	1.59897E-8	 	28087.472	33.1238	 
815.0	1.0	0.0	7.60256	7.29288	-6.67629	18.63041	24.17611	1.46663	0.68184	139.41641	137.34636	52.37984	0.33082	 	3.816997876E8	 	1.3914E-8	 	27922.108	33.0728	 
810.0	1.0	0.0	7.60492	7.29062	-6.70523	18.61157	24.1059	1.46414	0.68299	139.79339	137.56476	52.5289	0.33063	 	4.371765838E8	 	1.20926E-8	 	27756.997	33.0222	 
805.0	1.0	0.0	7.60727	7.28836	-6.73412	18.59276	24.03569	1.46164	0.68416	140.16997	137.78228	52.67785	0.33045	 	5.013480997E8	 	1.04961E-8	 	27592.138	32.9718	 
800.0	1.0	0.0	7.60963	7.28611	-6.76295	18.57396	23.96548	1.45912	0.68534	140.54616	137.99894	52.8267	0.33026	 	5.756745205E8	 	9.09851E-9	 	27427.531	32.9214	 
795.0	1.0	0.0	7.61198	7.28386	-6.79173	18.55519	23.89527	1.45659	0.68653	140.92196	138.21472	52.97544	0.33007	 	6.618774514E8	 	7.87665E-9	 	27263.174	32.8714	 
790.0	1.0	0.0	7.61432	7.28162	-6.82046	18.53643	23.82505	1.45405	0.68774	141.29735	138.42965	53.12407	0.32988	 	7.619895989E8	 	6.80977E-9	 	27099.067	32.8214	 
785.0	1.0	0.0	7.61667	7.27938	-6.84912	18.5177	23.75484	1.45149	0.68895	141.67235	138.6437	53.2726	0.32969	 	8.784144392E8	 	5.87942E-9	 	26935.208	32.7718	 
780.0	1.0	0.0	7.61901	7.27714	-6.87774	18.49899	23.68462	1.44891	0.69017	142.04695	138.8569	53.42102	0.3295	 	1.013997988E9	 	5.0692E-9	 	26771.597	32.7222	 
775.0	1.0	0.0	7.62134	7.27491	-6.9063	18.4803	23.6144	1.44632	0.69141	142.42116	139.06923	53.56933	0.32932	 	1.172115266E9	 	4.36455E-9	 	26608.232	32.673	 
770.0	1.0	0.0	7.62368	7.27268	-6.9348	18.46164	23.54418	1.44371	0.69266	142.79495	139.28071	53.71753	0.32913	 	1.356774617E9	 	3.75254E-9	 	26445.113	32.6238	 
765.0	1.0	0.0	7.62601	7.27046	-6.96325	18.44299	23.47396	1.44109	0.69392	143.16835	139.49133	53.86562	0.32894	 	1.572743789E9	 	3.22173E-9	 	26282.238	32.575	 
760.0	1.0	0.0	7.62834	7.26824	-6.99165	18.42437	23.40373	1.43845	0.69519	143.54134	139.70109	54.0136	0.32875	 	1.82570254E9	 	2.76198E-9	 	26119.606	32.5264	 
755.0	1.0	0.0	7.63066	7.26602	-7.01999	18.40576	23.33351	1.4358	0.69648	143.91393	139.91	54.16147	0.32856	 	2.122427662E9	 	2.36434E-9	 	25957.217	32.4778	 
750.0	1.0	0.0	7.63298	7.26381	-7.04828	18.38718	23.26328	1.43313	0.69777	144.28611	140.11805	54.30923	0.32838	 	2.471017674E9	 	2.02092E-9	 	25795.068	32.4298	 
745.0	1.0	0.0	7.6353	7.26161	-7.07651	18.36862	23.19306	1.43045	0.69908	144.65789	140.32525	54.45688	0.32819	 	2.881166166E9	 	1.72477E-9	 	25633.159	32.3818	 
740.0	1.0	0.0	7.63762	7.2594	-7.10469	18.35008	23.12283	1.42774	0.70041	145.02925	140.53161	54.60442	0.328	 	3.364494857E9	 	1.46974E-9	 	25471.489	32.334	 
735.0	1.0	0.0	7.63993	7.25721	-7.13282	18.33156	23.0526	1.42503	0.70174	145.40021	140.73712	54.75184	0.32781	 	3.934960151E9	 	1.25046E-9	 	25310.056	32.2866	 
730.0	1.0	0.0	7.64224	7.25501	-7.16089	18.31307	22.98236	1.42229	0.70309	145.77076	140.94178	54.89915	0.32762	 	4.609350251E9	 	1.06222E-9	 	25148.859	32.2394	 
725.0	1.0	0.0	7.64455	7.25282	-7.18891	18.29459	22.91213	1.41954	0.70445	146.14089	141.1456	55.04635	0.32743	 	5.40789409E9	 	9.00854E-10	 	24987.897	32.1924	 
720.0	1.0	0.0	7.64685	7.25064	-7.21688	18.27614	22.84189	1.41677	0.70583	146.51061	141.34857	55.19344	0.32725	 	6.355008576E9	 	7.62756E-10	 	24827.168	32.1458	 
715.0	1.0	0.0	7.64916	7.24846	-7.24479	18.25771	22.77166	1.41399	0.70722	146.87991	141.55071	55.3404	0.32706	 	7.480217228E9	 	6.44756E-10	 	24666.671	32.0994	 
710.0	1.0	0.0	7.65145	7.24628	-7.27265	18.2393	22.70142	1.41119	0.70862	147.2488	141.752	55.48726	0.32687	 	8.819281624E9	 	5.44093E-10	 	24506.405	32.0532	 
705.0	1.0	0.0	7.65375	7.24411	-7.30045	18.22091	22.63118	1.40837	0.71004	147.61728	141.95246	55.634	0.32668	 	1.04156E10	 	4.58361E-10	 	24346.368	32.0074	 
700.0	1.0	0.0	7.65604	7.24194	-7.3282	18.20254	22.56094	1.40553	0.71147	147.98533	142.15208	55.78062	0.32649	 	1.2321899999999998E10	 	3.85468E-10	 	24186.559	31.9618	 
695.0	1.0	0.0	7.65833	7.23977	-7.3559	18.1842	22.49069	1.40268	0.71292	148.35297	142.35087	55.92713	0.32631	 	1.4602499999999998E10	 	3.23595E-10	 	24026.976	31.9166	 
690.0	1.0	0.0	7.66062	7.23761	-7.38355	18.16587	22.42045	1.3998	0.71439	148.72019	142.54882	56.07352	0.32612	 	1.73358E10	 	2.71168E-10	 	23867.617	31.8718	 
685.0	1.0	0.0	7.6629	7.23546	-7.41114	18.14757	22.3502	1.39691	0.71586	149.08698	142.74594	56.21979	0.32593	 	2.06175E10	 	2.26821E-10	 	23708.481	31.8272	 
680.0	1.0	0.0	7.66518	7.2333	-7.43868	18.12929	22.27995	1.39401	0.71736	149.45336	142.94224	56.36595	0.32574	 	2.4565299999999996E10	 	1.89377E-10	 	23549.565	31.7832	 
675.0	1.0	0.0	7.66746	7.23116	-7.46617	18.11103	22.2097	1.39108	0.71887	149.81931	143.1377	56.51198	0.32555	 	2.9323099999999996E10	 	1.57817E-10	 	23390.869	31.7392	 
670.0	1.0	0.0	7.66973	7.22901	-7.49361	18.09279	22.13945	1.38813	0.72039	150.18483	143.33234	56.6579	0.32537	 	3.50682E10	 	1.31266E-10	 	23232.39	31.6958	 
665.0	1.0	0.0	7.672	7.22687	-7.52099	18.07457	22.0692	1.38517	0.72193	150.54993	143.52615	56.8037	0.32518	 	4.20191E10	 	1.08971E-10	 	23074.125	31.653	 
660.0	1.0	0.0	7.67427	7.22474	-7.54832	18.05637	21.99894	1.38219	0.72349	150.9146	143.71914	56.94938	0.32499	 	5.044549999999999E10	 	9.02851E-11	 	22916.073	31.6104	 
655.0	1.0	0.0	7.67653	7.22261	-7.5756	18.0382	21.92868	1.37919	0.72506	151.27885	143.91131	57.09494	0.3248	 	6.068109999999999E10	 	7.46537E-11	 	22758.232	31.5682	 
650.0	1.0	0.0	7.6788	7.22048	-7.60282	18.02004	21.85843	1.37617	0.72666	151.64266	144.10266	57.24038	0.32461	 	7.31399E10	 	6.16034E-11	 	22600.599	31.5266	 
645.0	1.0	0.0	7.68105	7.21835	-7.63	18.00191	21.78816	1.37313	0.72826	152.00605	144.29319	57.38569	0.32442	 	8.83364E10	 	5.07295E-11	 	22443.171	31.4856	 
640.0	1.0	0.0	7.68331	7.21623	-7.65712	17.9838	21.7179	1.37007	0.72989	152.369	144.48291	57.53089	0.32424	 	1.06911E11	 	4.16874E-11	 	22285.946	31.445	 
635.0	1.0	0.0	7.68556	7.21412	-7.68419	17.96571	21.64764	1.36699	0.73154	152.73152	144.6718	57.67596	0.32405	 	1.29664E11	 	3.4184E-11	 	22128.922	31.4048	 
630.0	1.0	0.0	7.68781	7.21201	-7.7112	17.94765	21.57737	1.36389	0.7332	153.09361	144.85989	57.82092	0.32386	 	1.57597E11	 	2.79705E-11	 	21972.094	31.3656	 
625.0	1.0	0.0	7.69006	7.2099	-7.73817	17.9296	21.50711	1.36077	0.73488	153.45526	145.04716	57.96574	0.32367	 	1.91963E11	 	2.28359E-11	 	21815.459	31.327	 
620.0	1.0	0.0	7.6923	7.2078	-7.76508	17.91157	21.43684	1.35763	0.73658	153.81648	145.23362	58.11045	0.32348	 	2.3434E11	 	1.86022E-11	 	21659.015	31.2888	 
615.0	1.0	0.0	7.69455	7.2057	-7.79194	17.89357	21.36657	1.35447	0.7383	154.17726	145.41928	58.25503	0.3233	 	2.86716E11	 	1.51189E-11	 	21502.757	31.2516	 
610.0	1.0	0.0	7.69678	7.2036	-7.81875	17.87559	21.29629	1.35129	0.74003	154.53761	145.60412	58.39949	0.32311	 	3.51602E11	 	1.22594E-11	 	21346.682	31.215	 
605.0	1.0	0.0	7.69902	7.20151	-7.84551	17.85763	21.22602	1.34809	0.74179	154.89751	145.78816	58.54382	0.32292	 	4.32175E11	 	9.91736E-12	 	21190.785	31.1794	 
600.0	1.0	0.0	7.70125	7.19943	-7.87222	17.83969	21.15574	1.34486	0.74357	155.25698	145.9714	58.68803	0.32273	 	5.32469E11	 	8.00352E-12	 	21035.061	31.1448	 
595.0	1.0	0.0	7.70348	7.19734	-7.89887	17.82177	21.08546	1.34162	0.74537	155.616	146.15383	58.83211	0.32254	 	6.57619E11	 	6.44328E-12	 	20879.505	31.1112	 
590.0	1.0	0.0	7.7057	7.19526	-7.92548	17.80388	21.01518	1.33835	0.74719	155.97458	146.33546	58.97606	0.32235	 	8.14174E11	 	5.17435E-12	 	20724.111	31.0788	 
585.0	1.0	0.0	7.70793	7.19319	-7.95203	17.786	20.9449	1.33507	0.74903	156.33272	146.51629	59.11989	0.32217	 	1.01051E12	 	4.14485E-12	 	20568.874	31.0474	 
580.0	1.0	0.0	7.71015	7.19112	-7.97853	17.76815	20.87461	1.33176	0.75089	156.69041	146.69633	59.26359	0.32198	 	1.25738E12	 	3.31166E-12	 	20413.786	31.0176	 
575.0	1.0	0.0	7.71236	7.18905	-8.00498	17.75032	20.80433	1.32842	0.75277	157.04766	146.87556	59.40717	0.32179	 	1.56859E12	 	2.63906E-12	 	20258.841	30.989	 
570.0	1.0	0.0	7.71458	7.18699	-8.03138	17.7325	20.73404	1.32507	0.75468	157.40447	147.05401	59.55061	0.3216	 	1.96198E12	 	2.09748E-12	 	20104.03	30.9622	 
565.0	1.0	0.0	7.71679	7.18493	-8.05773	17.71472	20.66375	1.32169	0.75661	157.76082	147.23166	59.69393	0.32141	 	2.46059E12	 	1.66253E-12	 	19949.343	30.9374	 
560.0	1.0	0.0	7.719	7.18287	-8.08403	17.69695	20.59346	1.31829	0.75856	158.11673	147.40851	59.83712	0.32123	 	3.09431E12	 	1.31415E-12	 	19794.772	30.9142	 
555.0	1.0	0.0	7.7212	7.18082	-8.11028	17.6792	20.52316	1.31487	0.76053	158.47219	147.58458	59.98018	0.32104	 	3.90205E12	 	1.03587E-12	 	19640.304	30.8936	 
550.0	1.0	0.0	7.7234	7.17877	-8.13647	17.66148	20.45287	1.31142	0.76253	158.82719	147.75986	60.12311	0.32085	 	4.93451E12	 	8.14182E-13	 	19485.926	30.8756	 
545.0	1.0	0.0	7.7256	7.17673	-8.16262	17.64377	20.38257	1.30795	0.76455	159.18175	147.93435	60.26591	0.32066	 	6.25811E12	 	6.38082E-13	 	19331.626	30.86	 
540.0	1.0	0.0	7.7278	7.17469	-8.18872	17.62609	20.31227	1.30446	0.7666	159.53585	148.10805	60.40857	0.32047	 	7.95998E12	 	4.98592E-13	 	19177.386	30.848	 
535.0	1.0	0.0	7.72999	7.17266	-8.21476	17.60843	20.24197	1.30094	0.76868	159.8895	148.28097	60.55111	0.32029	 	1.01549E13	 	3.88423E-13	 	19023.19	30.8392	 
530.0	1.0	0.0	7.73218	7.17063	-8.24076	17.59079	20.17166	1.2974	0.77077	160.2427	148.45311	60.69352	0.3201	 	1.29943E13	 	3.01669E-13	 	18868.148	31.0084	 
525.0	1.0	0.0	7.73437	7.1686	-8.2667	17.57317	20.10136	1.29383	0.7729	160.59544	148.62446	60.83579	0.31991	 	1.66792E13	 	2.33559E-13	 	18712.83	31.0636	 
520.0	1.0	0.0	7.73655	7.16657	-8.2926	17.55558	20.03105	1.29024	0.77505	160.94772	148.79504	60.97793	0.31972	 	2.14765E13	 	1.80251E-13	 	18557.931	30.9798	 
515.0	1.0	0.0	7.73873	7.16455	-8.31844	17.538	19.96074	1.28662	0.77723	161.29954	148.96484	61.11994	0.31953	 	2.77426E13	 	1.38659E-13	 	18403.443	30.8976	 
510.0	1.0	0.0	7.74091	7.16254	-8.34424	17.52045	19.89042	1.28298	0.77944	161.65091	149.13386	61.26182	0.31934	 	3.59542E13	 	1.06312E-13	 	18249.358	30.817	 
505.0	1.0	0.0	7.74309	7.16053	-8.36998	17.50292	19.82011	1.27931	0.78167	162.00182	149.30211	61.40356	0.31916	 	4.6752E13	 	8.12363E-14	 	18095.668	30.738	 
500.0	1.0	0.0	7.74526	7.15852	-8.39568	17.48541	19.74979	1.27561	0.78394	162.35227	149.46958	61.54517	0.31897	 	6.09995E13	 	6.1862E-14	 	17942.365	30.6606	 
495.0	1.0	0.0	7.74743	7.15651	-8.42132	17.46792	19.67947	1.27189	0.78623	162.70225	149.63628	61.68664	0.31878	 	7.98651E13	 	4.69435E-14	 	17789.443	30.5844	 
490.0	1.0	0.0	7.74959	7.15451	-8.44692	17.45045	19.60915	1.26814	0.78855	163.05177	149.80221	61.82798	0.31859	 	1.04935E14	 	3.54956E-14	 	17636.895	30.5096	 
485.0	1.0	0.0	7.75176	7.15252	-8.47247	17.433	19.53883	1.26437	0.79091	163.40083	149.96737	61.96918	0.3184	 	1.3837299999999998E14	 	2.67418E-14	 	17484.715	30.436	 
480.0	1.0	0.0	7.75392	7.15053	-8.49797	17.41558	19.4685	1.26057	0.79329	163.74943	150.13176	62.11025	0.31822	 	1.83137E14	 	2.00721E-14	 	17332.896	30.3638	 
475.0	1.0	0.0	7.75607	7.14854	-8.52341	17.39817	19.39817	1.25674	0.79571	164.09756	150.29539	62.25118	0.31803	 	2.43292E14	 	1.50088E-14	 	17181.434	30.2924	 
470.0	1.0	0.0	7.75823	7.14655	-8.54881	17.38079	19.32784	1.25288	0.79816	164.44522	150.45825	62.39197	0.31784	 	3.24445E14	 	1.11795E-14	 	17030.324	30.222	 
465.0	1.0	0.0	7.76038	7.14457	-8.57416	17.36343	19.25751	1.249	0.80064	164.79242	150.62035	62.53263	0.31765	 	4.34358E14	 	8.29438E-15	 	16879.56	30.1528	 
460.0	1.0	0.0	7.76253	7.14259	-8.59946	17.34609	19.18717	1.24509	0.80316	165.13915	150.78169	62.67315	0.31746	 	5.83825E14	 	6.1291E-15	 	16729.137	30.0846	 
455.0	1.0	0.0	7.76467	7.14062	-8.62472	17.32877	19.11683	1.24115	0.80571	165.48541	150.94227	62.81353	0.31728	 	7.87921E14	 	4.5105E-15	 	16579.052	30.017	 
450.0	1.0	0.0	7.76681	7.13865	-8.64992	17.31148	19.04649	1.23717	0.80829	165.83119	151.10208	62.95377	0.31709	 	1.06778E15	 	3.30546E-15	 	16429.3	29.9504	 
445.0	1.0	0.0	7.76895	7.13669	-8.67507	17.2942	18.97615	1.23318	0.81091	166.17651	151.26115	63.09388	0.3169	 	1.45319E15	 	2.41201E-15	 	16279.877	29.8846	 
440.0	1.0	0.0	7.77109	7.13472	-8.70018	17.27695	18.9058	1.22915	0.81357	166.52136	151.41945	63.23384	0.31671	 	1.98627E15	 	1.75238E-15	 	16130.78	29.8194	 
435.0	1.0	0.0	7.77322	7.13277	-8.72524	17.25971	18.83546	1.22509	0.81627	166.86573	151.577	63.37367	0.31652	 	2.72692E15	 	1.26748E-15	 	15982.005	29.755	 
430.0	1.0	0.0	7.77535	7.13081	-8.75024	17.2425	18.76511	1.221	0.819	167.20963	151.7338	63.51335	0.31633	 	3.76065E15	 	9.12581E-16	 	15833.549	29.6912	 
425.0	1.0	0.0	7.77748	7.12886	-8.7752	17.22531	18.69476	1.21688	0.82178	167.55306	151.88985	63.6529	0.31615	 	5.2102E15	 	6.54005E-16	 	15685.409	29.628	 
420.0	1.0	0.0	7.77961	7.12691	-8.80012	17.20815	18.6244	1.21273	0.82459	167.89601	152.04515	63.7923	0.31596	 	7.25251E15	 	4.66472E-16	 	15537.581	29.5656	 
415.0	1.0	0.0	7.78173	7.12497	-8.82498	17.191	18.55404	1.20854	0.82744	168.23848	152.1997	63.93157	0.31577	 	1.0144E16	 	3.31101E-16	 	15390.063	29.5036	 
410.0	1.0	0.0	7.78385	7.12303	-8.84979	17.17387	18.48368	1.20433	0.83034	168.58048	152.3535	64.07069	0.31558	 	1.42582E16	 	2.3385E-16	 	15242.852	29.4422	 
405.0	1.0	0.0	7.78596	7.1211	-8.87456	17.15677	18.41332	1.20008	0.83328	168.922	152.50656	64.20967	0.31539	 	2.01419E16	 	1.64328E-16	 	15095.947	29.381	 
400.0	1.0	0.0	7.78807	7.11916	-8.89928	17.13969	18.34295	1.1958	0.83626	169.26304	152.65888	64.34851	0.31521	 	2.86E16	 	1.14877E-16	 	14949.343	29.3208	 
395.0	1.0	0.0	7.79018	7.11724	-8.92395	17.12263	18.27259	1.19149	0.83928	169.6036	152.81045	64.4872	0.31502	 	4.08235E16	 	7.98822E-17	 	14803.04	29.2606	 
390.0	1.0	0.0	7.79229	7.11531	-8.94857	17.10559	18.20222	1.18715	0.84235	169.94368	152.96129	64.62576	0.31483	 	5.85849E16	 	5.52475E-17	 	14657.034	29.2012	 
385.0	1.0	0.0	7.79439	7.11339	-8.97315	17.08857	18.13184	1.18277	0.84547	170.28328	153.11138	64.76417	0.31464	 	8.45366E16	 	3.79985E-17	 	14511.325	29.1418	 
380.0	1.0	0.0	7.79649	7.11148	-8.99768	17.07157	18.06147	1.17836	0.84864	170.6224	153.26074	64.90243	0.31445	 	1.22671E17	 	2.59871E-17	 	14365.91	29.083	 
375.0	1.0	0.0	7.79859	7.10956	-9.02216	17.0546	17.99109	1.17391	0.85185	170.96103	153.40936	65.04055	0.31426	 	1.79034E17	 	1.76696E-17	 	14220.787	29.0246	 
370.0	1.0	0.0	7.80069	7.10765	-9.04659	17.03764	17.92071	1.16943	0.85512	171.29918	153.55725	65.17853	0.31408	 	2.62834E17	 	1.19431E-17	 	14075.954	28.9666	 
365.0	1.0	0.0	7.80278	7.10575	-9.07098	17.02071	17.85032	1.16492	0.85843	171.63685	153.7044	65.31636	0.31389	 	3.88187E17	 	8.02359E-18	 	13931.411	28.9086	 
360.0	1.0	0.0	7.80487	7.10385	-9.09531	17.0038	17.77994	1.16036	0.8618	171.97403	153.85082	65.45405	0.3137	 	5.76867E17	 	5.35695E-18	 	13787.155	28.8512	 
355.0	1.0	0.0	7.80695	7.10195	-9.1196	16.98691	17.70955	1.15578	0.86522	172.31072	153.99652	65.59159	0.31351	 	8.62679E17	 	3.55387E-18	 	13643.185	28.794	 
350.0	1.0	0.0	7.80904	7.10005	-9.14385	16.97004	17.63916	1.15115	0.8687	172.64693	154.14148	65.72899	0.31332	 	1.29846E18	 	2.34235E-18	 	13499.5	28.737	 
345.0	1.0	0.0	7.81112	7.09816	-9.16804	16.9532	17.56876	1.14649	0.87223	172.98266	154.28572	65.86624	0.31314	 	1.96734E18	 	1.53356E-18	 	13356.098	28.6804	 
340.0	1.0	0.0	7.81319	7.09627	-9.19219	16.93637	17.49836	1.14179	0.87582	173.31789	154.42924	66.00334	0.31295	 	3.00106E18	 	9.97193E-19	 	13212.979	28.6238	 
335.0	1.0	0.0	7.81527	7.09439	-9.2163	16.91957	17.42796	1.13706	0.87946	173.65264	154.57203	66.1403	0.31276	 	4.60983E18	 	6.43891E-19	 	13070.141	28.5676	 
330.0	1.0	0.0	7.81734	7.09251	-9.24035	16.90278	17.35756	1.13228	0.88317	173.98689	154.7141	66.27711	0.31257	 	7.13159E18	 	4.12787E-19	 	12927.584	28.5114	 
325.0	1.0	0.0	7.81941	7.09063	-9.26436	16.88602	17.28715	1.12747	0.88694	174.32066	154.85545	66.41377	0.31238	 	1.11136E19	 	2.62688E-19	 	12785.305	28.4558	 
320.0	1.0	0.0	7.82147	7.08876	-9.28832	16.86928	17.21674	1.12262	0.89078	174.65394	154.99608	66.55028	0.3122	 	1.74492E19	 	1.65911E-19	 	12643.305	28.4	 
315.0	1.0	0.0	7.82354	7.08689	-9.31224	16.85256	17.14633	1.11772	0.89468	174.98672	155.136	66.68665	0.31201	 	2.76073E19	 	1.0398E-19	 	12501.583	28.3444	 
310.0	1.0	0.0	7.8256	7.08503	-9.33611	16.83587	17.07591	1.11279	0.89864	175.31902	155.27519	66.82287	0.31182	 	4.40242E19	 	6.4651E-20	 	12360.137	28.2892	 
305.0	1.0	0.0	7.82765	7.08317	-9.35993	16.81919	17.00549	1.10782	0.90267	175.65082	155.41368	66.95894	0.31163	 	7.07724E19	 	3.98716E-20	 	12218.968	28.2338	 
300.0	1.0	0.0	7.82971	7.08131	-9.38371	16.80254	16.93507	1.10281	0.90678	175.98213	155.55146	67.09486	0.31144	 	1.1471899999999998E20	 	2.43849E-20	 	12078.074	28.1788	 
295.0	1.0	0.0	7.83176	7.07945	-9.40744	16.78591	16.86465	1.09775	0.91095	176.31295	155.68852	67.23063	0.31125	 	1.87541E20	 	1.47861E-20	 	11937.456	28.1236	 
290.0	1.0	0.0	7.83381	7.0776	-9.43112	16.76929	16.79422	1.09265	0.9152	176.64327	155.82488	67.36625	0.31107	 	3.09278E20	 	8.88714E-21	 	11797.112	28.0688	 
285.0	1.0	0.0	7.83585	7.07576	-9.45476	16.75271	16.72379	1.08751	0.91953	176.9731	155.96053	67.50173	0.31088	 	5.1462899999999997E20	 	5.29351E-21	 	11657.043	28.0138	 
280.0	1.0	0.0	7.83789	7.07391	-9.47836	16.73614	16.65335	1.08233	0.92393	177.30243	156.09547	67.63705	0.31069	 	8.642459999999999E20	 	3.12386E-21	 	11517.247	27.9592	 
275.0	1.0	0.0	7.83993	7.07207	-9.5019	16.71959	16.58291	1.0771	0.92842	177.63127	156.22971	67.77222	0.3105	 	1.46517E21	 	1.82599E-21	 	11377.725	27.9044	 
270.0	1.0	0.0	7.84197	7.07024	-9.5254	16.70306	16.51247	1.07183	0.93298	177.95962	156.36325	67.90725	0.31031	 	2.50819E21	 	1.05693E-21	 	11238.477	27.8496	 
265.0	1.0	0.0	7.844	7.0684	-9.54886	16.68656	16.44203	1.06651	0.93764	178.28747	156.49609	68.04212	0.31013	 	4.33681E21	 	6.05646E-22	 	11099.502	27.795	 
260.0	1.0	0.0	7.84603	7.06657	-9.57227	16.67008	16.37158	1.06115	0.94237	178.61482	156.62824	68.17684	0.30994	 	7.57603E21	 	3.43474E-22	 	10960.801	27.7402	 
255.0	1.0	0.0	7.84806	7.06475	-9.59563	16.65362	16.30113	1.05574	0.9472	178.94168	156.75968	68.31142	0.30975	 	1.3375199999999999E22	 	1.92727E-22	 	10822.373	27.6856	 
250.0	1.0	0.0	7.85009	7.06293	-9.61895	16.63718	16.23067	1.05029	0.95212	179.26805	156.89044	68.44584	0.30956	 	2.38714E22	 	1.06963E-22	 	10684.218	27.631	 
245.0	1.0	0.0	7.85211	7.06111	-9.64222	16.62076	16.16022	1.04478	0.95714	179.59391	157.0205	68.58011	0.30937	 	4.30834E22	 	5.86992E-23	 	10546.337	27.5762	 
240.0	1.0	0.0	7.85413	7.05929	-9.66545	16.60436	16.08976	1.03923	0.96225	179.91928	157.14987	68.71423	0.30919	 	7.86575E22	 	3.18413E-23	 	10408.73	27.5214	 
235.0	1.0	0.0	7.85614	7.05748	-9.68863	16.58799	16.01929	1.03363	0.96746	180.24416	157.27856	68.8482	0.309	 	1.4531599999999998E23	 	1.70673E-23	 	10271.398	27.4664	 
230.0	1.0	0.0	7.85816	7.05567	-9.71177	16.57163	15.94882	1.02798	0.97278	180.56853	157.40655	68.98202	0.30881	 	2.7176199999999998E23	 	9.03642E-24	 	10134.34	27.4116	 
225.0	1.0	0.0	7.86017	7.05387	-9.73487	16.5553	15.87835	1.02229	0.9782	180.89241	157.53387	69.11568	0.30862	 	5.14658E23	 	4.7242E-24	 	9997.557	27.3566	 
220.0	1.0	0.0	7.86218	7.05207	-9.75791	16.53899	15.80787	1.01654	0.98373	181.2158	157.6605	69.2492	0.30843	 	9.87355E23	 	2.43777E-24	 	9861.05	27.3014	 
215.0	1.0	0.0	7.86418	7.05027	-9.78092	16.5227	15.7374	1.01074	0.98938	181.53869	157.78645	69.38256	0.30824	 	1.91966E24	 	1.24113E-24	 	9724.819	27.2462	 
210.0	1.0	0.0	7.86618	7.04847	-9.80387	16.50643	15.66691	1.00488	0.99514	181.86108	157.91173	69.51578	0.30806	 	3.78401E24	 	6.23185E-25	 	9588.866	27.1906	 
205.0	1.0	0.0	7.86818	7.04668	-9.82679	16.49018	15.59643	0.99898	1.00102	182.18298	158.03632	69.64884	0.30787	 	7.5656E24	 	3.08466E-25	 	9453.191	27.135	 
200.0	1.0	0.0	7.87018	7.0449	-9.84966	16.47396	15.52594	0.99302	1.00703	182.50438	158.16025	69.78175	0.30768	 	1.53495E25	 	1.5045E-25	 	9317.794	27.0794	 
195.0	1.0	0.0	7.87217	7.04311	-9.87248	16.45775	15.45544	0.98701	1.01316	182.82528	158.28351	69.91451	0.30749	 	3.16161E25	 	7.22709E-26	 	9182.678	27.0232	 
190.0	1.0	0.0	7.87416	7.04133	-9.89526	16.44157	15.38494	0.98094	1.01943	183.1457	158.40609	70.04712	0.3073	 	6.61452E25	 	3.41751E-26	 	9047.843	26.967	 
185.0	1.0	0.0	7.87615	7.03956	-9.918	16.42541	15.31444	0.97482	1.02583	183.46561	158.52801	70.17957	0.30712	 	1.4063300000000002E26	 	1.59004E-26	 	8913.291	26.9104	 
180.0	1.0	0.0	7.87813	7.03778	-9.94069	16.40927	15.24394	0.96864	1.03237	183.78504	158.64927	70.31188	0.30693	 	3.0402E26	 	7.27489E-27	 	8779.022	26.8538	 
175.0	1.0	0.0	7.88011	7.03601	-9.96334	16.39315	15.17343	0.9624	1.03906	184.10397	158.76987	70.44404	0.30674	 	6.686360000000001E26	 	3.2713E-27	 	8645.039	26.7966	 
170.0	1.0	0.0	7.88209	7.03425	-9.98594	16.37705	15.10291	0.95611	1.0459	184.42241	158.88981	70.57605	0.30655	 	1.49693E27	 	1.44489E-27	 	8511.343	26.7392	 
165.0	1.0	0.0	7.88407	7.03248	-10.0085	16.36098	15.0324	0.94976	1.0529	184.74036	159.00909	70.7079	0.30636	 	3.4135099999999997E27	 	6.26481E-28	 	8377.936	26.6814	 
160.0	1.0	0.0	7.88604	7.03072	-10.03102	16.34492	14.96187	0.94334	1.06006	185.05782	159.12772	70.83961	0.30617	 	7.93354E27	 	2.66476E-28	 	8244.819	26.6234	 
155.0	1.0	0.0	7.88801	7.02897	-10.05349	16.32889	14.89135	0.93687	1.06738	185.37479	159.2457	70.97117	0.30599	 	1.88056E28	 	1.11121E-28	 	8111.996	26.5646	 
150.0	1.0	0.0	7.88998	7.02722	-10.07592	16.31288	14.82082	0.93034	1.07488	185.69127	159.36303	71.10258	0.3058	 	4.5495100000000005E28	 	4.53959E-29	 	7979.467	26.5058	 
145.0	1.0	0.0	7.89194	7.02547	-10.0983	16.29689	14.75028	0.92374	1.08256	186.00727	159.47972	71.23384	0.30561	 	1.1241300000000001E29	 	1.81552E-29	 	7847.236	26.4462	 
140.0	1.0	0.0	7.8939	7.02372	-10.12064	16.28092	14.67975	0.91708	1.09042	186.32278	159.59576	71.36495	0.30542	 	2.8391E29	 	7.10255E-30	 	7715.305	26.3862	 
135.0	1.0	0.0	7.89586	7.02198	-10.14294	16.26497	14.6092	0.91036	1.09847	186.63781	159.71117	71.49592	0.30523	 	7.335E29	 	2.71585E-30	 	7583.677	26.3256	 
130.0	1.0	0.0	7.89782	7.02024	-10.16519	16.24905	14.53866	0.90357	1.10673	186.95235	159.82595	71.62674	0.30505	 	1.9402E30	 	1.01416E-30	 	7452.355	26.2644	 
125.0	1.0	0.0	7.89977	7.0185	-10.1874	16.23314	14.46811	0.89671	1.11519	187.26642	159.94009	71.75741	0.30486	 	5.258979999999999E30	 	3.69515E-31	 	7321.341	26.2028	 
120.0	1.0	0.0	7.90172	7.01677	-10.20957	16.21726	14.39755	0.88979	1.12386	187.58001	160.05361	71.88794	0.30467	 	1.46208E31	 	1.31242E-31	 	7190.64	26.1402	 
115.0	1.0	0.0	7.90367	7.01504	-10.2317	16.2014	14.32699	0.8828	1.13276	187.89313	160.1665	72.01832	0.30448	 	4.1733299999999995E31	 	4.53945E-32	 	7060.255	26.077	 
110.0	1.0	0.0	7.90562	7.01332	-10.25378	16.18556	14.25643	0.87574	1.14189	188.20577	160.27878	72.14856	0.30429	 	1.2242899999999999E32	 	1.52747E-32	 	6930.19	26.013	 
105.0	1.0	0.0	7.90756	7.01159	-10.27582	16.16974	14.18586	0.86861	1.15126	188.51794	160.39044	72.27866	0.30411	 	3.69525E32	 	4.99468E-33	 	6800.448	25.9484	 
100.0	1.0	0.0	7.9095	7.00987	-10.29781	16.15394	14.11528	0.86141	1.16088	188.82965	160.50148	72.40861	0.30392	 	1.14884E33	 	1.58529E-33	 	6671.035	25.8826	 
95.0	1.0	0.0	7.91143	7.00816	-10.31977	16.13817	14.04471	0.85414	1.17077	189.14089	160.61192	72.53843	0.30373	 	3.6834800000000003E33	 	4.87813E-34	 	6541.955	25.816	 
90.0	1.0	0.0	7.91337	7.00645	-10.34168	16.12241	13.97412	0.8468	1.18092	189.45167	160.72176	72.6681	0.30354	 	1.2195200000000001E34	 	1.45339E-34	 	6413.213	25.7484	 
85.0	1.0	0.0	7.9153	7.00474	-10.36354	16.10668	13.90354	0.83938	1.19136	189.76199	160.831	72.79764	0.30335	 	4.1748300000000005E34	 	4.18709E-35	 	6284.814	25.6798	 
80.0	1.0	0.0	7.91722	7.00303	-10.38537	16.09097	13.83294	0.83188	1.20209	190.07186	160.93965	72.92704	0.30316	 	1.4798599999999998E35	 	1.16473E-35	 	6156.764	25.61	 
75.0	1.0	0.0	7.91915	7.00133	-10.40715	16.07528	13.76235	0.82431	1.21313	190.38129	161.04771	73.05631	0.30298	 	5.43989E35	 	3.12366E-36	 	6029.07	25.5388	 
70.0	1.0	0.0	7.92107	6.99963	-10.42889	16.05961	13.69174	0.81666	1.2245	190.69026	161.15519	73.18545	0.30279	 	2.0769899999999997E36	 	8.06374E-37	 	5901.738	25.4664	 
65.0	1.0	0.0	7.92299	6.99794	-10.45059	16.04396	13.62114	0.80894	1.23619	190.9988	161.2621	73.31445	0.3026	 	8.250589999999999E36	 	2.00037E-37	 	5774.774	25.3928	 
60.0	1.0	0.0	7.92491	6.99624	-10.47225	16.02833	13.55053	0.80113	1.24824	191.30691	161.36843	73.44332	0.30241	 	3.4159999999999996E37	 	4.76003E-38	 	5648.186	25.3176	 
55.0	1.0	0.0	7.92682	6.99455	-10.49386	16.01273	13.47991	0.79324	1.26066	191.61459	161.4742	73.57207	0.30222	 	1.47691E38	 	1.08444E-38	 	5521.983	25.2406	 
50.0	1.0	0.0	7.92873	6.99287	-10.51543	15.99715	13.40929	0.78526	1.27346	191.92184	161.57942	73.70069	0.30204	 	6.68136E38	 	2.36062E-39	 	5396.172	25.1622	 
45.0	1.0	0.0	7.93064	6.99119	-10.53696	15.98159	13.33866	0.77721	1.28666	192.22868	161.68408	73.82919	0.30185	 	3.16943E39	 	4.89935E-40	 	5270.764	25.0816	 
40.0	1.0	0.0	7.93254	6.98951	-10.55845	15.96605	13.26803	0.76907	1.30028	192.53511	161.78821	73.95757	0.30166	 	1.58011E40	 	9.6728E-41	 	5145.767	24.9994	 
35.0	1.0	0.0	7.93445	6.98783	-10.5799	15.95053	13.19739	0.76084	1.31434	192.84114	161.8918	74.08583	0.30147	 	8.29918E40	 	1.81223E-41	 	5021.192	24.915	 
30.0	1.0	0.0	7.93635	6.98616	-10.6013	15.93502	13.12675	0.75252	1.32887	193.14678	161.99486	74.21398	0.30128	 	4.6041100000000005E41	 	3.21365E-42	 	4897.05	24.8284	 
25.0	1.0	0.0	7.93824	6.98449	-10.62267	 	13.0561	0.74411	1.34388	193.45204	162.09741	74.34202	0.30109	 	2.7052899999999998E42	 	5.37908E-43	 	4773.354	 	 
