T (C)	Fraction solid (wt)-TOTAL	Fraction liquid (wt)-LIQUID	Density (g/(cm)^3)-TOTAL	Molar volume (cm^3)-TOTAL	Volume change (%)-  	Average expansion coeff. (10e-6 1/K)-  	Thermal conductivity (W/(m*K))-TOTAL	Electrical resistivity (10e-6 Ohm*m)-TOTAL	Electrical conductivity (10e6 1/(Ohm*m))-TOTAL	Young's modulus (GPa)-TOTAL	Bulk modulus (GPa)-TOTAL	Shear modulus(GPa)-TOTAL	Poisson's ratio-TOTAL	Liquid viscosity (mPa s)-  	Total viscosity (mPa s)-  	Liquid diffusivity (10e-9 (m^2)/s)-  	Total diffusivity (10e-9 (m^2)/s)-  	Surface Tension (mN/m)-  	Enthalpy (J/mole)-TOTAL	Specific heat (J/(mole K))-TOTAL	Latent heat (J/mole)-TOTAL
1500.0	0.0	1.0	6.91003	7.98568	0.0	27.47724	30.97798	1.86513	0.53615	0.0	106.29539	0.0	0.49974	6.6503	6.6503	1.30134	1.30134	1665.26217	64377.807	 	0.0
1495.0	0.0	1.0	6.91396	7.98114	-0.0568279	27.42617	30.90509	1.86426	0.53641	0.0	106.48867	0.0	0.49974	6.70893	6.70893	1.28633	1.28633	1666.69566	64156.856	44.1902	0.0
1490.0	0.0	1.0	6.91788	7.97662	-0.1135	27.37515	30.83219	1.86339	0.53666	0.0	106.68195	0.0	0.49974	6.76842	6.76842	1.27142	1.27142	1668.12494	63936.357	44.0998	0.0
1485.0	0.0	1.0	6.9218	7.9721	-0.17002	27.32417	30.75929	1.8625	0.53691	0.0	106.87523	0.0	0.49974	6.82878	6.82878	1.25661	1.25661	1669.54996	63716.306	44.0102	0.0
1480.0	0.0	1.0	6.92571	7.9676	-0.22638	27.27325	30.68639	1.86162	0.53717	0.0	107.06851	0.0	0.49974	6.89002	6.89002	1.2419	1.2419	1670.97069	63496.702	43.9208	0.0
1475.0	0.0	1.0	6.92961	7.96311	-0.28259	27.22237	30.6135	1.86073	0.53742	0.0	107.26179	0.0	0.49974	6.95217	6.95217	1.22728	1.22728	1672.38709	63277.542	43.832	0.0
1470.0	0.0	1.0	6.93351	7.95864	-0.33864	27.17155	30.5406	1.85984	0.53768	0.0	107.45507	0.0	0.49974	7.01525	7.01525	1.21277	1.21277	1673.79911	63058.823	43.7438	0.0
1465.0	0.0	1.0	6.9374	7.95417	-0.39454	27.12077	30.4677	1.85894	0.53794	0.0	107.64835	0.0	0.49974	7.07926	7.07926	1.19836	1.19836	1675.20673	62840.543	43.656	0.0
1460.0	0.0	1.0	6.94128	7.94972	-0.45028	27.07004	30.39481	1.85804	0.5382	0.0	107.84163	0.0	0.49974	7.14423	7.14423	1.18404	1.18404	1676.6099	62622.699	43.5688	0.0
1455.0	0.0	1.0	6.94516	7.94528	-0.50586	27.01936	30.32191	1.85713	0.53846	0.0	108.03491	0.0	0.49974	7.21018	7.21018	1.16983	1.16983	1678.00859	62405.289	43.482	0.0
1450.0	0.0	1.0	6.94903	7.94086	-0.5613	26.96874	30.24901	1.85622	0.53873	0.0	108.22819	0.0	0.49974	7.27712	7.27712	1.15571	1.15571	1679.40274	62188.341	43.3896	0.0
1445.0	0.0	1.0	6.9529	7.93644	-0.61657	26.91817	30.17612	1.85531	0.53899	0.0	108.42147	0.0	0.49974	7.34509	7.34509	1.1417	1.1417	1680.79232	61971.904	43.2874	0.0
1440.0	0.0	1.0	6.95676	7.93204	-0.67169	26.86765	30.10322	1.85439	0.53926	0.0	108.61475	0.0	0.49974	7.41409	7.41409	1.12778	1.12778	1682.17729	61755.971	43.1866	0.0
1435.0	0.0	1.0	6.96061	7.92765	-0.72666	26.81718	30.03032	1.85346	0.53953	0.0	108.80803	0.0	0.49974	7.48414	7.48414	1.11396	1.11396	1683.55761	61540.537	43.0868	0.0
1430.0	0.0	1.0	6.96445	7.92327	-0.78147	26.76677	29.95742	1.85253	0.5398	0.0	109.00131	0.0	0.49974	7.55528	7.55528	1.10024	1.10024	1684.93323	61325.6	42.9874	0.0
1425.0	0.0	1.0	6.96829	7.91891	-0.83613	26.71641	29.88453	1.8516	0.54007	0.0	109.19459	0.0	0.49974	7.62752	7.62752	1.08662	1.08662	1686.30411	61111.157	42.8886	0.0
1420.0	0.0	1.0	6.97212	7.91456	-0.89063	26.6661	29.81163	1.85066	0.54035	0.0	109.38787	0.0	0.49974	7.70088	7.70088	1.0731	1.0731	1687.67021	60897.205	42.7904	0.0
1415.0	0.0	1.0	6.97595	7.91022	-0.94497	26.61586	29.73873	1.84972	0.54062	0.0	109.58115	0.0	0.49974	7.77538	7.77538	1.05968	1.05968	1689.03149	60683.741	42.6928	0.0
1410.0	0.0	1.0	6.97977	7.90589	-0.99916	26.56566	29.66584	1.84877	0.5409	0.0	109.77444	0.0	0.49974	7.85106	7.85106	1.04636	1.04636	1690.3879	60470.762	42.5958	0.0
1405.0	0.0	1.0	6.98358	7.90157	-1.0532	26.51553	29.59294	1.84782	0.54118	0.0	109.96772	0.0	0.49974	7.92793	7.92793	1.03314	1.03314	1691.7394	60258.263	42.4998	0.0
1402.38	0.0	1.0	6.98557	7.89932	-1.08144	26.48929	29.55475	1.84732	0.54132	0.0	110.06896	0.0	0.49974	7.96868	7.96868	1.02625	1.02625	1692.44538	60147.138	42.4277	0.0030
1400.0	0.04478	0.95522	6.99433	7.8894	-1.20569	26.19732	29.74743	1.83275	0.54563	2.77085E-4	109.03088	9.27874E-5	0.49312	7.98728	8.49256	1.0224	0.96157	1692.03501	59657.688	205.579	388.553
1395.0	0.13101	0.86899	7.01155	7.87013	-1.44692	25.63462	30.1207	1.80463	0.55413	0.0205811	107.06146	0.00695166	0.4803	8.02667	11.08786	1.01435	0.7343	1691.19595	58699.062	191.725	1135.633
1390.0	0.20636	0.79364	7.02703	7.85272	-1.66503	25.13113	30.44721	1.77993	0.56182	0.12835	105.38268	0.043686	0.46902	8.0665	20.64533	1.00631	0.39318	1690.40047	57836.548	172.503	1787.074
1385.0	0.2725	0.7275	7.04098	7.8372	-1.85938	24.68928	30.73471	1.75797	0.56884	0.39504	103.95702	0.13537	0.45905	8.10716	43.76973	0.99826	0.1849	1689.64103	57055.448	156.22	2357.569
1380.0	0.33083	0.66917	7.05363	7.82313	-2.03556	24.29427	30.98828	1.73833	0.57526	0.86803	102.74545	0.29928	0.45021	8.14862	86.02289	0.99018	0.0937961	1688.9197	56343.634	142.363	2859.248
1375.0	0.38247	0.61753	7.06514	7.81038	-2.1952	23.94215	31.21256	1.72062	0.58119	1.56787	101.71907	0.54352	0.44232	8.19091	151.43303	0.98209	0.0531206	1688.23351	55691.05	130.517	3302.159
1370.0	0.4284	0.5716	7.07572	7.79869	-2.34157	23.62429	31.41094	1.70457	0.58666	2.4936	100.85273	0.86869	0.43527	8.2337	242.60448	0.97402	0.0330571	1687.58289	55089.326	120.345	3694.671
1365.0	0.4694	0.5306	7.08545	7.78797	-2.4758	23.33794	31.5864	1.68994	0.59174	3.63012	100.12489	1.27022	0.42894	8.27737	361.10221	0.96594	0.0221417	1686.96512	54531.468	111.572	4043.778
1360.0	0.50614	0.49386	7.09445	7.77813	-2.59906	23.08017	31.74156	1.67655	0.59646	4.9541	99.51859	1.74044	0.42323	8.32192	507.76587	0.95783	0.0156982	1686.37716	54011.598	103.974	4355.352
1355.0	0.53917	0.46083	7.10279	7.76904	-2.71289	22.84697	31.87857	1.66423	0.60088	6.43893	99.01774	2.27031	0.41807	8.36739	683.04166	0.94971	0.0116341	1685.81788	53524.767	97.3662	4634.343
1350.0	0.56897	0.43103	7.1106	7.76051	-2.81971	22.63176	31.99893	1.65288	0.60501	8.05654	98.60895	2.85009	0.41338	8.41339	887.03101	0.94162	0.00893113	1685.28979	53066.78	91.5974	4884.939
1348.62	0.5766	0.4234	7.11264	7.75826	-2.84788	22.57583	32.02879	1.64993	0.60609	8.51758	98.5129	3.01576	0.41218	8.42631	947.84835	0.93937	0.00835096	1685.14983	52945.563	 	4948.92
1345.0	0.61342	0.38658	7.12034	7.7499	-2.95252	22.34135	32.11883	1.64164	0.60915	10.82069	98.20671	3.84636	0.40661	8.45972	1369.63026	0.93358	0.00576637	1682.82267	52410.824	131.191	5333.953
1340.0	0.65749	0.34251	7.12992	7.73951	-3.08265	22.05633	32.21865	1.63149	0.61294	14.29776	97.90669	5.10669	0.3999	8.50677	2071.14577	0.92554	0.00380146	1679.74476	51744.936	133.178	5793.345
1335.0	0.69463	0.30537	7.13845	7.73028	-3.19823	21.81066	32.29349	1.62267	0.61627	17.97293	97.72579	6.44563	0.3942	8.55441	2891.49908	0.91754	0.0027145	1676.8011	51153.382	118.311	6178.848
1330.0	0.72619	0.27381	7.14609	7.72207	-3.30101	21.59977	32.34819	1.61489	0.61924	21.73549	97.63916	7.82246	0.3893	8.60338	3817.70623	0.90948	0.00204955	1673.97645	50621.665	106.343	6504.954
1329.79	0.72738	0.27262	7.1464	7.72175	-3.30507	21.59161	32.35006	1.61458	0.61936	21.89174	97.63764	7.87975	0.38911	8.60536	3858.21237	0.90915	0.00202777	1673.85808	50600.702	 	6517.262
1325.0	0.75743	0.24257	7.15477	7.71275	-3.41773	21.34718	32.40471	1.60704	0.62226	26.14849	97.56549	9.44379	0.38443	8.6592	4963.91156	0.9008	0.00157138	1671.32292	50086.111	107.111	6835.336
1320.0	0.78396	0.21604	7.16255	7.70443	-3.52189	21.12887	32.44369	1.60009	0.62497	30.49014	97.56889	11.04519	0.38025	8.71622	6212.02974	0.8921	0.00125173	1668.78544	49602.595	96.7032	7114.117
1315.0	0.80647	0.19353	7.16951	7.69702	-3.61471	20.94178	32.46747	1.5939	0.62739	34.65283	97.63647	12.58588	0.37665	8.77469	7546.35472	0.88338	0.00102717	1666.34698	49163.501	87.8188	7348.91
1310.0	0.82573	0.17427	7.17582	7.6903	-3.69888	20.77838	32.47864	1.58833	0.62959	38.60202	97.75498	14.05201	0.37354	8.83428	8963.56445	0.87466	8.62041E-4	1664.00491	48760.331	80.634	7548.211
1305.0	0.84234	0.15766	7.1816	7.68418	-3.77554	20.63562	32.47983	1.58326	0.63161	42.32044	97.91547	15.43614	0.37082	8.89493	10463.37289	0.86595	7.36145E-4	1661.74724	48386.523	74.7616	7718.579
1300.0	0.85676	0.14324	7.18694	7.67853	-3.84622	20.50929	32.4724	1.57861	0.63347	45.80397	98.11002	16.73594	0.36843	8.95716	12047.38001	0.85721	6.3733E-4	1659.57038	48036.948	69.915	7865.142
1295.0	0.86934	0.13066	7.19192	7.67327	-3.91216	20.39594	32.45777	1.5743	0.6352	49.06013	98.33253	17.95348	0.36631	9.02047	13719.92032	0.84849	5.57857E-4	1657.47149	47707.55	65.8796	7991.95
1290.0	0.88039	0.11961	7.19658	7.66837	-3.97348	20.29531	32.4371	1.57028	0.63683	52.09629	98.57927	19.09091	0.36443	9.08544	15486.15641	0.83973	4.92656E-4	1655.43722	47395.094	62.4912	8102.24
1285.0	0.89013	0.10987	7.20098	7.66375	-4.03134	20.20418	32.41133	1.5665	0.63837	54.93258	98.84559	20.15528	0.36273	9.15192	17355.00897	0.83097	4.38199E-4	1653.46734	47096.969	59.625	8198.62
1280.0	0.89877	0.10123	7.20516	7.65935	-4.08638	20.12072	32.381	1.56294	0.63982	57.57804	99.12868	21.14958	0.36121	9.21965	19332.66593	0.82222	3.9211E-4	1651.56183	46811.031	57.1876	8283.231
1275.0	0.90649	0.093512	7.20916	7.65518	-4.13868	20.04476	32.34703	1.55954	0.64121	60.05776	99.42612	22.08289	0.35983	9.28903	21432.83813	0.81345	3.52549E-4	1649.70828	46535.431	55.12	8357.919
1270.0	0.91341	0.0865875	7.21301	7.65115	-4.18909	19.9739	32.30983	1.55629	0.64255	62.38814	99.73545	22.96113	0.35856	9.3596	23666.8542	0.80471	3.1824E-4	1647.91161	46268.619	53.3624	8424.233
1265.0	0.91966	0.0803442	7.21672	7.64729	-4.23743	19.90869	32.26989	1.55317	0.64384	64.58121	100.05533	23.78858	0.3574	9.43228	26046.89814	0.79592	2.88223E-4	1646.15951	46009.442	51.8354	8483.324
1260.0	0.92531	0.074695	7.22032	7.64354	-4.28441	19.84709	32.22746	1.55016	0.64509	66.65183	100.38407	24.5707	0.35633	9.50624	28587.2498	0.78716	2.61757E-4	1644.45864	45756.936	50.5012	8536.152
1255.0	0.93044	0.0695644	7.22383	7.6399	-4.32995	19.78935	32.18293	1.54724	0.64631	68.60995	100.72085	25.31105	0.35534	9.58145	31301.52085	0.77843	2.3828E-4	1642.80098	45510.294	49.3284	8583.524
1250.0	0.93511	0.0648915	7.22724	7.63638	-4.37413	19.73528	32.13652	1.54441	0.6475	70.46576	101.06472	26.01337	0.35441	9.65899	34206.14421	0.76966	2.17333E-4	1641.18101	45268.833	48.2922	8626.12
1245.0	0.93938	0.0606212	7.23058	7.63293	-4.41732	19.6838	32.08844	1.54164	0.64866	72.22822	101.41457	26.68095	0.35355	9.73771	37317.3167	0.76093	1.9856E-4	1639.60305	45031.977	47.3712	8664.511
1240.0	0.94329	0.0567086	7.23384	7.62954	-4.45967	19.6345	32.03885	1.53894	0.6498	73.90692	101.76974	27.31733	0.35275	9.81834	40654.51827	0.7522	1.8166E-4	1638.06613	44799.217	46.552	8699.234
1235.0	0.94689	0.053114	7.23706	7.62623	-4.50119	19.58735	31.98792	1.5363	0.65091	75.50847	102.12973	27.92492	0.35199	9.90027	44237.6022	0.74351	1.66395E-4	1636.56652	44570.132	45.817	8730.717
1230.0	0.9502	0.0498047	7.24021	7.62299	-4.54176	19.54276	31.93585	1.5337	0.65202	77.03873	102.49412	28.50586	0.35128	9.98446	48087.98761	0.73479	1.52564E-4	1635.09481	44344.351	45.1562	8759.326
1225.0	0.95325	0.04675	7.24332	7.6198	-4.58172	19.49968	31.88271	1.53115	0.6531	78.50469	102.86233	29.06278	0.35061	10.07018	52230.07473	0.72611	1.39998E-4	1633.65919	44121.558	44.5586	8785.379
1220.0	0.95608	0.0439244	7.24638	7.61665	-4.6211	19.45807	31.82856	1.52864	0.65418	79.91149	103.23389	29.59756	0.34997	10.15776	56690.0013	0.71745	1.28553E-4	1632.25716	43901.475	44.0166	8809.149
1215.0	0.95869	0.0413063	7.2494	7.61355	-4.65992	19.41785	31.77355	1.52616	0.65524	81.26438	103.60853	30.11216	0.34936	10.24729	61495.84419	0.7088	1.1811E-4	1630.88732	43683.861	43.5228	8830.875
1214.83	0.95879	0.0412052	7.24952	7.61344	-4.66133	19.41627	31.77167	1.52607	0.65528	81.31539	103.62152	30.13157	0.34934	10.25038	61673.81936	0.7085	1.17756E-4	1630.83911	43676.23	 	8831.696
1210.0	0.96539	0.0346082	7.25354	7.60912	-4.71547	19.32452	31.72912	1.52316	0.65653	84.24628	104.00086	31.24962	0.34796	10.44447	68087.8097	0.69308	1.06317E-4	1626.30885	43395.548	57.6626	8923.724
1205.0	0.97073	0.0292728	7.25741	7.60497	-4.76745	19.24172	31.68094	1.52033	0.65775	86.77629	104.39656	32.21581	0.3468	10.65185	74910.0584	0.6773	9.63086E-5	1621.98378	43127.102	53.6892	8997.128
1200.0	0.97497	0.0250316	7.26104	7.60106	-4.81637	19.16794	31.62958	1.51765	0.65891	88.92537	104.79443	33.03724	0.34584	10.86487	82010.20624	0.66177	8.7673E-5	1617.97317	42875.062	50.408	9054.543
1195.0	0.97841	0.0215947	7.26451	7.59733	-4.86303	19.10075	31.57579	1.51507	0.66003	90.78795	105.19403	33.74968	0.34502	11.08404	89472.7231	0.64649	8.00878E-5	1614.23705	42635.119	47.9886	9100.28
1190.0	0.98124	0.0187633	7.26786	7.59375	-4.90797	19.03853	31.52017	1.51258	0.66112	92.43151	105.59498	34.37871	0.34431	11.30957	97374.90579	0.63144	7.33379E-5	1610.73971	42404.335	46.1568	9137.272
1185.0	0.9836	0.0163952	7.2711	7.59027	-4.95152	18.98022	31.4631	1.51014	0.66219	93.9038	105.99706	34.94247	0.34369	11.5407	105790.1879	0.61668	6.72734E-5	1607.45286	42180.647	44.7376	9167.582
1180.0	0.98561	0.0143917	7.27427	7.58688	-4.99398	18.92494	31.40494	1.50775	0.66324	95.24112	106.40002	35.45478	0.34314	11.77873	114788.2944	0.60214	6.17873E-5	1604.35425	41962.57	43.6154	9192.691
1175.0	0.98732	0.0126762	7.27737	7.58356	-5.03556	18.87207	31.34587	1.5054	0.66428	96.46966	106.80369	35.92559	0.34263	12.02243	124443.691	0.58791	5.67973E-5	1601.42281	41749.011	42.7118	9213.691
1170.0	0.9888	0.0111952	7.28043	7.58029	-5.07644	18.82099	31.28609	1.50307	0.66531	97.61018	107.20791	36.36282	0.34217	12.27218	134829.7007	0.57395	5.22411E-5	1598.65245	41539.15	41.9722	9231.4
1165.0	0.9901	0.00990434	7.28344	7.57708	-5.11662	18.77176	31.22572	1.50075	0.66633	98.67776	107.6127	36.77222	0.34174	12.52901	146026.3264	0.56024	4.80684E-5	1596.01401	41332.359	41.3582	9246.444
1160.0	0.99123	0.0087716	7.28641	7.57392	-5.15624	18.72395	31.16485	1.49846	0.66735	99.68461	108.01783	37.15844	0.34135	12.79244	158118.8888	0.5468	4.42379E-5	1593.49977	41128.153	40.8412	9259.305
1155.0	0.99223	0.00777012	7.28935	7.57079	-5.19543	18.67714	31.10359	1.49617	0.66837	100.64124	108.42325	37.52551	0.34097	13.06227	171197.3893	0.53363	4.07158E-5	1591.11085	40926.151	40.4004	9270.365
1150.0	0.99312	0.0068803	7.29226	7.5677	-5.23417	18.63141	31.04195	1.49389	0.66939	101.55498	108.82889	37.87621	0.34062	13.3389	185363.6422	0.52074	3.74725E-5	1588.82846	40726.047	40.0208	9279.925
1145.0	0.99392	0.00608353	7.29515	7.56463	-5.27251	18.58661	30.98004	1.49162	0.67041	102.43175	109.23474	38.21281	0.34028	13.62341	200720.5501	0.50807	3.4484E-5	1586.63942	40527.596	39.6902	9288.228
1140.0	0.99463	0.00536845	7.29802	7.5616	-5.31053	18.54248	30.9179	1.48935	0.67143	103.27776	109.64071	38.53768	0.33996	13.9144	217388.2993	0.49569	3.17277E-5	1584.55094	40330.601	39.399	9295.472
1135.0	0.99528	0.00472163	7.30086	7.55859	-5.34821	18.49908	30.8549	1.48711	0.67245	104.09652	110.04669	38.85218	0.33965	14.21287	235499.7793	0.48356	2.9184E-5	1582.54832	40134.896	39.141	9301.819
1130.0	0.99586	0.00413583	7.30369	7.5556	-5.3856	18.4563	30.79227	1.48484	0.67347	104.89165	110.45272	39.15768	0.33935	14.51897	255191.2821	0.47169	2.68364E-5	1580.63125	39940.347	38.9098	9307.402
1125.0	0.9964	0.00360279	7.3065	7.55264	-5.42272	18.41403	30.72947	1.48257	0.6745	105.66616	110.8587	39.45532	0.33906	14.83286	276621.9374	0.46006	2.46691E-5	1578.79134	39746.84	38.7014	9312.333
1120.0	0.99688	0.0031163	7.3093	7.54969	-5.45959	18.37223	30.66652	1.4803	0.67554	106.42298	111.2646	39.74625	0.33878	15.15408	299965.1737	0.4487	2.2668E-5	1577.02965	39554.28	38.512	9316.705
1119.04	0.99697	0.00302728	7.30983	7.54913	-5.46662	18.3643	30.65445	1.47987	0.67574	106.5665	111.34253	39.80142	0.33873	15.21659	304677.5168	0.44655	2.23021E-5	1576.6943	39517.431	 	9317.483
1119.04	0.99697	0.00302728	7.30983	7.54913	-5.46662	18.3643	30.65445	1.47987	0.67574	106.5665	111.34253	39.80142	0.33873	15.21659	304677.5168	0.44655	2.23021E-5	1576.6943	39517.431	 	9317.483
1115.0	0.99741	0.00259355	7.3122	7.5467	-5.49705	18.32802	30.60364	1.47802	0.67658	107.2007	111.67257	40.04529	0.33849	15.43858	325496.4728	0.43885	2.0815E-5	1574.32634	39360.558	38.7444	9322.624
1112.08	0.9977	0.0023037	7.31389	7.54496	-5.51884	18.30224	30.5669	1.47669	0.67719	107.64882	111.91058	40.21764	0.33833	15.60005	341444.7194	0.4334	1.98011E-5	1572.67936	39247.813	 	9326.052
1112.08	0.9977	0.0023037	7.31389	7.54496	-5.51884	18.30224	30.5669	1.47669	0.67719	107.64882	111.91058	40.21764	0.33833	15.60005	341444.7739	0.4334	1.98011E-5	1572.67936	39247.813	 	9326.052
1110.0	1.0	0.0	7.31592	7.54281	-5.54575	18.24467	30.56116	1.47475	0.67808	109.07066	112.06738	40.76524	0.33779	 	357028.886	 	1.89083E-5	 	39135.629	44.9858	9360.135
1105.0	1.0	0.0	7.31822	7.54044	-5.57546	18.22628	30.4954	1.47258	0.67908	109.59041	112.47453	40.9651	0.33761	 	386917.5125	 	1.73846E-5	 	38976.753	31.7752	 
1100.0	1.0	0.0	7.32052	7.53807	-5.60512	18.2079	30.42964	1.47041	0.68008	110.11071	112.88133	41.16522	0.33742	 	419568.1005	 	1.59736E-5	 	38791.982	36.9542	 
1095.0	1.0	0.0	7.32282	7.53571	-5.63473	18.18952	30.36387	1.46823	0.68109	110.63154	113.28776	41.36559	0.33724	 	455259.0652	 	1.46677E-5	 	38607.503	36.8958	 
1090.0	1.0	0.0	7.32512	7.53335	-5.66429	18.17115	30.2981	1.46604	0.68211	111.15288	113.69379	41.56621	0.33706	 	494299.1639	 	1.34599E-5	 	38423.304	36.8398	 
1085.0	1.0	0.0	7.32741	7.53099	-5.69381	18.15277	30.23232	1.46384	0.68313	111.67471	114.09942	41.76707	0.33688	 	537031.047	 	1.23434E-5	 	38239.379	36.785	 
1080.0	1.0	0.0	7.3297	7.52864	-5.72327	18.1344	30.16654	1.46163	0.68417	112.197	114.50461	41.96815	0.33669	 	583835.2507	 	1.13121E-5	 	38055.723	36.7312	 
1075.0	1.0	0.0	7.33198	7.52629	-5.75268	18.11603	30.10075	1.45941	0.68521	112.71975	114.90936	42.16946	0.33651	 	635134.6934	 	1.036E-5	 	37872.337	36.6772	 
1070.0	1.0	0.0	7.33427	7.52394	-5.78204	18.09766	30.03496	1.45719	0.68625	113.24293	115.31364	42.37099	0.33633	 	691399.7408	 	9.48161E-6	 	37689.218	36.6238	 
1065.0	1.0	0.0	7.33655	7.5216	-5.81135	18.0793	29.96916	1.45495	0.68731	113.76652	115.71743	42.57273	0.33614	 	753153.9169	 	8.67177E-6	 	37506.365	36.5706	 
1060.0	1.0	0.0	7.33883	7.51927	-5.84062	18.06093	29.90336	1.4527	0.68837	114.2905	116.12073	42.77466	0.33596	 	820980.3485	 	7.92561E-6	 	37323.779	36.5172	 
1055.0	1.0	0.0	7.34111	7.51693	-5.86983	18.04257	29.83755	1.45045	0.68944	114.81485	116.5235	42.97679	0.33578	 	895529.0438	 	7.23859E-6	 	37141.457	36.4644	 
1050.0	1.0	0.0	7.34339	7.5146	-5.89899	18.02421	29.77173	1.44818	0.69052	115.33956	116.92574	43.17911	0.33559	 	977525.1179	 	6.60645E-6	 	36959.399	36.4116	 
1045.0	1.0	0.0	7.34566	7.51228	-5.92811	18.00585	29.70591	1.4459	0.69161	115.8646	117.32742	43.38162	0.33541	 	1067778.098	 	6.02519E-6	 	36777.602	36.3594	 
1040.0	1.0	0.0	7.34793	7.50996	-5.95717	17.9875	29.64009	1.44362	0.6927	116.38996	117.72853	43.58429	0.33523	 	1167192.46	 	5.49109E-6	 	36596.066	36.3072	 
1035.0	1.0	0.0	7.3502	7.50764	-5.98619	17.96915	29.57426	1.44132	0.69381	116.91561	118.12905	43.78713	0.33505	 	1276779.56	 	5.00067E-6	 	36414.788	36.2556	 
1030.0	1.0	0.0	7.35246	7.50533	-6.01515	17.9508	29.50842	1.43902	0.69492	117.44154	118.52896	43.99013	0.33486	 	1397671.175	 	4.55068E-6	 	36233.767	36.2042	 
1025.0	1.0	0.0	7.35472	7.50302	-6.04406	17.93245	29.44258	1.4367	0.69604	117.96773	118.92825	44.19328	0.33468	 	1531134.866	 	4.13807E-6	 	36053.001	36.1532	 
1020.0	1.0	0.0	7.35698	7.50071	-6.07293	17.91411	29.37673	1.43438	0.69717	118.49416	119.3269	44.39658	0.3345	 	1678591.426	 	3.76002E-6	 	35872.489	36.1024	 
1015.0	1.0	0.0	7.35924	7.49841	-6.10175	17.89576	29.31088	1.43204	0.6983	119.02082	119.72489	44.60002	0.33431	 	1841634.729	 	3.41389E-6	 	35692.229	36.052	 
1010.0	1.0	0.0	7.3615	7.49612	-6.13051	17.87742	29.24502	1.42969	0.69945	119.54767	120.1222	44.80359	0.33413	 	2022054.307	 	3.09721E-6	 	35512.22	36.0018	 
1005.0	1.0	0.0	7.36375	7.49382	-6.15923	17.85908	29.17915	1.42734	0.7006	120.0747	120.51883	45.00728	0.33395	 	2221861.072	 	2.80771E-6	 	35332.459	35.9522	 
1000.0	1.0	0.0	7.366	7.49153	-6.18789	17.84075	29.11328	1.42497	0.70177	120.60191	120.91474	45.21109	0.33376	 	2443316.635	 	2.54324E-6	 	35152.944	35.903	 
995.0	1.0	0.0	7.36825	7.48925	-6.21651	17.82241	29.04741	1.42259	0.70294	121.12925	121.30993	45.41501	0.33358	 	2688966.766	 	2.30182E-6	 	34973.675	35.8538	 
990.0	1.0	0.0	7.37049	7.48697	-6.24508	17.80408	28.98152	1.42021	0.70412	121.65672	121.70438	45.61904	0.3334	 	2961679.606	 	2.08163E-6	 	34794.649	35.8052	 
985.0	1.0	0.0	7.37273	7.48469	-6.2736	17.78575	28.91563	1.41781	0.70531	122.18431	122.09808	45.82316	0.33322	 	3264689.352	 	1.88095E-6	 	34615.865	35.7568	 
980.0	1.0	0.0	7.37497	7.48242	-6.30206	17.76742	28.84974	1.4154	0.70651	122.71198	122.491	46.02737	0.33303	 	3601646.245	 	1.6982E-6	 	34437.319	35.7092	 
975.0	1.0	0.0	7.37721	7.48015	-6.33048	17.7491	28.78384	1.41298	0.70772	123.23972	122.88313	46.23166	0.33285	 	3976673.823	 	1.53191E-6	 	34259.011	35.6616	 
970.0	1.0	0.0	7.37945	7.47788	-6.35885	17.73078	28.71793	1.41055	0.70894	123.76751	123.27446	46.43603	0.33267	 	4394434.565	 	1.38073E-6	 	34080.939	35.6144	 
965.0	1.0	0.0	7.38168	7.47562	-6.38717	17.71245	28.65202	1.40811	0.71017	124.29534	123.66497	46.64047	0.33248	 	4860205.216	 	1.24338E-6	 	33903.1	35.5678	 
960.0	1.0	0.0	7.38391	7.47336	-6.41544	17.69414	28.5861	1.40565	0.71141	124.82319	124.05464	46.84497	0.3323	 	5379963.326	 	1.11872E-6	 	33725.492	35.5216	 
955.0	1.0	0.0	7.38614	7.47111	-6.44366	17.67582	28.52017	1.40319	0.71266	125.35103	124.44346	47.04953	0.33212	 	5960486.752	 	1.00567E-6	 	33548.113	35.4758	 
950.0	1.0	0.0	7.38836	7.46886	-6.47183	17.65751	28.45424	1.40072	0.71392	125.87885	124.83141	47.25413	0.33193	 	6609468.19	 	9.03233E-7	 	33370.961	35.4304	 
945.0	1.0	0.0	7.39058	7.46661	-6.49995	17.63919	28.3883	1.39823	0.71519	126.40664	125.21848	47.45878	0.33175	 	7335647.15	 	8.10493E-7	 	33194.034	35.3854	 
940.0	1.0	0.0	7.3928	7.46437	-6.52802	17.62089	28.32236	1.39573	0.71647	126.93436	125.60465	47.66346	0.33157	 	8148962.167	 	7.26606E-7	 	33017.33	35.3408	 
935.0	1.0	0.0	7.39502	7.46213	-6.55605	17.60258	28.25641	1.39323	0.71776	127.46201	125.98991	47.86817	0.33139	 	9060726.558	 	6.50795E-7	 	32840.846	35.2968	 
930.0	1.0	0.0	7.39723	7.4599	-6.58402	17.58427	28.19045	1.39071	0.71906	127.98956	126.37425	48.0729	0.3312	 	1.008383157E7	 	5.82346E-7	 	32664.579	35.2534	 
925.0	1.0	0.0	7.39945	7.45767	-6.61194	17.56597	28.12449	1.38818	0.72037	128.51701	126.75764	48.27764	0.33102	 	1.123298142E7	 	5.20598E-7	 	32488.528	35.2102	 
920.0	1.0	0.0	7.40166	7.45545	-6.63982	17.54767	28.05852	1.38563	0.72169	129.04432	127.14007	48.48239	0.33084	 	1.252496563E7	 	4.64949E-7	 	32312.69	35.1676	 
915.0	1.0	0.0	7.40386	7.45322	-6.66764	17.52937	27.99254	1.38308	0.72302	129.57148	127.52153	48.68714	0.33065	 	1.397897468E7	 	4.14842E-7	 	32137.062	35.1256	 
910.0	1.0	0.0	7.40607	7.45101	-6.69541	17.51108	27.92656	1.38051	0.72437	130.09848	127.90201	48.89188	0.33047	 	1.561696664E7	 	3.69768E-7	 	31961.642	35.084	 
905.0	1.0	0.0	7.40827	7.44879	-6.72314	17.49278	27.86056	1.37793	0.72572	130.6253	128.28148	49.09662	0.33029	 	1.746409314E7	 	3.29262E-7	 	31786.427	35.043	 
900.0	1.0	0.0	7.41047	7.44658	-6.75081	17.47449	27.79457	1.37534	0.72709	131.15191	128.65994	49.30133	0.33011	 	1.954919505E7	 	2.92895E-7	 	31611.414	35.0026	 
895.0	1.0	0.0	7.41266	7.44438	-6.77844	17.4562	27.72856	1.37274	0.72847	131.6783	129.03737	49.50601	0.32992	 	2.190537986E7	 	2.60276E-7	 	31436.6	34.9628	 
890.0	1.0	0.0	7.41486	7.44217	-6.80602	17.43792	27.66255	1.37013	0.72986	132.20445	129.41375	49.71066	0.32974	 	2.457069512E7	 	2.31049E-7	 	31261.984	34.9232	 
885.0	1.0	0.0	7.41705	7.43997	-6.83354	17.41963	27.59653	1.3675	0.73126	132.73034	129.78908	49.91528	0.32956	 	2.758891464E7	 	2.04888E-7	 	31087.56	34.8848	 
880.0	1.0	0.0	7.41923	7.43778	-6.86102	17.40135	27.53051	1.36486	0.73267	133.25597	130.16333	50.11984	0.32937	 	3.101045764E7	 	1.81495E-7	 	30913.328	34.8464	 
875.0	1.0	0.0	7.42142	7.43559	-6.88845	17.38307	27.46447	1.36221	0.7341	133.7813	130.5365	50.32435	0.32919	 	3.489346452E7	 	1.60598E-7	 	30739.282	34.8092	 
870.0	1.0	0.0	7.4236	7.4334	-6.91583	17.36479	27.39843	1.35955	0.73554	134.30632	130.90857	50.5288	0.32901	 	3.930505747E7	 	1.41952E-7	 	30565.421	34.7722	 
865.0	1.0	0.0	7.42578	7.43122	-6.94316	17.34652	27.33239	1.35687	0.73699	134.83101	131.27952	50.73319	0.32882	 	4.432281963E7	 	1.25331E-7	 	30391.741	34.736	 
860.0	1.0	0.0	7.42796	7.42904	-6.97044	17.32824	27.26633	1.35419	0.73845	135.35536	131.64935	50.9375	0.32864	 	5.003653263E7	 	1.10532E-7	 	30218.239	34.7004	 
855.0	1.0	0.0	7.43014	7.42687	-6.99767	17.30997	27.20027	1.35149	0.73993	135.87935	132.01803	51.14173	0.32846	 	5.65502205E7	 	9.73687E-8	 	30044.91	34.6658	 
850.0	1.0	0.0	7.43231	7.4247	-7.02485	17.2917	27.1342	1.34877	0.74142	136.40295	132.38557	51.34588	0.32828	 	6.398455692E7	 	8.56741E-8	 	29871.752	34.6316	 
845.0	1.0	0.0	7.43448	7.42253	-7.05198	17.27344	27.06813	1.34605	0.74292	136.92616	132.75193	51.54993	0.32809	 	7.247970403E7	 	7.52957E-8	 	29698.761	34.5982	 
840.0	1.0	0.0	7.43664	7.42037	-7.07907	17.25517	27.00204	1.34331	0.74443	137.44896	133.11712	51.75388	0.32791	 	8.21986648E7	 	6.60961E-8	 	29525.932	34.5658	 
835.0	1.0	0.0	7.43881	7.41821	-7.1061	17.23691	26.93595	1.34055	0.74596	137.97132	133.48111	51.95772	0.32773	 	9.333124683E7	 	5.79506E-8	 	29353.263	34.5338	 
830.0	1.0	0.0	7.44097	7.41605	-7.13309	17.21865	26.86985	1.33779	0.7475	138.49323	133.84389	52.16145	0.32754	 	1.060987558E8	 	5.07471E-8	 	29180.749	34.5028	 
825.0	1.0	0.0	7.44313	7.4139	-7.16002	17.20039	26.80375	1.33501	0.74906	139.01467	134.20546	52.36506	0.32736	 	1.207595602E8	 	4.4384E-8	 	29008.385	34.4728	 
820.0	1.0	0.0	7.44528	7.41176	-7.18691	17.18214	26.73763	1.33222	0.75063	139.53563	134.56579	52.56855	0.32718	 	1.376156983E8	 	3.87702E-8	 	28836.167	34.4436	 
815.0	1.0	0.0	7.44744	7.40961	-7.21374	17.16389	26.67151	1.32941	0.75221	140.05608	134.92487	52.7719	0.32699	 	1.570207335E8	 	3.38235E-8	 	28664.092	34.415	 
810.0	1.0	0.0	7.44959	7.40747	-7.24053	17.14564	26.60538	1.32659	0.75381	140.57602	135.2827	52.97511	0.32681	 	1.79389108E8	 	2.94699E-8	 	28492.154	34.3876	 
805.0	1.0	0.0	7.45174	7.40534	-7.26727	17.12739	26.53924	1.32376	0.75543	141.09542	135.63926	53.17817	0.32663	 	2.05207295E8	 	2.56433E-8	 	28320.349	34.361	 
800.0	1.0	0.0	7.45388	7.40321	-7.29395	17.10914	26.4731	1.32091	0.75705	141.61426	135.99453	53.38108	0.32645	 	2.350471161E8	 	2.2284E-8	 	28148.671	34.3356	 
795.0	1.0	0.0	7.45602	7.40108	-7.32059	17.0909	26.40694	1.31805	0.7587	142.13254	136.34851	53.58384	0.32626	 	2.695816678E8	 	1.93388E-8	 	27977.116	34.311	 
790.0	1.0	0.0	7.45816	7.39896	-7.34718	17.07266	26.34078	1.31518	0.76035	142.65022	136.70117	53.78642	0.32608	 	3.096043951E8	 	1.676E-8	 	27805.678	34.2876	 
785.0	1.0	0.0	7.4603	7.39684	-7.37372	17.05442	26.27461	1.31229	0.76203	143.1673	137.05252	53.98884	0.3259	 	3.560519719E8	 	1.45051E-8	 	27634.352	34.2652	 
780.0	1.0	0.0	7.46244	7.39472	-7.40022	17.03618	26.20843	1.30938	0.76372	143.68376	137.40254	54.19107	0.32571	 	4.100317862E8	 	1.2536E-8	 	27463.133	34.2438	 
775.0	1.0	0.0	7.46457	7.39261	-7.42666	17.01794	26.14225	1.30647	0.76542	144.19958	137.75121	54.39312	0.32553	 	4.728550119E8	 	1.08189E-8	 	27292.014	34.2238	 
770.0	1.0	0.0	7.4667	7.3905	-7.45305	16.99971	26.07605	1.30353	0.76714	144.71474	138.09852	54.59498	0.32535	 	5.460764642E8	 	9.32352E-9	 	27120.989	34.205	 
765.0	1.0	0.0	7.46882	7.3884	-7.47939	16.98148	26.00985	1.30059	0.76888	145.22922	138.44447	54.79664	0.32517	 	6.315427058E8	 	8.02313E-9	 	26950.051	34.1876	 
760.0	1.0	0.0	7.47095	7.3863	-7.50569	16.96325	25.94363	1.29763	0.77064	145.74302	138.78903	54.99809	0.32498	 	7.314502092E8	 	6.89391E-9	 	26779.196	34.171	 
755.0	1.0	0.0	7.47307	7.3842	-7.53193	16.94503	25.87741	1.29465	0.77241	146.25611	139.1322	55.19933	0.3248	 	8.484157893E8	 	5.91472E-9	 	26608.415	34.1562	 
750.0	1.0	0.0	7.47518	7.38211	-7.55813	16.9268	25.81119	1.29166	0.7742	146.76847	139.47397	55.40036	0.32462	 	9.855620408E8	 	5.0669E-9	 	26437.701	34.1428	 
745.0	1.0	0.0	7.4773	7.38002	-7.58428	16.90858	25.74495	1.28866	0.776	147.28009	139.81432	55.60116	0.32443	 	1.14662115E9	 	4.3339E-9	 	26267.047	34.1308	 
740.0	1.0	0.0	7.47941	7.37794	-7.61037	16.89036	25.6787	1.28564	0.77782	147.79096	140.15325	55.80173	0.32425	 	1.33606125E9	 	3.70113E-9	 	26096.446	34.1202	 
735.0	1.0	0.0	7.48152	7.37586	-7.63642	16.87215	25.61245	1.2826	0.77967	148.30104	140.49073	56.00206	0.32407	 	1.559240481E9	 	3.15572E-9	 	25925.888	34.1116	 
730.0	1.0	0.0	7.48363	7.37378	-7.66242	16.85393	25.54618	1.27955	0.78152	148.81034	140.82677	56.20215	0.32388	 	1.822595165E9	 	2.68635E-9	 	25755.367	34.1042	 
725.0	1.0	0.0	7.48573	7.37171	-7.68837	16.83572	25.47991	1.27648	0.7834	149.31883	141.16134	56.40198	0.3237	 	2.133870055E9	 	2.28305E-9	 	25584.872	34.099	 
720.0	1.0	0.0	7.48783	7.36964	-7.71427	16.81751	25.41363	1.2734	0.7853	149.82649	141.49445	56.60157	0.32352	 	2.502400582E9	 	1.93707E-9	 	25414.396	34.0952	 
715.0	1.0	0.0	7.48993	7.36758	-7.74013	16.7993	25.34733	1.27031	0.78721	150.33332	141.82607	56.80088	0.32334	 	2.939459478E9	 	1.64075E-9	 	25243.927	34.0938	 
710.0	1.0	0.0	7.49202	7.36552	-7.76593	16.7811	25.28103	1.26719	0.78915	150.83928	142.15619	56.99993	0.32315	 	3.458683249E9	 	1.38738E-9	 	25073.457	34.094	 
705.0	1.0	0.0	7.49412	7.36346	-7.79168	16.76289	25.21472	1.26406	0.7911	151.34437	142.48481	57.19871	0.32297	 	4.076597893E9	 	1.1711E-9	 	24902.974	34.0966	 
700.0	1.0	0.0	7.49621	7.36141	-7.81739	16.74469	25.1484	1.26092	0.79307	151.84857	142.81191	57.3972	0.32279	 	4.813268193E9	 	9.86794E-10	 	24732.467	34.1014	 
695.0	1.0	0.0	7.49829	7.35936	-7.84304	16.72649	25.08208	1.25776	0.79507	152.35186	143.13749	57.5954	0.3226	 	5.693101208E9	 	8.30005E-10	 	24561.925	34.1084	 
690.0	1.0	0.0	7.50038	7.35731	-7.86865	16.7083	25.01574	1.25458	0.79708	152.85422	143.46153	57.79331	0.32242	 	6.745842537E9	 	6.96858E-10	 	24391.336	34.1178	 
685.0	1.0	0.0	7.50246	7.35527	-7.89421	16.6901	24.94939	1.25139	0.79911	153.35565	143.78402	57.99092	0.32224	 	8.007814082E9	 	5.83991E-10	 	24220.685	34.1302	 
680.0	1.0	0.0	7.50454	7.35324	-7.91972	16.67191	24.88303	1.24818	0.80117	153.85612	144.10495	58.18822	0.32206	 	9.523454995E9	 	4.88487E-10	 	24049.96	34.145	 
675.0	1.0	0.0	7.50661	7.3512	-7.94517	16.65372	24.81666	1.24495	0.80325	154.35561	144.42431	58.38521	0.32187	 	1.13472E10	 	4.07825E-10	 	23879.146	34.1628	 
670.0	1.0	0.0	7.50869	7.34917	-7.97058	16.63554	24.75028	1.2417	0.80534	154.85412	144.74209	58.58188	0.32169	 	1.3546099999999998E10	 	3.39823E-10	 	23708.228	34.1836	 
665.0	1.0	0.0	7.51076	7.34715	-7.99595	16.61735	24.6839	1.23844	0.80747	155.35162	145.05828	58.77822	0.32151	 	1.6202399999999998E10	 	2.82605E-10	 	23537.189	34.2078	 
660.0	1.0	0.0	7.51282	7.34513	-8.02126	16.59917	24.6175	1.23517	0.80961	155.84809	145.37287	58.97423	0.32132	 	1.94178E10	 	2.34552E-10	 	23366.013	34.2352	 
655.0	1.0	0.0	7.51489	7.34311	-8.04652	16.58099	24.55109	1.23187	0.81177	156.34353	145.68585	59.1699	0.32114	 	2.3317799999999996E10	 	1.94275E-10	 	23194.679	34.2668	 
650.0	1.0	0.0	7.51695	7.3411	-8.07174	16.56281	24.48467	1.22856	0.81396	156.83792	145.99721	59.36522	0.32096	 	2.8057999999999996E10	 	1.60584E-10	 	23023.17	34.3018	 
645.0	1.0	0.0	7.51901	7.33909	-8.0969	16.54463	24.41824	1.22523	0.81617	157.33124	146.30694	59.5602	0.32077	 	3.3831599999999996E10	 	1.32458E-10	 	22851.464	34.3412	 
640.0	1.0	0.0	7.52106	7.33708	-8.12202	16.52646	24.3518	1.22188	0.81841	157.82346	146.61503	59.75482	0.32059	 	4.0879E10	 	1.09026E-10	 	22679.539	34.385	 
635.0	1.0	0.0	7.52311	7.33508	-8.14708	16.50829	24.28535	1.21852	0.82067	158.31459	146.92147	59.94907	0.32041	 	4.949969999999999E10	 	8.95451E-11	 	22507.371	34.4336	 
630.0	1.0	0.0	7.52516	7.33308	-8.1721	16.49012	24.21889	1.21513	0.82296	158.8046	147.22625	60.14295	0.32023	 	6.006839999999999E10	 	7.33839E-11	 	22334.933	34.4876	 
625.0	1.0	0.0	7.52721	7.33109	-8.19707	16.47195	24.15241	1.21173	0.82527	159.29347	147.52935	60.33646	0.32004	 	7.30543E10	 	6.00053E-11	 	22162.199	34.5468	 
620.0	1.0	0.0	7.52925	7.3291	-8.22199	16.45378	24.08593	1.20831	0.8276	159.7812	147.83078	60.52959	0.31986	 	8.90467E10	 	4.89546E-11	 	21989.138	34.6122	 
615.0	1.0	0.0	7.53129	7.32711	-8.24686	16.43562	24.01943	1.20487	0.82996	160.26776	148.13053	60.72233	0.31968	 	1.08787E11	 	3.98469E-11	 	21815.719	34.6838	 
610.0	1.0	0.0	7.53333	7.32513	-8.27169	16.41746	23.95292	1.20142	0.83235	160.75313	148.42857	60.91467	0.31949	 	1.33212E11	 	3.23577E-11	 	21641.906	34.7626	 
605.0	1.0	0.0	7.53537	7.32315	-8.29646	16.3993	23.88641	1.19794	0.83477	161.23732	148.7249	61.10662	0.31931	 	1.63505E11	 	2.62135E-11	 	21467.661	34.849	 
600.0	1.0	0.0	7.5374	7.32118	-8.32118	16.38115	23.81987	1.19445	0.83721	161.72028	149.01952	61.29815	0.31913	 	2.01167E11	 	2.11846E-11	 	21292.943	34.9436	 
595.0	1.0	0.0	7.53943	7.31921	-8.34586	16.36299	23.75333	1.19093	0.83968	162.20202	149.31242	61.48928	0.31895	 	2.48107E11	 	1.70782E-11	 	21117.708	35.047	 
590.0	1.0	0.0	7.54146	7.31724	-8.37049	16.34484	23.68678	1.1874	0.84217	162.68252	149.60358	61.67998	0.31876	 	3.06759E11	 	1.37333E-11	 	20941.906	35.1604	 
585.0	1.0	0.0	7.54348	7.31528	-8.39506	16.32669	23.62021	1.18385	0.8447	163.16175	149.89299	61.87026	0.31858	 	3.80232E11	 	1.10154E-11	 	20765.482	35.2848	 
580.0	1.0	0.0	7.5455	7.31332	-8.41959	16.30855	23.55363	1.18028	0.84726	163.63971	150.18065	62.06011	0.3184	 	4.72512E11	 	8.8125E-12	 	20588.379	35.4206	 
575.0	1.0	0.0	7.54752	7.31136	-8.44407	16.2904	23.48704	1.17669	0.84984	164.11638	150.46655	62.24953	0.31821	 	5.8872E11	 	7.03154E-12	 	20410.531	35.5696	 
570.0	1.0	0.0	7.54953	7.30941	-8.46851	16.27226	23.42044	1.17308	0.85246	164.59175	150.75068	62.4385	0.31803	 	7.35455E11	 	5.59545E-12	 	20231.865	35.7332	 
565.0	1.0	0.0	7.55154	7.30746	-8.49289	16.25412	23.35382	1.16945	0.8551	165.06579	151.03303	62.62702	0.31785	 	9.21247E11	 	4.44051E-12	 	20052.302	35.9126	 
560.0	1.0	0.0	7.55355	7.30552	-8.51722	16.23598	23.28719	1.1658	0.85778	165.5385	151.3136	62.81509	0.31767	 	1.15715E12	 	3.51416E-12	 	19871.753	36.1098	 
555.0	1.0	0.0	7.55556	7.30358	-8.54151	16.21785	23.22055	1.16213	0.86049	166.00985	151.59236	63.00269	0.31748	 	1.45752E12	 	2.77319E-12	 	19690.119	36.3268	 
550.0	1.0	0.0	7.55756	7.30165	-8.56574	16.19971	23.15389	1.15844	0.86323	166.47984	151.86933	63.18983	0.3173	 	1.8411E12	 	2.18216E-12	 	19507.291	36.5656	 
545.0	1.0	0.0	7.55956	7.29972	-8.58993	16.18158	23.08723	1.15473	0.86601	166.94845	152.14448	63.3765	0.31712	 	2.33238E12	 	1.71206E-12	 	19323.143	36.8296	 
540.0	1.0	0.0	7.56156	7.29779	-8.61407	16.16345	23.02055	1.15099	0.86881	167.41566	152.41781	63.56269	0.31693	 	2.96349E12	 	1.33923E-12	 	19137.537	37.1212	 
535.0	1.0	0.0	7.56355	7.29586	-8.63816	16.14533	22.95385	1.14724	0.87166	167.88146	152.68931	63.7484	0.31675	 	3.77668E12	 	1.0444E-12	 	18950.316	37.4442	 
530.0	1.0	0.0	7.56554	7.29394	-8.6622	16.1272	22.88714	1.14346	0.87454	168.34583	152.95897	63.93361	0.31657	 	4.82778E12	 	8.11963E-13	 	18761.304	37.8024	 
525.0	1.0	0.0	7.56753	7.29203	-8.68619	16.10908	22.82042	1.13967	0.87745	168.80877	153.22679	64.11833	0.31638	 	6.19067E12	 	6.29265E-13	 	18570.298	38.2012	 
520.0	1.0	0.0	7.56951	7.29012	-8.71013	16.09096	22.75369	1.13585	0.8804	169.27024	153.49275	64.30255	0.3162	 	7.96354E12	 	4.86111E-13	 	18373.087	39.4422	 
515.0	1.0	0.0	7.5715	7.28821	-8.73403	16.07284	22.68694	1.13201	0.88338	169.73025	153.75686	64.48626	0.31602	 	1.02773E13	 	3.74296E-13	 	18162.326	42.1522	 
510.0	1.0	0.0	7.57347	7.2863	-8.75787	16.05473	22.62018	1.12815	0.88641	170.18877	154.01909	64.66945	0.31584	 	1.33072E13	 	2.87241E-13	 	17953.976	41.67	 
505.0	1.0	0.0	7.57545	7.2844	-8.78167	16.03662	22.5534	1.12427	0.88947	170.64579	154.27945	64.85213	0.31565	 	1.72882E13	 	2.19685E-13	 	17747.933	41.2086	 
500.0	1.0	0.0	7.57742	7.28251	-8.80542	16.01851	22.48661	1.12036	0.89257	171.1013	154.53793	65.03428	0.31547	 	2.25372E13	 	1.67437E-13	 	17544.099	40.7668	 
495.0	1.0	0.0	7.57939	7.28061	-8.82912	16.0004	22.41981	1.11643	0.89571	171.55528	154.79452	65.2159	0.31529	 	2.94826E13	 	1.27165E-13	 	17342.382	40.3434	 
490.0	1.0	0.0	7.58136	7.27873	-8.85277	15.98229	22.35299	1.11248	0.89889	172.00771	155.04921	65.39699	0.3151	 	3.87059E13	 	9.62321E-14	 	17142.697	39.937	 
485.0	1.0	0.0	7.58332	7.27684	-8.87637	15.96419	22.28616	1.1085	0.90212	172.45859	155.30199	65.57754	0.31492	 	5.09991E13	 	7.2557E-14	 	16944.961	39.5472	 
480.0	1.0	0.0	7.58528	7.27496	-8.89992	15.94609	22.21931	1.10451	0.90538	172.9079	155.55286	65.75753	0.31474	 	6.74457E13	 	5.45022E-14	 	16749.099	39.1724	 
475.0	1.0	0.0	7.58724	7.27308	-8.92343	15.92799	22.15245	1.10049	0.90869	173.35562	155.80181	65.93698	0.31456	 	8.95332E13	 	4.07841E-14	 	16555.039	38.812	 
470.0	1.0	0.0	7.5892	7.27121	-8.94689	15.90989	22.08558	1.09644	0.91204	173.80175	156.04884	66.11587	0.31437	 	1.19312E14	 	3.04004E-14	 	16362.714	38.465	 
465.0	1.0	0.0	7.59115	7.26934	-8.97029	15.89179	22.01869	1.09237	0.91544	174.24626	156.29394	66.29419	0.31419	 	1.59621E14	 	2.25705E-14	 	16172.058	38.1312	 
460.0	1.0	0.0	7.5931	7.26748	-8.99365	15.8737	21.95178	1.08828	0.91888	174.68915	156.53709	66.47194	0.31401	 	2.14404E14	 	1.66896E-14	 	15983.014	37.8088	 
455.0	1.0	0.0	7.59504	7.26561	-9.01696	15.85561	21.88486	1.08416	0.92237	175.13039	156.7783	66.64912	0.31382	 	2.89168E14	 	1.22902E-14	 	15795.524	37.498	 
450.0	1.0	0.0	7.59698	7.26376	-9.04022	15.83752	21.81793	1.08002	0.92591	175.56999	157.01756	66.82572	0.31364	 	3.91632E14	 	9.01232E-15	 	15609.535	37.1978	 
445.0	1.0	0.0	7.59892	7.2619	-9.06344	15.81944	21.75097	1.07586	0.92949	176.00791	157.25486	67.00173	0.31346	 	5.3266599999999994E14	 	6.58032E-15	 	15424.996	36.9078	 
440.0	1.0	0.0	7.60086	7.26005	-9.0866	15.80135	21.68401	1.07167	0.93313	176.44416	157.4902	67.17716	0.31327	 	7.27643E14	 	4.78354E-15	 	15241.862	36.6268	 
435.0	1.0	0.0	7.60279	7.25821	-9.10972	15.78327	21.61702	1.06745	0.93681	176.87871	157.72356	67.35198	0.31309	 	9.98407E14	 	3.46182E-15	 	15060.085	36.3554	 
430.0	1.0	0.0	7.60472	7.25636	-9.13278	15.76519	21.55003	1.06321	0.94055	177.31156	157.95495	67.52621	0.31291	 	1.37614E15	 	2.49385E-15	 	14879.625	36.092	 
425.0	1.0	0.0	7.60665	7.25453	-9.1558	15.74712	21.48301	1.05894	0.94434	177.74269	158.18436	67.69983	0.31273	 	1.90559E15	 	1.78816E-15	 	14700.442	35.8366	 
420.0	1.0	0.0	7.60857	7.25269	-9.17877	15.72904	21.41598	1.05465	0.94818	178.17209	158.41179	67.87284	0.31254	 	2.65123E15	 	1.27605E-15	 	14522.497	35.589	 
415.0	1.0	0.0	7.61049	7.25086	-9.20169	15.71097	21.34893	1.05033	0.95208	178.59974	158.63721	68.04523	0.31236	 	3.70647E15	 	9.06169E-16	 	14345.756	35.3482	 
410.0	1.0	0.0	7.61241	7.24904	-9.22456	15.6929	21.28187	1.04598	0.95604	179.02563	158.86065	68.217	0.31218	 	5.20735E15	 	6.40304E-16	 	14170.183	35.1146	 
405.0	1.0	0.0	7.61433	7.24721	-9.24739	15.67483	21.21479	1.04161	0.96005	179.44976	159.08207	68.38815	0.31199	 	7.35295E15	 	4.50143E-16	 	13995.748	34.887	 
400.0	1.0	0.0	7.61624	7.24539	-9.27016	15.65677	21.14769	1.03721	0.96413	179.8721	159.3015	68.55866	0.31181	 	1.04362E16	 	3.14814E-16	 	13822.419	34.6658	 
395.0	1.0	0.0	7.61815	7.24358	-9.29289	15.6387	21.08058	1.03278	0.96826	180.29265	159.5189	68.72854	0.31163	 	1.48907E16	 	2.19001E-16	 	13650.168	34.4502	 
390.0	1.0	0.0	7.62005	7.24177	-9.31557	15.62064	21.01345	1.02833	0.97245	180.7114	159.7343	68.89777	0.31145	 	2.13611E16	 	1.51522E-16	 	13478.968	34.24	 
385.0	1.0	0.0	7.62195	7.23996	-9.3382	15.60258	20.9463	1.02385	0.97671	181.12833	159.94766	69.06636	0.31126	 	3.08123E16	 	1.04253E-16	 	13308.793	34.035	 
380.0	1.0	0.0	7.62385	7.23816	-9.36078	15.58453	20.87913	1.01934	0.98103	181.54343	160.15901	69.2343	0.31108	 	4.46962E16	 	7.1323E-17	 	13139.617	33.8352	 
375.0	1.0	0.0	7.62575	7.23636	-9.38331	15.56647	20.81194	1.0148	0.98542	181.95669	160.36832	69.40159	0.3109	 	6.52108E16	 	4.85112E-17	 	12971.418	33.6398	 
370.0	1.0	0.0	7.62764	7.23456	-9.4058	15.54842	20.74474	1.01023	0.98987	182.3681	160.5756	69.56822	0.31071	 	9.5704E16	 	3.27996E-17	 	12804.173	33.449	 
365.0	1.0	0.0	7.62953	7.23277	-9.42823	15.53037	20.67752	1.00564	0.99439	182.77764	160.78084	69.73418	0.31053	 	1.41306E17	 	2.20419E-17	 	12637.86	33.2626	 
360.0	1.0	0.0	7.63142	7.23098	-9.45062	15.51232	20.61028	1.00101	0.99899	183.18532	160.98404	69.89947	0.31035	 	2.09929E17	 	1.47204E-17	 	12472.461	33.0798	 
355.0	1.0	0.0	7.6333	7.2292	-9.47296	15.49428	20.54302	0.99636	1.00365	183.59111	161.1852	70.06409	0.31017	 	3.13857E17	 	9.76828E-18	 	12307.954	32.9014	 
350.0	1.0	0.0	7.63518	7.22742	-9.49525	15.47623	20.47574	0.99168	1.00839	183.99501	161.38431	70.22804	0.30998	 	4.72283E17	 	6.43987E-18	 	12144.322	32.7264	 
345.0	1.0	0.0	7.63706	7.22564	-9.51749	15.45819	20.40844	0.98696	1.01321	184.397	161.58136	70.3913	0.3098	 	7.15405E17	 	4.21724E-18	 	11981.548	32.5548	 
340.0	1.0	0.0	7.63893	7.22387	-9.53968	15.44016	20.34113	0.98222	1.0181	184.79708	161.77637	70.55388	0.30962	 	1.09107E18	 	2.74285E-18	 	11819.613	32.387	 
335.0	1.0	0.0	7.6408	7.2221	-9.56183	15.42212	20.27379	0.97745	1.02307	185.19524	161.96932	70.71577	0.30943	 	1.67561E18	 	1.77143E-18	 	11658.503	32.222	 
330.0	1.0	0.0	7.64267	7.22034	-9.58393	15.40409	20.20643	0.97264	1.02813	185.59147	162.16021	70.87697	0.30925	 	2.59174E18	 	1.13585E-18	 	11498.202	32.0602	 
325.0	1.0	0.0	7.64453	7.21858	-9.60597	15.38605	20.13906	0.96781	1.03326	185.98575	162.34904	71.03747	0.30907	 	4.03817E18	 	7.22957E-19	 	11338.695	31.9014	 
320.0	1.0	0.0	7.64639	7.21682	-9.62797	15.36802	20.07166	0.96294	1.03849	186.37809	162.53581	71.19727	0.30889	 	6.33915E18	 	4.56689E-19	 	11179.968	31.7454	 
315.0	1.0	0.0	7.64825	7.21507	-9.64993	15.35	20.00424	0.95804	1.0438	186.76847	162.72052	71.35637	0.3087	 	1.0028E19	 	2.8626E-19	 	11022.007	31.5922	 
310.0	1.0	0.0	7.6501	7.21332	-9.67183	15.33197	19.9368	0.95311	1.0492	187.15688	162.90316	71.51476	0.30852	 	1.5989E19	 	1.78011E-19	 	10864.8	31.4414	 
305.0	1.0	0.0	7.65196	7.21157	-9.69368	15.31395	19.86934	0.94814	1.05469	187.54332	163.08374	71.67244	0.30834	 	2.57003E19	 	1.09797E-19	 	10708.334	31.2932	 
300.0	1.0	0.0	7.6538	7.20983	-9.71549	15.29593	19.80186	0.94315	1.06028	187.92778	163.26226	71.82941	0.30815	 	4.16541E19	 	6.71579E-20	 	10552.596	31.1476	 
295.0	1.0	0.0	7.65565	7.20809	-9.73725	15.27791	19.73436	0.93812	1.06596	188.31025	163.4387	71.98566	0.30797	 	6.80886E19	 	4.07263E-20	 	10397.577	31.0038	 
290.0	1.0	0.0	7.65749	7.20636	-9.75896	15.25989	19.66683	0.93306	1.07175	188.69072	163.61309	72.14119	0.30779	 	1.1227599999999998E20	 	2.44807E-20	 	10243.264	30.8626	 
285.0	1.0	0.0	7.65933	7.20463	-9.78062	15.24188	19.59929	0.92796	1.07763	189.06919	163.78541	72.296	0.3076	 	1.86808E20	 	1.45828E-20	 	10089.646	30.7236	 
280.0	1.0	0.0	7.66116	7.2029	-9.80223	15.22387	19.53172	0.92283	1.08363	189.44566	163.95566	72.45009	0.30742	 	3.1369499999999997E20	 	8.6064E-21	 	9936.715	30.5862	 
275.0	1.0	0.0	7.663	7.20118	-9.8238	15.20586	19.46413	0.91766	1.08973	189.82012	164.12385	72.60345	0.30724	 	5.3177999999999993E20	 	5.031E-21	 	9784.46	30.451	 
270.0	1.0	0.0	7.66483	7.19946	-9.84531	15.18785	19.39651	0.91246	1.09594	190.19255	164.28999	72.75608	0.30706	 	9.102919999999999E20	 	2.91223E-21	 	9632.871	30.3178	 
265.0	1.0	0.0	7.66665	7.19775	-9.86678	15.16985	19.32887	0.90722	1.10226	190.56297	164.45406	72.90798	0.30687	 	1.57388E21	 	1.66885E-21	 	9481.939	30.1864	 
260.0	1.0	0.0	7.66847	7.19604	-9.8882	15.15185	19.26121	0.90195	1.10871	190.93136	164.61608	73.05915	0.30669	 	2.74934E21	 	9.46471E-22	 	9331.657	30.0564	 
255.0	1.0	0.0	7.67029	7.19433	-9.90957	15.13385	19.19353	0.89664	1.11527	191.29772	164.77604	73.20959	0.30651	 	4.85373E21	 	5.3109E-22	 	9182.014	29.9286	 
250.0	1.0	0.0	7.67211	7.19263	-9.93089	15.11585	19.12582	0.8913	1.12196	191.66205	164.93395	73.35929	0.30632	 	8.66254E21	 	2.94759E-22	 	9033.004	29.802	 
245.0	1.0	0.0	7.67392	7.19093	-9.95217	15.09785	19.05808	0.88592	1.12877	192.02435	165.08982	73.50825	0.30614	 	1.5634099999999999E22	 	1.61759E-22	 	8884.619	29.677	 
240.0	1.0	0.0	7.67573	7.18924	-9.97339	15.07986	18.99032	0.8805	1.13572	192.38462	165.24365	73.65647	0.30596	 	2.8543299999999996E22	 	8.7746E-23	 	8736.85	29.5538	 
235.0	1.0	0.0	7.67754	7.18755	-9.99457	15.06187	18.92254	0.87504	1.1428	192.74284	165.39544	73.80396	0.30578	 	5.2732799999999996E22	 	4.70324E-23	 	8589.692	29.4316	 
230.0	1.0	0.0	7.67934	7.18586	-10.0157	15.04388	18.85473	0.86955	1.15002	193.09903	165.5452	73.95071	0.30559	 	9.861889999999999E22	 	2.49014E-23	 	8443.136	29.3112	 
225.0	1.0	0.0	7.68114	7.18417	-10.03678	15.02589	18.7869	0.86402	1.15738	193.45319	165.69293	74.09672	0.30541	 	1.86767E23	 	1.30181E-23	 	8297.177	29.1918	 
220.0	1.0	0.0	7.68293	7.18249	-10.05782	15.00791	18.71904	0.85845	1.16489	193.80531	165.83865	74.24199	0.30523	 	3.5831599999999995E23	 	6.71737E-24	 	8151.809	29.0736	 
215.0	1.0	0.0	7.68473	7.18082	-10.0788	14.98993	18.65115	0.85284	1.17256	194.1554	165.98235	74.38652	0.30504	 	6.966779999999999E23	 	3.41986E-24	 	8007.024	28.957	 
210.0	1.0	0.0	7.68652	7.17915	-10.09974	14.97195	18.58323	0.84719	1.18038	194.50345	166.12406	74.53032	0.30486	 	1.37334E24	 	1.71708E-24	 	7862.817	28.8414	 
205.0	1.0	0.0	7.6883	7.17748	-10.12063	14.95397	18.51529	0.84149	1.18836	194.84949	166.26377	74.67338	0.30468	 	2.74593E24	 	8.49888E-25	 	7719.183	28.7268	 
200.0	1.0	0.0	7.69009	7.17581	-10.14147	14.93599	18.44733	0.83576	1.19651	195.1935	166.40149	74.81571	0.3045	 	5.57138E24	 	4.14498E-25	 	7576.116	28.6134	 
195.0	1.0	0.0	7.69187	7.17415	-10.16226	14.91802	18.37933	0.82999	1.20483	195.53549	166.53724	74.9573	0.30431	 	1.14763E25	 	1.99099E-25	 	7433.612	28.5008	 
190.0	1.0	0.0	7.69364	7.1725	-10.18301	14.90005	18.31131	0.82418	1.21333	195.87548	166.67103	75.09816	0.30413	 	2.40115E25	 	9.41431E-26	 	7291.665	28.3894	 
185.0	1.0	0.0	7.69542	7.17084	-10.2037	14.88208	18.24325	0.81832	1.22202	196.21347	166.80287	75.2383	0.30395	 	5.105490000000001E25	 	4.37983E-26	 	7150.272	28.2786	 
180.0	1.0	0.0	7.69719	7.1692	-10.22435	14.86412	18.17517	0.81242	1.23089	196.54946	166.93277	75.37771	0.30376	 	1.1037900000000002E26	 	2.00374E-26	 	7009.427	28.169	 
175.0	1.0	0.0	7.69895	7.16755	-10.24495	14.84615	18.10706	0.80648	1.23996	196.88348	167.06075	75.5164	0.30358	 	2.4277800000000003E26	 	9.00951E-27	 	6869.126	28.0602	 
170.0	1.0	0.0	7.70072	7.16591	-10.2655	14.82819	18.03892	0.80049	1.24923	197.21552	167.18683	75.65437	0.3034	 	5.43573E26	 	3.97905E-27	 	6729.367	27.9518	 
165.0	1.0	0.0	7.70248	7.16427	-10.28601	14.81023	17.97075	0.79446	1.25871	197.54561	167.31101	75.79163	0.30322	 	1.23964E27	 	1.72509E-27	 	6590.145	27.8444	 
160.0	1.0	0.0	7.70423	7.16264	-10.30646	14.79227	17.90255	0.78839	1.26841	197.87375	167.43331	75.92819	0.30303	 	2.8814E27	 	7.33706E-28	 	6451.457	27.7376	 
155.0	1.0	0.0	7.70599	7.16101	-10.32687	14.77432	17.83432	0.78227	1.27833	198.19997	167.55376	76.06404	0.30285	 	6.83072E27	 	3.05926E-28	 	6313.3	27.6314	 
150.0	1.0	0.0	7.70774	7.15938	-10.34723	14.75637	17.76606	0.77611	1.28848	198.52428	167.67238	76.1992	0.30267	 	1.65268E28	 	1.24966E-28	 	6175.671	27.5258	 
145.0	1.0	0.0	7.70948	7.15776	-10.36754	14.73842	17.69777	0.76989	1.29888	198.8467	167.78918	76.33367	0.30248	 	4.08404E28	 	4.99723E-29	 	6038.569	27.4204	 
140.0	1.0	0.0	7.71123	7.15614	-10.3878	14.72047	17.62944	0.76364	1.30952	199.16725	167.90419	76.46746	0.3023	 	1.0315800000000001E29	 	1.95476E-29	 	5901.99	27.3158	 
135.0	1.0	0.0	7.71297	7.15453	-10.40802	14.70252	17.56108	0.75733	1.32042	199.48596	168.01743	76.60058	0.30212	 	2.66546E29	 	7.47367E-30	 	5765.933	27.2114	 
130.0	1.0	0.0	7.7147	7.15292	-10.42818	14.68458	17.49269	0.75098	1.3316	199.80284	168.12894	76.73304	0.30193	 	7.051330000000001E29	 	2.7905E-30	 	5630.397	27.1072	 
125.0	1.0	0.0	7.71644	7.15131	-10.4483	14.66664	17.42426	0.74458	1.34304	200.11793	168.23873	76.86485	0.30175	 	1.9115299999999998E30	 	1.0166E-30	 	5495.38	27.0034	 
120.0	1.0	0.0	7.71817	7.14971	-10.46837	14.6487	17.35581	0.73813	1.35478	200.43126	168.34684	76.99601	0.30157	 	5.315079999999999E30	 	3.61024E-31	 	5360.88	26.9	 
115.0	1.0	0.0	7.71989	7.14811	-10.4884	14.63076	17.28731	0.73163	1.36682	200.74286	168.4533	77.12655	0.30139	 	1.51733E31	 	1.24855E-31	 	5226.899	26.7962	 
110.0	1.0	0.0	7.72162	7.14651	-10.50837	14.61283	17.21878	0.72508	1.37916	201.05277	168.55814	77.25648	0.3012	 	4.45185E31	 	4.20063E-32	 	5093.434	26.693	 
105.0	1.0	0.0	7.72333	7.14492	-10.5283	14.59489	17.15022	0.71848	1.39184	201.36102	168.6614	77.3858	0.30102	 	1.34389E32	 	1.37337E-32	 	4960.487	26.5894	 
100.0	1.0	0.0	7.72505	7.14334	-10.54818	14.57696	17.08162	0.71182	1.40484	201.66765	168.76312	77.51454	0.30084	 	4.17875E32	 	4.35837E-33	 	4828.058	26.4858	 
95.0	1.0	0.0	7.72676	7.14175	-10.56801	14.55904	17.01298	0.70512	1.4182	201.97271	168.86334	77.64271	0.30065	 	1.34002E33	 	1.34091E-33	 	4696.148	26.382	 
90.0	1.0	0.0	7.72847	7.14017	-10.58779	14.54111	16.94431	0.69836	1.43192	202.27624	168.9621	77.77033	0.30047	 	4.43724E33	 	3.99448E-34	 	4564.758	26.278	 
85.0	1.0	0.0	7.73018	7.1386	-10.60753	14.52319	16.8756	0.69155	1.44603	202.5783	169.05945	77.89742	0.30029	 	1.51926E34	 	1.15059E-34	 	4433.889	26.1738	 
80.0	1.0	0.0	7.73188	7.13702	-10.62721	14.50527	16.80685	0.68468	1.46053	202.87895	169.15544	78.024	0.30011	 	5.38628E34	 	3.20005E-35	 	4303.545	26.0688	 
75.0	1.0	0.0	7.73358	7.13546	-10.64685	14.48735	16.73806	0.67776	1.47544	203.17824	169.25013	78.1501	0.29992	 	1.98031E35	 	8.58064E-36	 	4173.727	25.9636	 
70.0	1.0	0.0	7.73528	7.13389	-10.66644	14.46943	16.66924	0.67079	1.49078	203.47623	169.34356	78.27573	0.29974	 	7.562339999999999E35	 	2.2147E-36	 	4044.439	25.8576	 
65.0	1.0	0.0	7.73697	7.13233	-10.68599	14.45152	16.60037	0.66376	1.50657	203.773	169.43582	78.40093	0.29956	 	3.0046099999999996E36	 	5.49298E-37	 	3915.684	25.751	 
60.0	1.0	0.0	7.73866	7.13077	-10.70548	14.4336	16.53146	0.65667	1.52284	204.06863	169.52694	78.52572	0.29937	 	1.24424E37	 	1.30684E-37	 	3787.468	25.6432	 
55.0	1.0	0.0	7.74035	7.12922	-10.72493	14.41569	16.46251	0.64952	1.53959	204.36318	169.61702	78.65013	0.29919	 	5.38054E37	 	2.97669E-38	 	3659.795	25.5346	 
50.0	1.0	0.0	7.74203	7.12767	-10.74433	14.39779	16.39352	0.64232	1.55686	204.65675	169.70612	78.77421	0.29901	 	2.43459E38	 	6.47835E-39	 	3532.67	25.425	 
45.0	1.0	0.0	7.74371	7.12613	-10.76368	14.37988	16.32449	0.63505	1.57467	204.94944	169.79432	78.89797	0.29883	 	1.1551400000000001E39	 	1.34427E-39	 	3406.1	25.314	 
40.0	1.0	0.0	7.74538	7.12459	-10.78298	14.36198	16.25541	0.62773	1.59304	205.24134	169.88171	79.02147	0.29864	 	5.76016E39	 	2.65341E-40	 	3280.091	25.2018	 
35.0	1.0	0.0	7.74705	7.12305	-10.80224	14.34408	16.18629	0.62034	1.61201	205.53256	169.96838	79.14474	0.29846	 	3.02608E40	 	4.97013E-41	 	3154.653	25.0876	 
30.0	1.0	0.0	7.74872	7.12151	-10.82144	14.32618	16.11713	0.6129	1.6316	205.82322	170.05443	79.26783	0.29828	 	1.6791600000000002E41	 	8.81154E-42	 	3029.793	24.972	 
25.0	1.0	0.0	7.75039	7.11998	-10.8406	 	16.04792	0.60539	1.65183	206.11344	170.13997	79.39079	0.29809	 	9.86881E41	 	1.47454E-42	 	2905.522	 	 
