T (C)	Fraction solid (wt)-TOTAL	Fraction liquid (wt)-LIQUID	Density (g/(cm)^3)-TOTAL	Molar volume (cm^3)-TOTAL	Volume change (%)-  	Average expansion coeff. (10e-6 1/K)-  	Thermal conductivity (W/(m*K))-TOTAL	Electrical resistivity (10e-6 Ohm*m)-TOTAL	Electrical conductivity (10e6 1/(Ohm*m))-TOTAL	Young's modulus (GPa)-TOTAL	Bulk modulus (GPa)-TOTAL	Shear modulus(GPa)-TOTAL	Poisson's ratio-TOTAL	Liquid viscosity (mPa s)-  	Total viscosity (mPa s)-  	Liquid diffusivity (10e-9 (m^2)/s)-  	Total diffusivity (10e-9 (m^2)/s)-  	Surface Tension (mN/m)-  	Enthalpy (J/mole)-TOTAL	Specific heat (J/(mole K))-TOTAL	Latent heat (J/mole)-TOTAL
1500.0	0.0	1.0	7.1306	7.88388	0.0	28.08238	31.29973	1.84596	0.54172	0.0	109.81498	0.0	0.4955	6.92789	6.92789	1.2492	1.2492	1686.89402	64994.651	 	0.0
1495.0	0.0	1.0	7.13448	7.87959	-0.0543763	28.03927	31.22579	1.84512	0.54197	0.0	110.00256	0.0	0.4955	6.99017	6.99017	1.23458	1.23458	1687.7443	64777.285	43.4732	0.0
1490.0	0.0	1.0	7.13836	7.87531	-0.1086	27.99626	31.15183	1.84427	0.54222	0.0	110.19014	0.0	0.4955	7.05337	7.05337	1.22005	1.22005	1688.58074	64560.36	43.385	0.0
1485.0	0.0	1.0	7.14222	7.87105	-0.16267	27.95335	31.07787	1.84341	0.54247	0.0	110.37772	0.0	0.4955	7.1175	7.1175	1.20563	1.20563	1689.40317	64343.873	43.2974	0.0
1480.0	0.0	1.0	7.14608	7.8668	-0.21659	27.91053	31.0039	1.84255	0.54272	0.0	110.5653	0.0	0.4955	7.18259	7.18259	1.19131	1.19131	1690.21144	64127.822	43.2102	0.0
1475.0	0.0	1.0	7.14993	7.86256	-0.27036	27.86781	30.92993	1.84169	0.54298	0.0	110.75288	0.0	0.4955	7.24865	7.24865	1.17709	1.17709	1691.00537	63912.205	43.1234	0.0
1470.0	0.0	1.0	7.15378	7.85833	-0.32398	27.82518	30.85594	1.84083	0.54323	0.0	110.94046	0.0	0.4955	7.31571	7.31571	1.16296	1.16296	1691.78479	63697.018	43.0374	0.0
1465.0	0.0	1.0	7.15762	7.85412	-0.37744	27.78266	30.78195	1.83996	0.54349	0.0	111.12804	0.0	0.4955	7.38377	7.38377	1.14894	1.14894	1692.54953	63482.259	42.9518	0.0
1460.0	0.0	1.0	7.16145	7.84992	-0.43075	27.74024	30.70795	1.83909	0.54375	0.0	111.31562	0.0	0.4955	7.45287	7.45287	1.13501	1.13501	1693.29942	63267.926	42.8666	0.0
1455.0	0.0	1.0	7.16528	7.84573	-0.48391	27.69792	30.63394	1.83821	0.54401	0.0	111.5032	0.0	0.4955	7.52301	7.52301	1.12118	1.12118	1694.03428	63054.016	42.782	0.0
1450.0	0.0	1.0	7.1691	7.84155	-0.53692	27.65571	30.55992	1.83734	0.54427	0.0	111.69077	0.0	0.4955	7.59424	7.59424	1.10745	1.10745	1694.75393	62840.57	42.6892	0.0
1445.0	0.0	1.0	7.17291	7.83738	-0.58977	27.61359	30.4859	1.83645	0.54453	0.0	111.87835	0.0	0.4955	7.66655	7.66655	1.09382	1.09382	1695.45819	62627.657	42.5826	0.0
1440.0	0.0	1.0	7.17671	7.83322	-0.64248	27.57159	30.41187	1.83557	0.54479	0.0	112.06593	0.0	0.4955	7.73998	7.73998	1.08029	1.08029	1696.14689	62415.266	42.4782	0.0
1435.0	0.0	1.0	7.18051	7.82908	-0.69503	27.52969	30.33783	1.83468	0.54506	0.0	112.25351	0.0	0.4955	7.81456	7.81456	1.06686	1.06686	1696.81985	62203.395	42.3742	0.0
1430.0	0.0	1.0	7.1843	7.82495	-0.74743	27.48789	30.26378	1.83378	0.54532	0.0	112.44109	0.0	0.4955	7.89029	7.89029	1.05353	1.05353	1697.47688	61992.04	42.271	0.0
1425.0	0.0	1.0	7.18808	7.82083	-0.79967	27.44621	30.18972	1.83288	0.54559	0.0	112.62867	0.0	0.4955	7.96721	7.96721	1.04029	1.04029	1698.11779	61781.197	42.1686	0.0
1420.0	0.0	1.0	7.19186	7.81672	-0.85177	27.40463	30.11566	1.83198	0.54586	0.0	112.81625	0.0	0.4955	8.04534	8.04534	1.02716	1.02716	1698.7424	61570.863	42.0668	0.0
1415.0	0.0	1.0	7.19563	7.81263	-0.90371	27.36317	30.04158	1.83107	0.54613	0.0	113.00383	0.0	0.4955	8.12471	8.12471	1.01412	1.01412	1699.35053	61361.036	41.9654	0.0
1410.0	0.0	1.0	7.19939	7.80855	-0.9555	27.32182	29.9675	1.83016	0.5464	0.0	113.19141	0.0	0.4955	8.20534	8.20534	1.00118	1.00118	1699.94198	61151.711	41.865	0.0
1405.0	0.0	1.0	7.20315	7.80448	-1.00714	27.28058	29.89341	1.82925	0.54667	0.0	113.37899	0.0	0.4955	8.28726	8.28726	0.98834	0.98834	1700.51657	60942.885	41.7652	0.0
1400.0	0.0	1.0	7.2069	7.80042	-1.05863	27.23946	29.81931	1.82833	0.54695	0.0	113.56657	0.0	0.4955	8.37049	8.37049	0.9756	0.9756	1701.0741	60734.554	41.6662	0.0
1395.0	0.0	1.0	7.21064	7.79637	-1.10996	27.19845	29.74521	1.82741	0.54722	0.0	113.75415	0.0	0.4955	8.45506	8.45506	0.96295	0.96295	1701.61439	60526.716	41.5676	0.0
1390.0	0.0	1.0	7.21437	7.79233	-1.16114	27.15756	29.6711	1.82648	0.5475	0.0	113.94173	0.0	0.4955	8.54101	8.54101	0.95041	0.95041	1702.13723	60319.367	41.4698	0.0
1387.29	0.0	1.0	7.21639	7.79015	-1.18882	27.13545	29.63092	1.82598	0.54765	0.0	114.04339	0.0	0.4955	8.58817	8.58817	0.94365	0.94365	1702.41324	60207.187	41.3958	0.0030
1385.0	0.0680102	0.93199	7.22728	7.77838	-1.33817	26.76959	29.7556	1.81582	0.55072	0.00184057	113.75935	6.19233E-4	0.48617	8.63285	9.77317	0.93747	0.82808	1699.79142	59321.537	386.737	790.966
1380.0	0.19939	0.80061	7.24864	7.75543	-1.62922	26.0634	29.99622	1.79582	0.55685	0.13813	113.23459	0.0470485	0.46801	8.73107	36.7788	0.92413	0.21938	1694.09861	57590.161	346.275	2315.963
1375.0	0.30677	0.69323	7.26658	7.73637	-1.87098	25.48883	30.18938	1.77894	0.56213	0.78462	112.85457	0.27	0.45302	8.83083	163.68838	0.91092	0.0491434	1688.46802	56138.823	290.268	3561.403
1370.0	0.39557	0.60443	7.28189	7.72004	-2.07808	25.00655	30.34379	1.76451	0.56673	2.19508	112.58527	0.76191	0.4405	8.93168	454.54523	0.89791	0.0176436	1682.90096	54904.237	246.917	4590.569
1365.0	0.46976	0.53024	7.29512	7.70601	-2.25605	24.60212	30.46695	1.75203	0.57077	4.41255	112.40565	1.54289	0.42996	9.03409	940.94363	0.88503	0.00849722	1677.38974	53839.643	212.919	5450.216
1360.0	0.53233	0.46767	7.30667	7.69375	-2.41156	24.25772	30.5642	1.74113	0.57434	7.34715	112.29743	2.58524	0.42098	9.13802	1630.55506	0.87229	0.00488852	1671.93256	52909.844	185.96	6175.542
1355.0	0.58556	0.41444	7.31693	7.68289	-2.5493	23.9608	30.63949	1.73153	0.57752	10.85223	112.24795	3.83936	0.41329	9.24312	2518.02657	0.85973	0.00315588	1666.52754	52088.105	164.348	6793.276
1350.0	0.6312	0.3688	7.3261	7.6732	-2.67229	23.70337	30.69649	1.72301	0.58038	14.77264	112.24645	5.25108	0.40663	9.34991	3592.98984	0.8473	0.0022049	1661.1711	51353.836	146.854	7324.006
1345.0	0.67061	0.32939	7.3344	7.66443	-2.78354	23.47732	30.73777	1.7154	0.58296	18.96641	112.28406	6.76969	0.40083	9.45833	4844.04501	0.83501	0.00163041	1655.86198	50690.998	132.568	7783.77
1340.0	0.70487	0.29513	7.342	7.65638	-2.88563	23.27564	30.76553	1.70855	0.58529	23.31682	112.35422	8.35281	0.39575	9.56799	6261.8249	0.82289	0.00125736	1650.60084	50086.995	120.801	8185.158
1335.0	0.73483	0.26517	7.34899	7.64898	-2.97952	23.09589	30.78179	1.70236	0.58742	27.73015	112.45212	9.96583	0.39126	9.67948	7839.42766	0.81089	0.00100122	1645.38362	49531.779	111.043	8538.218
1333.28	0.74488	0.25512	7.35141	7.64639	-3.01233	23.03231	30.78605	1.7003	0.58813	29.34666	112.4888	10.55823	0.38975	9.71835	8445.53208	0.80678	9.2837E-4	1643.60077	49343.805	 	8656.675
1330.0	0.76718	0.23282	7.35663	7.64077	-3.08361	22.88545	30.82554	1.69465	0.59009	32.43877	112.49567	11.69908	0.38638	9.77626	9836.54748	0.80036	7.9546E-4	1639.08617	48956.825	114.991	8911.471
1325.0	0.79794	0.20206	7.36418	7.63259	-3.18735	22.67442	30.87041	1.68691	0.5928	37.19186	112.54258	13.4587	0.3817	9.86563	12151.86118	0.79064	6.41891E-4	1632.30227	48400.061	111.353	9266.987
1320.0	0.82494	0.17506	7.37129	7.62487	-3.28521	22.47878	30.89802	1.68013	0.59519	41.90012	112.62945	15.20808	0.37756	9.95613	14680.3884	0.781	5.29671E-4	1625.64427	47881.457	103.721	9584.794
1315.0	0.84887	0.15113	7.37803	7.61756	-3.37797	22.29643	30.91117	1.67415	0.59732	46.55806	112.74899	16.9442	0.37386	10.0483	17428.55048	0.77141	4.44751E-4	1619.1032	47394.176	97.4562	9871.725
1310.0	0.87024	0.12976	7.38449	7.61053	-3.46716	22.12309	30.91192	1.66884	0.59922	51.17881	112.89443	18.67109	0.37054	10.14222	20407.14109	0.76186	3.7864E-4	1612.67688	46932.724	92.2904	10133.272
1305.0	0.88947	0.11053	7.39074	7.60369	-3.5539	21.95555	30.9021	1.66409	0.60093	55.79903	113.06103	20.40165	0.36751	10.23742	23633.55369	0.75239	3.25916E-4	1606.36338	46492.627	88.0194	10373.906
1300.0	0.90692	0.0930786	7.39684	7.59702	-3.63848	21.79305	30.88326	1.65983	0.60247	60.4781	113.24528	22.15728	0.36475	10.33447	27128.98272	0.74297	2.83024E-4	1600.1538	46070.187	84.488	10597.323
1295.0	0.92289	0.0771133	7.40284	7.59045	-3.7219	21.63268	30.85649	1.65599	0.60387	65.31353	113.44383	23.9737	0.36219	10.43302	30918.27242	0.73361	2.47548E-4	1594.0485	45662.304	81.5766	10806.622
1291.12	0.93257	0.0674347	7.40695	7.58599	-3.77846	21.5315	30.82874	1.65339	0.60482	68.61513	113.61574	25.2149	0.36061	10.51108	33822.64909	0.72636	2.25731E-4	1589.38238	45373.006	 	10942.241
1290.0	0.93433	0.0656652	7.40789	7.585	-3.791	21.51348	30.82178	1.65257	0.60512	69.20569	113.67523	25.43768	0.3603	10.54053	34559.40989	0.72381	2.2076E-4	1587.61347	45310.839	70.293	10959.936
1285.0	0.94158	0.0584165	7.41195	7.58077	-3.84458	21.43949	30.78763	1.64911	0.60639	71.93666	113.945	26.46632	0.35902	10.67298	37952.56092	0.71254	2.0038E-4	1579.99225	45041.549	53.858	11031.509
1280.0	0.94775	0.0522476	7.41581	7.57675	-3.89558	21.37262	30.74811	1.64594	0.60756	74.73012	114.22033	27.51672	0.3579	10.80626	41515.27162	0.7015	1.82596E-4	1572.76819	44784.981	51.3136	11090.789
1275.0	0.95305	0.0469494	7.41952	7.5729	-3.94445	21.31161	30.70428	1.64298	0.60865	77.52528	114.49995	28.5668	0.35691	10.94001	45274.15549	0.69069	1.66897E-4	1565.9038	44538.697	49.2568	11140.213
1274.81	0.95323	0.0467652	7.41966	7.57276	-3.94629	21.30933	30.7025	1.64287	0.60869	77.62964	114.51074	28.606	0.35688	10.94496	45421.70384	0.69029	1.66335E-4	1565.64775	44529.486	 	11141.897
1274.81	0.95323	0.0467652	7.41966	7.57276	-3.94629	21.30933	30.7025	1.64287	0.60869	77.62964	114.51074	28.606	0.35688	10.94496	45421.70384	0.69029	1.66335E-4	1565.64774	44529.486	 	11141.897
1270.0	0.95835	0.0416504	7.42346	7.56889	-3.99533	21.24402	30.64022	1.6411	0.60935	80.56222	114.81569	29.7075	0.35592	11.03036	49443.15733	0.68282	1.52331E-4	1556.91624	44284.965	50.7464	11197.511
1265.0	0.96289	0.037112	7.42726	7.56504	-4.04418	21.18206	30.57479	1.63928	0.61002	83.3687	115.13007	30.7623	0.35505	11.11991	53851.65627	0.67512	1.39408E-4	1548.35767	44041.214	48.7502	11245.25
1260.0	0.96678	0.0332152	7.43092	7.56132	-4.09129	21.12485	30.5077	1.63754	0.61067	85.94118	115.44192	31.72989	0.35426	11.21042	58523.78139	0.6675	1.27861E-4	1540.27992	43806.137	47.0154	11284.736
1255.61	0.96977	0.0302303	7.43405	7.55816	-4.13144	21.07802	30.449	1.636	0.61125	88.01549	115.71421	32.51073	0.35364	11.29143	62872.552	0.66081	1.18676E-4	1533.53718	43605.484	 	11313.839
1255.0	0.97022	0.0297813	7.43451	7.55769	-4.13737	21.07034	30.44088	1.63579	0.61133	88.33149	115.75199	32.62967	0.35355	11.30427	63508.48746	0.6598	1.17441E-4	1532.56002	43577.278	45.7718	11318.423
1250.0	0.97367	0.0263275	7.43824	7.55392	-4.18526	21.00983	30.37366	1.63404	0.61198	90.81193	116.0627	33.56386	0.35282	11.41218	68954.47593	0.65142	1.07812E-4	1524.79104	43348.028	45.85	11352.917
1245.0	0.97664	0.0233601	7.44183	7.55028	-4.23133	20.95444	30.30599	1.63231	0.61263	93.02368	116.37119	34.39787	0.35217	11.5224	74752.85002	0.64307	9.91228E-5	1517.47891	43125.494	44.5068	11381.108
1240.0	0.97921	0.0207851	7.44531	7.54677	-4.27595	20.90304	30.23798	1.6306	0.61327	94.99732	116.67771	35.14308	0.35158	11.63395	80945.65957	0.63481	9.12379E-5	1510.58178	42908.433	43.4122	11404.242
1235.0	0.98147	0.0185344	7.4487	7.54334	-4.31938	20.85488	30.16969	1.62889	0.61392	96.76318	116.98241	35.81078	0.35103	11.74751	87576.49484	0.62659	8.40512E-5	1504.06227	42695.888	42.509	11423.276
1230.0	0.98345	0.0165521	7.45202	7.54	-4.36181	20.80947	30.1012	1.62718	0.61456	98.34946	117.2855	36.41145	0.35053	11.86297	94691.03928	0.61844	7.74783E-5	1497.8856	42487.107	41.7562	11438.959
1225.0	0.98521	0.0147948	7.45527	7.53672	-4.4034	20.76631	30.03255	1.62548	0.6152	99.78276	117.58705	36.955	0.35006	11.98109	102338.2373	0.6103	7.14503E-5	1492.02352	42281.495	41.1224	11451.883
1220.0	0.98677	0.0132282	7.45848	7.53349	-4.4443	20.72493	29.96377	1.62377	0.61585	101.08681	117.88716	37.45026	0.34961	12.10137	110570.6548	0.60222	6.59098E-5	1486.45161	42078.575	40.584	11462.525
1215.0	0.98818	0.0118225	7.46164	7.53032	-4.48459	20.68512	29.89489	1.62206	0.6165	102.28047	118.1859	37.90426	0.34919	12.22389	119443.7512	0.59419	6.08093E-5	1481.14695	41877.957	40.1236	11471.271
1210.0	0.98945	0.0105547	7.46476	7.52718	-4.5244	20.64648	29.82593	1.62035	0.61715	103.38224	118.48331	38.32389	0.3488	12.34871	129019.3602	0.58621	5.6107E-5	1476.09239	41679.322	39.727	11478.438
1209.47	0.98957	0.01043	7.46509	7.52685	-4.52858	20.64247	29.81865	1.62017	0.61722	103.49313	118.51461	38.36616	0.34876	12.36197	130073.832	0.58537	5.56323E-5	1475.5714	41658.463	 	11479.095
1209.47	0.98957	0.01043	7.46509	7.52685	-4.52858	20.64247	29.81864	1.62017	0.61722	103.49315	118.51463	38.36617	0.34876	12.36197	130074.1328	0.58537	5.56322E-5	1475.57126	41658.457	 	11479.095
1206.18	0.99034	0.00966306	7.46712	7.52481	-4.55449	20.61772	29.77304	1.61905	0.61765	104.57344	118.70953	38.7739	0.3485	12.44677	136842.9615	0.58009	5.27631E-5	1472.38012	41528.758	 	11483.173
1205.0	0.99076	0.00924316	7.46793	7.52401	-4.56462	20.60623	29.75692	1.61863	0.61781	104.85785	118.77956	38.88276	0.34838	12.48145	139455.2956	0.57802	5.17333E-5	1470.97808	41478.944	40.0756	11487.751
1200.0	0.9924	0.00760393	7.47129	7.52066	-4.60706	20.55858	29.68872	1.61686	0.61848	106.0065	119.07428	39.32265	0.34791	12.63426	151008.805	0.56909	4.76136E-5	1465.35696	41270.763	41.6362	11505.267
1195.0	0.99382	0.00618482	7.4746	7.51737	-4.64887	20.51252	29.62014	1.61511	0.61915	107.06497	119.36782	39.72833	0.34746	12.79159	163455.2787	0.56019	4.38388E-5	1460.14725	41065.982	40.9562	11519.783
1190.0	0.99505	0.0049485	7.47787	7.51411	-4.69014	20.46779	29.55132	1.61335	0.61983	108.04808	119.66018	40.10542	0.34705	12.95342	176886.5738	0.5513	4.0372E-5	1455.31214	40864.065	40.3834	11531.828
1185.0	0.99614	0.00386488	7.48111	7.51089	-4.73097	20.4241	29.48232	1.6116	0.6205	108.96768	119.95131	40.45841	0.34666	13.12011	191401.3997	0.54244	3.71829E-5	1450.82254	40664.591	39.8948	11541.827
1180.0	0.99709	0.00290907	7.48432	7.5077	-4.77143	20.38126	29.41318	1.60985	0.62117	109.83305	120.2413	40.79083	0.3463	13.29105	207105.9817	0.53363	3.42456E-5	1446.65067	40467.217	39.4748	11550.117
1175.0	0.99794	0.00206133	7.4875	7.50454	-4.81158	20.33903	29.34385	1.6081	0.62185	110.65294	120.53025	41.106	0.34595	13.46609	224117.5747	0.52488	3.15373E-5	1442.77236	40271.669	39.1096	11556.971
1170.0	0.99869	0.00130818	7.49066	7.5014	-4.85144	20.29738	29.27442	1.60635	0.62253	111.43273	120.81809	41.40596	0.34561	13.64575	242561.6639	0.51618	2.90386E-5	1439.16316	40077.722	38.7894	11562.612
1165.0	0.99937	6.34036E-4	7.49381	7.49827	-4.89105	20.25619	29.20493	1.6046	0.62321	112.17856	121.10477	41.69304	0.34529	13.8301	262579.3376	0.50753	2.67319E-5	1435.80359	39885.191	38.5062	11567.224
1161.46	0.9998	2.00183E-4	7.49602	7.49608	-4.91892	20.22732	29.15573	1.60335	0.62369	112.68722	121.30692	41.88894	0.34507	13.96246	277767.2455	0.50149	2.52081E-5	1433.56436	39749.802	 	11569.935
1160.0	1.0	0.0	7.49696	7.49512	-4.931	20.21352	29.13519	1.60284	0.62389	112.91178	121.39141	41.9754	0.34498	 	284357.5854	 	2.45988E-5	 	39693.337	38.3708	11571.543
1155.0	1.0	0.0	7.49953	7.49255	-4.96361	20.19483	29.06692	1.601	0.62461	113.31603	121.671	42.13187	0.34478	 	307312.5849	 	2.26819E-5	 	39444.754	49.7166	 
1150.0	1.0	0.0	7.5021	7.48999	-4.99615	20.17616	28.99864	1.59916	0.62533	113.71998	121.94955	42.28827	0.34458	 	332302.3042	 	2.09028E-5	 	39262.641	36.4226	 
1145.0	1.0	0.0	7.50466	7.48742	-5.02865	20.15751	28.93035	1.5973	0.62606	114.12361	122.22705	42.4446	0.34438	 	359522.7279	 	1.92523E-5	 	39080.812	36.3658	 
1140.0	1.0	0.0	7.50723	7.48487	-5.06108	20.13888	28.86205	1.59543	0.62679	114.52693	122.50352	42.60086	0.34419	 	389190.1902	 	1.7722E-5	 	38899.267	36.309	 
1135.0	1.0	0.0	7.50979	7.48231	-5.09346	20.12028	28.79375	1.59356	0.62753	114.92994	122.77896	42.75706	0.34399	 	421543.6388	 	1.6304E-5	 	38718.004	36.2526	 
1130.0	1.0	0.0	7.51235	7.47977	-5.12579	20.10169	28.72543	1.59168	0.62827	115.33264	123.05337	42.91318	0.34379	 	456847.1658	 	1.49906E-5	 	38537.024	36.196	 
1125.0	1.0	0.0	7.5149	7.47722	-5.15806	20.08313	28.65711	1.58979	0.62901	115.73502	123.32675	43.06923	0.34359	 	495392.8418	 	1.3775E-5	 	38356.325	36.1398	 
1120.0	1.0	0.0	7.51746	7.47468	-5.19027	20.06459	28.58878	1.58789	0.62977	116.13709	123.5991	43.22521	0.3434	 	537503.8894	 	1.26504E-5	 	38175.908	36.0834	 
1115.0	1.0	0.0	7.52001	7.47215	-5.22242	20.04607	28.52044	1.58598	0.63052	116.53884	123.87043	43.38111	0.3432	 	583538.2409	 	1.16106E-5	 	37995.771	36.0274	 
1110.0	1.0	0.0	7.52256	7.46962	-5.25452	20.02758	28.45209	1.58406	0.63129	116.94027	124.14075	43.53694	0.343	 	633892.528	 	1.06498E-5	 	37815.915	35.9712	 
1105.0	1.0	0.0	7.5251	7.46709	-5.28657	20.0091	28.38374	1.58214	0.63206	117.34138	124.41004	43.6927	0.3428	 	689006.5604	 	9.76247E-6	 	37636.338	35.9154	 
1100.0	1.0	0.0	7.52764	7.46457	-5.31856	19.99065	28.31537	1.5802	0.63283	117.74217	124.67832	43.84839	0.34261	 	749368.3564	 	8.94354E-6	 	37457.041	35.8594	 
1095.0	1.0	0.0	7.53018	7.46205	-5.35049	19.97222	28.247	1.57826	0.63361	118.14264	124.94558	44.004	0.34241	 	815519.7973	 	8.18815E-6	 	37278.022	35.8038	 
1090.0	1.0	0.0	7.53272	7.45954	-5.38237	19.95381	28.17862	1.57631	0.63439	118.54278	125.21184	44.15954	0.34221	 	888062.9883	 	7.49181E-6	 	37099.282	35.748	 
1085.0	1.0	0.0	7.53525	7.45703	-5.4142	19.93542	28.11023	1.57435	0.63518	118.9426	125.47708	44.315	0.34201	 	967667.4188	 	6.85028E-6	 	36920.82	35.6924	 
1080.0	1.0	0.0	7.53779	7.45452	-5.44596	19.91706	28.04183	1.57238	0.63598	119.3421	125.74133	44.47039	0.34182	 	1055078.029	 	6.25962E-6	 	36742.634	35.6372	 
1075.0	1.0	0.0	7.54031	7.45202	-5.47768	19.89871	27.97343	1.5704	0.63678	119.74127	126.00457	44.6257	0.34162	 	1151124.304	 	5.71614E-6	 	36564.723	35.5822	 
1070.0	1.0	0.0	7.54284	7.44953	-5.50933	19.88039	27.90501	1.56841	0.63759	120.14011	126.2668	44.78093	0.34142	 	1256730.536	 	5.21638E-6	 	36387.087	35.5272	 
1065.0	1.0	0.0	7.54536	7.44704	-5.54094	19.86209	27.83659	1.56641	0.6384	120.53862	126.52805	44.93609	0.34122	 	1372927.41	 	4.75712E-6	 	36209.726	35.4722	 
1060.0	1.0	0.0	7.54789	7.44455	-5.57249	19.84381	27.76815	1.56441	0.63922	120.9368	126.78829	45.09117	0.34103	 	1500865.097	 	4.33535E-6	 	36032.638	35.4176	 
1055.0	1.0	0.0	7.5504	7.44207	-5.60398	19.82556	27.69971	1.56239	0.64004	121.33464	127.04754	45.24617	0.34083	 	1641828.06	 	3.94826E-6	 	35855.823	35.363	 
1050.0	1.0	0.0	7.55292	7.43959	-5.63542	19.80732	27.63126	1.56036	0.64088	121.73216	127.30581	45.40109	0.34063	 	1797251.817	 	3.59325E-6	 	35679.281	35.3084	 
1045.0	1.0	0.0	7.55543	7.43711	-5.6668	19.78911	27.56281	1.55833	0.64171	122.12934	127.56308	45.55594	0.34043	 	1968741.921	 	3.26785E-6	 	35503.011	35.254	 
1040.0	1.0	0.0	7.55794	7.43464	-5.69813	19.77092	27.49434	1.55628	0.64256	122.52618	127.81937	45.7107	0.34024	 	2158095.487	 	2.96982E-6	 	35327.012	35.1998	 
1035.0	1.0	0.0	7.56045	7.43218	-5.72941	19.75275	27.42586	1.55423	0.64341	122.92269	128.07467	45.86538	0.34004	 	2367325.605	 	2.69703E-6	 	35151.284	35.1456	 
1030.0	1.0	0.0	7.56295	7.42972	-5.76063	19.7346	27.35738	1.55216	0.64426	123.31886	128.329	46.01999	0.33984	 	2598689.076	 	2.44752E-6	 	34975.826	35.0916	 
1025.0	1.0	0.0	7.56546	7.42726	-5.7918	19.71647	27.28889	1.55009	0.64512	123.71469	128.58234	46.17451	0.33964	 	2854717.92	 	2.21947E-6	 	34800.638	35.0376	 
1020.0	1.0	0.0	7.56796	7.42481	-5.82291	19.69837	27.22038	1.54801	0.64599	124.11018	128.83471	46.32895	0.33945	 	3138255.227	 	2.01116E-6	 	34625.719	34.9838	 
1015.0	1.0	0.0	7.57045	7.42236	-5.85397	19.68028	27.15187	1.54591	0.64687	124.50533	129.08611	46.48331	0.33925	 	3452495.966	 	1.82104E-6	 	34451.069	34.93	 
1010.0	1.0	0.0	7.57295	7.41991	-5.88497	19.66222	27.08336	1.54381	0.64775	124.90014	129.33653	46.63759	0.33905	 	3801033.489	 	1.64764E-6	 	34276.687	34.8764	 
1005.0	1.0	0.0	7.57544	7.41747	-5.91592	19.64418	27.01483	1.54169	0.64864	125.2946	129.58599	46.79178	0.33885	 	4187912.559	 	1.4896E-6	 	34102.572	34.823	 
1000.0	1.0	0.0	7.57793	7.41504	-5.94682	19.62616	26.94629	1.53957	0.64953	125.68872	129.83448	46.94589	0.33866	 	4617689.887	 	1.34568E-6	 	33928.725	34.7694	 
995.0	1.0	0.0	7.58041	7.41261	-5.97766	19.60817	26.87775	1.53743	0.65044	126.08249	130.082	47.09992	0.33846	 	5095503.294	 	1.2147E-6	 	33755.143	34.7164	 
990.0	1.0	0.0	7.5829	7.41018	-6.00845	19.59019	26.80919	1.53528	0.65134	126.47592	130.32856	47.25386	0.33826	 	5627150.796	 	1.0956E-6	 	33581.828	34.663	 
985.0	1.0	0.0	7.58538	7.40775	-6.03919	19.57224	26.74063	1.53313	0.65226	126.86899	130.57417	47.40772	0.33806	 	6219181.13	 	9.87384E-7	 	33408.777	34.6102	 
980.0	1.0	0.0	7.58785	7.40534	-6.06987	19.55431	26.67206	1.53096	0.65318	127.26172	130.81881	47.56149	0.33787	 	6878997.457	 	8.89129E-7	 	33235.992	34.557	 
975.0	1.0	0.0	7.59033	7.40292	-6.1005	19.5364	26.60348	1.52878	0.65411	127.6541	131.0625	47.71518	0.33767	 	7614976.287	 	7.99991E-7	 	33063.47	34.5044	 
970.0	1.0	0.0	7.5928	7.40051	-6.13108	19.51851	26.53489	1.5266	0.65505	128.04612	131.30524	47.86878	0.33747	 	8436603.982	 	7.19188E-7	 	32891.212	34.4516	 
965.0	1.0	0.0	7.59527	7.3981	-6.1616	19.50065	26.46629	1.5244	0.656	128.43779	131.54703	48.02229	0.33727	 	9354633.587	 	6.46001E-7	 	32719.217	34.399	 
960.0	1.0	0.0	7.59774	7.3957	-6.19207	19.4828	26.39768	1.52219	0.65695	128.82911	131.78786	48.17572	0.33708	 	1.038126519E7	 	5.79765E-7	 	32547.484	34.3466	 
955.0	1.0	0.0	7.6002	7.3933	-6.22249	19.46498	26.32906	1.51997	0.65791	129.22007	132.02776	48.32906	0.33688	 	1.153035355E7	 	5.19871E-7	 	32376.013	34.2942	 
950.0	1.0	0.0	7.60266	7.39091	-6.25285	19.44718	26.26044	1.51773	0.65888	129.61068	132.26671	48.48231	0.33668	 	1.281764735E7	 	4.65756E-7	 	32204.803	34.242	 
945.0	1.0	0.0	7.60512	7.38852	-6.28316	19.4294	26.1918	1.51549	0.65985	130.00092	132.50472	48.63547	0.33648	 	1.426106517E7	 	4.16903E-7	 	32033.854	34.1898	 
940.0	1.0	0.0	7.60758	7.38613	-6.31342	19.41165	26.12316	1.51324	0.66084	130.39081	132.74179	48.78854	0.33629	 	1.588101413E7	 	3.7284E-7	 	31863.165	34.1378	 
935.0	1.0	0.0	7.61003	7.38375	-6.34363	19.39391	26.05451	1.51097	0.66183	130.78034	132.97792	48.94153	0.33609	 	1.770075824E7	 	3.33131E-7	 	31692.735	34.086	 
930.0	1.0	0.0	7.61248	7.38138	-6.37378	19.3762	25.98585	1.50869	0.66283	131.16951	133.21312	49.09442	0.33589	 	1.974684449E7	 	2.97378E-7	 	31522.564	34.0342	 
925.0	1.0	0.0	7.61493	7.379	-6.40388	19.35851	25.91718	1.5064	0.66383	131.55832	133.44738	49.24723	0.33569	 	2.204959652E7	 	2.65214E-7	 	31352.652	33.9824	 
920.0	1.0	0.0	7.61738	7.37663	-6.43393	19.34084	25.8485	1.5041	0.66485	131.94676	133.68072	49.39994	0.3355	 	2.464368692E7	 	2.36307E-7	 	31182.997	33.931	 
915.0	1.0	0.0	7.61982	7.37427	-6.46392	19.32319	25.77981	1.50179	0.66587	132.33484	133.91312	49.55256	0.3353	 	2.756880157E7	 	2.10349E-7	 	31013.599	33.8796	 
910.0	1.0	0.0	7.62226	7.37191	-6.49387	19.30556	25.71111	1.49947	0.6669	132.72255	134.14461	49.70509	0.3351	 	3.087041165E7	 	1.87061E-7	 	30844.458	33.8282	 
905.0	1.0	0.0	7.6247	7.36955	-6.52376	19.28796	25.6424	1.49713	0.66794	133.1099	134.37517	49.85753	0.3349	 	3.460067168E7	 	1.66189E-7	 	30675.573	33.777	 
900.0	1.0	0.0	7.62713	7.3672	-6.5536	19.27038	25.57369	1.49478	0.66899	133.49688	134.6048	50.00988	0.33471	 	3.881946541E7	 	1.475E-7	 	30506.943	33.726	 
895.0	1.0	0.0	7.62956	7.36485	-6.58339	19.25281	25.50496	1.49242	0.67005	133.88349	134.83352	50.16213	0.33451	 	4.35956253E7	 	1.3078E-7	 	30338.568	33.675	 
890.0	1.0	0.0	7.63199	7.36251	-6.61312	19.23527	25.43622	1.49005	0.67112	134.26973	135.06132	50.31429	0.33431	 	4.900835586E7	 	1.15838E-7	 	30170.447	33.6242	 
885.0	1.0	0.0	7.63442	7.36017	-6.64281	19.21776	25.36748	1.48767	0.67219	134.6556	135.28821	50.46635	0.33411	 	5.514889719E7	 	1.02498E-7	 	30002.58	33.5734	 
880.0	1.0	0.0	7.63684	7.35783	-6.67244	19.20026	25.29873	1.48527	0.67328	135.0411	135.51418	50.61832	0.33392	 	6.212247112E7	 	9.05991E-8	 	29834.965	33.523	 
875.0	1.0	0.0	7.63927	7.3555	-6.70202	19.18279	25.22996	1.48286	0.67437	135.42622	135.73925	50.7702	0.33372	 	7.005056103E7	 	7.9997E-8	 	29667.603	33.4724	 
870.0	1.0	0.0	7.64168	7.35317	-6.73155	19.16533	25.16119	1.48044	0.67548	135.81097	135.9634	50.92198	0.33352	 	7.90735856E7	 	7.056E-8	 	29500.492	33.4222	 
865.0	1.0	0.0	7.6441	7.35085	-6.76102	19.1479	25.09241	1.478	0.67659	136.19535	136.18665	51.07366	0.33332	 	8.935403833E7	 	6.21687E-8	 	29333.633	33.3718	 
860.0	1.0	0.0	7.64651	7.34853	-6.79045	19.1305	25.02362	1.47555	0.67771	136.57935	136.409	51.22525	0.33313	 	1.010801787E8	 	5.47152E-8	 	29167.023	33.322	 
855.0	1.0	0.0	7.64892	7.34621	-6.81983	19.11311	24.95482	1.47309	0.67884	136.96297	136.63044	51.37674	0.33293	 	1.144703772E8	 	4.81017E-8	 	29000.664	33.2718	 
850.0	1.0	0.0	7.65133	7.3439	-6.84915	19.09574	24.88601	1.47062	0.67999	137.34621	136.85099	51.52814	0.33273	 	1.297782363E8	 	4.22399E-8	 	28834.554	33.222	 
845.0	1.0	0.0	7.65374	7.34159	-6.87842	19.0784	24.81719	1.46813	0.68114	137.72908	137.07063	51.67944	0.33253	 	1.472986346E8	 	3.705E-8	 	28668.692	33.1724	 
840.0	1.0	0.0	7.65614	7.33929	-6.90764	19.06108	24.74836	1.46563	0.6823	138.11156	137.28938	51.83064	0.33234	 	1.673748679E8	 	3.24601E-8	 	28503.079	33.1226	 
835.0	1.0	0.0	7.65854	7.33699	-6.93681	19.04378	24.67952	1.46312	0.68347	138.49366	137.50724	51.98174	0.33214	 	1.904071003E8	 	2.84055E-8	 	28337.712	33.0734	 
830.0	1.0	0.0	7.66094	7.33469	-6.96593	19.0265	24.61067	1.46059	0.68465	138.87538	137.72421	52.13274	0.33194	 	2.168623753E8	 	2.48277E-8	 	28172.592	33.024	 
825.0	1.0	0.0	7.66333	7.3324	-6.995	19.00924	24.54181	1.45805	0.68585	139.25672	137.94029	52.28364	0.33174	 	2.472864948E8	 	2.16744E-8	 	28007.718	32.9748	 
820.0	1.0	0.0	7.66572	7.33011	-7.02402	18.99201	24.47294	1.4555	0.68705	139.63767	138.15548	52.43444	0.33155	 	2.823181302E8	 	1.88985E-8	 	27843.089	32.9258	 
815.0	1.0	0.0	7.66811	7.32783	-7.05299	18.97479	24.40407	1.45293	0.68827	140.01823	138.36978	52.58515	0.33135	 	3.227056102E8	 	1.64577E-8	 	27678.705	32.8768	 
810.0	1.0	0.0	7.6705	7.32555	-7.08191	18.9576	24.33518	1.45035	0.68949	140.39841	138.5832	52.73575	0.33115	 	3.693269214E8	 	1.43141E-8	 	27514.564	32.8282	 
805.0	1.0	0.0	7.67288	7.32327	-7.11077	18.94043	24.26628	1.44775	0.69073	140.7782	138.79575	52.88625	0.33095	 	4.232135686E8	 	1.24339E-8	 	27350.667	32.7794	 
800.0	1.0	0.0	7.67526	7.321	-7.13959	18.92328	24.19737	1.44514	0.69197	141.1576	139.00741	53.03665	0.33076	 	4.855790816E8	 	1.07867E-8	 	27187.012	32.731	 
795.0	1.0	0.0	7.67764	7.31873	-7.16836	18.90616	24.12846	1.44252	0.69323	141.53661	139.2182	53.18695	0.33056	 	5.578531235E8	 	9.34543E-9	 	27023.599	32.6826	 
790.0	1.0	0.0	7.68002	7.31647	-7.19707	18.88905	24.05953	1.43988	0.6945	141.91523	139.42811	53.33714	0.33036	 	6.417223609E8	 	8.08601E-9	 	26860.428	32.6342	 
785.0	1.0	0.0	7.68239	7.31421	-7.22574	18.87197	23.9906	1.43722	0.69579	142.29346	139.63715	53.48723	0.33016	 	7.391795087E8	 	6.98689E-9	 	26697.496	32.5864	 
780.0	1.0	0.0	7.68476	7.31195	-7.25436	18.85491	23.92165	1.43455	0.69708	142.67129	139.84532	53.63722	0.32997	 	8.525822763E8	 	6.02894E-9	 	26534.804	32.5384	 
775.0	1.0	0.0	7.68713	7.3097	-7.28292	18.83787	23.85269	1.43187	0.69839	143.04873	140.05262	53.78711	0.32977	 	9.847243205E8	 	5.19512E-9	 	26372.351	32.4906	 
770.0	1.0	0.0	7.68949	7.30745	-7.31144	18.82085	23.78373	1.42917	0.69971	143.42578	140.25905	53.93689	0.32957	 	1.138920786E9	 	4.47033E-9	 	26210.136	32.443	 
765.0	1.0	0.0	7.69186	7.30521	-7.33991	18.80386	23.71475	1.42646	0.70104	143.80243	140.46462	54.08657	0.32937	 	1.319111592E9	 	3.84119E-9	 	26048.159	32.3954	 
760.0	1.0	0.0	7.69422	7.30297	-7.36832	18.78688	23.64576	1.42373	0.70238	144.17868	140.66933	54.23614	0.32918	 	1.529986354E9	 	3.29581E-9	 	25886.418	32.3482	 
755.0	1.0	0.0	7.69657	7.30073	-7.39669	18.76993	23.57677	1.42099	0.70374	144.55453	140.87317	54.3856	0.32898	 	1.777135703E9	 	2.82373E-9	 	25724.912	32.3012	 
750.0	1.0	0.0	7.69893	7.2985	-7.42501	18.753	23.50776	1.41823	0.70511	144.92999	141.07616	54.53496	0.32878	 	2.067234904E9	 	2.41566E-9	 	25563.642	32.254	 
745.0	1.0	0.0	7.70128	7.29627	-7.45328	18.73609	23.43874	1.41545	0.70649	145.30504	141.27829	54.68422	0.32858	 	2.408267009E9	 	2.06345E-9	 	25402.606	32.2072	 
740.0	1.0	0.0	7.70363	7.29404	-7.4815	18.7192	23.36971	1.41266	0.70788	145.6797	141.47957	54.83337	0.32839	 	2.809794558E9	 	1.75989E-9	 	25241.803	32.1606	 
735.0	1.0	0.0	7.70597	7.29182	-7.50967	18.70234	23.30068	1.40985	0.70929	146.05395	141.67999	54.98241	0.32819	 	3.283290906E9	 	1.49866E-9	 	25081.232	32.1142	 
730.0	1.0	0.0	7.70832	7.28961	-7.53779	18.6855	23.23163	1.40703	0.71072	146.4278	141.87957	55.13134	0.32799	 	3.842545008E9	 	1.27419E-9	 	24920.894	32.0676	 
725.0	1.0	0.0	7.71066	7.28739	-7.56586	18.66867	23.16257	1.40419	0.71215	146.80124	142.07829	55.28017	0.32779	 	4.504156802E9	 	1.08161E-9	 	24760.785	32.0218	 
720.0	1.0	0.0	7.713	7.28518	-7.59389	18.65187	23.0935	1.40134	0.7136	147.17428	142.27617	55.42888	0.3276	 	5.288144544E9	 	9.16639E-10	 	24600.906	31.9758	 
715.0	1.0	0.0	7.71533	7.28298	-7.62186	18.6351	23.02442	1.39847	0.71507	147.54691	142.4732	55.57749	0.3274	 	6.218690765E9	 	7.75551E-10	 	24441.257	31.9298	 
710.0	1.0	0.0	7.71767	7.28078	-7.64979	18.61834	22.95533	1.39558	0.71655	147.91913	142.6694	55.72599	0.3272	 	7.325060166E9	 	6.55081E-10	 	24281.834	31.8846	 
705.0	1.0	0.0	7.72	7.27858	-7.67766	18.6016	22.88623	1.39267	0.71804	148.29095	142.86475	55.87438	0.327	 	8.642731197E9	 	5.52384E-10	 	24122.639	31.839	 
700.0	1.0	0.0	7.72232	7.27639	-7.70549	18.58489	22.81712	1.38975	0.71955	148.66236	143.05926	56.02266	0.32681	 	1.02148E10	 	4.64983E-10	 	23963.669	31.794	 
695.0	1.0	0.0	7.72465	7.2742	-7.73327	18.5682	22.748	1.38681	0.72108	149.03336	143.25293	56.17083	0.32661	 	1.2093699999999998E10	 	3.90725E-10	 	23804.924	31.749	 
690.0	1.0	0.0	7.72697	7.27201	-7.761	18.55153	22.67887	1.38385	0.72262	149.40394	143.44577	56.31889	0.32641	 	1.4343299999999998E10	 	3.27742E-10	 	23646.402	31.7044	 
685.0	1.0	0.0	7.72929	7.26983	-7.78869	18.53488	22.60972	1.38088	0.72418	149.77412	143.63778	56.46683	0.32621	 	1.7041699999999998E10	 	2.74414E-10	 	23488.103	31.6598	 
680.0	1.0	0.0	7.73161	7.26765	-7.81632	18.51826	22.54057	1.37789	0.72575	150.14388	143.82895	56.61467	0.32602	 	2.02845E10	 	2.29342E-10	 	23330.025	31.6156	 
675.0	1.0	0.0	7.73392	7.26547	-7.84391	18.50165	22.47141	1.37488	0.72734	150.51322	144.0193	56.76239	0.32582	 	2.4188699999999996E10	 	1.91316E-10	 	23172.166	31.5718	 
670.0	1.0	0.0	7.73623	7.2633	-7.87145	18.48507	22.40223	1.37185	0.72894	150.88216	144.20882	56.91	0.32562	 	2.8898399999999996E10	 	1.59292E-10	 	23014.527	31.5278	 
665.0	1.0	0.0	7.73854	7.26113	-7.89894	18.46851	22.33304	1.36881	0.73056	151.25067	144.39751	57.0575	0.32542	 	3.45906E10	 	1.32374E-10	 	22857.104	31.4846	 
660.0	1.0	0.0	7.74085	7.25897	-7.92638	18.45197	22.26385	1.36574	0.7322	151.61877	144.58538	57.20488	0.32523	 	4.14838E10	 	1.09789E-10	 	22699.897	31.4414	 
655.0	1.0	0.0	7.74315	7.25681	-7.95378	18.43545	22.19464	1.36266	0.73386	151.98645	144.77242	57.35215	0.32503	 	4.984839999999999E10	 	9.08769E-11	 	22542.903	31.3988	 
650.0	1.0	0.0	7.74546	7.25465	-7.98113	18.41896	22.12542	1.35956	0.73553	152.35372	144.95865	57.49931	0.32483	 	6.001889999999999E10	 	7.50707E-11	 	22386.123	31.356	 
645.0	1.0	0.0	7.74775	7.2525	-8.00843	18.40248	22.05619	1.35644	0.73722	152.72056	145.14406	57.64635	0.32463	 	7.24109E10	 	6.18865E-11	 	22229.553	31.314	 
640.0	1.0	0.0	7.75005	7.25035	-8.03568	18.38603	21.98695	1.3533	0.73893	153.08698	145.32865	57.79328	0.32444	 	8.75413E10	 	5.09115E-11	 	22073.193	31.272	 
635.0	1.0	0.0	7.75234	7.24821	-8.06288	18.3696	21.91769	1.35015	0.74066	153.45298	145.51243	57.94009	0.32424	 	1.06055E11	 	4.1794E-11	 	21917.039	31.2308	 
630.0	1.0	0.0	7.75463	7.24607	-8.09004	18.35319	21.84843	1.34697	0.74241	153.81856	145.6954	58.08678	0.32404	 	1.28757E11	 	3.42355E-11	 	21761.091	31.1896	 
625.0	1.0	0.0	7.75692	7.24393	-8.11715	18.3368	21.77915	1.34377	0.74417	154.18371	145.87755	58.23336	0.32384	 	1.56657E11	 	2.79825E-11	 	21605.345	31.1492	 
620.0	1.0	0.0	7.75921	7.2418	-8.14422	18.32044	21.70987	1.34056	0.74596	154.54844	146.0589	58.37983	0.32365	 	1.91021E11	 	2.28207E-11	 	21449.801	31.1088	 
615.0	1.0	0.0	7.76149	7.23967	-8.17123	18.3041	21.64057	1.33732	0.74776	154.91275	146.23944	58.52617	0.32345	 	2.33445E11	 	1.8569E-11	 	21294.454	31.0694	 
610.0	1.0	0.0	7.76377	7.23754	-8.1982	18.28777	21.57126	1.33406	0.74959	155.27662	146.41918	58.6724	0.32325	 	2.85939E11	 	1.50746E-11	 	21139.303	31.0302	 
605.0	1.0	0.0	7.76605	7.23542	-8.22512	18.27147	21.50193	1.33079	0.75143	155.64007	146.59811	58.81851	0.32305	 	3.51049E11	 	1.22092E-11	 	20984.345	30.9916	 
600.0	1.0	0.0	7.76832	7.2333	-8.252	18.2552	21.4326	1.32749	0.7533	156.0031	146.77624	58.9645	0.32286	 	4.31998E11	 	9.86493E-12	 	20829.577	30.9536	 
595.0	1.0	0.0	7.77059	7.23118	-8.27883	18.23894	21.36325	1.32417	0.75519	156.36569	146.95357	59.11037	0.32266	 	5.32886E11	 	7.95146E-12	 	20674.994	30.9166	 
590.0	1.0	0.0	7.77286	7.22907	-8.30561	18.2227	21.2939	1.32084	0.7571	156.72785	147.1301	59.25613	0.32246	 	6.58937E11	 	6.39336E-12	 	20520.595	30.8798	 
585.0	1.0	0.0	7.77513	7.22696	-8.33235	18.20649	21.22453	1.31748	0.75903	157.08959	147.30584	59.40176	0.32226	 	8.16823E11	 	5.12769E-12	 	20366.374	30.8442	 
580.0	1.0	0.0	7.7774	7.22486	-8.35904	18.1903	21.15515	1.3141	0.76098	157.45089	147.48078	59.54728	0.32207	 	1.01509E12	 	4.1021E-12	 	20212.327	30.8094	 
575.0	1.0	0.0	7.77966	7.22276	-8.38568	18.17413	21.08575	1.31069	0.76295	157.81175	147.65493	59.69267	0.32187	 	1.26473E12	 	3.27312E-12	 	20058.449	30.7756	 
570.0	1.0	0.0	7.78192	7.22066	-8.41227	18.15798	21.01635	1.30727	0.76495	158.17219	147.82829	59.83795	0.32167	 	1.57987E12	 	2.60477E-12	 	19904.736	30.7426	 
565.0	1.0	0.0	7.78417	7.21857	-8.43882	18.14186	20.94693	1.30382	0.76697	158.53219	148.00086	59.9831	0.32147	 	1.97879E12	 	2.06732E-12	 	19751.18	30.7112	 
560.0	1.0	0.0	7.78643	7.21648	-8.46533	18.12575	20.8775	1.30036	0.76902	158.89175	148.17264	60.12813	0.32128	 	2.48514E12	 	1.63628E-12	 	19597.777	30.6806	 
555.0	1.0	0.0	7.78868	7.21439	-8.49179	18.10967	20.80806	1.29687	0.77109	159.25088	148.34364	60.27304	0.32108	 	3.12967E12	 	1.29151E-12	 	19444.517	30.652	 
550.0	1.0	0.0	7.79093	7.21231	-8.5182	18.09361	20.7386	1.29335	0.77318	159.60957	148.51385	60.41783	0.32088	 	3.95242E12	 	1.01649E-12	 	19291.393	30.6248	 
545.0	1.0	0.0	7.79317	7.21023	-8.54456	18.07757	20.66913	1.28982	0.7753	159.96782	148.68328	60.56249	0.32068	 	5.00572E12	 	7.97725E-13	 	19138.396	30.5994	 
540.0	1.0	0.0	7.79542	7.20816	-8.57089	18.06155	20.59965	1.28626	0.77745	160.32563	148.85193	60.70703	0.32049	 	6.35817E12	 	6.24202E-13	 	18985.516	30.576	 
535.0	1.0	0.0	7.79766	7.20609	-8.59716	18.04556	20.53016	1.28268	0.77962	160.68301	149.01981	60.85145	0.32029	 	8.09998E12	 	4.86962E-13	 	18832.74	30.5552	 
530.0	1.0	0.0	7.7999	7.20402	-8.62339	18.02958	20.46065	1.27907	0.78182	161.03994	149.1869	60.99575	0.32009	 	1.03501E13	 	3.78737E-13	 	18679.266	30.6948	 
525.0	1.0	0.0	7.80213	7.20196	-8.64957	18.01363	20.39114	1.27544	0.78404	161.39643	149.35323	61.13992	0.31989	 	1.3266E13	 	2.9365E-13	 	18526.022	30.6488	 
520.0	1.0	0.0	7.80436	7.19989	-8.67571	17.9977	20.3216	1.27179	0.78629	161.75248	149.51877	61.28396	0.3197	 	1.70567E13	 	2.26959E-13	 	18373.122	30.58	 
515.0	1.0	0.0	7.8066	7.19784	-8.7018	17.98179	20.25206	1.26811	0.78857	162.10808	149.68355	61.42788	0.3195	 	2.20007E13	 	1.74848E-13	 	18220.558	30.5128	 
510.0	1.0	0.0	7.80882	7.19578	-8.72785	17.96591	20.1825	1.26441	0.79088	162.46324	149.84756	61.57168	0.3193	 	2.847E13	 	1.34259E-13	 	18068.328	30.446	 
505.0	1.0	0.0	7.81105	7.19373	-8.75385	17.95004	20.11293	1.26068	0.79322	162.81795	150.0108	61.71535	0.3191	 	3.6964E13	 	1.02747E-13	 	17916.425	30.3806	 
500.0	1.0	0.0	7.81327	7.19169	-8.77981	17.9342	20.04335	1.25693	0.79559	163.17222	150.17327	61.85889	0.31891	 	4.81546E13	 	7.83633E-14	 	17764.845	30.316	 
495.0	1.0	0.0	7.81549	7.18964	-8.80572	17.91838	19.97375	1.25315	0.79799	163.52604	150.33498	62.00231	0.31871	 	6.29494E13	 	5.95581E-14	 	17613.583	30.2524	 
490.0	1.0	0.0	7.81771	7.18761	-8.83159	17.90258	19.90414	1.24935	0.80042	163.87942	150.49593	62.1456	0.31851	 	8.25792E13	 	4.51051E-14	 	17462.637	30.1892	 
485.0	1.0	0.0	7.81992	7.18557	-8.85741	17.8868	19.83451	1.24552	0.80288	164.23234	150.65612	62.28877	0.31831	 	1.08719E14	 	3.40359E-14	 	17312.001	30.1272	 
480.0	1.0	0.0	7.82214	7.18354	-8.88319	17.87104	19.76487	1.24167	0.80537	164.58482	150.81554	62.4318	0.31812	 	1.43657E14	 	2.55884E-14	 	17161.673	30.0656	 
475.0	1.0	0.0	7.82435	7.18151	-8.90892	17.85531	19.69522	1.23779	0.80789	164.93685	150.97421	62.57471	0.31792	 	1.9053E14	 	1.91651E-14	 	17011.649	30.0048	 
470.0	1.0	0.0	7.82655	7.17948	-8.93461	17.8396	19.62555	1.23388	0.81045	165.28842	151.13212	62.71749	0.31772	 	2.5366099999999997E14	 	1.42991E-14	 	16861.925	29.9448	 
465.0	1.0	0.0	7.82876	7.17746	-8.96026	17.8239	19.55587	1.22994	0.81305	165.63954	151.28928	62.86014	0.31752	 	3.39021E14	 	1.06269E-14	 	16712.5	29.885	 
460.0	1.0	0.0	7.83096	7.17544	-8.98585	17.80823	19.48618	1.22598	0.81567	165.99021	151.44569	63.00266	0.31733	 	4.54902E14	 	7.86614E-15	 	16563.369	29.8262	 
455.0	1.0	0.0	7.83316	7.17343	-9.01141	17.79259	19.41647	1.22199	0.81834	166.34043	151.60134	63.14505	0.31713	 	6.12864E14	 	5.79887E-15	 	16414.53	29.7678	 
450.0	1.0	0.0	7.83536	7.17142	-9.03692	17.77696	19.34674	1.21797	0.82104	166.69019	151.75625	63.28731	0.31693	 	8.29087E14	 	4.25711E-15	 	16265.981	29.7098	 
445.0	1.0	0.0	7.83755	7.16941	-9.06239	17.76136	19.277	1.21393	0.82377	167.0395	151.91041	63.42945	0.31673	 	1.12633E15	 	3.11199E-15	 	16117.72	29.6522	 
440.0	1.0	0.0	7.83974	7.16741	-9.08781	17.74577	19.20725	1.20986	0.82655	167.38835	152.06382	63.57145	0.31654	 	1.53672E15	 	2.26503E-15	 	15969.744	29.5952	 
435.0	1.0	0.0	7.84193	7.1654	-9.11319	17.73021	19.13748	1.20575	0.82936	167.73674	152.21649	63.71332	0.31634	 	2.10586E15	 	1.64128E-15	 	15822.05	29.5388	 
430.0	1.0	0.0	7.84412	7.16341	-9.13852	17.71468	19.0677	1.20162	0.83221	168.08468	152.36841	63.85506	0.31614	 	2.89876E15	 	1.18392E-15	 	15674.638	29.4824	 
425.0	1.0	0.0	7.8463	7.16141	-9.16382	17.69916	18.9979	1.19746	0.8351	168.43216	152.5196	63.99667	0.31594	 	4.0085E15	 	8.50067E-16	 	15527.505	29.4266	 
420.0	1.0	0.0	7.84848	7.15942	-9.18906	17.68366	18.92808	1.19327	0.83803	168.77918	152.67005	64.13814	0.31575	 	5.56909E15	 	6.07477E-16	 	15380.649	29.3712	 
415.0	1.0	0.0	7.85066	7.15744	-9.21427	17.66819	18.85825	1.18905	0.84101	169.12574	152.81976	64.27949	0.31555	 	7.77429E15	 	4.32025E-16	 	15234.069	29.316	 
410.0	1.0	0.0	7.85284	7.15545	-9.23943	17.65274	18.78841	1.1848	0.84403	169.47184	152.96873	64.4207	0.31535	 	1.09058E16	 	3.05734E-16	 	15087.763	29.2612	 
405.0	1.0	0.0	7.85501	7.15347	-9.26454	17.63731	18.71855	1.18051	0.84709	169.81748	153.11697	64.56178	0.31515	 	1.53753E16	 	2.15272E-16	 	14941.729	29.2068	 
400.0	1.0	0.0	7.85718	7.15149	-9.28962	17.6219	18.64867	1.1762	0.85019	170.16265	153.26448	64.70272	0.31496	 	2.17875E16	 	1.50797E-16	 	14795.967	29.1524	 
395.0	1.0	0.0	7.85935	7.14952	-9.31465	17.60651	18.57878	1.17186	0.85335	170.50737	153.41126	64.84353	0.31476	 	3.10352E16	 	1.05076E-16	 	14650.475	29.0984	 
390.0	1.0	0.0	7.86152	7.14755	-9.33964	17.59115	18.50887	1.16748	0.85655	170.85162	153.55731	64.98421	0.31456	 	4.44448E16	 	7.28246E-17	 	14505.251	29.0448	 
385.0	1.0	0.0	7.86368	7.14558	-9.36458	17.5758	18.43894	1.16307	0.85979	171.1954	153.70263	65.12475	0.31437	 	6.39964E16	 	5.01945E-17	 	14360.295	28.9912	 
380.0	1.0	0.0	7.86584	7.14362	-9.38948	17.56048	18.369	1.15863	0.86309	171.53873	153.84722	65.26516	0.31417	 	9.2665E16	 	3.4402E-17	 	14215.606	28.9378	 
375.0	1.0	0.0	7.868	7.14166	-9.41434	17.54518	18.29904	1.15416	0.86643	171.88158	153.9911	65.40543	0.31397	 	1.34945E17	 	2.34426E-17	 	14071.182	28.8848	 
370.0	1.0	0.0	7.87016	7.13971	-9.43915	17.5299	18.22906	1.14965	0.86983	172.22397	154.13425	65.54557	0.31377	 	1.97667E17	 	1.58805E-17	 	13927.022	28.832	 
365.0	1.0	0.0	7.87231	7.13775	-9.46393	17.51465	18.15907	1.14511	0.87328	172.56589	154.27668	65.68557	0.31358	 	2.91281E17	 	1.0693E-17	 	13783.126	28.7792	 
360.0	1.0	0.0	7.87446	7.1358	-9.48866	17.49941	18.08906	1.14053	0.87678	172.90735	154.41839	65.82544	0.31338	 	4.31865E17	 	7.15559E-18	 	13639.494	28.7264	 
355.0	1.0	0.0	7.87661	7.13386	-9.51334	17.4842	18.01903	1.13593	0.88034	173.24833	154.55938	65.96517	0.31318	 	6.44328E17	 	4.7582E-18	 	13496.123	28.6742	 
350.0	1.0	0.0	7.87876	7.13191	-9.53799	17.46901	17.94898	1.13128	0.88395	173.58885	154.69966	66.10476	0.31298	 	9.67509E17	 	3.14358E-18	 	13353.014	28.6218	 
345.0	1.0	0.0	7.8809	7.12997	-9.56259	17.45384	17.87891	1.1266	0.88763	173.9289	154.83923	66.24422	0.31279	 	1.46238E18	 	2.0631E-18	 	13210.165	28.5698	 
340.0	1.0	0.0	7.88304	7.12804	-9.58715	17.43869	17.80883	1.12189	0.89136	174.26848	154.97808	66.38354	0.31259	 	2.22531E18	 	1.34482E-18	 	13067.577	28.5176	 
335.0	1.0	0.0	7.88518	7.1261	-9.61167	17.42357	17.73873	1.11714	0.89515	174.60759	155.11623	66.52272	0.31239	 	3.40972E18	 	8.7052E-19	 	12925.249	28.4656	 
330.0	1.0	0.0	7.88731	7.12417	-9.63615	17.40846	17.66861	1.11235	0.899	174.94623	155.25366	66.66177	0.31219	 	5.26163E18	 	5.59489E-19	 	12783.18	28.4138	 
325.0	1.0	0.0	7.88945	7.12225	-9.66058	17.39338	17.59847	1.10752	0.90292	175.28439	155.39039	66.80067	0.312	 	8.17847E18	 	3.56964E-19	 	12641.371	28.3618	 
320.0	1.0	0.0	7.89158	7.12033	-9.68497	17.37832	17.52831	1.10266	0.9069	175.62208	155.52642	66.93944	0.3118	 	1.28072E19	 	2.26047E-19	 	12499.819	28.3104	 
315.0	1.0	0.0	7.89371	7.11841	-9.70932	17.36328	17.45813	1.09776	0.91094	175.9593	155.66174	67.07807	0.3116	 	2.02091E19	 	1.42046E-19	 	12358.527	28.2584	 
310.0	1.0	0.0	7.89583	7.11649	-9.73363	17.34827	17.38793	1.09282	0.91506	176.29605	155.79636	67.21656	0.3114	 	3.21393E19	 	8.85585E-20	 	12217.492	28.207	 
305.0	1.0	0.0	7.89795	7.11458	-9.7579	17.33327	17.31771	1.08785	0.91925	176.63232	155.93028	67.35492	0.31121	 	5.15243E19	 	5.47665E-20	 	12076.715	28.1554	 
300.0	1.0	0.0	7.90008	7.11267	-9.78212	17.3183	17.24747	1.08283	0.92351	176.96812	156.0635	67.49313	0.31101	 	8.32845E19	 	3.35885E-20	 	11936.197	28.1036	 
295.0	1.0	0.0	7.90219	7.11076	-9.80631	17.30335	17.17721	1.07778	0.92784	177.30345	156.19603	67.6312	0.31081	 	1.3576499999999998E20	 	2.0425E-20	 	11795.936	28.0522	 
290.0	1.0	0.0	7.90431	7.10886	-9.83045	17.28842	17.10693	1.07268	0.93225	177.6383	156.32786	67.76914	0.31061	 	2.2324299999999997E20	 	1.23121E-20	 	11655.933	28.0006	 
285.0	1.0	0.0	7.90642	7.10696	-9.85455	17.27351	17.03662	1.06754	0.93673	177.97267	156.459	67.90693	0.31042	 	3.7037299999999997E20	 	7.35526E-21	 	11516.187	27.9492	 
280.0	1.0	0.0	7.90853	7.10506	-9.87861	17.25862	16.9663	1.06236	0.9413	178.30657	156.58946	68.04459	0.31022	 	6.2012E20	 	4.35365E-21	 	11376.7	27.8974	 
275.0	1.0	0.0	7.91064	7.10317	-9.90263	17.24376	16.89595	1.05714	0.94594	178.63999	156.71922	68.1821	0.31002	 	1.04808E21	 	2.55265E-21	 	11237.471	27.8458	 
270.0	1.0	0.0	7.91275	7.10128	-9.9266	17.22891	16.82558	1.05188	0.95068	178.97294	156.84829	68.31947	0.30982	 	1.78859E21	 	1.48216E-21	 	11098.501	27.794	 
265.0	1.0	0.0	7.91485	7.09939	-9.95054	17.21409	16.75519	1.04658	0.95549	179.30541	156.97668	68.45671	0.30963	 	3.08277E21	 	8.52018E-22	 	10959.789	27.7424	 
260.0	1.0	0.0	7.91695	7.0975	-9.97443	17.19929	16.68477	1.04123	0.9604	179.6374	157.10439	68.5938	0.30943	 	5.367910000000001E21	 	4.84764E-22	 	10821.336	27.6906	 
255.0	1.0	0.0	7.91905	7.09562	-9.99829	17.18451	16.61433	1.03584	0.9654	179.96892	157.23142	68.73075	0.30923	 	9.44562E21	 	2.72906E-22	 	10683.142	27.6388	 
250.0	1.0	0.0	7.92115	7.09375	-10.0221	17.16976	16.54387	1.0304	0.97049	180.29995	157.35776	68.86756	0.30903	 	1.68014E22	 	1.51973E-22	 	10545.209	27.5866	 
245.0	1.0	0.0	7.92324	7.09187	-10.04587	17.15502	16.47338	1.02492	0.97568	180.63051	157.48343	69.00423	0.30884	 	3.02197E22	 	8.36859E-23	 	10407.536	27.5346	 
240.0	1.0	0.0	7.92533	7.09	-10.06961	17.14031	16.40287	1.01939	0.98097	180.96059	157.60843	69.14076	0.30864	 	5.497959999999999E22	 	4.55543E-23	 	10270.124	27.4824	 
235.0	1.0	0.0	7.92742	7.08813	-10.0933	17.12562	16.33233	1.01382	0.98637	181.2902	157.73275	69.27715	0.30844	 	1.0121099999999999E23	 	2.45047E-23	 	10132.974	27.43	 
230.0	1.0	0.0	7.9295	7.08627	-10.11695	17.11095	16.26177	1.0082	0.99186	181.61933	157.8564	69.41339	0.30824	 	1.88592E23	 	1.30215E-23	 	9996.087	27.3774	 
225.0	1.0	0.0	7.93159	7.08441	-10.14056	17.0963	16.19118	1.00253	0.99747	181.94797	157.97939	69.54949	0.30805	 	3.5582999999999996E23	 	6.83288E-24	 	9859.463	27.3248	 
220.0	1.0	0.0	7.93367	7.08255	-10.16413	17.08168	16.12056	0.99682	1.00319	182.27615	158.1017	69.68546	0.30785	 	6.800709999999999E23	 	3.53925E-24	 	9723.104	27.2718	 
215.0	1.0	0.0	7.93575	7.08069	-10.18766	17.06707	16.04991	0.99106	1.00902	182.60384	158.22335	69.82128	0.30765	 	1.31713E24	 	1.80889E-24	 	9587.009	27.219	 
210.0	1.0	0.0	7.93782	7.07884	-10.21115	17.05249	15.97924	0.98524	1.01498	182.93106	158.34434	69.95696	0.30745	 	2.58609E24	 	9.11852E-25	 	9451.182	27.1654	 
205.0	1.0	0.0	7.9399	7.07699	-10.23461	17.03793	15.90854	0.97938	1.02105	183.25779	158.46467	70.09249	0.30726	 	5.14978E24	 	4.53171E-25	 	9315.622	27.112	 
200.0	1.0	0.0	7.94197	7.07515	-10.25802	17.02339	15.83781	0.97347	1.02726	183.58406	158.58434	70.22789	0.30706	 	1.0405300000000002E25	 	2.21937E-25	 	9180.331	27.0582	 
195.0	1.0	0.0	7.94404	7.0733	-10.28139	17.00888	15.76705	0.9675	1.03359	183.90984	158.70335	70.36314	0.30686	 	2.13426E25	 	1.07059E-25	 	9045.31	27.0042	 
190.0	1.0	0.0	7.9461	7.07147	-10.30472	16.99438	15.69626	0.96149	1.04006	184.23515	158.82171	70.49826	0.30666	 	4.446050000000001E25	 	5.08433E-26	 	8910.561	26.9498	 
185.0	1.0	0.0	7.94817	7.06963	-10.32801	16.97991	15.62543	0.95542	1.04666	184.55998	158.93942	70.63323	0.30647	 	9.411510000000001E25	 	2.37594E-26	 	8776.085	26.8952	 
180.0	1.0	0.0	7.95023	7.0678	-10.35126	16.96546	15.55458	0.9493	1.05341	184.88434	159.05648	70.76806	0.30627	 	2.0255E26	 	1.09194E-26	 	8641.885	26.84	 
175.0	1.0	0.0	7.95229	7.06597	-10.37448	16.95103	15.48369	0.94312	1.06031	185.20822	159.1729	70.90275	0.30607	 	4.4343600000000005E26	 	4.93263E-27	 	8507.961	26.7848	 
170.0	1.0	0.0	7.95435	7.06414	-10.39765	16.93662	15.41277	0.93689	1.06736	185.53163	159.28867	71.03729	0.30587	 	9.881210000000001E26	 	2.18891E-27	 	8374.317	26.7288	 
165.0	1.0	0.0	7.9564	7.06232	-10.42078	16.92223	15.34182	0.9306	1.07457	185.85457	159.4038	71.1717	0.30568	 	2.24249E27	 	9.53627E-28	 	8240.953	26.6728	 
160.0	1.0	0.0	7.95845	7.06049	-10.44388	16.90787	15.27083	0.92426	1.08195	186.17703	159.51829	71.30597	0.30548	 	5.18644E27	 	4.07621E-28	 	8107.872	26.6162	 
155.0	1.0	0.0	7.9605	7.05868	-10.46694	16.89352	15.19981	0.91786	1.08949	186.49902	159.63215	71.4401	0.30528	 	1.22324E28	 	1.70833E-28	 	7975.077	26.559	 
150.0	1.0	0.0	7.96255	7.05686	-10.48995	16.8792	15.12875	0.9114	1.09721	186.82054	159.74537	71.57409	0.30509	 	2.94416E28	 	7.01487E-29	 	7842.57	26.5014	 
145.0	1.0	0.0	7.96459	7.05505	-10.51293	16.8649	15.05765	0.90488	1.10511	187.14159	159.85797	71.70793	0.30489	 	7.23657E28	 	2.82024E-29	 	7710.354	26.4432	 
140.0	1.0	0.0	7.96664	7.05324	-10.53587	16.85063	14.98651	0.89831	1.1132	187.46218	159.96993	71.84164	0.30469	 	1.8178500000000002E29	 	1.10927E-29	 	7578.431	26.3846	 
135.0	1.0	0.0	7.96867	7.05144	-10.55877	16.83637	14.91533	0.89167	1.12149	187.78229	160.08128	71.97521	0.30449	 	4.6707300000000004E29	 	4.26503E-30	 	7446.805	26.3252	 
130.0	1.0	0.0	7.97071	7.04963	-10.58163	16.82214	14.84411	0.88497	1.12998	188.10194	160.192	72.10865	0.3043	 	1.2284999999999999E30	 	1.60168E-30	 	7315.478	26.2654	 
125.0	1.0	0.0	7.97275	7.04783	-10.60446	16.80792	14.77285	0.87821	1.13868	188.42113	160.30211	72.24194	0.3041	 	3.31068E30	 	5.86971E-31	 	7184.455	26.2046	 
120.0	1.0	0.0	7.97478	7.04604	-10.62724	16.79373	14.70155	0.87139	1.14759	188.73986	160.4116	72.3751	0.3039	 	9.14973E30	 	2.09718E-31	 	7053.739	26.1432	 
115.0	1.0	0.0	7.97681	7.04424	-10.64999	16.77956	14.6302	0.8645	1.15673	189.05813	160.52048	72.50813	0.3037	 	2.5958199999999997E31	 	7.29814E-32	 	6923.334	26.081	 
110.0	1.0	0.0	7.97884	7.04245	-10.6727	16.76542	14.5588	0.85755	1.16611	189.37593	160.62876	72.64101	0.30351	 	7.56762E31	 	2.47113E-32	 	6793.244	26.018	 
105.0	1.0	0.0	7.98086	7.04067	-10.69537	16.75129	14.48736	0.85054	1.17573	189.69329	160.73643	72.77377	0.30331	 	2.26952E32	 	8.13238E-33	 	6663.473	25.9542	 
100.0	1.0	0.0	7.98289	7.03888	-10.718	16.73719	14.41587	0.84345	1.1856	190.01019	160.8435	72.90639	0.30311	 	7.00954E32	 	2.59825E-33	 	6534.026	25.8894	 
95.0	1.0	0.0	7.98491	7.0371	-10.74059	16.72311	14.34433	0.8363	1.19574	190.32664	160.94998	73.03888	0.30291	 	2.23228E33	 	8.04939E-34	 	6404.908	25.8236	 
90.0	1.0	0.0	7.98693	7.03532	-10.76315	16.70904	14.27273	0.82908	1.20616	190.64264	161.05587	73.17123	0.30272	 	7.3394E33	 	2.41497E-34	 	6276.124	25.7568	 
85.0	1.0	0.0	7.98894	7.03355	-10.78567	16.69501	14.20109	0.82179	1.21686	190.9582	161.16117	73.30346	0.30252	 	2.49463E34	 	7.00723E-35	 	6147.68	25.6888	 
80.0	1.0	0.0	7.99095	7.03178	-10.80815	16.68099	14.12938	0.81443	1.22785	191.27332	161.26589	73.43555	0.30232	 	8.778010000000001E34	 	1.96359E-35	 	6019.582	25.6196	 
75.0	1.0	0.0	7.99297	7.03001	-10.83059	16.667	14.05762	0.807	1.23916	191.588	161.37004	73.56752	0.30212	 	3.2024399999999996E35	 	5.30606E-36	 	5891.836	25.5492	 
70.0	1.0	0.0	7.99497	7.02824	-10.85299	16.65302	13.9858	0.79949	1.25079	191.90225	161.47361	73.69937	0.30193	 	1.2132399999999999E36	 	1.38046E-36	 	5764.449	25.4774	 
65.0	1.0	0.0	7.99698	7.02648	-10.87536	16.63907	13.91392	0.79191	1.26276	192.21607	161.57661	73.83108	0.30173	 	4.7809799999999996E36	 	3.45206E-37	 	5637.428	25.4042	 
60.0	1.0	0.0	7.99899	7.02472	-10.89769	16.62514	13.84197	0.78426	1.27509	192.52947	161.67906	73.96268	0.30153	 	1.9632099999999998E37	 	8.28248E-38	 	5510.782	25.3292	 
55.0	1.0	0.0	8.00099	7.02296	-10.91998	16.61123	13.76996	0.77653	1.28778	192.84245	161.78095	74.09415	0.30133	 	8.416059999999999E37	 	1.90305E-38	 	5384.517	25.253	 
50.0	1.0	0.0	8.00299	7.0212	-10.94224	16.59735	13.69788	0.76872	1.30086	193.15501	161.88229	74.22551	0.30114	 	3.7741E38	 	4.17905E-39	 	5258.644	25.1746	 
45.0	1.0	0.0	8.00498	7.01945	-10.96446	16.58348	13.62573	0.76083	1.31435	193.46717	161.98309	74.35674	0.30094	 	1.7742E39	 	8.75218E-40	 	5133.171	25.0946	 
40.0	1.0	0.0	8.00698	7.0177	-10.98664	16.56964	13.5535	0.75287	1.32825	193.77892	162.08335	74.48787	0.30074	 	8.76308E39	 	1.74414E-40	 	5008.108	25.0126	 
35.0	1.0	0.0	8.00897	7.01596	-11.00878	16.55582	13.48119	0.74482	1.34261	194.09028	162.18308	74.61888	0.30054	 	4.5585E40	 	3.29934E-41	 	4883.467	24.9282	 
30.0	1.0	0.0	8.01096	7.01422	-11.03089	16.54202	13.40881	0.73669	1.35742	194.40125	162.2823	74.74978	0.30035	 	2.50386E41	 	5.90927E-42	 	4759.258	24.8418	 
25.0	1.0	0.0	8.01295	7.01247	-11.05296	 	13.33633	0.72848	1.37273	194.71184	162.381	74.88057	0.30015	 	1.45617E42	 	9.99332E-43	 	4635.494	 	 
