T (C)	Fraction solid (wt)-TOTAL	Fraction liquid (wt)-LIQUID	Density (g/(cm)^3)-TOTAL	Molar volume (cm^3)-TOTAL	Volume change (%)-  	Average expansion coeff. (10e-6 1/K)-  	Thermal conductivity (W/(m*K))-TOTAL	Electrical resistivity (10e-6 Ohm*m)-TOTAL	Electrical conductivity (10e6 1/(Ohm*m))-TOTAL	Young's modulus (GPa)-TOTAL	Bulk modulus (GPa)-TOTAL	Shear modulus(GPa)-TOTAL	Poisson's ratio-TOTAL	Liquid viscosity (mPa s)-  	Total viscosity (mPa s)-  	Liquid diffusivity (10e-9 (m^2)/s)-  	Total diffusivity (10e-9 (m^2)/s)-  	Surface Tension (mN/m)-  	Enthalpy (J/mole)-TOTAL	Specific heat (J/(mole K))-TOTAL	Latent heat (J/mole)-TOTAL
1500.0	0.0	1.0	6.95681	7.86408	0.0	26.65532	31.25446	1.84864	0.54094	0.0	106.28555	0.0	0.49975	6.74358	6.74358	1.28334	1.28334	1765.72341	64745.64	 	0.0
1495.0	0.0	1.0	6.9607	7.85968	-0.0559163	26.60424	31.17975	1.84784	0.54117	0.0	106.47165	0.0	0.49975	6.80258	6.80258	1.26862	1.26862	1767.50249	64523.84	44.36	0.0
1490.0	0.0	1.0	6.96459	7.8553	-0.11168	26.5532	31.10505	1.84704	0.54141	0.0	106.65775	0.0	0.49975	6.86244	6.86244	1.254	1.254	1769.2784	64302.546	44.2588	0.0
1485.0	0.0	1.0	6.96847	7.85092	-0.16728	26.50221	31.03034	1.84624	0.54164	0.0	106.84385	0.0	0.49975	6.92317	6.92317	1.23947	1.23947	1771.05112	64081.755	44.1582	0.0
1480.0	0.0	1.0	6.97234	7.84656	-0.22273	26.45127	30.95563	1.84543	0.54188	0.0	107.02995	0.0	0.49975	6.98479	6.98479	1.22505	1.22505	1772.82061	63861.464	44.0582	0.0
1475.0	0.0	1.0	6.97621	7.84222	-0.27803	26.40037	30.88093	1.84462	0.54212	0.0	107.21605	0.0	0.49975	7.04731	7.04731	1.21071	1.21071	1774.58684	63641.67	43.9588	0.0
1470.0	0.0	1.0	6.98007	7.83788	-0.33316	26.34953	30.80622	1.8438	0.54236	0.0	107.40215	0.0	0.49975	7.11076	7.11076	1.19648	1.19648	1776.34976	63422.37	43.86	0.0
1465.0	0.0	1.0	6.98392	7.83356	-0.38815	26.29873	30.73151	1.84298	0.5426	0.0	107.58825	0.0	0.49975	7.17515	7.17515	1.18234	1.18234	1778.10934	63203.559	43.7622	0.0
1460.0	0.0	1.0	6.98776	7.82924	-0.44297	26.24799	30.6568	1.84216	0.54284	0.0	107.77435	0.0	0.49975	7.2405	7.2405	1.1683	1.1683	1779.86553	62985.236	43.6646	0.0
1455.0	0.0	1.0	6.9916	7.82495	-0.49764	26.1973	30.5821	1.84133	0.54309	0.0	107.96045	0.0	0.49975	7.30683	7.30683	1.15435	1.15435	1781.61831	62767.397	43.5678	0.0
1450.0	0.0	1.0	6.99544	7.82066	-0.55216	26.14665	30.50739	1.8405	0.54333	0.0	108.14655	0.0	0.49975	7.37415	7.37415	1.14051	1.14051	1783.36763	62550.066	43.4662	0.0
1445.0	0.0	1.0	6.99926	7.81638	-0.60652	26.09606	30.43268	1.83966	0.54358	0.0	108.33265	0.0	0.49975	7.4425	7.4425	1.12675	1.12675	1785.11345	62333.285	43.3562	0.0
1440.0	0.0	1.0	7.00308	7.81212	-0.66072	26.04553	30.35798	1.83882	0.54383	0.0	108.51874	0.0	0.49975	7.51188	7.51188	1.1131	1.1131	1786.85573	62117.047	43.2476	0.0
1439.52	0.0	1.0	7.00344	7.81172	-0.66587	26.04071	30.35088	1.83874	0.54385	0.0	108.53644	0.0	0.49975	7.51853	7.51853	1.11181	1.11181	1787.02119	62096.512	43.1997	0.0060
1435.0	0.17205	0.82795	7.0341	7.77766	-1.0989	24.97982	30.9857	1.79631	0.5567	0.0504015	102.21488	0.0170907	0.47453	7.55316	12.63212	1.10378	0.65999	1785.58213	60389.945	377.171	1511.399
1430.0	0.31584	0.68416	7.06057	7.74845	-1.47034	24.08354	31.52821	1.76024	0.56811	0.5848	97.01661	0.2012	0.45325	7.59211	49.25851	1.09491	0.16876	1784.13253	58916.701	294.649	2769.478
1426.93	0.38516	0.61484	7.07372	7.73402	-1.6538	23.6487	31.79267	1.74244	0.57391	1.30801	94.56078	0.45325	0.44291	7.61655	98.59879	1.08942	0.0841556	1783.30511	58180.701	 	3373.423
1425.0	0.45297	0.54703	7.08536	7.7214	-1.81427	23.25408	31.97281	1.73066	0.57781	2.25521	93.11932	0.78671	0.43331	7.62974	203.0492	1.08631	0.0408189	1781.66101	57399.047	303.531	4072.499
1420.0	0.59	0.41	7.10949	7.69519	-2.14757	22.44709	32.3325	1.70637	0.58604	6.36006	90.44159	2.24942	0.41371	7.66418	679.17858	1.07824	0.0121674	1777.80435	55778.582	324.093	5478.857
1415.0	0.68127	0.31873	7.12652	7.67689	-2.38028	21.90395	32.55816	1.68954	0.59188	12.13909	88.86911	4.33382	0.40051	7.69904	1336.48508	1.07019	0.00616501	1774.35002	54637.404	228.236	6406.455
1410.0	0.74498	0.25502	7.13926	7.66329	-2.5532	21.51776	32.70064	1.6772	0.59623	18.58249	87.93242	6.67872	0.39117	7.73495	2073.51966	1.06207	0.00396188	1771.24226	53783.666	170.748	7047.133
1405.0	0.79119	0.20881	7.14931	7.65263	-2.68884	21.22944	32.78872	1.66772	0.59962	24.91014	87.38939	8.99728	0.38431	7.77122	2834.32119	1.05397	0.0028898	1768.4346	53112.099	134.313	7506.155
1400.0	0.82574	0.17426	7.15752	7.64398	-2.79877	21.00872	32.84007	1.66015	0.60235	30.72637	87.10337	11.13987	0.37912	7.80879	3594.62322	1.04577	0.00227179	1765.87981	52561.194	110.181	7845.028
1395.0	0.85225	0.14775	7.1645	7.63667	-2.89177	20.83242	32.86556	1.65391	0.60463	35.90438	86.99066	13.05552	0.37507	7.84695	4347.1285	1.03758	0.00187292	1763.54794	52093.289	93.581	8101.411
1390.0	0.87306	0.12694	7.17058	7.63031	-2.97269	20.68783	32.87229	1.64861	0.60657	40.4473	86.99962	14.74206	0.37183	7.88595	5091.7843	1.02935	0.00159422	1761.41028	51684.338	81.7902	8299.348
1385.0	0.88967	0.11033	7.17599	7.62468	-3.04425	20.56779	32.86536	1.64401	0.60827	44.42012	87.09667	16.22114	0.3692	7.92608	5833.02821	1.02106	0.00138745	1759.43766	51318.423	73.183	8454.75
1380.0	0.90315	0.0968504	7.18092	7.61957	-3.10917	20.46514	32.84802	1.63991	0.60979	47.89931	87.25843	17.51953	0.36703	7.96697	6575.9609	1.01276	0.00122699	1757.61377	50984.678	66.749	8578.483
1375.0	0.91433	0.0856713	7.18549	7.61485	-3.16925	20.3751	32.82296	1.6362	0.61117	50.98238	87.46828	18.67239	0.36518	8.0089	7329.63771	1.00441	0.00109749	1755.91974	50674.677	62.0002	8678.971
1371.0	0.92214	0.0778562	7.18903	7.61121	-3.2155	20.30765	32.79933	1.6334	0.61222	53.2558	87.65912	19.52384	0.36387	8.04306	7950.70091	0.99771	0.0010093	1754.63839	50438.831	 	8747.464
1370.0	0.92488	0.07512	7.19028	7.60994	-3.23161	20.27806	32.7967	1.63254	0.61254	54.0503	87.68788	19.82161	0.36342	8.05564	8140.55048	0.99555	9.85168E-4	1754.61244	50371.156	60.7042	8773.471
1365.0	0.93688	0.0631228	7.19611	7.60398	-3.30741	20.14293	32.77726	1.62854	0.61405	57.67832	87.86978	21.18316	0.36142	8.11767	9089.7156	0.98494	8.7961E-4	1754.55609	50050.396	64.152	8885.699
1360.0	0.94629	0.0537073	7.20123	7.59876	-3.3738	20.03306	32.74883	1.62498	0.61539	60.72082	88.10652	22.32708	0.3598	8.18135	10030.64161	0.97429	7.94665E-4	1754.54878	49757.338	58.6116	8970.713
1355.0	0.95399	0.0460108	7.20595	7.59399	-3.43448	19.93835	32.71421	1.62172	0.61663	63.36436	88.38134	23.32251	0.35844	8.24602	10985.86661	0.96369	7.23347E-4	1754.59085	49483.036	54.8604	9037.457
1350.0	0.96038	0.0396171	7.21035	7.58956	-3.49083	19.85511	32.67485	1.61869	0.61778	65.69348	88.68503	24.20067	0.35727	8.31171	11965.56443	0.95314	6.62083E-4	1754.67651	49222.925	52.0222	9090.491
1345.0	0.96577	0.0342301	7.21451	7.58539	-3.54386	19.78061	32.6318	1.61583	0.61888	67.77172	89.01085	24.9851	0.35624	8.37877	12978.59293	0.9426	6.08524E-4	1754.80148	48973.785	49.828	9133.034
1340.0	0.97036	0.0296386	7.21849	7.58143	-3.59421	19.71313	32.58584	1.61311	0.61992	69.64716	89.35434	25.69366	0.35534	8.44696	14032.94276	0.9321	5.61064E-4	1754.95857	48733.288	48.0994	9167.409
1335.0	0.97431	0.0256877	7.22231	7.57764	-3.64242	19.65125	32.53752	1.6105	0.62093	71.35529	89.71186	26.33956	0.35453	8.51659	15135.79904	0.92161	5.18571E-4	1755.1443	48499.746	46.7084	9195.303
1330.0	0.97775	0.022253	7.22602	7.57398	-3.68897	19.59362	32.48724	1.60797	0.6219	72.92722	90.0809	26.93439	0.35379	8.58732	16294.84298	0.91118	4.80187E-4	1755.35832	48271.826	45.584	9218.044
1325.0	0.98076	0.0192411	7.22962	7.57043	-3.73411	19.53956	32.43538	1.60552	0.62285	74.38509	90.45917	27.48645	0.35312	8.65958	17516.82944	0.90076	4.45296E-4	1755.5953	48048.541	44.657	9236.618
1320.0	0.98342	0.0165829	7.23315	7.56696	-3.77814	19.48831	32.38218	1.60313	0.62378	75.74701	90.84523	28.00249	0.3525	8.73299	18808.96533	0.89039	4.13408E-4	1755.85624	47829.124	43.8834	9251.787
1315.0	0.98578	0.0142209	7.23661	7.56358	-3.82117	19.43955	32.32784	1.60078	0.62469	77.02777	91.23799	28.48806	0.35193	8.80801	20178.61503	0.88004	3.84138E-4	1756.13266	47612.972	43.2304	9264.154
1310.0	0.98789	0.0121107	7.24001	7.56026	-3.86342	19.39267	32.27255	1.59848	0.6256	78.23903	91.63607	28.94752	0.35139	8.8842	21633.08429	0.86974	3.57183E-4	1756.42987	47399.604	42.6736	9274.197
1305.0	0.98979	0.0102132	7.24337	7.55699	-3.90498	19.34743	32.2164	1.59621	0.62649	79.39097	92.03907	29.3847	0.35089	8.96162	23180.71101	0.8595	3.32283E-4	1756.74373	47188.63	42.1948	9282.3
1300.0	0.9915	0.00850065	7.24668	7.55377	-3.94594	19.30359	32.15955	1.59396	0.62737	80.49141	92.44607	29.80253	0.35041	9.04072	24829.43405	0.84929	3.09236E-4	1757.07215	46979.737	41.7786	9288.776
1295.0	0.99305	0.00694717	7.24995	7.55059	-3.98637	19.26094	32.10208	1.59174	0.62824	81.54697	92.85652	30.2035	0.34996	9.12108	26588.14442	0.83913	2.87863E-4	1757.4137	46772.665	41.4144	9293.883
1290.0	0.99447	0.00553113	7.2532	7.54744	-4.02635	19.2193	32.04404	1.58954	0.62911	82.56339	93.27006	30.58977	0.34953	9.20314	28466.53053	0.82899	2.68011E-4	1757.76641	46567.199	41.0932	9297.832
1285.0	0.99576	0.00423706	7.25641	7.54433	-4.06591	19.17856	31.98552	1.58735	0.62998	83.54593	93.68628	30.96331	0.34911	9.28696	30474.76187	0.81888	2.49549E-4	1758.12493	46363.16	40.8078	9300.8
1280.0	0.99695	0.00304843	7.2596	7.54125	-4.10514	19.1385	31.9266	1.58518	0.63084	84.49863	94.10473	31.32566	0.34871	9.37214	32623.55069	0.80884	2.32364E-4	1758.49629	46160.398	40.5524	9302.933
1275.0	0.99805	0.00195286	7.26277	7.53819	-4.14405	19.09903	31.86729	1.58302	0.63171	85.42505	94.52529	31.67815	0.34833	9.45866	34925.14998	0.79886	2.16352E-4	1758.88083	45958.787	40.3222	9304.353
1270.0	0.99906	9.40128E-4	7.26592	7.53515	-4.18268	19.06011	31.80768	1.58086	0.63257	86.32839	94.94766	32.02198	0.34796	9.54746	37392.25653	0.78887	2.01425E-4	1759.26416	45758.218	40.1138	9305.172
1265.0	1.0	0.0	7.26905	7.53213	-4.22107	19.0216	31.74792	1.57871	0.63343	87.21154	95.37153	32.35825	0.34759	 	40038.58906	 	1.87502E-4	 	45558.6	39.9236	9305.475
1260.0	1.0	0.0	7.27143	7.52967	-4.2524	19.00408	31.6849	1.5767	0.63423	87.72251	95.80217	32.55277	0.34739	 	42707.67896	 	1.75213E-4	 	45329.677	45.7846	 
1255.0	1.0	0.0	7.27381	7.52721	-4.28368	18.98655	31.62187	1.57469	0.63504	88.23475	96.23304	32.74781	0.34719	 	45574.96225	 	1.63654E-4	 	45136.788	38.5778	 
1250.0	1.0	0.0	7.27618	7.52475	-4.31492	18.96904	31.55885	1.57268	0.63586	88.74822	96.66411	32.94336	0.34698	 	48656.60097	 	1.52787E-4	 	44944.168	38.524	 
1245.0	1.0	0.0	7.27856	7.5223	-4.3461	18.95153	31.49582	1.57065	0.63668	89.26291	97.09535	33.13943	0.34678	 	51970.18955	 	1.42576E-4	 	44751.822	38.4692	 
1240.0	1.0	0.0	7.28093	7.51985	-4.37724	18.93402	31.43279	1.56862	0.6375	89.77879	97.52674	33.336	0.34657	 	55534.89163	 	1.32985E-4	 	44559.748	38.4148	 
1235.0	1.0	0.0	7.28329	7.51741	-4.40832	18.91652	31.36976	1.56657	0.63834	90.29583	97.95825	33.53306	0.34637	 	59371.59096	 	1.2398E-4	 	44367.946	38.3604	 
1230.0	1.0	0.0	7.28566	7.51497	-4.43936	18.89902	31.30672	1.56452	0.63917	90.81402	98.38985	33.73061	0.34617	 	63503.05776	 	1.1553E-4	 	44176.412	38.3068	 
1225.0	1.0	0.0	7.28802	7.51253	-4.47035	18.88153	31.24369	1.56247	0.64001	91.33332	98.82152	33.92863	0.34596	 	67954.1324	 	1.07603E-4	 	43985.146	38.2532	 
1220.0	1.0	0.0	7.29038	7.51009	-4.50129	18.86404	31.18065	1.5604	0.64086	91.85372	99.25324	34.12711	0.34576	 	72751.92817	 	1.00172E-4	 	43794.147	38.1998	 
1215.0	1.0	0.0	7.29274	7.50767	-4.53219	18.84656	31.11761	1.55833	0.64171	92.37518	99.68497	34.32606	0.34555	 	77926.05528	 	9.32075E-5	 	43603.414	38.1466	 
1210.0	1.0	0.0	7.2951	7.50524	-4.56303	18.82909	31.05457	1.55624	0.64257	92.8977	100.11669	34.52545	0.34535	 	83508.86863	 	8.6684E-5	 	43412.945	38.0938	 
1205.0	1.0	0.0	7.29745	7.50282	-4.59383	18.81161	30.99153	1.55415	0.64344	93.42124	100.54838	34.72529	0.34515	 	89535.74172	 	8.05766E-5	 	43222.738	38.0414	 
1200.0	1.0	0.0	7.29981	7.5004	-4.62458	18.79415	30.92849	1.55205	0.64431	93.94578	100.98001	34.92556	0.34494	 	96045.36995	 	7.48613E-5	 	43032.793	37.989	 
1195.0	1.0	0.0	7.30216	7.49799	-4.65528	18.77668	30.86544	1.54994	0.64519	94.4713	101.41155	35.12625	0.34474	 	103080.1065	 	6.95156E-5	 	42843.109	37.9368	 
1190.0	1.0	0.0	7.30451	7.49558	-4.68593	18.75923	30.8024	1.54783	0.64607	94.99778	101.843	35.32736	0.34454	 	110686.3344	 	6.45181E-5	 	42653.683	37.8852	 
1185.0	1.0	0.0	7.30685	7.49317	-4.71653	18.74177	30.73935	1.5457	0.64696	95.52519	102.27431	35.52888	0.34433	 	118914.8796	 	5.98484E-5	 	42464.514	37.8338	 
1180.0	1.0	0.0	7.3092	7.49077	-4.74708	18.72433	30.6763	1.54357	0.64785	96.05351	102.70546	35.73079	0.34413	 	127821.4683	 	5.54873E-5	 	42275.602	37.7824	 
1175.0	1.0	0.0	7.31154	7.48837	-4.77759	18.70688	30.61324	1.54142	0.64875	96.58272	103.13644	35.9331	0.34392	 	137467.236	 	5.14163E-5	 	42086.944	37.7316	 
1170.0	1.0	0.0	7.31388	7.48597	-4.80805	18.68945	30.55019	1.53927	0.64966	97.11279	103.56722	36.13579	0.34372	 	147919.292	 	4.76182E-5	 	41898.539	37.681	 
1165.0	1.0	0.0	7.31621	7.48358	-4.83846	18.67201	30.48713	1.53711	0.65057	97.6437	103.99777	36.33886	0.34352	 	159251.3471	 	4.40766E-5	 	41710.386	37.6306	 
1160.0	1.0	0.0	7.31855	7.48119	-4.86882	18.65459	30.42407	1.53494	0.65149	98.17544	104.42807	36.54229	0.34331	 	171544.4127	 	4.07757E-5	 	41522.483	37.5806	 
1155.0	1.0	0.0	7.32088	7.47881	-4.89913	18.63716	30.36101	1.53276	0.65242	98.70797	104.85811	36.74608	0.34311	 	184887.5776	 	3.7701E-5	 	41334.829	37.5308	 
1150.0	1.0	0.0	7.32321	7.47643	-4.92939	18.61975	30.29795	1.53058	0.65335	99.24128	105.28785	36.95023	0.3429	 	199378.8743	 	3.48384E-5	 	41147.421	37.4816	 
1145.0	1.0	0.0	7.32554	7.47405	-4.95961	18.60233	30.23489	1.52838	0.65429	99.77534	105.71728	37.15471	0.3427	 	215126.2441	 	3.21748E-5	 	40960.259	37.4324	 
1140.0	1.0	0.0	7.32787	7.47168	-4.98978	18.58492	30.17182	1.52618	0.65523	100.31013	106.14637	37.35953	0.3425	 	232248.6137	 	2.96976E-5	 	40773.34	37.3838	 
1135.0	1.0	0.0	7.33019	7.46931	-5.0199	18.56752	30.10875	1.52396	0.65618	100.84563	106.5751	37.56468	0.34229	 	250877.0968	 	2.73952E-5	 	40586.664	37.3352	 
1130.0	1.0	0.0	7.33251	7.46695	-5.04997	18.55012	30.04568	1.52174	0.65714	101.38182	107.00345	37.77014	0.34209	 	271156.3353	 	2.52564E-5	 	40400.228	37.2872	 
1125.0	1.0	0.0	7.33483	7.46459	-5.07999	18.53273	29.98261	1.5195	0.65811	101.91868	107.4314	37.97592	0.34189	 	293246.0001	 	2.32706E-5	 	40214.031	37.2394	 
1120.0	1.0	0.0	7.33715	7.46223	-5.10997	18.51534	29.91953	1.51726	0.65908	102.45618	107.85893	38.18199	0.34168	 	317322.4673	 	2.14281E-5	 	40028.071	37.192	 
1115.0	1.0	0.0	7.33946	7.45987	-5.1399	18.49796	29.85646	1.51501	0.66006	102.9943	108.28601	38.38837	0.34148	 	343580.6961	 	1.97194E-5	 	39842.346	37.145	 
1110.0	1.0	0.0	7.34178	7.45752	-5.16978	18.48058	29.79338	1.51275	0.66105	103.53302	108.71262	38.59503	0.34127	 	372236.3311	 	1.81358E-5	 	39656.854	37.0984	 
1105.0	1.0	0.0	7.34409	7.45518	-5.19961	18.4632	29.7303	1.51048	0.66204	104.07233	109.13876	38.80196	0.34107	 	403528.0587	 	1.6669E-5	 	39471.594	37.052	 
1100.0	1.0	0.0	7.34639	7.45284	-5.22939	18.44584	29.66722	1.5082	0.66304	104.61219	109.56438	39.00917	0.34087	 	437720.25	 	1.53112E-5	 	39286.563	37.0062	 
1095.0	1.0	0.0	7.3487	7.4505	-5.25913	18.42847	29.60413	1.50591	0.66405	105.15259	109.98948	39.21665	0.34066	 	475105.9277	 	1.4055E-5	 	39101.76	36.9606	 
1090.0	1.0	0.0	7.351	7.44816	-5.28881	18.41111	29.54104	1.50361	0.66507	105.6935	110.41403	39.42437	0.34046	 	516010.0984	 	1.28935E-5	 	38917.183	36.9154	 
1085.0	1.0	0.0	7.3533	7.44583	-5.31845	18.39376	29.47796	1.5013	0.66609	106.23491	110.83802	39.63235	0.34026	 	560793.4984	 	1.18204E-5	 	38732.83	36.8706	 
1080.0	1.0	0.0	7.3556	7.44351	-5.34805	18.37641	29.41487	1.49898	0.66712	106.7768	111.26142	39.84057	0.34005	 	609856.8083	 	1.08294E-5	 	38548.698	36.8264	 
1075.0	1.0	0.0	7.3579	7.44118	-5.37759	18.35907	29.35177	1.49665	0.66816	107.31913	111.68421	40.04902	0.33985	 	663645.3968	 	9.91491E-6	 	38364.786	36.7824	 
1070.0	1.0	0.0	7.36019	7.43886	-5.40708	18.34173	29.28868	1.49432	0.6692	107.8619	112.10638	40.25769	0.33964	 	722654.667	 	9.07153E-6	 	38181.091	36.739	 
1065.0	1.0	0.0	7.36249	7.43655	-5.43653	18.32439	29.22558	1.49197	0.67026	108.40508	112.5279	40.46658	0.33944	 	787436.0835	 	8.29423E-6	 	37997.612	36.6958	 
1060.0	1.0	0.0	7.36478	7.43423	-5.46593	18.30706	29.16248	1.48961	0.67132	108.94866	112.94876	40.67568	0.33924	 	858603.9748	 	7.57832E-6	 	37814.345	36.6534	 
1055.0	1.0	0.0	7.36706	7.43193	-5.49528	18.28974	29.09938	1.48724	0.67239	109.4926	113.36894	40.88498	0.33903	 	936843.2154	 	6.91938E-6	 	37631.29	36.611	 
1050.0	1.0	0.0	7.36935	7.42962	-5.52459	18.27242	29.03627	1.48486	0.67346	110.03689	113.78842	41.09447	0.33883	 	1022917.909	 	6.31328E-6	 	37448.442	36.5696	 
1045.0	1.0	0.0	7.37163	7.42732	-5.55384	18.2551	28.97317	1.48247	0.67455	110.58151	114.20718	41.30416	0.33862	 	1117681.211	 	5.75617E-6	 	37265.801	36.5282	 
1040.0	1.0	0.0	7.37391	7.42502	-5.58305	18.23779	28.91006	1.48007	0.67564	111.12643	114.6252	41.51402	0.33842	 	1222086.449	 	5.24444E-6	 	37083.364	36.4874	 
1035.0	1.0	0.0	7.37619	7.42273	-5.61221	18.22049	28.84695	1.47766	0.67674	111.67165	115.04246	41.72405	0.33822	 	1337199.725	 	4.77472E-6	 	36901.128	36.4472	 
1030.0	1.0	0.0	7.37847	7.42044	-5.64133	18.20319	28.78384	1.47524	0.67785	112.21713	115.45895	41.93425	0.33801	 	1464214.203	 	4.34387E-6	 	36719.09	36.4076	 
1025.0	1.0	0.0	7.38074	7.41816	-5.67039	18.18589	28.72072	1.47281	0.67897	112.76286	115.87465	42.1446	0.33781	 	1604466.329	 	3.94894E-6	 	36537.248	36.3684	 
1020.0	1.0	0.0	7.38301	7.41587	-5.69941	18.1686	28.6576	1.47037	0.6801	113.30882	116.28953	42.3551	0.33761	 	1759454.26	 	3.58722E-6	 	36355.6	36.3296	 
1015.0	1.0	0.0	7.38528	7.4136	-5.72838	18.15132	28.59448	1.46792	0.68124	113.85498	116.7036	42.56574	0.3374	 	1930858.808	 	3.25614E-6	 	36174.142	36.2916	 
1010.0	1.0	0.0	7.38755	7.41132	-5.7573	18.13404	28.53136	1.46546	0.68238	114.40133	117.11681	42.77652	0.3372	 	2120567.283	 	2.95333E-6	 	35992.871	36.2542	 
1005.0	1.0	0.0	7.38981	7.40905	-5.78617	18.11676	28.46824	1.46298	0.68354	114.94785	117.52916	42.98743	0.33699	 	2330700.646	 	2.67659E-6	 	35811.786	36.217	 
1000.0	1.0	0.0	7.39207	7.40678	-5.815	18.09949	28.40511	1.4605	0.6847	115.49452	117.94064	43.19845	0.33679	 	2563644.467	 	2.42387E-6	 	35630.883	36.1806	 
995.0	1.0	0.0	7.39433	7.40452	-5.84378	18.08222	28.34198	1.458	0.68587	116.04131	118.35122	43.40958	0.33659	 	2822084.246	 	2.19325E-6	 	35450.158	36.145	 
990.0	1.0	0.0	7.39659	7.40226	-5.87251	18.06496	28.27885	1.4555	0.68705	116.58821	118.76088	43.62082	0.33638	 	3109045.758	 	1.98296E-6	 	35269.609	36.1098	 
985.0	1.0	0.0	7.39884	7.40001	-5.9012	18.04771	28.21571	1.45298	0.68824	117.13519	119.16962	43.83216	0.33618	 	3427941.168	 	1.79137E-6	 	35089.232	36.0754	 
980.0	1.0	0.0	7.40109	7.39775	-5.92983	18.03046	28.15258	1.45045	0.68944	117.68225	119.57741	44.04359	0.33597	 	3782621.812	 	1.61695E-6	 	34909.025	36.0414	 
975.0	1.0	0.0	7.40334	7.39551	-5.95842	18.01321	28.08944	1.44791	0.69065	118.22935	119.98423	44.2551	0.33577	 	4177438.628	 	1.45829E-6	 	34728.984	36.0082	 
970.0	1.0	0.0	7.40559	7.39326	-5.98696	17.99597	28.0263	1.44536	0.69187	118.77648	120.39008	44.46668	0.33557	 	4617311.458	 	1.31408E-6	 	34549.105	35.9758	 
965.0	1.0	0.0	7.40784	7.39102	-6.01546	17.97873	27.96315	1.4428	0.6931	119.32362	120.79493	44.67833	0.33536	 	5107808.565	 	1.18311E-6	 	34369.385	35.944	 
960.0	1.0	0.0	7.41008	7.38878	-6.0439	17.9615	27.90001	1.44022	0.69434	119.87075	121.19877	44.89005	0.33516	 	5655237.972	 	1.06427E-6	 	34189.819	35.9132	 
955.0	1.0	0.0	7.41232	7.38655	-6.0723	17.94427	27.83686	1.43764	0.69559	120.41785	121.60159	45.10181	0.33496	 	6266752.493	 	9.56523E-7	 	34010.406	35.8826	 
950.0	1.0	0.0	7.41456	7.38432	-6.10065	17.92705	27.77371	1.43504	0.69685	120.9649	122.00336	45.31363	0.33475	 	6950470.618	 	8.58919E-7	 	33831.139	35.8534	 
945.0	1.0	0.0	7.41679	7.38209	-6.12896	17.90984	27.71055	1.43243	0.69811	121.51188	122.40407	45.52548	0.33455	 	7715615.797	 	7.70578E-7	 	33652.016	35.8246	 
940.0	1.0	0.0	7.41903	7.37987	-6.15721	17.89262	27.6474	1.42981	0.69939	122.05878	122.80371	45.73736	0.33434	 	8572677.075	 	6.90693E-7	 	33473.033	35.7966	 
935.0	1.0	0.0	7.42126	7.37765	-6.18542	17.87542	27.58424	1.42718	0.70068	122.60557	123.20226	45.94927	0.33414	 	9533594.565	 	6.18516E-7	 	33294.184	35.7698	 
930.0	1.0	0.0	7.42349	7.37544	-6.21358	17.85822	27.52108	1.42453	0.70199	123.15223	123.59971	46.16119	0.33394	 	1.06119738E7	 	5.53363E-7	 	33115.466	35.7436	 
925.0	1.0	0.0	7.42571	7.37323	-6.2417	17.84102	27.45791	1.42187	0.7033	123.69874	123.99604	46.37313	0.33373	 	1.182333375E7	 	4.94604E-7	 	32936.874	35.7184	 
920.0	1.0	0.0	7.42794	7.37102	-6.26977	17.82383	27.39475	1.41921	0.70462	124.24509	124.39123	46.58507	0.33353	 	1.318539407E7	 	4.41661E-7	 	32758.404	35.694	 
915.0	1.0	0.0	7.43016	7.36882	-6.29778	17.80664	27.33158	1.41652	0.70595	124.79126	124.78527	46.797	0.33333	 	1.471840821E7	 	3.94001E-7	 	32580.05	35.6708	 
910.0	1.0	0.0	7.43238	7.36662	-6.32576	17.78946	27.26841	1.41383	0.7073	125.33722	125.17815	47.00893	0.33312	 	1.644555004E7	 	3.51138E-7	 	32401.808	35.6484	 
905.0	1.0	0.0	7.43459	7.36442	-6.35368	17.77228	27.20524	1.41113	0.70865	125.88296	125.56984	47.22083	0.33292	 	1.839336316E7	 	3.12627E-7	 	32223.672	35.6272	 
900.0	1.0	0.0	7.43681	7.36223	-6.38156	17.75511	27.14206	1.40841	0.71002	126.42846	125.96035	47.43271	0.33271	 	2.059228366E7	 	2.78058E-7	 	32045.636	35.6072	 
895.0	1.0	0.0	7.43902	7.36004	-6.40939	17.73794	27.07889	1.40568	0.7114	126.9737	126.34964	47.64455	0.33251	 	2.307724897E7	 	2.47059E-7	 	31867.697	35.5878	 
890.0	1.0	0.0	7.44123	7.35786	-6.43717	17.72078	27.01571	1.40293	0.71279	127.51866	126.73771	47.85636	0.33231	 	2.588840785E7	 	2.19289E-7	 	31689.847	35.57	 
885.0	1.0	0.0	7.44343	7.35567	-6.46491	17.70362	26.95253	1.40018	0.7142	128.06332	127.12454	48.06812	0.3321	 	2.907194929E7	 	1.94436E-7	 	31512.081	35.5532	 
880.0	1.0	0.0	7.44564	7.3535	-6.4926	17.68647	26.88934	1.39741	0.71561	128.60766	127.51012	48.27982	0.3319	 	3.268107132E7	 	1.72217E-7	 	31334.392	35.5378	 
875.0	1.0	0.0	7.44784	7.35132	-6.52024	17.66932	26.82616	1.39463	0.71704	129.15167	127.89443	48.49146	0.33169	 	3.677711486E7	 	1.52373E-7	 	31156.774	35.5236	 
870.0	1.0	0.0	7.45004	7.34915	-6.54784	17.65218	26.76297	1.39183	0.71848	129.69531	128.27746	48.70303	0.33149	 	4.143089211E7	 	1.34668E-7	 	30979.221	35.5106	 
865.0	1.0	0.0	7.45224	7.34699	-6.57539	17.63504	26.69978	1.38902	0.71993	130.23859	128.6592	48.91453	0.33129	 	4.672424503E7	 	1.1889E-7	 	30801.726	35.499	 
860.0	1.0	0.0	7.45443	7.34482	-6.60289	17.6179	26.63659	1.3862	0.7214	130.78147	129.03962	49.12594	0.33108	 	5.275187582E7	 	1.04842E-7	 	30624.281	35.489	 
855.0	1.0	0.0	7.45662	7.34266	-6.63034	17.60078	26.5734	1.38337	0.72287	131.32393	129.41873	49.33726	0.33088	 	5.962349974E7	 	9.23498E-8	 	30446.878	35.4806	 
850.0	1.0	0.0	7.45881	7.34051	-6.65775	17.58365	26.51021	1.38052	0.72437	131.86597	129.79649	49.54849	0.33068	 	6.746638022E7	 	8.12526E-8	 	30269.511	35.4734	 
845.0	1.0	0.0	7.461	7.33836	-6.68511	17.56653	26.44701	1.37766	0.72587	132.40756	130.17291	49.75961	0.33047	 	7.642831795E7	 	7.14056E-8	 	30092.17	35.4682	 
840.0	1.0	0.0	7.46318	7.33621	-6.71242	17.54942	26.38382	1.37478	0.72739	132.94867	130.54796	49.97062	0.33027	 	8.668118002E7	 	6.26781E-8	 	29914.847	35.4646	 
835.0	1.0	0.0	7.46536	7.33407	-6.73968	17.53231	26.32062	1.37189	0.72892	133.4893	130.92164	50.18151	0.33006	 	9.842507202E7	 	5.49515E-8	 	29737.534	35.4626	 
830.0	1.0	0.0	7.46754	7.33193	-6.7669	17.51521	26.25742	1.36899	0.73047	134.02943	131.29393	50.39228	0.32986	 	1.11893277E8	 	4.81191E-8	 	29560.221	35.4626	 
825.0	1.0	0.0	7.46972	7.32979	-6.79407	17.49811	26.19422	1.36607	0.73203	134.56903	131.66482	50.60291	0.32966	 	1.273581105E8	 	4.20845E-8	 	29382.899	35.4644	 
820.0	1.0	0.0	7.47189	7.32766	-6.8212	17.48102	26.13102	1.36314	0.7336	135.10809	132.03429	50.8134	0.32945	 	1.451378697E8	 	3.67609E-8	 	29205.556	35.4686	 
815.0	1.0	0.0	7.47407	7.32553	-6.84828	17.46393	26.06783	1.3602	0.73519	135.64659	132.40233	51.02375	0.32925	 	1.656050958E8	 	3.20702E-8	 	29028.183	35.4746	 
810.0	1.0	0.0	7.47624	7.3234	-6.87531	17.44684	26.00463	1.35724	0.73679	136.18451	132.76893	51.23395	0.32905	 	1.891964073E8	 	2.79423E-8	 	28850.768	35.483	 
805.0	1.0	0.0	7.4784	7.32128	-6.90229	17.42976	25.94143	1.35426	0.73841	136.72184	133.13408	51.44398	0.32884	 	2.164242242E8	 	2.43142E-8	 	28673.299	35.4938	 
800.0	1.0	0.0	7.48057	7.31916	-6.92923	17.41269	25.87823	1.35127	0.74004	137.25854	133.49776	51.65385	0.32864	 	2.478907632E8	 	2.11294E-8	 	28495.765	35.5068	 
795.0	1.0	0.0	7.48273	7.31705	-6.95612	17.39562	25.81503	1.34827	0.74169	137.79462	133.85996	51.86354	0.32843	 	2.843047709E8	 	1.83373E-8	 	28318.151	35.5228	 
790.0	1.0	0.0	7.48489	7.31493	-6.98296	17.37856	25.75183	1.34525	0.74335	138.33004	134.22067	52.07305	0.32823	 	3.265015598E8	 	1.58926E-8	 	28140.444	35.5414	 
785.0	1.0	0.0	7.48705	7.31283	-7.00976	17.3615	25.68863	1.34222	0.74503	138.86479	134.57988	52.28238	0.32803	 	3.754670343E8	 	1.3755E-8	 	27962.63	35.5628	 
780.0	1.0	0.0	7.4892	7.31072	-7.03651	17.34444	25.62543	1.33917	0.74673	139.39886	134.93757	52.49151	0.32782	 	4.323665474E8	 	1.18884E-8	 	27784.692	35.5876	 
775.0	1.0	0.0	7.49135	7.30862	-7.06321	17.32739	25.56224	1.33611	0.74844	139.93222	135.29373	52.70043	0.32762	 	4.985796105E8	 	1.02607E-8	 	27606.615	35.6154	 
770.0	1.0	0.0	7.4935	7.30653	-7.08987	17.31035	25.49904	1.33303	0.75017	140.46486	135.64836	52.90915	0.32742	 	5.757417118E8	 	8.84313E-9	 	27428.382	35.6466	 
765.0	1.0	0.0	7.49565	7.30443	-7.11648	17.29331	25.43584	1.32994	0.75191	140.99675	136.00144	53.11766	0.32721	 	6.657947781E8	 	7.61038E-9	 	27249.973	35.6818	 
760.0	1.0	0.0	7.49779	7.30235	-7.14304	17.27627	25.37265	1.32683	0.75368	141.52789	136.35295	53.32594	0.32701	 	7.710481646E8	 	6.53986E-9	 	27071.369	35.7208	 
755.0	1.0	0.0	7.49993	7.30026	-7.16956	17.25924	25.30946	1.32371	0.75546	142.05825	136.70289	53.53399	0.3268	 	8.942524912E8	 	5.61155E-9	 	26892.55	35.7638	 
750.0	1.0	0.0	7.50207	7.29818	-7.19603	17.24222	25.24627	1.32057	0.75725	142.58781	137.05124	53.74181	0.3266	 	1.038689178E9	 	4.80773E-9	 	26713.493	35.8114	 
745.0	1.0	0.0	7.50421	7.2961	-7.22245	17.2252	25.18308	1.31741	0.75907	143.11656	137.39799	53.94939	0.3264	 	1.208279203E9	 	4.11274E-9	 	26534.174	35.8638	 
740.0	1.0	0.0	7.50634	7.29403	-7.24883	17.20818	25.11989	1.31424	0.7609	143.64448	137.74314	54.15671	0.32619	 	1.40771543E9	 	3.51274E-9	 	26354.568	35.9212	 
735.0	1.0	0.0	7.50848	7.29196	-7.27516	17.19117	25.0567	1.31105	0.76275	144.17156	138.08667	54.36378	0.32599	 	1.642623904E9	 	2.99553E-9	 	26174.647	35.9842	 
730.0	1.0	0.0	7.5106	7.28989	-7.30144	17.17417	24.99351	1.30785	0.76462	144.69776	138.42856	54.57059	0.32579	 	1.919760781E9	 	2.55038E-9	 	25994.382	36.053	 
725.0	1.0	0.0	7.51273	7.28783	-7.32768	17.15716	24.93033	1.30462	0.7665	145.22309	138.76882	54.77713	0.32558	 	2.247253216E9	 	2.16786E-9	 	25813.742	36.128	 
720.0	1.0	0.0	7.51485	7.28577	-7.35387	17.14017	24.86714	1.30139	0.76841	145.74751	139.10742	54.98339	0.32538	 	2.634894537E9	 	1.83966E-9	 	25632.691	36.2102	 
715.0	1.0	0.0	7.51698	7.28371	-7.38001	17.12318	24.80395	1.29813	0.77034	146.27102	139.44435	55.18937	0.32517	 	3.094506607E9	 	1.55854E-9	 	25451.194	36.2994	 
710.0	1.0	0.0	7.51909	7.28166	-7.40611	17.10619	24.74077	1.29486	0.77228	146.79359	139.77962	55.39506	0.32497	 	3.640385492E9	 	1.31813E-9	 	25269.209	36.397	 
705.0	1.0	0.0	7.52121	7.27961	-7.43216	17.08921	24.67758	1.29158	0.77425	147.31521	140.1132	55.60045	0.32477	 	4.289850621E9	 	1.11288E-9	 	25086.695	36.5028	 
700.0	1.0	0.0	7.52332	7.27756	-7.45816	17.07224	24.6144	1.28827	0.77623	147.83586	140.44508	55.80554	0.32456	 	5.063922768E9	 	9.37949E-10	 	24903.603	36.6184	 
695.0	1.0	0.0	7.52543	7.27552	-7.48412	17.05526	24.55121	1.28495	0.77824	148.35553	140.77526	56.01032	0.32436	 	5.988162686E9	 	7.89107E-10	 	24719.882	36.7442	 
690.0	1.0	0.0	7.52754	7.27349	-7.51003	17.0383	24.48802	1.28162	0.78026	148.87419	141.10372	56.21478	0.32416	 	7.093710516E9	 	6.62685E-10	 	24535.476	36.8812	 
685.0	1.0	0.0	7.52965	7.27145	-7.5359	17.02134	24.42483	1.27826	0.78231	149.39182	141.43045	56.41892	0.32395	 	8.418576604E9	 	5.55497E-10	 	24350.324	37.0304	 
680.0	1.0	0.0	7.53175	7.26942	-7.56172	17.00438	24.36164	1.27489	0.78438	149.90842	141.75545	56.62274	0.32375	 	1.00092E10	 	4.64779E-10	 	24164.358	37.1932	 
675.0	1.0	0.0	7.53385	7.26739	-7.58749	16.98743	24.29844	1.2715	0.78647	150.42396	142.0787	56.82621	0.32354	 	1.1922699999999998E10	 	3.88141E-10	 	23977.504	37.3708	 
670.0	1.0	0.0	7.53595	7.26537	-7.61321	16.97048	24.23524	1.26809	0.78859	150.93844	142.40019	57.02934	0.32334	 	1.4228899999999998E10	 	3.23517E-10	 	23789.681	37.5646	 
665.0	1.0	0.0	7.53805	7.26335	-7.63889	16.95354	24.17204	1.26467	0.79072	151.45182	142.71992	57.23213	0.32314	 	1.7013799999999998E10	 	2.69127E-10	 	23600.798	37.7766	 
660.0	1.0	0.0	7.54014	7.26134	-7.66453	16.9366	24.10883	1.26123	0.79288	151.96409	143.03787	57.43456	0.32293	 	2.03836E10	 	2.23438E-10	 	23410.757	38.0082	 
655.0	1.0	0.0	7.54223	7.25932	-7.69011	16.91967	24.04562	1.25777	0.79506	152.47524	143.35403	57.63662	0.32273	 	2.4469499999999996E10	 	1.85131E-10	 	23219.447	38.262	 
650.0	1.0	0.0	7.54432	7.25731	-7.71566	16.90275	23.9824	1.25429	0.79726	152.98525	143.6684	57.83832	0.32253	 	2.9433699999999996E10	 	1.53078E-10	 	23026.745	38.5404	 
645.0	1.0	0.0	7.5464	7.25531	-7.74115	16.88582	23.91917	1.25079	0.79949	153.49411	143.98096	58.03964	0.32232	 	3.54777E10	 	1.26312E-10	 	22832.515	38.846	 
640.0	1.0	0.0	7.54848	7.25331	-7.7666	16.86891	23.85593	1.24728	0.80175	154.00179	144.2917	58.24058	0.32212	 	4.2852E10	 	1.04006E-10	 	22636.604	39.1822	 
635.0	1.0	0.0	7.55056	7.25131	-7.792	16.85199	23.79269	1.24375	0.80402	154.50828	144.60062	58.44113	0.32191	 	5.186879999999999E10	 	8.54551E-11	 	22438.842	39.5524	 
630.0	1.0	0.0	7.55264	7.24932	-7.81736	16.83509	23.72944	1.2402	0.80632	155.01356	144.90771	58.64129	0.32171	 	6.291829999999999E10	 	7.00599E-11	 	22224.052	42.958	 
625.0	1.0	0.0	7.55471	7.24733	-7.84267	16.81818	23.66617	1.23663	0.80865	155.51762	145.21296	58.84104	0.32151	 	7.64889E10	 	5.73109E-11	 	22009.704	42.8696	 
620.0	1.0	0.0	7.55678	7.24534	-7.86793	16.80129	23.6029	1.23304	0.811	156.02044	145.51635	59.04039	0.3213	 	9.31936E10	 	4.67762E-11	 	21797.435	42.4538	 
615.0	1.0	0.0	7.55885	7.24336	-7.89315	16.78439	23.53962	1.22943	0.81338	156.522	145.81788	59.23933	0.3211	 	1.13804E11	 	3.80905E-11	 	21587.169	42.0532	 
610.0	1.0	0.0	7.56092	7.24138	-7.91832	16.76751	23.47632	1.22581	0.81579	157.02229	146.11754	59.43784	0.3209	 	1.39292E11	 	3.09454E-11	 	21378.832	41.6674	 
605.0	1.0	0.0	7.56298	7.2394	-7.94344	16.75062	23.41301	1.22216	0.81822	157.52129	146.41532	59.63592	0.32069	 	1.70887E11	 	2.50811E-11	 	21172.355	41.2954	 
600.0	1.0	0.0	7.56504	7.23743	-7.96852	16.73375	23.34969	1.2185	0.82068	158.01898	146.71122	59.83358	0.32049	 	2.10149E11	 	2.02791E-11	 	20967.674	40.9362	 
595.0	1.0	0.0	7.5671	7.23546	-7.99356	16.71687	23.28635	1.21482	0.82317	158.51535	147.00521	60.03079	0.32028	 	2.59057E11	 	1.63563E-11	 	20764.725	40.5898	 
590.0	1.0	0.0	7.56916	7.2335	-8.01854	16.70001	23.223	1.21112	0.82568	159.01038	147.29731	60.22755	0.32008	 	3.20135E11	 	1.31595E-11	 	20563.45	40.255	 
585.0	1.0	0.0	7.57121	7.23153	-8.04348	16.68314	23.15964	1.20739	0.82823	159.50406	147.58749	60.42387	0.31988	 	3.96605E11	 	1.05607E-11	 	20363.794	39.9312	 
580.0	1.0	0.0	7.57326	7.22958	-8.06838	16.66628	23.09626	1.20365	0.8308	159.99637	147.87574	60.61972	0.31967	 	4.92594E11	 	8.45324E-12	 	20165.703	39.6182	 
575.0	1.0	0.0	7.57531	7.22762	-8.09323	16.64943	23.03287	1.19989	0.83341	160.48728	148.16207	60.81511	0.31947	 	6.13402E11	 	6.74861E-12	 	19969.129	39.3148	 
570.0	1.0	0.0	7.57735	7.22567	-8.11803	16.63258	22.96946	1.19611	0.83604	160.9768	148.44645	61.01003	0.31927	 	7.65856E11	 	5.37334E-12	 	19774.021	39.0216	 
565.0	1.0	0.0	7.5794	7.22372	-8.14279	16.61574	22.90604	1.19231	0.83871	161.4649	148.7289	61.20447	0.31906	 	9.5877E11	 	4.26672E-12	 	19580.337	38.7368	 
560.0	1.0	0.0	7.58144	7.22178	-8.1675	16.5989	22.8426	1.18849	0.8414	161.95156	149.00938	61.39843	0.31886	 	1.20356E12	 	3.37864E-12	 	19388.033	38.4608	 
555.0	1.0	0.0	7.58347	7.21984	-8.19217	16.58207	22.77914	1.18465	0.84413	162.43677	149.2879	61.5919	0.31865	 	1.51506E12	 	2.66788E-12	 	19197.068	38.193	 
550.0	1.0	0.0	7.58551	7.21791	-8.21679	16.56524	22.71567	1.18079	0.84689	162.92052	149.56446	61.78487	0.31845	 	1.91258E12	 	2.10061E-12	 	19007.403	37.933	 
545.0	1.0	0.0	7.58754	7.21597	-8.24136	16.54841	22.65219	1.1769	0.84969	163.40278	149.83903	61.97733	0.31825	 	2.42138E12	 	1.64914E-12	 	18819.003	37.68	 
540.0	1.0	0.0	7.58957	7.21404	-8.26589	16.5316	22.58869	1.173	0.85252	163.88355	150.11162	62.16929	0.31804	 	3.07454E12	 	1.29085E-12	 	18631.831	37.4344	 
535.0	1.0	0.0	7.59159	7.21212	-8.29037	16.51478	22.52518	1.16907	0.85538	164.3628	150.38221	62.36074	0.31784	 	3.91558E12	 	1.00736E-12	 	18445.854	37.1954	 
530.0	1.0	0.0	7.59362	7.2102	-8.31481	16.49797	22.46165	1.16513	0.85828	164.84052	150.6508	62.55166	0.31764	 	5.00188E12	 	7.83701E-13	 	18261.041	36.9626	 
525.0	1.0	0.0	7.59564	7.20828	-8.3392	16.48117	22.39811	1.16116	0.86121	165.3167	150.91738	62.74205	0.31743	 	6.4094E12	 	6.07791E-13	 	18077.362	36.7358	 
520.0	1.0	0.0	7.59766	7.20636	-8.36354	16.46437	22.33455	1.15717	0.86418	165.79131	151.18195	62.93192	0.31723	 	8.23897E12	 	4.69861E-13	 	17894.788	36.5148	 
515.0	1.0	0.0	7.59967	7.20445	-8.38784	16.44757	22.27099	1.15315	0.86719	166.26436	151.44449	63.12124	0.31702	 	1.06249E13	 	3.6205E-13	 	17713.291	36.2994	 
510.0	1.0	0.0	7.60168	7.20255	-8.4121	16.43079	22.20741	1.14912	0.87023	166.73581	151.70501	63.31002	0.31682	 	1.37469E13	 	2.78053E-13	 	17532.846	36.089	 
505.0	1.0	0.0	7.60369	7.20064	-8.4363	16.414	22.14381	1.14506	0.87332	167.20566	151.96348	63.49824	0.31662	 	1.78457E13	 	2.12822E-13	 	17353.427	35.8838	 
500.0	1.0	0.0	7.6057	7.19874	-8.46047	16.39722	22.08021	1.14098	0.87644	167.67388	152.21991	63.68591	0.31641	 	2.32457E13	 	1.62334E-13	 	17175.011	35.6832	 
495.0	1.0	0.0	7.6077	7.19685	-8.48458	16.38045	22.0166	1.13688	0.8796	168.14047	152.47429	63.87302	0.31621	 	3.0385E13	 	1.23388E-13	 	16997.575	35.4872	 
490.0	1.0	0.0	7.60971	7.19495	-8.50865	16.36368	21.95297	1.13275	0.88281	168.60541	152.72662	64.05955	0.31601	 	3.98577E13	 	9.34511E-14	 	16821.097	35.2956	 
485.0	1.0	0.0	7.6117	7.19306	-8.53268	16.34691	21.88934	1.1286	0.88605	169.06868	152.97687	64.24551	0.3158	 	5.24727E13	 	7.05193E-14	 	16645.557	35.108	 
480.0	1.0	0.0	7.6137	7.19118	-8.55666	16.33015	21.8257	1.12443	0.88934	169.53028	153.22506	64.43089	0.3156	 	6.93352E13	 	5.30169E-14	 	16470.935	34.9244	 
475.0	1.0	0.0	7.61569	7.1893	-8.58059	16.3134	21.76205	1.12023	0.89267	169.99017	153.47117	64.61569	0.31539	 	9.1961E13	 	3.97074E-14	 	16297.211	34.7448	 
470.0	1.0	0.0	7.61768	7.18742	-8.60448	16.29665	21.69839	1.11601	0.89605	170.44836	153.71519	64.79989	0.31519	 	1.22438E14	 	2.96242E-14	 	16124.368	34.5686	 
465.0	1.0	0.0	7.61967	7.18554	-8.62832	16.2799	21.63472	1.11176	0.89947	170.90483	153.95713	64.98349	0.31499	 	1.63654E14	 	2.20143E-14	 	15952.388	34.396	 
460.0	1.0	0.0	7.62166	7.18367	-8.65212	16.26316	21.57105	1.10749	0.90294	171.35955	154.19697	65.16648	0.31478	 	2.19617E14	 	1.62935E-14	 	15781.255	34.2266	 
455.0	1.0	0.0	7.62364	7.1818	-8.67587	16.24643	21.50737	1.10319	0.90646	171.81252	154.43471	65.34887	0.31458	 	2.95918E14	 	1.20098E-14	 	15610.953	34.0604	 
450.0	1.0	0.0	7.62562	7.17994	-8.69958	16.22969	21.44369	1.09887	0.91003	172.26373	154.67034	65.53064	0.31438	 	4.00387E14	 	8.81525E-15	 	15441.465	33.8976	 
445.0	1.0	0.0	7.6276	7.17808	-8.72324	16.21297	21.38	1.09452	0.91364	172.71316	154.90386	65.71179	0.31417	 	5.4403799999999994E14	 	6.44278E-15	 	15272.778	33.7374	 
440.0	1.0	0.0	7.62957	7.17622	-8.74686	16.19625	21.31631	1.09015	0.9173	173.16079	155.13525	65.89232	0.31397	 	7.4243E14	 	4.68826E-15	 	15104.877	33.5802	 
435.0	1.0	0.0	7.63154	7.17437	-8.77043	16.17953	21.25261	1.08575	0.92102	173.60661	155.36453	66.07221	0.31376	 	1.01765E15	 	3.39634E-15	 	14937.749	33.4256	 
430.0	1.0	0.0	7.63351	7.17252	-8.79395	16.16282	21.18891	1.08133	0.92479	174.05061	155.59167	66.25146	0.31356	 	1.40121E15	 	2.44924E-15	 	14771.381	33.2736	 
425.0	1.0	0.0	7.63547	7.17067	-8.81743	16.14612	21.12521	1.07688	0.92861	174.49277	155.81668	66.43007	0.31336	 	1.93824E15	 	1.75804E-15	 	14605.759	33.1244	 
420.0	1.0	0.0	7.63744	7.16883	-8.84087	16.12941	21.0615	1.0724	0.93249	174.93308	156.03955	66.60803	0.31315	 	2.69373E15	 	1.25591E-15	 	14440.872	32.9774	 
415.0	1.0	0.0	7.6394	7.16699	-8.86425	16.11272	20.99779	1.06789	0.93642	175.37154	156.26028	66.78534	0.31295	 	3.76173E15	 	8.92857E-16	 	14276.709	32.8326	 
410.0	1.0	0.0	7.64135	7.16515	-8.8876	16.09603	20.93408	1.06336	0.94042	175.80811	156.47886	66.96199	0.31275	 	5.27904E15	 	6.31608E-16	 	14113.257	32.6904	 
405.0	1.0	0.0	7.64331	7.16332	-8.9109	16.07934	20.87037	1.0588	0.94447	176.2428	156.69528	67.13797	0.31254	 	7.44564E15	 	4.44539E-16	 	13950.506	32.5502	 
400.0	1.0	0.0	7.64526	7.16149	-8.93415	16.06266	20.80665	1.05421	0.94858	176.67558	156.90955	67.31328	0.31234	 	1.05555E16	 	3.11258E-16	 	13788.446	32.412	 
395.0	1.0	0.0	7.64721	7.15967	-8.95736	16.04598	20.74293	1.04959	0.95275	177.10645	157.12165	67.48792	0.31213	 	1.50429E16	 	2.16785E-16	 	13627.066	32.276	 
390.0	1.0	0.0	7.64916	7.15784	-8.98052	16.02931	20.67921	1.04495	0.95698	177.5354	157.33159	67.66188	0.31193	 	2.15533E16	 	1.50171E-16	 	13466.357	32.1418	 
385.0	1.0	0.0	7.6511	7.15603	-9.00364	16.01265	20.61549	1.04028	0.96128	177.9624	157.53935	67.83515	0.31173	 	3.10512E16	 	1.03451E-16	 	13306.309	32.0096	 
380.0	1.0	0.0	7.65304	7.15421	-9.02671	15.99598	20.55176	1.03558	0.96565	178.38745	157.74494	68.00773	0.31152	 	4.49862E16	 	7.08632E-17	 	13146.913	31.8792	 
375.0	1.0	0.0	7.65498	7.1524	-9.04974	15.97933	20.48803	1.03084	0.97008	178.81054	157.94836	68.17962	0.31132	 	6.555E16	 	4.82603E-17	 	12988.161	31.7504	 
370.0	1.0	0.0	7.65691	7.15059	-9.07272	15.96267	20.4243	1.02608	0.97458	179.23166	158.14959	68.35081	0.31112	 	9.60763E16	 	3.26725E-17	 	12830.043	31.6236	 
365.0	1.0	0.0	7.65884	7.14879	-9.09565	15.94603	20.36057	1.02129	0.97915	179.65078	158.34864	68.52129	0.31091	 	1.41667E17	 	2.19857E-17	 	12672.551	31.4984	 
360.0	1.0	0.0	7.66077	7.14699	-9.11855	15.92939	20.29683	1.01647	0.98379	180.06791	158.54551	68.69106	0.31071	 	2.10182E17	 	1.47027E-17	 	12515.678	31.3746	 
355.0	1.0	0.0	7.6627	7.14519	-9.14139	15.91275	20.23309	1.01162	0.98851	180.48303	158.74018	68.86012	0.3105	 	3.13802E17	 	9.76998E-18	 	12359.416	31.2524	 
350.0	1.0	0.0	7.66462	7.1434	-9.16419	15.89612	20.16935	1.00674	0.9933	180.89613	158.93266	69.02846	0.3103	 	4.71539E17	 	6.45003E-18	 	12203.757	31.1318	 
345.0	1.0	0.0	7.66654	7.14161	-9.18695	15.87949	20.1056	1.00183	0.99817	181.3072	159.12295	69.19608	0.3101	 	7.13259E17	 	4.22993E-18	 	12048.694	31.0126	 
340.0	1.0	0.0	7.66846	7.13983	-9.20966	15.86287	20.04185	0.99689	1.00312	181.71623	159.31104	69.36297	0.30989	 	1.08621E18	 	2.75511E-18	 	11894.22	30.8948	 
335.0	1.0	0.0	7.67038	7.13804	-9.23233	15.84625	19.97809	0.99191	1.00815	182.12321	159.49693	69.52913	0.30969	 	1.66569E18	 	1.78198E-18	 	11740.328	30.7784	 
330.0	1.0	0.0	7.67229	7.13626	-9.25495	15.82964	19.91434	0.98691	1.01326	182.52812	159.68062	69.69456	0.30949	 	2.57251E18	 	1.14434E-18	 	11587.012	30.6632	 
325.0	1.0	0.0	7.6742	7.13449	-9.27753	15.81303	19.85057	0.98187	1.01846	182.93097	159.86211	69.85924	0.30928	 	4.00205E18	 	7.29481E-19	 	11434.264	30.5496	 
320.0	1.0	0.0	7.6761	7.13272	-9.30006	15.79643	19.7868	0.9768	1.02375	183.33173	160.0414	70.02318	0.30908	 	6.27264E18	 	4.61531E-19	 	11282.08	30.4368	 
315.0	1.0	0.0	7.67801	7.13095	-9.32254	15.77983	19.72303	0.9717	1.02912	183.73041	160.21849	70.18638	0.30888	 	9.90699E18	 	2.89756E-19	 	11130.452	30.3256	 
310.0	1.0	0.0	7.67991	7.12918	-9.34498	15.76323	19.65925	0.96656	1.03459	184.12699	160.39337	70.34882	0.30867	 	1.57704E19	 	1.80478E-19	 	10979.376	30.2152	 
305.0	1.0	0.0	7.68181	7.12742	-9.36738	15.74665	19.59547	0.9614	1.04015	184.52146	160.56605	70.51051	0.30847	 	2.53071E19	 	1.11503E-19	 	10828.844	30.1064	 
300.0	1.0	0.0	7.6837	7.12566	-9.38973	15.73006	19.53168	0.95619	1.04581	184.91382	160.73652	70.67144	0.30826	 	4.09478E19	 	6.83163E-20	 	10678.853	29.9982	 
295.0	1.0	0.0	7.68559	7.12391	-9.41204	15.71348	19.46789	0.95096	1.05157	185.30406	160.90479	70.83162	0.30806	 	6.68193E19	 	4.15E-20	 	10529.396	29.8914	 
290.0	1.0	0.0	7.68748	7.12216	-9.4343	15.69691	19.40408	0.94569	1.05743	185.69216	161.07086	70.99102	0.30786	 	1.0999099999999998E20	 	2.49894E-20	 	10380.468	29.7856	 
285.0	1.0	0.0	7.68937	7.12041	-9.45652	15.68034	19.34028	0.94039	1.06339	186.07814	161.23473	71.14966	0.30765	 	1.8268E20	 	1.49124E-20	 	10232.065	29.6806	 
280.0	1.0	0.0	7.69125	7.11867	-9.47869	15.66378	19.27646	0.93505	1.06947	186.46197	161.3964	71.30754	0.30745	 	3.0620699999999997E20	 	8.81688E-21	 	10084.181	29.5768	 
275.0	1.0	0.0	7.69313	7.11693	-9.50082	15.64722	19.21264	0.92967	1.07565	186.84366	161.55587	71.46464	0.30725	 	5.1812599999999993E20	 	5.16358E-21	 	9936.812	29.4738	 
270.0	1.0	0.0	7.69501	7.11519	-9.5229	15.63067	19.14881	0.92426	1.08194	187.22319	161.71315	71.62096	0.30704	 	8.85249E20	 	2.99462E-21	 	9789.954	29.3716	 
265.0	1.0	0.0	7.69688	7.11346	-9.54494	15.61412	19.08497	0.91882	1.08835	187.60056	161.86823	71.77651	0.30684	 	1.52765E21	 	1.71936E-21	 	9643.602	29.2704	 
260.0	1.0	0.0	7.69876	7.11173	-9.56693	15.59757	19.02113	0.91334	1.09489	187.97578	162.02113	71.93128	0.30663	 	2.66335E21	 	9.77031E-22	 	9497.751	29.1702	 
255.0	1.0	0.0	7.70063	7.11	-9.58888	15.58104	18.95727	0.90782	1.10154	188.34883	162.17184	72.08527	0.30643	 	4.69253E21	 	5.49334E-22	 	9352.398	29.0706	 
250.0	1.0	0.0	7.70249	7.10828	-9.61079	15.5645	18.89341	0.90226	1.10832	188.71971	162.32036	72.23847	0.30623	 	8.35781E21	 	3.05506E-22	 	9207.539	28.9718	 
245.0	1.0	0.0	7.70436	7.10656	-9.63265	15.54797	18.82954	0.89667	1.11524	189.08842	162.46672	72.3909	0.30602	 	1.50529E22	 	1.68005E-22	 	9063.17	28.8738	 
240.0	1.0	0.0	7.70622	7.10485	-9.65446	15.53145	18.76566	0.89104	1.12228	189.45495	162.6109	72.54254	0.30582	 	2.7423799999999997E22	 	9.13278E-23	 	8919.287	28.7766	 
235.0	1.0	0.0	7.70807	7.10313	-9.67623	15.51493	18.70178	0.88537	1.12947	189.81932	162.75291	72.69339	0.30562	 	5.05553E22	 	4.90582E-23	 	8775.888	28.6798	 
230.0	1.0	0.0	7.70993	7.10143	-9.69796	15.49841	18.63788	0.87967	1.13679	190.1815	162.89277	72.84346	0.30541	 	9.43383E22	 	2.60313E-23	 	8632.968	28.584	 
225.0	1.0	0.0	7.71178	7.09972	-9.71964	15.4819	18.57397	0.87392	1.14427	190.54152	163.03048	72.99274	0.30521	 	1.7825899999999998E23	 	1.36394E-23	 	8490.525	28.4886	 
220.0	1.0	0.0	7.71363	7.09802	-9.74127	15.4654	18.51006	0.86814	1.15189	190.89936	163.16604	73.14124	0.30501	 	3.41208E23	 	7.05417E-24	 	8348.555	28.394	 
215.0	1.0	0.0	7.71547	7.09632	-9.76286	15.4489	18.44613	0.86231	1.15967	191.25503	163.29946	73.28895	0.3048	 	6.618619999999999E23	 	3.59975E-24	 	8207.056	28.2998	 
210.0	1.0	0.0	7.71732	7.09463	-9.78441	15.43241	18.3822	0.85645	1.16761	191.60853	163.43076	73.43587	0.3046	 	1.30159E24	 	1.81174E-24	 	8066.025	28.2062	 
205.0	1.0	0.0	7.71916	7.09294	-9.80591	15.41592	18.31825	0.85055	1.17572	191.95987	163.55995	73.58201	0.30439	 	2.59611E24	 	8.98934E-25	 	7925.46	28.113	 
200.0	1.0	0.0	7.72099	7.09125	-9.82737	15.39943	18.2543	0.8446	1.18399	192.30905	163.68702	73.72737	0.30419	 	5.25427E24	 	4.39514E-25	 	7785.357	28.0206	 
195.0	1.0	0.0	7.72283	7.08956	-9.84879	15.38295	18.19033	0.83861	1.19244	192.65608	163.81201	73.87195	0.30399	 	1.07955E25	 	2.11654E-25	 	7645.716	27.9282	 
190.0	1.0	0.0	7.72466	7.08788	-9.87016	15.36648	18.12636	0.83259	1.20108	193.00096	163.93491	74.01575	0.30378	 	2.25284E25	 	1.00341E-25	 	7506.533	27.8366	 
185.0	1.0	0.0	7.72649	7.08621	-9.89148	15.35001	18.06237	0.82651	1.2099	193.3437	164.05574	74.15878	0.30358	 	4.7774E25	 	4.68062E-26	 	7367.808	27.745	 
180.0	1.0	0.0	7.72831	7.08453	-9.91276	15.33354	17.99837	0.8204	1.21892	193.68431	164.17452	74.30103	0.30338	 	1.0300500000000001E26	 	2.14719E-26	 	7229.537	27.6542	 
175.0	1.0	0.0	7.73013	7.08286	-9.934	15.31708	17.93437	0.81424	1.22813	194.0228	164.29126	74.44252	0.30317	 	2.2592900000000004E26	 	9.68141E-27	 	7091.721	27.5632	 
170.0	1.0	0.0	7.73195	7.0812	-9.95519	15.30062	17.87035	0.80804	1.23756	194.35919	164.40597	74.58324	0.30297	 	5.0441E26	 	4.28799E-27	 	6954.357	27.4728	 
165.0	1.0	0.0	7.73377	7.07953	-9.97634	15.28417	17.80632	0.8018	1.24719	194.69348	164.51869	74.7232	0.30276	 	1.1469899999999999E27	 	1.86445E-27	 	6817.445	27.3824	 
160.0	1.0	0.0	7.73558	7.07787	-9.99744	15.26773	17.74227	0.79551	1.25705	195.0257	164.62941	74.86241	0.30256	 	2.6581E27	 	7.95343E-28	 	6680.983	27.2924	 
155.0	1.0	0.0	7.73739	7.07622	-10.0185	15.25129	17.67822	0.78918	1.26714	195.35585	164.73817	75.00087	0.30236	 	6.28216E27	 	3.32639E-28	 	6544.971	27.2024	 
150.0	1.0	0.0	7.7392	7.07456	-10.03951	15.23485	17.61415	0.7828	1.27747	195.68397	164.84499	75.13859	0.30215	 	1.51522E28	 	1.36303E-28	 	6409.408	27.1126	 
145.0	1.0	0.0	7.741	7.07292	-10.06048	15.21842	17.55008	0.77637	1.28804	196.01006	164.94989	75.27558	0.30195	 	3.73241E28	 	5.46802E-29	 	6274.294	27.0228	 
140.0	1.0	0.0	7.74281	7.07127	-10.08141	15.20199	17.48599	0.7699	1.29887	196.33415	165.05289	75.41184	0.30175	 	9.396770000000001E28	 	2.14593E-29	 	6139.629	26.933	 
135.0	1.0	0.0	7.7446	7.06963	-10.10229	15.18557	17.42188	0.76338	1.30996	196.65627	165.15403	75.54738	0.30154	 	2.41988E29	 	8.23215E-30	 	6005.414	26.843	 
130.0	1.0	0.0	7.7464	7.06799	-10.12313	15.16916	17.35777	0.75682	1.32132	196.97644	165.25332	75.68222	0.30134	 	6.37968E29	 	3.08428E-30	 	5871.648	26.7532	 
125.0	1.0	0.0	7.74819	7.06635	-10.14392	15.15275	17.29364	0.7502	1.33297	197.29469	165.3508	75.81637	0.30114	 	1.72337E30	 	1.1276E-30	 	5738.333	26.663	 
120.0	1.0	0.0	7.74998	7.06472	-10.16467	15.13634	17.2295	0.74354	1.34492	197.61105	165.4465	75.94982	0.30093	 	4.77461E30	 	4.0189E-31	 	5605.469	26.5728	 
115.0	1.0	0.0	7.75177	7.06309	-10.18538	15.11994	17.16535	0.73683	1.35717	197.92556	165.54046	76.08261	0.30073	 	1.35799E31	 	1.39505E-31	 	5473.057	26.4824	 
110.0	1.0	0.0	7.75355	7.06147	-10.20604	15.10354	17.10118	0.73006	1.36974	198.23825	165.63271	76.21475	0.30052	 	3.9692399999999997E31	 	4.71138E-32	 	5341.101	26.3912	 
105.0	1.0	0.0	7.75533	7.05985	-10.22666	15.08715	17.037	0.72325	1.38265	198.54917	165.72329	76.34624	0.30032	 	1.19353E32	 	1.54638E-32	 	5209.6	26.3002	 
100.0	1.0	0.0	7.75711	7.05823	-10.24723	15.07076	16.9728	0.71639	1.39589	198.85836	165.81224	76.4771	0.30012	 	3.69637E32	 	4.92713E-33	 	5078.558	26.2084	 
95.0	1.0	0.0	7.75889	7.05662	-10.26776	15.05438	16.9086	0.70947	1.4095	199.16586	165.89961	76.60736	0.29991	 	1.18046E33	 	1.52215E-33	 	4947.978	26.116	 
90.0	1.0	0.0	7.76066	7.055	-10.28824	15.038	16.84437	0.7025	1.42348	199.47172	165.98545	76.73703	0.29971	 	3.89239E33	 	4.55362E-34	 	4817.862	26.0232	 
85.0	1.0	0.0	7.76243	7.0534	-10.30868	15.02163	16.78014	0.69548	1.43785	199.77601	166.06979	76.86614	0.29951	 	1.32693E34	 	1.31736E-34	 	4688.213	25.9298	 
80.0	1.0	0.0	7.76419	7.05179	-10.32908	15.00526	16.71589	0.68841	1.45262	200.07878	166.15271	76.9947	0.2993	 	4.6834000000000005E34	 	3.68031E-35	 	4559.037	25.8352	 
75.0	1.0	0.0	7.76595	7.05019	-10.34943	14.9889	16.65162	0.68128	1.46782	200.38009	166.23425	77.12274	0.2991	 	1.71399E35	 	9.91393E-36	 	4430.336	25.7402	 
70.0	1.0	0.0	7.76771	7.0486	-10.36974	14.97255	16.58734	0.6741	1.48346	200.68002	166.31447	77.25028	0.2989	 	6.5143899999999996E35	 	2.57097E-36	 	4302.117	25.6438	 
65.0	1.0	0.0	7.76947	7.047	-10.39001	14.95619	16.52305	0.66686	1.49956	200.97863	166.39345	77.37736	0.29869	 	2.5756599999999998E36	 	6.40779E-37	 	4174.384	25.5466	 
60.0	1.0	0.0	7.77122	7.04541	-10.41023	14.93985	16.45873	0.65957	1.51614	201.27601	166.47125	77.50401	0.29849	 	1.0612599999999999E37	 	1.53216E-37	 	4047.143	25.4482	 
55.0	1.0	0.0	7.77297	7.04382	-10.4304	14.9235	16.39441	0.65222	1.53322	201.57224	166.54794	77.63025	0.29828	 	4.56559E37	 	3.50802E-38	 	3920.4	25.3486	 
50.0	1.0	0.0	7.77472	7.04224	-10.45054	14.90716	16.33007	0.64481	1.55084	201.86742	166.62362	77.75613	0.29808	 	2.0548499999999998E38	 	7.67556E-39	 	3794.164	25.2472	 
45.0	1.0	0.0	7.77647	7.04066	-10.47063	14.89083	16.26571	0.63735	1.569	202.16165	166.69835	77.88168	0.29788	 	9.69614E38	 	1.60147E-39	 	3668.442	25.1444	 
40.0	1.0	0.0	7.77821	7.03909	-10.49067	14.8745	16.20133	0.62982	1.58774	202.45503	166.77224	78.00695	0.29767	 	4.8076600000000006E39	 	3.17911E-40	 	3543.242	25.04	 
35.0	1.0	0.0	7.77995	7.03751	-10.51067	14.85818	16.13694	0.62224	1.60709	202.74769	166.84538	78.13197	0.29747	 	2.51093E40	 	5.98983E-41	 	3418.575	24.9334	 
30.0	1.0	0.0	7.78168	7.03594	-10.53063	14.84186	16.07253	0.6146	1.62708	203.03974	166.91788	78.2568	0.29727	 	1.38489E41	 	1.06839E-41	 	3294.449	24.8252	 
25.0	1.0	0.0	7.78341	7.03438	-10.55055	 	16.00811	0.60689	1.64774	203.33132	166.98985	78.38148	0.29706	 	8.08853E41	 	1.79909E-42	 	3170.877	 	 
