T (C)	Fraction solid (wt)-TOTAL	Fraction liquid (wt)-LIQUID	Density (g/(cm)^3)-TOTAL	Molar volume (cm^3)-TOTAL	Volume change (%)-  	Average expansion coeff. (10e-6 1/K)-  	Thermal conductivity (W/(m*K))-TOTAL	Electrical resistivity (10e-6 Ohm*m)-TOTAL	Electrical conductivity (10e6 1/(Ohm*m))-TOTAL	Young's modulus (GPa)-TOTAL	Bulk modulus (GPa)-TOTAL	Shear modulus(GPa)-TOTAL	Poisson's ratio-TOTAL	Liquid viscosity (mPa s)-  	Total viscosity (mPa s)-  	Liquid diffusivity (10e-9 (m^2)/s)-  	Total diffusivity (10e-9 (m^2)/s)-  	Surface Tension (mN/m)-  	Enthalpy (J/mole)-TOTAL	Specific heat (J/(mole K))-TOTAL	Latent heat (J/mole)-TOTAL
1500.0	0.0	1.0	6.91703	7.85036	0.0	23.64712	31.46591	1.83621	0.5446	0.0	104.30071	0.0	0.49974	6.80926	6.80926	1.27096	1.27096	1732.91827	65054.585	 	0.0
1495.0	0.0	1.0	6.92079	7.84609	-0.0544127	23.59126	31.39445	1.8352	0.5449	0.0	104.48836	0.0	0.49974	6.86853	6.86853	1.25644	1.25644	1734.77683	64832.595	44.398	0.0
1490.0	0.0	1.0	6.92455	7.84183	-0.10867	23.5354	31.323	1.83419	0.5452	0.0	104.67602	0.0	0.49974	6.92866	6.92866	1.24201	1.24201	1736.64049	64611.149	44.2892	0.0
1485.0	0.0	1.0	6.92831	7.83759	-0.16278	23.47954	31.25154	1.83317	0.5455	0.0	104.86368	0.0	0.49974	6.98966	6.98966	1.22768	1.22768	1738.5092	64390.245	44.1808	0.0
1480.0	0.0	1.0	6.93205	7.83335	-0.21673	23.42369	31.18008	1.83214	0.54581	0.0	105.05134	0.0	0.49974	7.05155	7.05155	1.21345	1.21345	1740.38294	64169.88	44.073	0.0
1475.0	0.0	1.0	6.93579	7.82913	-0.27053	23.36785	31.10862	1.83112	0.54612	0.0	105.239	0.0	0.49974	7.11435	7.11435	1.19931	1.19931	1742.26168	63950.049	43.9662	0.0
1470.0	0.0	1.0	6.93952	7.82492	-0.32417	23.31201	31.03716	1.83008	0.54642	0.0	105.42665	0.0	0.49974	7.17807	7.17807	1.18526	1.18526	1744.14539	63730.749	43.86	0.0
1465.0	0.0	1.0	6.94325	7.82072	-0.37767	23.25617	30.96571	1.82904	0.54673	0.0	105.61431	0.0	0.49974	7.24273	7.24273	1.17131	1.17131	1746.03402	63511.978	43.7542	0.0
1460.0	0.0	1.0	6.94697	7.81653	-0.43101	23.20034	30.89425	1.828	0.54705	0.0	105.80197	0.0	0.49974	7.30835	7.30835	1.15745	1.15745	1747.92755	63293.732	43.6492	0.0
1455.0	0.0	1.0	6.95068	7.81235	-0.48419	23.14451	30.82279	1.82695	0.54736	0.0	105.98963	0.0	0.49974	7.37496	7.37496	1.14369	1.14369	1749.82592	63076.007	43.545	0.0
1452.32	0.0	1.0	6.95267	7.81012	-0.51268	23.11453	30.78443	1.82639	0.54753	0.0	106.09037	0.0	0.49974	7.41113	7.41113	1.13634	1.13634	1750.84704	62959.333	43.4665	0.0050
1450.0	0.0690002	0.931	6.96415	7.79722	-0.67693	22.72769	30.97677	1.81261	0.55169	0.0012272	103.49422	4.11901E-4	0.48968	7.42497	8.24377	1.1327	1.0202	1750.13061	62254.376	304.416	604.434
1445.0	0.19513	0.80487	6.98557	7.7734	-0.98043	22.02072	31.32765	1.78711	0.55956	0.0799559	98.79984	0.027174	0.47118	7.45508	17.62675	1.12485	0.47575	1748.8399	60935.504	263.774	1706.664
1440.0	0.2956	0.7044	7.00327	7.75376	-1.2306	21.44755	31.60335	1.76636	0.56613	0.428	95.13179	0.14695	0.45632	7.4849	55.88232	1.11711	0.14963	1747.83967	59845.317	218.037	2580.751
1435.0	0.37715	0.62285	7.01815	7.73741	-1.4388	20.97988	31.82329	1.74904	0.57174	1.15097	92.22863	0.39849	0.44417	7.51477	138.51623	1.10942	0.0601883	1747.08256	58924.057	184.252	3286.453
1430.0	0.44439	0.55561	7.03088	7.72349	-1.61612	20.58985	31.9998	1.7343	0.5766	2.24907	89.906	0.78415	0.43407	7.54464	271.44808	1.1018	0.0306234	1746.53217	58130.544	158.703	3864.946
1425.0	0.50059	0.49941	7.04199	7.7114	-1.77016	20.25825	32.14191	1.72156	0.58087	3.66782	88.03431	1.28643	0.42558	7.57419	454.59274	1.09428	0.0182322	1746.15886	57435.608	138.987	4345.395
1420.0	0.54814	0.45186	7.05178	7.70087	-1.90431	19.97675	32.25649	1.71039	0.58466	5.33551	86.51995	1.8809	0.41834	7.6038	685.13489	1.0868	0.0120616	1745.937	56818.083	123.505	4748.964
1415.0	0.58875	0.41125	7.06051	7.69146	-2.02417	19.7311	32.34804	1.70052	0.58806	7.18251	85.28997	2.54318	0.41211	7.63338	959.3629	1.0794	0.00858845	1745.84781	56262.285	111.16	5091.334
1410.0	0.62378	0.37622	7.0684	7.68301	-2.13184	19.51609	32.42086	1.69167	0.59113	9.14882	84.29235	3.25187	0.4067	7.66267	1273.72547	1.07209	0.00644961	1745.87397	55756.377	101.182	5384.338
1405.0	0.65422	0.34578	7.07558	7.67535	-2.22933	19.32669	32.47793	1.68368	0.59394	11.18552	83.48575	3.98923	0.40197	7.69196	1625.13819	1.06483	0.00503996	1746.00135	55291.279	93.0196	5637.051
1400.0	0.68086	0.31914	7.08216	7.66837	-2.31828	19.15876	32.5217	1.67641	0.59651	13.25455	82.83816	4.74125	0.39779	7.72126	2011.18838	1.05763	0.0040604	1746.2178	54859.924	86.271	5856.539
1395.0	0.70431	0.29569	7.08823	7.66195	-2.40008	19.00883	32.55417	1.66973	0.5989	15.32702	82.32423	5.49717	0.39408	7.75062	2430.10852	1.05047	0.0033504	1746.5132	54456.738	80.6372	6048.373
1390.0	0.72509	0.27491	7.09389	7.65603	-2.47548	18.87506	32.57713	1.66355	0.60112	17.38293	81.92353	6.24938	0.39077	7.78003	2881.01889	1.04337	0.00281755	1746.8784	54077.274	75.8928	6216.993
1385.0	0.74359	0.25641	7.0992	7.65044	-2.54664	18.7518	32.59151	1.65782	0.6032	19.4062	81.61878	6.99172	0.3878	7.80913	3363.05681	1.03635	0.00240645	1747.30807	53717.946	71.8656	6365.986
1380.0	0.76015	0.23985	7.10418	7.64526	-2.61269	18.64152	32.59879	1.65245	0.60516	21.3864	81.39767	7.72007	0.38512	7.83866	3876.39096	1.02934	0.00208148	1747.79302	53375.836	68.422	6498.265
1375.0	0.77501	0.22499	7.1089	7.64034	-2.67539	18.53953	32.59973	1.64741	0.60702	23.31795	81.24797	8.43213	0.38268	7.8679	4421.49087	1.02241	0.00181934	1748.32982	53048.545	65.4582	6616.226
1370.0	0.78841	0.21159	7.11339	7.63567	-2.73484	18.44569	32.59515	1.64264	0.60878	25.19601	81.16079	9.1259	0.38047	7.89725	4999.10908	1.01552	0.00160425	1748.9129	52734.065	62.896	6721.875
1365.0	0.80055	0.19945	7.11766	7.63123	-2.79137	18.35918	32.58573	1.63811	0.61046	27.0189	81.12833	9.80053	0.37844	7.92671	5610.51859	1.00867	0.00142507	1749.53782	52430.771	60.6588	6816.833
1363.31	0.80437	0.19563	7.11907	7.62977	-2.80999	18.33114	32.5814	1.63664	0.61101	27.61715	81.12966	10.0222	0.3778	7.93638	5823.62124	1.0064	0.00137151	1749.75708	52330.783	 	6846.56
1360.0	0.83249	0.16751	7.12529	7.6232	-2.89363	18.14591	32.6437	1.63021	0.61342	32.06012	80.60557	11.6738	0.37317	7.97076	6985.41793	1.00003	0.00114109	1750.70771	51884.566	109.241	7155.195
1357.21	0.85107	0.14893	7.12969	7.61859	-2.95244	18.02132	32.67876	1.62569	0.61512	35.32361	80.31732	12.89107	0.37008	7.9998	7899.08588	0.9947	0.00100738	1751.53369	51566.761	 	7357.385
1355.0	0.86689	0.13311	7.13408	7.61403	-3.01047	17.89064	32.7122	1.62182	0.61659	38.31632	80.05878	14.00998	0.36746	8.02571	8738.91156	0.99014	9.09335E-4	1752.475	51301.044	116.704	7531.363
1350.0	0.89424	0.10576	7.14225	7.60562	-3.11761	17.66042	32.75844	1.61456	0.61937	44.0439	79.72814	16.15826	0.36289	8.08413	10483.18663	0.97997	7.55705E-4	1754.68697	50798.146	100.58	7827.395
1345.0	0.91317	0.0868254	7.14866	7.59906	-3.20117	17.49424	32.77374	1.60883	0.62157	48.50725	79.64761	17.83801	0.35966	8.14245	12043.06842	0.96995	6.55795E-4	1756.95855	50391.959	81.2374	8027.2
1340.0	0.92697	0.0730288	7.15399	7.59366	-3.27001	17.36798	32.7699	1.60405	0.62342	52.08925	79.72076	19.18923	0.35725	8.20127	13491.90726	0.96002	5.83563E-4	1759.2662	50044.338	69.5242	8168.92
1336.89	0.93391	0.0660861	7.157	7.59066	-3.3082	17.30196	32.7614	1.60137	0.62446	54.01901	79.81497	19.91826	0.35602	8.2382	14368.41317	0.95387	5.46909E-4	1760.7077	49847.695	 	8237.778
1335.0	0.93859	0.0614138	7.15889	7.58876	-3.33243	17.25883	32.75194	1.59995	0.62502	55.36253	79.91916	20.4256	0.35522	8.26487	14961.36033	0.94968	5.24617E-4	1761.34192	49717.345	65.3986	8290.49
1330.0	0.94888	0.0511179	7.16346	7.58417	-3.39091	17.15996	32.72231	1.59642	0.6264	58.49599	80.23568	21.6101	0.35344	8.33624	16495.66635	0.93862	4.74341E-4	1763.08379	49397.875	63.894	8405.013
1325.0	0.95672	0.0432767	7.16753	7.5801	-3.44273	17.07916	32.6861	1.59321	0.62766	61.08868	80.59695	22.59137	0.35204	8.40832	17992.84684	0.92767	4.33515E-4	1764.86719	49108.164	57.9422	8490.251
1320.0	0.96286	0.037141	7.17125	7.5764	-3.4899	17.01101	32.64497	1.59022	0.62884	63.28645	80.98918	23.42395	0.35089	8.48164	19484.36605	0.91678	3.99077E-4	1766.68	48838.985	53.8358	8555.426
1315.0	0.96777	0.0322338	7.1747	7.57296	-3.5337	16.95191	32.60023	1.58741	0.62996	65.18895	81.40372	24.14518	0.34994	8.55588	20993.47772	0.90597	3.69227E-4	1768.51411	48584.493	50.8984	8606.382
1310.0	0.97176	0.0282371	7.17796	7.56971	-3.57504	16.89942	32.55279	1.58472	0.63103	66.86562	81.83491	24.78116	0.34912	8.63119	22538.03573	0.89524	3.42841E-4	1770.36431	48340.832	48.7322	8646.973
1305.0	0.97506	0.0249356	7.18106	7.56662	-3.61438	16.85225	32.50329	1.58212	0.63206	68.36574	82.2791	25.35041	0.34841	8.70803	24132.53438	0.88454	3.19177E-4	1772.22275	48105.368	47.0928	8679.828
1300.0	0.97783	0.0221737	7.18404	7.56365	-3.65224	16.809	32.45152	1.57962	0.63306	69.72608	82.73345	25.86682	0.34779	8.78573	25789.55351	0.87394	2.97723E-4	1774.08895	47876.246	45.8244	8706.802
1295.0	0.98016	0.0198409	7.18691	7.56078	-3.68884	16.76908	32.39896	1.57715	0.63405	70.97379	83.19614	26.3406	0.34723	8.86506	27520.23151	0.86336	2.78114E-4	1775.95661	47652.125	44.8242	8729.231
1290.0	0.98215	0.0178516	7.1897	7.55799	-3.72438	16.73189	32.34539	1.57473	0.63503	72.12956	83.66573	26.77957	0.34673	8.94574	29335.10016	0.85285	2.60076E-4	1777.82303	47432.018	44.0214	8748.102
1285.0	0.98386	0.0161437	7.19241	7.55526	-3.75906	16.69696	32.291	1.57234	0.636	73.20945	84.14112	27.18982	0.34627	9.02784	31244.23297	0.84239	2.43403E-4	1779.68605	47215.179	43.3678	8764.156
1280.0	0.98536	0.014644	7.19507	7.55259	-3.79316	16.66344	32.23603	1.56996	0.63696	74.23424	84.6209	27.57922	0.34584	9.11131	33260.85845	0.83199	2.27912E-4	1781.546	47001.029	42.83	8777.97
1275.0	0.98669	0.0133057	7.19771	7.54995	-3.82677	16.63106	32.18064	1.5676	0.63792	75.21686	85.10426	27.95269	0.34543	9.19633	35396.88539	0.82165	2.13469E-4	1783.39777	46789.15	42.3758	8789.962
1270.0	0.9879	0.012104	7.20031	7.54734	-3.86001	16.59956	32.1249	1.56525	0.63888	76.16426	85.59079	28.31285	0.34505	9.28286	37662.85477	0.81136	1.99978E-4	1785.2419	46579.224	41.9852	8800.444
1265.0	0.98898	0.0110184	7.20289	7.54476	-3.8929	16.56882	32.06887	1.56291	0.63983	77.08192	86.08022	28.66178	0.34468	9.37103	40069.74113	0.80112	1.87357E-4	1787.07561	46370.996	41.6456	8809.668
1260.0	0.98997	0.0100311	7.20545	7.5422	-3.92549	16.53873	32.01258	1.56056	0.64079	77.97419	86.57225	29.00114	0.34433	9.46082	42629.17596	0.79094	1.75535E-4	1788.89765	46164.26	41.3472	8817.843
1255.0	0.99087	0.00912884	7.20799	7.53966	-3.95782	16.50919	31.9561	1.55822	0.64176	78.84539	87.06665	29.33255	0.34399	9.55229	45353.75231	0.78081	1.64452E-4	1790.70531	45958.846	41.0828	8825.134
1250.0	0.9917	0.00830114	7.21051	7.53714	-3.98992	16.48007	31.89942	1.55589	0.64272	79.69802	87.56326	29.65697	0.34366	9.64543	48256.31968	0.77074	1.54055E-4	1792.50107	45754.614	40.8464	8831.677
1245.0	0.99246	0.00753664	7.21302	7.53464	-4.02181	16.45136	31.84257	1.55355	0.64369	80.53473	88.06184	29.97541	0.34335	9.74038	51351.30488	0.76072	1.44295E-4	1794.28049	45551.447	40.6334	8837.588
1240.0	0.99317	0.00683018	7.21552	7.53215	-4.05353	16.42296	31.78559	1.55121	0.64466	81.35803	88.56237	30.28881	0.34304	9.83709	54653.6914	0.75076	1.35129E-4	1796.04428	45349.24	40.4414	8842.973
1235.0	0.99383	0.00617242	7.21801	7.52967	-4.08508	16.39481	31.72849	1.54886	0.64564	82.16984	89.0646	30.59791	0.34274	9.93524	58180.05483	0.74089	1.26519E-4	1797.79194	45147.927	40.2626	8847.897
1233.37	0.99403	0.00596907	7.21882	7.52887	-4.09531	16.38571	31.70986	1.5481	0.64595	82.43156	89.22845	30.69757	0.34264	9.96776	59378.97729	0.73767	1.23831E-4	1798.35595	45082.577	 	8849.409
1230.0	0.9944	0.00560489	7.22044	7.52723	-4.11613	16.36796	31.67112	1.54652	0.64661	82.95371	89.56853	30.89641	0.34245	10.03566	61935.35134	0.73104	1.18454E-4	1799.51748	44947.633	40.0588	8852.232
1225.0	0.99491	0.00509439	7.22285	7.52482	-4.14688	16.3418	31.61361	1.54418	0.64759	83.72082	90.07398	31.18857	0.34217	10.13769	65943.50158	0.72128	1.10884E-4	1801.22757	44748.149	39.8968	8856.184
1220.0	0.99538	0.00461707	7.22525	7.52242	-4.1775	16.31583	31.55602	1.54184	0.64858	84.48073	90.58082	31.47807	0.3419	10.24104	70230.42599	0.71162	1.03768E-4	1802.91838	44549.336	39.7626	8859.892
1215.51	0.99576	0.0042435	7.22737	7.52028	-4.20467	16.29336	31.50414	1.53973	0.64946	85.14669	91.03746	31.7318	0.34166	10.33572	74328.78795	0.70298	9.77517E-5	1804.41808	44371.343	 	8862.934
1215.0	0.99589	0.00411482	7.22766	7.51997	-4.20864	16.28801	31.4985	1.53948	0.64957	85.25989	91.08987	31.77506	0.34162	10.36266	74837.11508	0.70091	9.70547E-5	1804.44678	44349.728	39.9216	8864.82
1213.68	0.99621	0.00379311	7.22842	7.51916	-4.21897	16.27418	31.48374	1.53883	0.64984	85.55081	91.22685	31.88625	0.3415	10.43274	76178.09199	0.69558	9.52613E-5	1804.52828	44293.483	 	8869.557
1210.0	0.99703	0.00297428	7.23051	7.51693	-4.24732	16.23655	31.44283	1.53703	0.65061	86.33043	91.60632	32.18423	0.34119	10.62525	80009.15539	0.68129	9.04757E-5	1804.77933	44138.834	42.1788	8881.454
1205.0	0.99797	0.00203081	7.23331	7.51396	-4.28522	16.18709	31.38698	1.53457	0.65165	87.33004	92.12252	32.56629	0.3408	10.88762	85500.96248	0.66263	8.4379E-5	1805.17736	43931.337	41.4994	8895.11
1200.0	0.99876	0.00124192	7.23607	7.51104	-4.32242	16.13941	31.33092	1.53212	0.65269	88.27353	92.63898	32.9269	0.34045	11.15134	91347.21134	0.64477	7.87115E-5	1805.62716	43726.513	40.9648	8906.511
1195.0	0.99943	5.73588E-4	7.23878	7.50817	-4.35901	16.09322	31.27469	1.52966	0.65374	89.17402	93.15583	33.27108	0.34011	11.4165	97584.99461	0.62766	7.34301E-5	1806.12425	43523.812	40.5402	8916.203
1190.0	1.0	0.0	7.24146	7.50534	-4.39505	16.04838	31.21831	1.5272	0.65479	90.04026	93.67321	33.6022	0.3398	 	104251.1064	 	6.85007E-5	 	43322.835	40.1954	8924.584
1185.0	1.0	0.0	7.24355	7.50318	-4.42254	16.03029	31.15949	1.52486	0.6558	90.64593	94.18868	33.83315	0.3396	 	111137.4542	 	6.40366E-5	 	43119.027	40.7616	 
1180.0	1.0	0.0	7.24563	7.50102	-4.44998	16.0122	31.10068	1.5225	0.65681	91.25357	94.70494	34.06491	0.33941	 	118531.7227	 	5.9836E-5	 	42927.18	38.3694	 
1175.0	1.0	0.0	7.2477	7.49887	-4.47738	15.99411	31.04186	1.52014	0.65783	91.86314	95.22194	34.29745	0.33921	 	126475.1509	 	5.5885E-5	 	42735.548	38.3264	 
1170.0	1.0	0.0	7.24978	7.49673	-4.50472	15.97602	30.98305	1.51777	0.65886	92.4746	95.73966	34.53077	0.33902	 	135012.6253	 	5.21704E-5	 	42544.139	38.2818	 
1165.0	1.0	0.0	7.25185	7.49458	-4.53202	15.95792	30.92423	1.51539	0.6599	93.08793	96.25805	34.76486	0.33882	 	144193.0282	 	4.86796E-5	 	42352.955	38.2368	 
1160.0	1.0	0.0	7.25392	7.49245	-4.55926	15.93983	30.86542	1.51299	0.66094	93.70308	96.77708	34.99969	0.33863	 	154069.6222	 	4.54006E-5	 	42161.992	38.1926	 
1155.0	1.0	0.0	7.25599	7.49031	-4.58646	15.92172	30.8066	1.51059	0.66199	94.32001	97.29669	35.23526	0.33843	 	164700.4741	 	4.2322E-5	 	41971.25	38.1484	 
1150.0	1.0	0.0	7.25806	7.48818	-4.61362	15.90362	30.74779	1.50818	0.66305	94.9387	97.81685	35.47155	0.33824	 	176148.9233	 	3.94328E-5	 	41780.724	38.1052	 
1145.0	1.0	0.0	7.26012	7.48605	-4.64072	15.88551	30.68898	1.50577	0.66411	95.5591	98.33753	35.70855	0.33804	 	188484.0984	 	3.67227E-5	 	41590.413	38.0622	 
1140.0	1.0	0.0	7.26218	7.48393	-4.66777	15.86741	30.63016	1.50334	0.66519	96.18118	98.85868	35.94625	0.33785	 	201781.4891	 	3.41817E-5	 	41400.314	38.0198	 
1135.0	1.0	0.0	7.26424	7.48181	-4.69478	15.84929	30.57135	1.5009	0.66627	96.80491	99.38027	36.18463	0.33765	 	216123.5776	 	3.18005E-5	 	41210.425	37.9778	 
1130.0	1.0	0.0	7.26629	7.47969	-4.72174	15.83118	30.51254	1.49845	0.66735	97.43024	99.90225	36.42368	0.33746	 	231600.5387	 	2.957E-5	 	41020.741	37.9368	 
1125.0	1.0	0.0	7.26835	7.47758	-4.74865	15.81306	30.45373	1.496	0.66845	98.05714	100.42459	36.66339	0.33726	 	248311.0133	 	2.74818E-5	 	40831.262	37.8958	 
1120.0	1.0	0.0	7.2704	7.47547	-4.77551	15.79494	30.39492	1.49353	0.66955	98.68557	100.94725	36.90374	0.33707	 	266362.9671	 	2.55276E-5	 	40641.983	37.8558	 
1115.0	1.0	0.0	7.27244	7.47336	-4.80232	15.77682	30.33611	1.49106	0.67067	99.31551	101.47019	37.14472	0.33687	 	285874.6416	 	2.37E-5	 	40452.903	37.816	 
1110.0	1.0	0.0	7.27449	7.47126	-4.82909	15.7587	30.27731	1.48857	0.67178	99.9469	101.99338	37.38632	0.33668	 	306975.6094	 	2.19914E-5	 	40264.017	37.7772	 
1105.0	1.0	0.0	7.27653	7.46917	-4.8558	15.74057	30.2185	1.48608	0.67291	100.57972	102.51677	37.62852	0.33648	 	329807.946	 	2.03949E-5	 	40075.323	37.7388	 
1100.0	1.0	0.0	7.27857	7.46707	-4.88247	15.72244	30.15969	1.48357	0.67405	101.21394	103.04033	37.87132	0.33629	 	354527.5309	 	1.8904E-5	 	39886.819	37.7008	 
1095.0	1.0	0.0	7.28061	7.46498	-4.90909	15.70431	30.10089	1.48106	0.67519	101.84951	103.56403	38.11469	0.33609	 	381305.495	 	1.75125E-5	 	39698.499	37.664	 
1090.0	1.0	0.0	7.28264	7.4629	-4.93566	15.68617	30.04208	1.47853	0.67635	102.48639	104.08782	38.35863	0.3359	 	410329.8291	 	1.62143E-5	 	39510.363	37.6272	 
1085.0	1.0	0.0	7.28468	7.46082	-4.96218	15.66804	29.98328	1.476	0.67751	103.12456	104.61167	38.60312	0.3357	 	441807.1761	 	1.50038E-5	 	39322.405	37.5916	 
1080.0	1.0	0.0	7.28671	7.45874	-4.98865	15.6499	29.92447	1.47346	0.67868	103.76398	105.13554	38.84814	0.33551	 	475964.8258	 	1.38758E-5	 	39134.623	37.5564	 
1075.0	1.0	0.0	7.28873	7.45666	-5.01508	15.63175	29.86567	1.4709	0.67986	104.40461	105.6594	39.0937	0.33531	 	513052.9394	 	1.28252E-5	 	38947.013	37.522	 
1070.0	1.0	0.0	7.29076	7.45459	-5.04145	15.61361	29.80687	1.46834	0.68104	105.04642	106.18321	39.33976	0.33512	 	553347.0304	 	1.18471E-5	 	38759.571	37.4884	 
1065.0	1.0	0.0	7.29278	7.45253	-5.06778	15.59546	29.74807	1.46576	0.68224	105.68937	106.70694	39.58633	0.33492	 	597150.7337	 	1.09372E-5	 	38572.295	37.4552	 
1060.0	1.0	0.0	7.2948	7.45046	-5.09406	15.57731	29.68927	1.46318	0.68344	106.33342	107.23054	39.83338	0.33473	 	644798.8996	 	1.00912E-5	 	38385.179	37.4232	 
1055.0	1.0	0.0	7.29682	7.4484	-5.12029	15.55916	29.63047	1.46058	0.68466	106.97854	107.75399	40.0809	0.33453	 	696661.0514	 	9.30491E-6	 	38198.221	37.3916	 
1050.0	1.0	0.0	7.29883	7.44635	-5.14647	15.541	29.57167	1.45798	0.68588	107.6247	108.27725	40.32888	0.33434	 	753145.254	 	8.57466E-6	 	38011.416	37.361	 
1045.0	1.0	0.0	7.30084	7.4443	-5.17261	15.52284	29.51287	1.45536	0.68711	108.27186	108.80028	40.57731	0.33414	 	814702.4449	 	7.89683E-6	 	37824.761	37.331	 
1040.0	1.0	0.0	7.30285	7.44225	-5.19869	15.50468	29.45407	1.45274	0.68836	108.91997	109.32305	40.82617	0.33395	 	881831.286	 	7.26801E-6	 	37638.251	37.302	 
1035.0	1.0	0.0	7.30486	7.4402	-5.22473	15.48652	29.39527	1.4501	0.68961	109.56902	109.84552	41.07546	0.33375	 	955083.6037	 	6.68502E-6	 	37451.881	37.274	 
1030.0	1.0	0.0	7.30686	7.43816	-5.25072	15.46835	29.33648	1.44745	0.69087	110.21896	110.36767	41.32515	0.33356	 	1035070.493	 	6.14485E-6	 	37265.649	37.2464	 
1025.0	1.0	0.0	7.30886	7.43613	-5.27665	15.45018	29.27769	1.44479	0.69214	110.86975	110.88945	41.57523	0.33336	 	1122469.173	 	5.64465E-6	 	37079.548	37.2202	 
1020.0	1.0	0.0	7.31086	7.4341	-5.30254	15.43201	29.21889	1.44212	0.69342	111.52137	111.41083	41.8257	0.33317	 	1218030.688	 	5.18176E-6	 	36893.575	37.1946	 
1015.0	1.0	0.0	7.31285	7.43207	-5.32839	15.41384	29.1601	1.43945	0.69471	112.17377	111.93177	42.07654	0.33297	 	1322588.574	 	4.75366E-6	 	36707.724	37.1702	 
1010.0	1.0	0.0	7.31485	7.43004	-5.35418	15.39566	29.10131	1.43675	0.69601	112.82693	112.45226	42.32773	0.33278	 	1437068.611	 	4.35799E-6	 	36521.991	37.1466	 
1005.0	1.0	0.0	7.31684	7.42802	-5.37992	15.37748	29.04252	1.43405	0.69732	113.4808	112.97224	42.57926	0.33258	 	1562499.806	 	3.99253E-6	 	36336.372	37.1238	 
1000.0	1.0	0.0	7.31883	7.426	-5.40562	15.3593	28.98373	1.43134	0.69865	114.13535	113.49169	42.83112	0.33239	 	1700026.787	 	3.65519E-6	 	36150.86	37.1024	 
995.0	1.0	0.0	7.32081	7.42399	-5.43127	15.34111	28.92494	1.42862	0.69998	114.79054	114.01058	43.08329	0.33219	 	1850923.773	 	3.34402E-6	 	35965.45	37.082	 
990.0	1.0	0.0	7.32279	7.42198	-5.45686	15.32293	28.86615	1.42588	0.70132	115.44635	114.52886	43.33577	0.332	 	2016610.364	 	3.05717E-6	 	35780.137	37.0626	 
985.0	1.0	0.0	7.32477	7.41998	-5.48241	15.30474	28.80737	1.42314	0.70267	116.10272	115.04652	43.58854	0.3318	 	2198669.385	 	2.79292E-6	 	35594.916	37.0442	 
980.0	1.0	0.0	7.32675	7.41797	-5.50792	15.28654	28.74859	1.42038	0.70404	116.75964	115.56351	43.84159	0.33161	 	2398867.07	 	2.54967E-6	 	35409.78	37.0272	 
975.0	1.0	0.0	7.32872	7.41598	-5.53337	15.26835	28.6898	1.41761	0.70541	117.41707	116.0798	44.0949	0.33141	 	2619175.917	 	2.32589E-6	 	35224.724	37.0112	 
970.0	1.0	0.0	7.33069	7.41398	-5.55877	15.25015	28.63102	1.41483	0.7068	118.07496	116.59537	44.34846	0.33122	 	2861800.594	 	2.12017E-6	 	35039.742	36.9964	 
965.0	1.0	0.0	7.33266	7.41199	-5.58413	15.23195	28.57224	1.41204	0.7082	118.73329	117.11018	44.60226	0.33102	 	3129207.32	 	1.93119E-6	 	34854.826	36.9832	 
960.0	1.0	0.0	7.33463	7.41	-5.60943	15.21375	28.51346	1.40924	0.7096	119.39202	117.62419	44.85628	0.33083	 	3424157.223	 	1.75772E-6	 	34669.972	36.9708	 
955.0	1.0	0.0	7.33659	7.40802	-5.63469	15.19554	28.45469	1.40642	0.71102	120.05111	118.13738	45.11051	0.33063	 	3749744.247	 	1.59859E-6	 	34485.171	36.9602	 
950.0	1.0	0.0	7.33855	7.40604	-5.6599	15.17734	28.39592	1.40359	0.71246	120.71054	118.64972	45.36494	0.33044	 	4109438.272	 	1.45273E-6	 	34300.418	36.9506	 
945.0	1.0	0.0	7.34051	7.40407	-5.68506	15.15912	28.33714	1.40076	0.7139	121.37026	119.16116	45.61956	0.33024	 	4507134.201	 	1.31913E-6	 	34115.704	36.9428	 
940.0	1.0	0.0	7.34246	7.4021	-5.71017	15.14091	28.27837	1.39791	0.71536	122.03023	119.67169	45.87435	0.33005	 	4947207.903	 	1.19685E-6	 	33931.023	36.9362	 
935.0	1.0	0.0	7.34442	7.40013	-5.73523	15.1227	28.21961	1.39504	0.71682	122.69044	120.18127	46.1293	0.32985	 	5434580.027	 	1.08503E-6	 	33746.366	36.9314	 
930.0	1.0	0.0	7.34637	7.39816	-5.76024	15.10448	28.16084	1.39217	0.7183	123.35083	120.68988	46.3844	0.32966	 	5974788.859	 	9.82842E-7	 	33561.726	36.928	 
925.0	1.0	0.0	7.34831	7.3962	-5.78521	15.08626	28.10208	1.38928	0.7198	124.01138	121.19747	46.63963	0.32946	 	6574073.6	 	8.89536E-7	 	33377.095	36.9262	 
920.0	1.0	0.0	7.35026	7.39425	-5.81012	15.06803	28.04332	1.38638	0.7213	124.67205	121.70402	46.89498	0.32927	 	7239469.637	 	8.04405E-7	 	33192.464	36.9262	 
915.0	1.0	0.0	7.3522	7.3923	-5.83499	15.04981	27.98457	1.38347	0.72282	125.33281	122.2095	47.15043	0.32907	 	7978917.652	 	7.26798E-7	 	33007.825	36.9278	 
910.0	1.0	0.0	7.35414	7.39035	-5.8598	15.03158	27.92582	1.38055	0.72435	125.99362	122.71388	47.40598	0.32888	 	8801388.707	 	6.56108E-7	 	32823.167	36.9316	 
905.0	1.0	0.0	7.35607	7.3884	-5.88457	15.01335	27.86707	1.37761	0.72589	126.65445	123.21713	47.66162	0.32868	 	9717027.788	 	5.91771E-7	 	32638.482	36.937	 
900.0	1.0	0.0	7.358	7.38646	-5.90929	14.99511	27.80833	1.37466	0.72745	127.31526	123.71922	47.91732	0.32849	 	1.073731871E7	 	5.33267E-7	 	32453.76	36.9444	 
895.0	1.0	0.0	7.35993	7.38453	-5.93396	14.97688	27.74959	1.3717	0.72902	127.97601	124.22012	48.17307	0.32829	 	1.187527378E7	 	4.80111E-7	 	32268.991	36.9538	 
890.0	1.0	0.0	7.36186	7.38259	-5.95859	14.95864	27.69085	1.36873	0.73061	128.63668	124.71979	48.42887	0.3281	 	1.314565212E7	 	4.31857E-7	 	32084.164	36.9654	 
885.0	1.0	0.0	7.36378	7.38066	-5.98316	14.94039	27.63213	1.36574	0.7322	129.29723	125.21822	48.6847	0.3279	 	1.45652113E7	 	3.88092E-7	 	31899.268	36.9792	 
880.0	1.0	0.0	7.36571	7.37874	-6.00768	14.92215	27.5734	1.36274	0.73382	129.95763	125.71538	48.94055	0.32771	 	1.615299775E7	 	3.48433E-7	 	31714.291	36.9954	 
875.0	1.0	0.0	7.36762	7.37682	-6.03216	14.9039	27.51469	1.35973	0.73544	130.61783	126.21122	49.1964	0.32751	 	1.793068207E7	 	3.12528E-7	 	31529.222	37.0138	 
870.0	1.0	0.0	7.36954	7.3749	-6.05658	14.88565	27.45598	1.3567	0.73708	131.27781	126.70573	49.45223	0.32732	 	1.992294695E7	 	2.8005E-7	 	31344.047	37.035	 
865.0	1.0	0.0	7.37145	7.37299	-6.08096	14.8674	27.39728	1.35366	0.73874	131.93753	127.19887	49.70805	0.32712	 	2.215793621E7	 	2.50701E-7	 	31158.756	37.0582	 
860.0	1.0	0.0	7.37336	7.37108	-6.10529	14.84915	27.33858	1.35061	0.74041	132.59695	127.69062	49.96383	0.32693	 	2.466777529E7	 	2.24204E-7	 	30973.332	37.0848	 
855.0	1.0	0.0	7.37527	7.36917	-6.12957	14.83089	27.27989	1.34754	0.74209	133.25605	128.18095	50.21956	0.32673	 	2.748917531E7	 	2.00305E-7	 	30787.763	37.1138	 
850.0	1.0	0.0	7.37717	7.36727	-6.1538	14.81263	27.22122	1.34446	0.74379	133.91479	128.66983	50.47524	0.32654	 	3.066413491E7	 	1.7877E-7	 	30602.033	37.146	 
845.0	1.0	0.0	7.37908	7.36537	-6.17798	14.79437	27.16255	1.34137	0.74551	134.57313	129.15723	50.73083	0.32634	 	3.424075673E7	 	1.59384E-7	 	30416.127	37.1812	 
840.0	1.0	0.0	7.38097	7.36348	-6.20211	14.7761	27.10389	1.33826	0.74724	135.23104	129.64313	50.98634	0.32615	 	3.827419836E7	 	1.4195E-7	 	30230.029	37.2196	 
835.0	1.0	0.0	7.38287	7.36159	-6.2262	14.75783	27.04525	1.33514	0.74899	135.88848	130.12749	51.24175	0.32595	 	4.282778141E7	 	1.26287E-7	 	30043.721	37.2616	 
830.0	1.0	0.0	7.38476	7.3597	-6.25023	14.73956	26.98661	1.332	0.75075	136.54543	130.6103	51.49705	0.32576	 	4.797428652E7	 	1.12231E-7	 	29857.186	37.307	 
825.0	1.0	0.0	7.38665	7.35782	-6.27422	14.72129	26.92799	1.32885	0.75253	137.20184	131.09151	51.75222	0.32556	 	5.379746748E7	 	9.96292E-8	 	29670.404	37.3564	 
820.0	1.0	0.0	7.38854	7.35594	-6.29815	14.70301	26.86938	1.32568	0.75433	137.85768	131.57111	52.00725	0.32537	 	6.03938239E7	 	8.83434E-8	 	29483.356	37.4096	 
815.0	1.0	0.0	7.39042	7.35406	-6.32204	14.68474	26.81078	1.3225	0.75614	138.51293	132.04907	52.26213	0.32517	 	6.787467921E7	 	7.8247E-8	 	29296.021	37.467	 
810.0	1.0	0.0	7.3923	7.35219	-6.34588	14.66645	26.7522	1.31931	0.75797	139.16754	132.52536	52.51684	0.32498	 	7.636862E7	 	6.92246E-8	 	29108.376	37.529	 
805.0	1.0	0.0	7.39418	7.35032	-6.36967	14.64817	26.69363	1.3161	0.75982	139.82148	132.99995	52.77138	0.32479	 	8.602436323E7	 	6.11708E-8	 	28920.398	37.5956	 
800.0	1.0	0.0	7.39606	7.34846	-6.39341	14.62988	26.63508	1.31288	0.76169	140.47471	133.47282	53.02573	0.32459	 	9.701413136E7	 	5.39899E-8	 	28732.063	37.667	 
795.0	1.0	0.0	7.39793	7.3466	-6.4171	14.6116	26.57655	1.30964	0.76357	141.12721	133.94395	53.27987	0.3244	 	1.095376305E8	 	4.75944E-8	 	28543.344	37.7438	 
790.0	1.0	0.0	7.3998	7.34474	-6.44074	14.5933	26.51803	1.30638	0.76547	141.77894	134.41329	53.5338	0.3242	 	1.238267465E8	 	4.19051E-8	 	28354.214	37.826	 
785.0	1.0	0.0	7.40167	7.34289	-6.46433	14.57501	26.45953	1.30312	0.76739	142.42987	134.88084	53.7875	0.32401	 	1.40151096E8	 	3.685E-8	 	28164.643	37.9142	 
780.0	1.0	0.0	7.40353	7.34104	-6.48787	14.55671	26.40104	1.29983	0.76933	143.07995	135.34656	54.04096	0.32381	 	1.588245983E8	 	3.23638E-8	 	27974.6	38.0086	 
775.0	1.0	0.0	7.40539	7.3392	-6.51137	14.53841	26.34258	1.29653	0.77129	143.72917	135.81043	54.29416	0.32362	 	1.802132667E8	 	2.83873E-8	 	27784.051	38.1098	 
770.0	1.0	0.0	7.40725	7.33736	-6.53481	14.52011	26.28414	1.29322	0.77327	144.37748	136.27242	54.54709	0.32342	 	2.047444607E8	 	2.48669E-8	 	27592.961	38.218	 
765.0	1.0	0.0	7.4091	7.33552	-6.55821	14.50181	26.22571	1.28988	0.77526	145.02485	136.7325	54.79975	0.32323	 	2.329178874E8	 	2.17542E-8	 	27401.291	38.334	 
760.0	1.0	0.0	7.41095	7.33369	-6.58155	14.4835	26.1673	1.28654	0.77728	145.67125	137.19066	55.05211	0.32303	 	2.653187069E8	 	1.90056E-8	 	27209.001	38.458	 
755.0	1.0	0.0	7.4128	7.33186	-6.60485	14.46519	26.10892	1.28317	0.77932	146.31664	137.64686	55.30416	0.32284	 	3.026331646E8	 	1.65816E-8	 	27016.048	38.5906	 
750.0	1.0	0.0	7.41465	7.33003	-6.6281	14.44688	26.05055	1.27979	0.78138	146.96099	138.10108	55.5559	0.32264	 	3.456672705E8	 	1.44467E-8	 	26822.383	38.733	 
745.0	1.0	0.0	7.41649	7.32821	-6.6513	14.42856	25.9922	1.2764	0.78345	147.60427	138.5533	55.8073	0.32245	 	3.95369155E8	 	1.25689E-8	 	26627.958	38.885	 
740.0	1.0	0.0	7.41833	7.3264	-6.67445	14.41025	25.93388	1.27299	0.78555	148.24645	139.00349	56.05836	0.32225	 	4.528558677E8	 	1.09194E-8	 	26432.717	39.0482	 
735.0	1.0	0.0	7.42017	7.32458	-6.69755	14.39193	25.87557	1.26956	0.78767	148.88748	139.45163	56.30907	0.32206	 	5.194455583E8	 	9.47266E-9	 	26236.601	39.2232	 
730.0	1.0	0.0	7.422	7.32277	-6.7206	14.3736	25.81728	1.26611	0.78982	149.52734	139.89769	56.5594	0.32186	 	5.966961843E8	 	8.20539E-9	 	26039.547	39.4108	 
725.0	1.0	0.0	7.42383	7.32097	-6.7436	14.35528	25.75901	1.26265	0.79198	150.166	140.34165	56.80935	0.32167	 	6.864521517E8	 	7.09696E-9	 	25841.486	39.6122	 
720.0	1.0	0.0	7.42566	7.31917	-6.76655	14.33695	25.70076	1.25918	0.79417	150.80342	140.78348	57.05891	0.32147	 	7.909006113E8	 	6.12886E-9	 	25642.344	39.8284	 
715.0	1.0	0.0	7.42748	7.31737	-6.78946	14.31862	25.64252	1.25568	0.79638	151.43956	141.22316	57.30806	0.32128	 	9.12639533E8	 	5.28458E-9	 	25442.038	40.0612	 
710.0	1.0	0.0	7.4293	7.31557	-6.81231	14.30029	25.5843	1.25217	0.79861	152.0744	141.66067	57.55679	0.32108	 	1.05476017E9	 	4.54939E-9	 	25240.48	40.3116	 
705.0	1.0	0.0	7.43112	7.31378	-6.83512	14.28195	25.5261	1.24864	0.80087	152.7079	142.09598	57.80508	0.32089	 	1.220947138E9	 	3.91017E-9	 	25037.572	40.5816	 
700.0	1.0	0.0	7.43294	7.312	-6.85787	14.26361	25.46791	1.2451	0.80315	153.34003	142.52908	58.05293	0.32069	 	1.415600104E9	 	3.35526E-9	 	24833.21	40.8724	 
695.0	1.0	0.0	7.43475	7.31021	-6.88058	14.24527	25.40973	1.24154	0.80545	153.97076	142.95992	58.30032	0.3205	 	1.643982029E9	 	2.8743E-9	 	24627.275	41.187	 
690.0	1.0	0.0	7.43656	7.30844	-6.90323	14.22693	25.35156	1.23796	0.80778	154.60005	143.38851	58.54724	0.3203	 	1.912400101E9	 	2.45811E-9	 	24419.64	41.527	 
685.0	1.0	0.0	7.43837	7.30666	-6.92584	14.20858	25.2934	1.23437	0.81013	155.22787	143.8148	58.79368	0.32011	 	2.228427018E9	 	2.09856E-9	 	24210.163	41.8954	 
680.0	1.0	0.0	7.44017	7.30489	-6.9484	14.19023	25.23525	1.23075	0.81251	155.85418	144.23878	59.03962	0.31991	 	2.601172146E9	 	1.78846E-9	 	23998.689	42.2948	 
675.0	1.0	0.0	7.44197	7.30312	-6.97091	14.17188	25.17711	1.22713	0.81491	156.47897	144.66042	59.28505	0.31972	 	3.041614474E9	 	1.52146E-9	 	23785.045	42.7288	 
670.0	1.0	0.0	7.44377	7.30136	-6.99337	14.15353	25.11897	1.22348	0.81734	157.10218	145.07971	59.52996	0.31952	 	3.563012285E9	 	1.29196E-9	 	23569.04	43.201	 
665.0	1.0	0.0	7.44556	7.2996	-7.01578	14.13517	25.06083	1.21982	0.8198	157.7238	145.49662	59.77434	0.31933	 	4.181408293E9	 	1.09506E-9	 	23350.462	43.7156	 
660.0	1.0	0.0	7.44735	7.29785	-7.03814	14.11681	25.00269	1.21614	0.82228	158.34378	145.91112	60.01817	0.31913	 	4.916253802E9	 	9.26411E-10	 	23129.073	44.2778	 
655.0	1.0	0.0	7.44914	7.29609	-7.06045	14.09845	24.94455	1.21244	0.82478	158.9621	146.32321	60.26144	0.31894	 	5.791181619E9	 	7.82236E-10	 	22904.611	44.8924	 
650.0	1.0	0.0	7.45092	7.29435	-7.08271	14.08009	24.8864	1.20873	0.82732	159.57873	146.73284	60.50414	0.31874	 	6.834965273E9	 	6.59208E-10	 	22655.065	49.9092	 
645.0	1.0	0.0	7.45271	7.2926	-7.10492	14.06172	24.82825	1.205	0.82988	160.19362	147.14001	60.74625	0.31855	 	8.082712124E9	 	5.54426E-10	 	22402.438	50.5254	 
640.0	1.0	0.0	7.45448	7.29086	-7.12708	14.04335	24.77009	1.20125	0.83247	160.80676	147.54469	60.98777	0.31835	 	9.577350774E9	 	4.65354E-10	 	22153.009	49.8858	 
635.0	1.0	0.0	7.45626	7.28913	-7.1492	14.02498	24.71191	1.19748	0.83509	161.4181	147.94686	61.22868	0.31816	 	1.13715E10	 	3.89787E-10	 	21906.658	49.2702	 
630.0	1.0	0.0	7.45803	7.28739	-7.17126	14.0066	24.65372	1.1937	0.83773	162.02762	148.3465	61.46897	0.31796	 	1.3529699999999998E10	 	3.25804E-10	 	21663.269	48.6778	 
625.0	1.0	0.0	7.4598	7.28567	-7.19328	13.98823	24.59551	1.1899	0.84041	162.63528	148.74358	61.70863	0.31777	 	1.6131699999999998E10	 	2.71742E-10	 	21422.733	48.1072	 
620.0	1.0	0.0	7.46157	7.28394	-7.21524	13.96985	24.53729	1.18608	0.84311	163.24105	149.1381	61.94764	0.31757	 	1.92754E10	 	2.26156E-10	 	21184.946	47.5574	 
615.0	1.0	0.0	7.46333	7.28222	-7.23716	13.95146	24.47904	1.18225	0.84584	163.8449	149.53002	62.18599	0.31738	 	2.30824E10	 	1.87799E-10	 	20949.811	47.027	 
610.0	1.0	0.0	7.46509	7.2805	-7.25902	13.93308	24.42078	1.1784	0.84861	164.4468	149.91932	62.42367	0.31718	 	2.7703099999999996E10	 	1.55594E-10	 	20717.235	46.5152	 
605.0	1.0	0.0	7.46685	7.27879	-7.28084	13.91469	24.36248	1.17453	0.8514	165.04671	150.30599	62.66067	0.31699	 	3.3324599999999996E10	 	1.28615E-10	 	20487.128	46.0214	 
600.0	1.0	0.0	7.4686	7.27708	-7.3026	13.8963	24.30416	1.17065	0.85423	165.64462	150.69	62.89698	0.31679	 	4.01802E10	 	1.06063E-10	 	20259.408	45.544	 
595.0	1.0	0.0	7.47035	7.27538	-7.32432	13.87791	24.24581	1.16674	0.85709	166.24047	151.07134	63.13257	0.3166	 	4.856089999999999E10	 	8.72559E-11	 	20033.994	45.0828	 
590.0	1.0	0.0	7.4721	7.27368	-7.34599	13.85951	24.18743	1.16282	0.85997	166.83425	151.44999	63.36745	0.3164	 	5.883149999999999E10	 	7.16082E-11	 	19810.81	44.6368	 
585.0	1.0	0.0	7.47384	7.27198	-7.36761	13.84111	24.12902	1.15889	0.8629	167.42592	151.82592	63.6016	0.31621	 	7.14502E10	 	5.86201E-11	 	19589.786	44.2048	 
580.0	1.0	0.0	7.47558	7.27029	-7.38918	13.82271	24.07058	1.15493	0.86585	168.01545	152.19911	63.835	0.31601	 	8.69935E10	 	4.78658E-11	 	19370.852	43.7868	 
575.0	1.0	0.0	7.47732	7.2686	-7.4107	13.80431	24.0121	1.15096	0.86884	168.60281	152.56955	64.06765	0.31582	 	1.0619E11	 	3.89831E-11	 	19153.943	43.3818	 
570.0	1.0	0.0	7.47905	7.26691	-7.43216	13.7859	23.9536	1.14697	0.87186	169.18797	152.93722	64.29953	0.31562	 	1.29961E11	 	3.16648E-11	 	18938.999	42.9888	 
565.0	1.0	0.0	7.48078	7.26523	-7.45358	13.76749	23.89505	1.14296	0.87492	169.7709	153.3021	64.53063	0.31543	 	1.59479E11	 	2.56511E-11	 	18725.959	42.608	 
560.0	1.0	0.0	7.48251	7.26355	-7.47495	13.74908	23.83647	1.13894	0.87801	170.35156	153.66417	64.76094	0.31523	 	1.96233E11	 	2.07223E-11	 	18514.768	42.2382	 
555.0	1.0	0.0	7.48424	7.26188	-7.49627	13.73067	23.77786	1.13489	0.88114	170.92994	154.02341	64.99044	0.31504	 	2.42129E11	 	1.66936E-11	 	18305.373	41.879	 
550.0	1.0	0.0	7.48596	7.26021	-7.51755	13.71225	23.71921	1.13083	0.88431	171.50599	154.37981	65.21913	0.31484	 	2.99606E11	 	1.34096E-11	 	18097.723	41.53	 
545.0	1.0	0.0	7.48768	7.25854	-7.53877	13.69383	23.66053	1.12675	0.88751	172.07968	154.73333	65.447	0.31465	 	3.718E11	 	1.07401E-11	 	17891.769	41.1908	 
540.0	1.0	0.0	7.48939	7.25688	-7.55994	13.67541	23.60181	1.12265	0.89075	172.651	155.08398	65.67402	0.31445	 	4.62752E11	 	8.57647E-12	 	17687.466	40.8606	 
535.0	1.0	0.0	7.4911	7.25522	-7.58106	13.65699	23.54306	1.11853	0.89403	173.21989	155.43172	65.90019	0.31426	 	5.7769E11	 	6.82784E-12	 	17484.769	40.5394	 
530.0	1.0	0.0	7.49281	7.25357	-7.60213	13.63856	23.48428	1.11439	0.89735	173.78635	155.77655	66.1255	0.31406	 	7.23395E11	 	5.41886E-12	 	17283.636	40.2266	 
525.0	1.0	0.0	7.49452	7.25192	-7.62315	13.62013	23.42547	1.11023	0.90071	174.35033	156.11844	66.34994	0.31387	 	9.08695E11	 	4.28699E-12	 	17084.028	39.9216	 
520.0	1.0	0.0	7.49622	7.25027	-7.64413	13.6017	23.36664	1.10606	0.90411	174.91181	156.45737	66.57349	0.31367	 	1.14512E12	 	3.38058E-12	 	16885.906	39.6244	 
515.0	1.0	0.0	7.49792	7.24863	-7.66505	13.58326	23.30777	1.10186	0.90756	175.47076	156.79334	66.79614	0.31348	 	1.44779E12	 	2.657E-12	 	16689.234	39.3344	 
510.0	1.0	0.0	7.49961	7.24699	-7.68592	13.56483	23.24888	1.09764	0.91104	176.02715	157.12632	67.01788	0.31328	 	1.83656E12	 	2.08126E-12	 	16493.976	39.0516	 
505.0	1.0	0.0	7.5013	7.24536	-7.70675	13.54639	23.18996	1.0934	0.91457	176.58095	157.45629	67.23871	0.31309	 	2.3377E12	 	1.62466E-12	 	16300.099	38.7754	 
500.0	1.0	0.0	7.50299	7.24373	-7.72752	13.52794	23.13103	1.08915	0.91815	177.13212	157.78325	67.4586	0.3129	 	2.98595E12	 	1.26377E-12	 	16107.572	38.5054	 
495.0	1.0	0.0	7.50468	7.2421	-7.74825	13.5095	23.07207	1.08487	0.92177	177.68065	158.10717	67.67755	0.3127	 	3.82754E12	 	9.79519E-13	 	15916.362	38.242	 
490.0	1.0	0.0	7.50636	7.24048	-7.76892	13.49105	23.0131	1.08057	0.92544	178.22651	158.42804	67.89554	0.31251	 	4.92418E12	 	7.56419E-13	 	15726.442	37.984	 
485.0	1.0	0.0	7.50804	7.23886	-7.78954	13.4726	22.95411	1.07625	0.92915	178.76966	158.74584	68.11257	0.31231	 	6.35855E12	 	5.81947E-13	 	15537.783	37.7318	 
480.0	1.0	0.0	7.50971	7.23724	-7.81012	13.45415	22.89511	1.07191	0.93292	179.31007	159.06055	68.32862	0.31212	 	8.2419E12	 	4.46006E-13	 	15350.357	37.4852	 
475.0	1.0	0.0	7.51139	7.23563	-7.83064	13.43569	22.8361	1.06754	0.93673	179.84773	159.37217	68.54368	0.31192	 	1.07245E13	 	3.40486E-13	 	15164.14	37.2434	 
470.0	1.0	0.0	7.51306	7.23402	-7.85112	13.41723	22.77709	1.06315	0.9406	180.38259	159.68067	68.75774	0.31173	 	1.40101E13	 	2.58894E-13	 	14979.105	37.007	 
465.0	1.0	0.0	7.51472	7.23242	-7.87155	13.39877	22.71807	1.05874	0.94452	180.91464	159.98605	68.97079	0.31153	 	1.83764E13	 	1.96052E-13	 	14795.23	36.775	 
460.0	1.0	0.0	7.51638	7.23082	-7.89192	13.38031	22.65904	1.05431	0.94849	181.44385	160.28828	69.18283	0.31134	 	2.42031E13	 	1.47846E-13	 	14612.491	36.5478	 
455.0	1.0	0.0	7.51804	7.22922	-7.91225	13.36184	22.60002	1.04986	0.95251	181.97018	160.58736	69.39383	0.31114	 	3.20119E13	 	1.11019E-13	 	14430.866	36.325	 
450.0	1.0	0.0	7.5197	7.22763	-7.93252	13.34337	22.541	1.04538	0.95659	182.49362	160.88327	69.60378	0.31095	 	4.25228E13	 	8.30029E-14	 	14250.333	36.1066	 
445.0	1.0	0.0	7.52135	7.22604	-7.95275	13.3249	22.48198	1.04087	0.96073	183.01413	161.17599	69.81269	0.31075	 	5.6734E13	 	6.17815E-14	 	14070.873	35.892	 
440.0	1.0	0.0	7.523	7.22446	-7.97292	13.30643	22.42297	1.03635	0.96493	183.53169	161.46551	70.02053	0.31056	 	7.60357E13	 	4.57773E-14	 	13892.465	35.6816	 
435.0	1.0	0.0	7.52465	7.22288	-7.99305	13.28795	22.36397	1.0318	0.96918	184.04627	161.75182	70.22729	0.31036	 	1.02373E14	 	3.37618E-14	 	13715.091	35.4748	 
430.0	1.0	0.0	7.52629	7.2213	-8.01313	13.26947	22.30498	1.02722	0.9735	184.55785	162.03491	70.43297	0.31017	 	1.3848199999999998E14	 	2.47822E-14	 	13538.732	35.2718	 
425.0	1.0	0.0	7.52793	7.21973	-8.03315	13.25099	22.246	1.02262	0.97788	185.06641	162.31476	70.63756	0.30997	 	1.88229E14	 	1.81029E-14	 	13363.37	35.0724	 
420.0	1.0	0.0	7.52956	7.21816	-8.05313	13.23251	22.18704	1.01799	0.98232	185.5719	162.59136	70.84104	0.30978	 	2.5710399999999997E14	 	1.31584E-14	 	13188.988	34.8764	 
415.0	1.0	0.0	7.53119	7.2166	-8.07306	13.21402	22.1281	1.01334	0.98683	186.07432	162.8647	71.04341	0.30958	 	3.52946E14	 	9.51616E-15	 	13015.57	34.6836	 
410.0	1.0	0.0	7.53282	7.21504	-8.09293	13.19553	22.06917	1.00867	0.99141	186.57363	163.13477	71.24465	0.30939	 	4.87004E14	 	6.84653E-15	 	12843.1	34.494	 
405.0	1.0	0.0	7.53445	7.21348	-8.11276	13.17704	22.01026	1.00396	0.99605	187.06981	163.40155	71.44475	0.30919	 	6.75508E14	 	4.89984E-15	 	12671.562	34.3076	 
400.0	1.0	0.0	7.53607	7.21193	-8.13254	13.15855	21.95137	0.99924	1.00076	187.56284	163.66504	71.64371	0.309	 	9.42007E14	 	3.48774E-15	 	12500.941	34.1242	 
395.0	1.0	0.0	7.53769	7.21038	-8.15226	13.14005	21.8925	0.99448	1.00555	188.0527	163.92522	71.84152	0.3088	 	1.32085E15	 	2.46892E-15	 	12331.223	33.9436	 
390.0	1.0	0.0	7.5393	7.20884	-8.17194	13.12155	21.83366	0.9897	1.01041	188.53935	164.18209	72.03816	0.30861	 	1.86245E15	 	1.73785E-15	 	12162.394	33.7658	 
385.0	1.0	0.0	7.54092	7.2073	-8.19157	13.10305	21.77483	0.98489	1.01534	189.02278	164.43563	72.23363	0.30841	 	2.64119E15	 	1.21622E-15	 	11994.439	33.591	 
380.0	1.0	0.0	7.54252	7.20576	-8.21114	13.08454	21.71604	0.98005	1.02035	189.50296	164.68583	72.42792	0.30822	 	3.76752E15	 	8.46143E-16	 	11827.347	33.4184	 
375.0	1.0	0.0	7.54413	7.20423	-8.23067	13.06603	21.65726	0.97519	1.02544	189.97988	164.93269	72.62101	0.30802	 	5.40642E15	 	5.8513E-16	 	11661.103	33.2488	 
370.0	1.0	0.0	7.54573	7.2027	-8.25015	13.04752	21.59851	0.9703	1.03061	190.4535	165.17619	72.8129	0.30783	 	7.80585E15	 	4.02142E-16	 	11495.697	33.0812	 
365.0	1.0	0.0	7.54733	7.20117	-8.26958	13.02901	21.53979	0.96538	1.03586	190.92381	165.41633	73.00359	0.30763	 	1.13409E16	 	2.74639E-16	 	11331.115	32.9164	 
360.0	1.0	0.0	7.54892	7.19965	-8.28895	13.01049	21.48109	0.96044	1.04119	191.39079	165.6531	73.19305	0.30744	 	1.6582700000000002E16	 	1.86354E-16	 	11167.346	32.7538	 
355.0	1.0	0.0	7.55052	7.19813	-8.30828	12.99198	21.42242	0.95546	1.04662	191.85441	165.88649	73.38129	0.30724	 	2.44065E16	 	1.25616E-16	 	11004.378	32.5936	 
350.0	1.0	0.0	7.5521	7.19662	-8.32756	12.97345	21.36377	0.95046	1.05213	192.31466	166.1165	73.5683	0.30705	 	3.61631E16	 	8.41034E-17	 	10842.201	32.4354	 
345.0	1.0	0.0	7.55369	7.19511	-8.34678	12.95493	21.30515	0.94542	1.05773	192.77151	166.34311	73.75406	0.30685	 	5.39513E16	 	5.59215E-17	 	10680.803	32.2796	 
340.0	1.0	0.0	7.55527	7.19361	-8.36596	12.93641	21.24655	0.94036	1.06342	193.22495	166.56633	73.93857	0.30666	 	8.10557E16	 	3.69207E-17	 	10520.175	32.1256	 
335.0	1.0	0.0	7.55685	7.1921	-8.38508	12.91788	21.18798	0.93527	1.06921	193.67496	166.78614	74.12183	0.30646	 	1.22654E17	 	2.42E-17	 	10360.306	31.9738	 
330.0	1.0	0.0	7.55842	7.19061	-8.40416	12.89935	21.12944	0.93015	1.07509	194.12152	167.00254	74.30381	0.30627	 	1.8697E17	 	1.57449E-17	 	10201.186	31.824	 
325.0	1.0	0.0	7.55999	7.18911	-8.42319	12.88081	21.07092	0.92501	1.08107	194.56462	167.21553	74.48453	0.30607	 	2.87164E17	 	1.01664E-17	 	10042.806	31.676	 
320.0	1.0	0.0	7.56156	7.18762	-8.44216	12.86228	21.01242	0.91983	1.08716	195.00422	167.4251	74.66396	0.30588	 	4.44459E17	 	6.51358E-18	 	9885.156	31.53	 
315.0	1.0	0.0	7.56312	7.18614	-8.46109	12.84374	20.95395	0.91462	1.09335	195.44033	167.63124	74.84211	0.30568	 	6.9336E17	 	4.14015E-18	 	9728.227	31.3858	 
310.0	1.0	0.0	7.56468	7.18466	-8.47997	12.82519	20.8955	0.90938	1.09965	195.87292	167.83396	75.01896	0.30549	 	1.09042E18	 	2.61019E-18	 	9572.01	31.2434	 
305.0	1.0	0.0	7.56624	7.18318	-8.49879	12.80665	20.83707	0.90411	1.10606	196.30198	168.03325	75.19452	0.30529	 	1.72912E18	 	1.63193E-18	 	9416.497	31.1026	 
300.0	1.0	0.0	7.56779	7.1817	-8.51757	12.7881	20.77867	0.89881	1.11258	196.7275	168.22911	75.36877	0.3051	 	2.76528E18	 	1.01162E-18	 	9261.679	30.9636	 
295.0	1.0	0.0	7.56934	7.18023	-8.53629	12.76955	20.72029	0.89348	1.11922	197.14945	168.42155	75.5417	0.3049	 	4.46095E18	 	6.21616E-19	 	9107.548	30.8262	 
290.0	1.0	0.0	7.57088	7.17877	-8.55497	12.751	20.66193	0.88812	1.12598	197.56783	168.61055	75.71332	0.30471	 	7.26083E18	 	3.78551E-19	 	8954.096	30.6904	 
285.0	1.0	0.0	7.57243	7.17731	-8.57359	12.73245	20.60359	0.88273	1.13285	197.98263	168.79611	75.88362	0.30452	 	1.19265E19	 	2.28415E-19	 	8801.315	30.5562	 
280.0	1.0	0.0	7.57396	7.17585	-8.59217	12.71389	20.54528	0.8773	1.13986	198.39384	168.97825	76.05259	0.30432	 	1.97746E19	 	1.36528E-19	 	8649.199	30.4232	 
275.0	1.0	0.0	7.5755	7.17439	-8.61069	12.69533	20.48698	0.87184	1.14699	198.80144	169.15696	76.22022	0.30413	 	3.31039E19	 	8.08179E-20	 	8497.738	30.2922	 
270.0	1.0	0.0	7.57703	7.17294	-8.62916	12.67677	20.42871	0.86636	1.15426	199.20543	169.33224	76.38653	0.30393	 	5.59671E19	 	4.73668E-20	 	8346.927	30.1622	 
265.0	1.0	0.0	7.57856	7.1715	-8.64759	12.6582	20.37045	0.86084	1.16166	199.60579	169.5041	76.55149	0.30374	 	9.55837E19	 	2.74793E-20	 	8196.759	30.0336	 
260.0	1.0	0.0	7.58008	7.17005	-8.66596	12.63963	20.31221	0.85528	1.1692	200.00253	169.67254	76.71511	0.30354	 	1.64949E20	 	1.57757E-20	 	8047.226	29.9066	 
255.0	1.0	0.0	7.58161	7.16862	-8.68429	12.62106	20.254	0.8497	1.17689	200.39563	169.83756	76.87738	0.30335	 	2.8770599999999997E20	 	8.95974E-21	 	7898.322	29.7808	 
250.0	1.0	0.0	7.58312	7.16718	-8.70256	12.60249	20.1958	0.84408	1.18472	200.78509	169.99918	77.03831	0.30315	 	5.0735399999999993E20	 	5.03271E-21	 	7750.04	29.6564	 
245.0	1.0	0.0	7.58464	7.16575	-8.72078	12.58392	20.13762	0.83843	1.19271	201.17091	170.15739	77.19789	0.30296	 	9.04829E20	 	2.79496E-21	 	7602.376	29.5328	 
240.0	1.0	0.0	7.58615	7.16432	-8.73895	12.56534	20.07946	0.83274	1.20085	201.55308	170.31221	77.35611	0.30276	 	1.63249E21	 	1.53419E-21	 	7455.322	29.4108	 
235.0	1.0	0.0	7.58765	7.1629	-8.75708	12.54676	20.02131	0.82702	1.20916	201.9316	170.46365	77.51298	0.30257	 	2.98063E21	 	8.32089E-22	 	7308.873	29.2898	 
230.0	1.0	0.0	7.58916	7.16148	-8.77515	12.52817	19.96318	0.82127	1.21763	202.30647	170.61171	77.6685	0.30237	 	5.50915E21	 	4.45758E-22	 	7163.023	29.17	 
225.0	1.0	0.0	7.59066	7.16007	-8.79317	12.50959	19.90508	0.81548	1.22627	202.6777	170.75641	77.82266	0.30218	 	1.03118E22	 	2.35783E-22	 	7017.768	29.051	 
220.0	1.0	0.0	7.59215	7.15866	-8.81114	12.491	19.84698	0.80966	1.23509	203.04528	170.89776	77.97547	0.30198	 	1.9553099999999997E22	 	1.23098E-22	 	6873.101	28.9334	 
215.0	1.0	0.0	7.59364	7.15725	-8.82906	12.47241	19.78891	0.8038	1.24409	203.40923	171.03577	78.12693	0.30179	 	3.7574899999999997E22	 	6.34077E-23	 	6729.017	28.8168	 
210.0	1.0	0.0	7.59513	7.15585	-8.84693	12.45381	19.73085	0.79791	1.25327	203.76954	171.17046	78.27704	0.30159	 	7.320709999999999E22	 	3.22118E-23	 	6585.513	28.7008	 
205.0	1.0	0.0	7.59662	7.15445	-8.86475	12.43522	19.67281	0.79198	1.26265	204.12623	171.30184	78.4258	0.3014	 	1.4466499999999999E23	 	1.6132E-23	 	6442.583	28.586	 
200.0	1.0	0.0	7.5981	7.15305	-8.88252	12.41662	19.61479	0.78602	1.27223	204.47931	171.42994	78.57322	0.3012	 	2.9007899999999998E23	 	7.96102E-24	 	6300.223	28.472	 
195.0	1.0	0.0	7.59958	7.15166	-8.90024	12.39802	19.55678	0.78002	1.28202	204.82878	171.55477	78.7193	0.30101	 	5.9048899999999995E23	 	3.86954E-24	 	6158.429	28.3588	 
190.0	1.0	0.0	7.60105	7.15028	-8.91791	12.37941	19.49879	0.77398	1.29202	205.17466	171.67635	78.86404	0.30081	 	1.22083E24	 	1.85163E-24	 	6017.196	28.2466	 
185.0	1.0	0.0	7.60252	7.14889	-8.93553	12.36081	19.44082	0.76791	1.30223	205.51697	171.79471	79.00745	0.30062	 	2.56483E24	 	8.71837E-25	 	5876.522	28.1348	 
180.0	1.0	0.0	7.60399	7.14751	-8.9531	12.3422	19.38286	0.7618	1.31268	205.85573	171.90987	79.14954	0.30042	 	5.47837E24	 	4.03717E-25	 	5736.402	28.024	 
175.0	1.0	0.0	7.60545	7.14614	-8.97062	12.32359	19.32492	0.75565	1.32336	206.19095	172.02186	79.29031	0.30023	 	1.19033E25	 	1.83757E-25	 	5596.832	27.914	 
170.0	1.0	0.0	7.60691	7.14477	-8.98808	12.30497	19.267	0.74947	1.33428	206.52267	172.1307	79.42977	0.30003	 	2.63239E25	 	8.2165E-26	 	5457.811	27.8042	 
165.0	1.0	0.0	7.60837	7.1434	-9.0055	12.28635	19.20909	0.74325	1.34545	206.8509	172.23644	79.56794	0.29984	 	5.9287300000000005E25	 	3.60702E-26	 	5319.335	27.6952	 
160.0	1.0	0.0	7.60982	7.14204	-9.02287	12.26773	19.1512	0.73699	1.35688	207.17567	172.33909	79.70482	0.29964	 	1.3607200000000002E26	 	1.55366E-26	 	5181.401	27.5868	 
155.0	1.0	0.0	7.61127	7.14068	-9.04018	12.24911	19.09333	0.73069	1.36857	207.49702	172.4387	79.84042	0.29945	 	3.1846E26	 	6.56188E-27	 	5044.007	27.4788	 
150.0	1.0	0.0	7.61272	7.13932	-9.05745	12.23049	19.03548	0.72435	1.38055	207.81498	172.5353	79.97475	0.29925	 	7.60529E26	 	2.7156E-27	 	4907.151	27.3712	 
145.0	1.0	0.0	7.61416	7.13797	-9.07466	12.21186	18.97764	0.71797	1.39281	208.1296	172.62894	80.10784	0.29906	 	1.85465E27	 	1.10041E-27	 	4770.831	27.264	 
140.0	1.0	0.0	7.61559	7.13662	-9.09183	12.19323	18.91982	0.71155	1.40537	208.4409	172.71966	80.2397	0.29886	 	4.6219E27	 	4.36288E-28	 	4635.046	27.157	 
135.0	1.0	0.0	7.61703	7.13528	-9.10894	12.17459	18.86202	0.7051	1.41824	208.74895	172.8075	80.37034	0.29867	 	1.1779700000000001E28	 	1.69112E-28	 	4499.793	27.0506	 
130.0	1.0	0.0	7.61846	7.13394	-9.12601	12.15596	18.80424	0.6986	1.43143	209.05378	172.89252	80.49978	0.29847	 	3.07297E28	 	6.40317E-29	 	4365.072	26.9442	 
125.0	1.0	0.0	7.61988	7.1326	-9.14302	12.13732	18.74647	0.69206	1.44496	209.35545	172.97476	80.62804	0.29828	 	8.21248E28	 	2.36624E-29	 	4230.883	26.8378	 
120.0	1.0	0.0	7.62131	7.13127	-9.15998	12.11868	18.68873	0.68548	1.45883	209.65403	173.05429	80.75515	0.29808	 	2.2504900000000002E29	 	8.52643E-30	 	4097.225	26.7316	 
115.0	1.0	0.0	7.62273	7.12995	-9.17689	12.10004	18.631	0.67886	1.47305	209.94957	173.13116	80.88113	0.29789	 	6.32976E29	 	2.99295E-30	 	3964.097	26.6256	 
110.0	1.0	0.0	7.62414	7.12862	-9.19375	12.08139	18.57329	0.6722	1.48766	210.24215	173.20544	81.00601	0.29769	 	1.82912E30	 	1.02238E-30	 	3831.501	26.5192	 
105.0	1.0	0.0	7.62555	7.1273	-9.21056	12.06274	18.5156	0.66549	1.50264	210.53184	173.2772	81.1298	0.2975	 	5.43631E30	 	3.39505E-31	 	3699.436	26.413	 
100.0	1.0	0.0	7.62696	7.12599	-9.22732	12.04409	18.45793	0.65875	1.51804	210.81871	173.34651	81.25255	0.29731	 	1.6636599999999998E31	 	1.09473E-31	 	3567.904	26.3064	 
95.0	1.0	0.0	7.62837	7.12467	-9.24403	12.02544	18.40028	0.65196	1.53385	211.10286	173.41346	81.37429	0.29711	 	5.2485199999999995E31	 	3.42354E-32	 	3436.907	26.1994	 
90.0	1.0	0.0	7.62977	7.12337	-9.26069	12.00678	18.34265	0.64512	1.55009	211.38438	173.47811	81.49505	0.29692	 	1.70909E32	 	1.03707E-32	 	3306.446	26.0922	 
85.0	1.0	0.0	7.63116	7.12206	-9.2773	11.98812	18.28504	0.63824	1.5668	211.66337	173.54057	81.61487	0.29672	 	5.7520399999999994E32	 	3.03899E-33	 	3176.523	25.9846	 
80.0	1.0	0.0	7.63256	7.12076	-9.29386	11.96946	18.22744	0.63132	1.58398	211.93994	173.60092	81.7338	0.29653	 	2.0036200000000002E33	 	8.6026E-34	 	3047.142	25.8762	 
75.0	1.0	0.0	7.63395	7.11947	-9.31037	11.9508	18.16987	0.62436	1.60165	212.21421	173.65928	81.85187	0.29633	 	7.23417E33	 	2.3489E-34	 	2918.306	25.7672	 
70.0	1.0	0.0	7.63533	7.11818	-9.32682	11.93213	18.11232	0.61734	1.61984	212.4863	173.71574	81.96914	0.29614	 	2.71157E34	 	6.17662E-35	 	2790.019	25.6574	 
65.0	1.0	0.0	7.63671	7.11689	-9.34323	11.91346	18.05479	0.61029	1.63857	212.75634	173.77043	82.08565	0.29594	 	1.0568899999999998E35	 	1.56159E-35	 	2662.285	25.5468	 
60.0	1.0	0.0	7.63809	7.1156	-9.35958	11.89479	17.99728	0.60319	1.65787	213.02449	173.82346	82.20146	0.29575	 	4.2912099999999994E35	 	3.78919E-36	 	2535.109	25.4352	 
55.0	1.0	0.0	7.63946	7.11432	-9.37589	11.87611	17.93979	0.59604	1.67775	213.2909	173.87498	82.31664	0.29555	 	1.81837E36	 	8.80801E-37	 	2408.498	25.3222	 
50.0	1.0	0.0	7.64084	7.11305	-9.39214	11.85744	17.88232	0.58884	1.69825	213.55573	173.92511	82.43125	0.29536	 	8.057389999999999E36	 	1.95748E-37	 	2282.458	25.208	 
45.0	1.0	0.0	7.6422	7.11178	-9.40834	11.83876	17.82488	0.5816	1.7194	213.81918	173.97402	82.54535	0.29516	 	3.7413899999999996E37	 	4.15036E-38	 	2156.996	25.0924	 
40.0	1.0	0.0	7.64356	7.11051	-9.42449	11.82007	17.76745	0.57431	1.74123	214.08143	174.02187	82.65903	0.29497	 	1.82461E38	 	8.37663E-39	 	2032.12	24.9752	 
35.0	1.0	0.0	7.64492	7.10924	-9.4406	11.80139	17.71005	0.56697	1.76376	214.34269	174.06883	82.77236	0.29477	 	9.367879999999999E38	 	1.60549E-39	 	1907.838	24.8564	 
30.0	1.0	0.0	7.64628	7.10798	-9.45665	11.7827	17.65267	0.55958	1.78704	214.6032	174.11508	82.88544	0.29458	 	5.0763600000000005E39	 	2.91469E-40	 	1784.162	24.7352	 
25.0	1.0	0.0	7.64763	7.10673	-9.47265	 	17.59531	0.55215	1.81111	214.86319	174.16083	82.99834	0.29438	 	2.91126E40	 	4.99851E-41	 	1661.102	 	 
