T (C)	Fraction solid (wt)-TOTAL	Fraction liquid (wt)-LIQUID	Density (g/(cm)^3)-TOTAL	Molar volume (cm^3)-TOTAL	Volume change (%)-  	Average expansion coeff. (10e-6 1/K)-  	Thermal conductivity (W/(m*K))-TOTAL	Electrical resistivity (10e-6 Ohm*m)-TOTAL	Electrical conductivity (10e6 1/(Ohm*m))-TOTAL	Young's modulus (GPa)-TOTAL	Bulk modulus (GPa)-TOTAL	Shear modulus(GPa)-TOTAL	Poisson's ratio-TOTAL	Liquid viscosity (mPa s)-  	Total viscosity (mPa s)-  	Liquid diffusivity (10e-9 (m^2)/s)-  	Total diffusivity (10e-9 (m^2)/s)-  	Surface Tension (mN/m)-  	Enthalpy (J/mole)-TOTAL	Specific heat (J/(mole K))-TOTAL	Latent heat (J/mole)-TOTAL
1400.0	0.0	1.0	7.2767	7.99302	0.0	33.26758	29.23763	1.40203	0.71325	0.0	122.13404	0.0	0.5	7.00616	7.00616	1.16558	1.16558	1782.35048	43450.714	 	0.0
1395.0	0.0	1.0	7.28081	7.98852	-0.0563432	33.23309	29.15681	1.40172	0.71341	0.0	122.27592	0.0	0.5	7.08151	7.08151	1.14973	1.14973	1785.63065	43249.89	40.1648	0.0
1390.0	0.0	1.0	7.2849	7.98403	-0.11253	33.1988	29.07598	1.4014	0.71357	0.0	122.41779	0.0	0.5	7.15814	7.15814	1.13401	1.13401	1788.95079	43049.511	40.0758	0.0
1385.0	0.0	1.0	7.28899	7.97955	-0.16855	33.16469	28.99516	1.40108	0.71373	0.0	122.55966	0.0	0.5	7.23607	7.23607	1.11843	1.11843	1792.31107	42849.573	39.9876	0.0
1380.0	0.0	1.0	7.29307	7.97508	-0.22442	33.13078	28.91433	1.40076	0.7139	0.0	122.70154	0.0	0.5	7.31532	7.31532	1.10298	1.10298	1795.71163	42650.075	39.8996	0.0
1375.0	0.0	1.0	7.29714	7.97063	-0.28013	33.09706	28.83351	1.40044	0.71406	0.0	122.84341	0.0	0.5	7.39593	7.39593	1.08765	1.08765	1799.15259	42451.014	39.8122	0.0
1370.0	0.0	1.0	7.30121	7.96619	-0.33567	33.06354	28.75269	1.40012	0.71423	0.0	122.98528	0.0	0.5	7.47792	7.47792	1.07246	1.07246	1802.63405	42252.386	39.7256	0.0
1365.0	0.0	1.0	7.30527	7.96176	-0.39106	33.03022	28.67186	1.39979	0.71439	0.0	123.12716	0.0	0.5	7.56134	7.56134	1.05741	1.05741	1806.15607	42054.19	39.6392	0.0
1360.0	0.0	1.0	7.30932	7.95735	-0.44629	32.9971	28.59104	1.39947	0.71456	0.0	123.26903	0.0	0.5	7.6462	7.6462	1.04248	1.04248	1809.71868	41856.424	39.5532	0.0
1355.0	0.0	1.0	7.31337	7.95295	-0.50137	32.96418	28.51021	1.39914	0.71473	0.0	123.4109	0.0	0.5	7.73255	7.73255	1.02768	1.02768	1813.32189	41659.083	39.4682	0.0
1350.0	0.0	1.0	7.31741	7.94856	-0.55628	32.93147	28.42939	1.39881	0.7149	0.0	123.55278	0.0	0.5	7.82041	7.82041	1.01301	1.01301	1816.96567	41462.168	39.383	0.0
1345.0	0.0	1.0	7.32144	7.94418	-0.61103	32.89897	28.34857	1.39847	0.71507	0.0	123.69465	0.0	0.5	7.90982	7.90982	0.99848	0.99848	1820.64997	41265.673	39.299	0.0
1340.0	0.0	1.0	7.32546	7.93982	-0.66563	32.86668	28.26774	1.39814	0.71524	0.0	123.83652	0.0	0.5	8.00082	8.00082	0.98407	0.98407	1824.37471	41069.598	39.215	0.0
1335.0	0.0	1.0	7.32948	7.93547	-0.72006	32.8346	28.18692	1.3978	0.71541	0.0	123.9784	0.0	0.5	8.09344	8.09344	0.96979	0.96979	1828.13977	40873.94	39.1316	0.0
1334.45	0.0	1.0	7.32992	7.93499	-0.72605	32.83108	28.17801	1.39776	0.71543	0.0	123.99403	0.0	0.5	8.10375	8.10375	0.96823	0.96823	1828.5572	40852.4	39.08759	0.0010
1330.0	0.1254	0.8746	7.36903	7.89291	-1.25251	31.41374	28.56473	1.37502	0.72726	0.0238058	126.25009	0.00802036	0.48409	8.19268	14.44556	0.95507	0.54166	1827.41308	38883.288	442.6035	1795.406
1325.0	0.24329	0.75671	7.40649	7.85296	-1.7523	30.07721	28.9312	1.35337	0.7389	0.3454	128.40961	0.11757	0.4689	8.29537	82.71163	0.9403	0.0943056	1826.16544	37013.304	373.9968	3470.559
1320.0	0.34099	0.65901	7.4381	7.81957	-2.17003	28.97053	29.23695	1.33503	0.74905	1.36035	130.24354	0.46711	0.45614	8.40079	302.97432	0.9256	0.0256648	1824.964	35442.804	314.1	4846.638
1315.0	0.42268	0.57732	7.46508	7.79129	-2.52387	28.04304	29.49319	1.31928	0.75799	3.26834	131.8188	1.13065	0.44534	8.50915	736.25932	0.91094	0.010528	1823.81401	34109.728	266.6152	5985.7
1310.0	0.49151	0.50849	7.48828	7.76716	-2.82575	27.26162	29.70804	1.30561	0.76592	6.06886	133.18814	2.11293	0.43613	8.62049	1408.71994	0.89635	0.00548509	1822.71741	32966.5	228.6456	6935.319
1305.0	0.54995	0.45005	7.50841	7.74633	-3.08632	26.59643	29.88747	1.29368	0.77299	9.64087	134.39013	3.37513	0.42822	8.7349	2322.83915	0.88181	0.00331601	1821.67746	31976.307	198.0386	7732.307
1300.0	0.59987	0.40013	7.52599	7.7282	-3.31319	26.02621	30.03624	1.28319	0.77931	13.81371	135.45634	4.85921	0.42139	8.85242	3468.91378	0.86735	0.00221342	1820.69633	31110.413	173.1788	8405.396
1295.0	0.64279	0.35721	7.5415	7.71223	-3.51299	25.53228	30.15831	1.27393	0.78497	18.41049	136.41027	6.50337	0.41546	8.97331	4832.52372	0.85295	0.0015838	1819.77687	30346.201	152.8424	8977.201
1290.0	0.67989	0.32011	7.55523	7.69814	-3.68927	25.10497	30.25716	1.26572	0.79006	23.26996	137.27227	8.25013	0.41028	9.09743	6399.13996	0.83863	0.00119225	1818.91762	29665.732	136.0938	9465.659
1285.0	0.71211	0.28789	7.56747	7.68564	-3.84568	24.73403	30.33562	1.25841	0.79465	28.2572	138.05794	10.05069	0.40573	9.22496	8156.32349	0.82439	9.32398E-4	1818.11837	29054.674	122.2116	9885.101
1280.0	0.74025	0.25975	7.5785	7.67434	-3.98699	24.40573	30.39649	1.25186	0.79881	33.27095	138.77875	11.86792	0.40172	9.35616	10096.16441	0.81022	7.50834E-4	1817.38479	28501.495	110.6358	10247.054
1275.0	0.76492	0.23508	7.58844	7.66418	-4.11412	24.11782	30.44177	1.24597	0.80258	38.22471	139.44512	13.66964	0.39816	9.49079	12212.22353	0.79615	6.18735E-4	1816.71269	27996.861	100.9268	10560.854
1270.0	0.78664	0.21336	7.59749	7.65494	-4.22969	23.86278	30.4735	1.24066	0.80602	43.06511	140.06585	15.43561	0.39499	9.62927	14504.32251	0.78217	5.19275E-4	1816.10383	27533.163	92.7396	10834.104
1265.0	0.80586	0.19414	7.60577	7.64649	-4.33545	23.63568	30.49336	1.23583	0.80917	47.74894	140.64693	17.14925	0.39216	9.77157	16973.40761	0.76828	4.42299E-4	1815.55907	27104.167	85.7992	11073.037
1260.0	0.82291	0.17709	7.61338	7.63871	-4.43276	23.43271	30.50273	1.23144	0.81206	52.2524	141.19423	18.80109	0.38961	9.91781	19625.23888	0.75449	3.81291E-4	1815.07817	26704.737	79.886	11282.788
1257.15	0.83169	0.16831	7.61744	7.63457	-4.48457	23.32754	30.50331	1.22912	0.81359	54.70801	141.49203	19.70345	0.38828	10.00295	21214.34339	0.74668	3.52073E-4	1814.83402	26489.574	 	11389.892
1255.0	0.8398	0.1602	7.62071	7.63117	-4.52708	23.23725	30.51053	1.22711	0.81493	57.04043	141.75579	20.56157	0.38706	10.07198	22648.55149	0.74052	3.29316E-4	1815.30492	26305.689	79.8096	11492.538
1250.0	0.85721	0.14279	7.62793	7.62369	-4.62063	23.04263	30.52066	1.22269	0.81787	62.33132	142.3414	22.51171	0.38442	10.23526	26170.98541	0.72632	2.84059E-4	1816.41771	25898.33	81.4718	11710.978
1245.0	0.87233	0.12767	7.6345	7.61685	-4.70625	22.87101	30.51963	1.21871	0.82054	67.26381	142.88465	24.33413	0.38209	10.40175	29900.91635	0.71235	2.47809E-4	1817.54331	25522.358	75.1944	11898.41
1240.0	0.88554	0.11446	7.64054	7.61054	-4.7852	22.71883	30.509	1.21512	0.82296	71.84665	143.39255	26.03102	0.38002	10.57157	33851.26282	0.6986	2.18169E-4	1818.6826	25172.476	69.9764	12060.123
1235.0	0.89714	0.10286	7.64612	7.60468	-4.8585	22.58306	30.49018	1.21185	0.82518	76.10016	143.87091	27.60905	0.37817	10.74474	38041.89904	0.68507	1.93495E-4	1819.8355	24844.442	65.6068	12200.363
1230.0	0.90737	0.0926288	7.65132	7.59921	-4.92696	22.4614	30.46435	1.20886	0.82722	80.04873	144.32453	29.07654	0.37652	10.92135	42495.76402	0.67176	1.72641E-4	1821.0014	24534.824	61.9236	12322.557
1225.0	0.91643	0.0835683	7.65618	7.59406	-4.99133	22.35163	30.43234	1.20611	0.82911	83.70922	144.75655	30.43919	0.37502	11.10142	47234.58922	0.65866	1.54804E-4	1822.18125	24240.829	58.799	12429.496
1220.0	0.92449	0.0755059	7.66077	7.5892	-5.05224	22.25193	30.39507	1.20356	0.83087	87.11013	145.17041	31.70711	0.37367	11.28504	52288.84905	0.64578	1.39374E-4	1823.37432	23960.168	56.1322	12523.468
1215.0	0.93169	0.068305	7.66511	7.58456	-5.11019	22.16084	30.35316	1.20118	0.83251	90.27199	145.56847	32.88757	0.37243	11.47231	57688.26784	0.63312	1.25906E-4	1824.58078	23690.949	53.8438	12606.363
1210.79	0.93715	0.0628474	7.6686	7.58083	-5.15692	22.09014	30.31458	1.19931	0.83381	92.75538	145.89256	33.81586	0.37148	11.63284	62521.37232	0.62261	1.15844E-4	1825.60462	23472.236	 	12668.47
1210.0	0.93819	0.0618139	7.66929	7.58013	-5.16568	22.07685	30.30751	1.19895	0.83406	93.22539	145.95466	33.99165	0.3713	11.65467	63471.08109	0.62111	1.1405E-4	1825.4507	23430.464	52.097	12680.886
1205.0	0.94445	0.05555	7.67358	7.57575	-5.22045	21.99443	30.26067	1.19676	0.83559	96.13107	146.34007	35.0792	0.3702	11.79695	69759.54693	0.61156	1.03419E-4	1824.57609	23170.052	52.0824	12755.697
1200.0	0.95003	0.049968	7.67766	7.57156	-5.27291	21.91877	30.20981	1.19472	0.83702	98.81978	146.71139	36.08678	0.3692	11.94498	76491.57693	0.60193	9.39983E-5	1823.79479	22918.982	50.214	12821.524
1195.0	0.95503	0.0449733	7.68157	7.56753	-5.32332	21.84912	30.15572	1.1928	0.83837	101.31509	147.07085	37.02296	0.36827	12.09874	83713.23057	0.59227	8.55979E-5	1823.09916	22675.94	48.6084	12879.679
1190.0	0.95951	0.0404859	7.68533	7.56363	-5.37205	21.78435	30.09885	1.19098	0.83964	103.63753	147.41983	37.89525	0.36742	12.25827	91472.82643	0.58257	7.80699E-5	1822.48541	22439.838	47.2204	12931.25
1185.0	0.96356	0.0364372	7.68895	7.55987	-5.41913	21.72439	30.0395	1.18926	0.84086	105.80513	147.75989	38.71022	0.36663	12.4236	99824.04782	0.57285	7.12941E-5	1821.94457	22209.767	46.0142	12977.142
1180.0	0.96723	0.0327734	7.69245	7.55621	-5.4649	21.66821	29.978	1.18761	0.84203	107.83419	148.09215	39.47388	0.36589	12.59456	108825.4142	0.56314	6.51729E-5	1821.47368	21984.965	44.9604	13018.115
1176.7	0.96944	0.0305566	7.6947	7.55386	-5.49438	21.6333	29.93621	1.18657	0.84277	109.09712	148.30751	39.94959	0.36543	12.71053	115149.0576	0.55673	6.14538E-5	1821.18998	21839.308	 	13042.573
1176.7	0.96944	0.0305566	7.69469	7.55386	-5.49437	21.63332	29.9362	1.18657	0.84277	109.09661	148.30748	39.9494	0.36544	12.71053	115148.5163	0.55673	6.14541E-5	1821.18998	21839.31	 	13042.573
1175.0	0.97054	0.0294554	7.69586	7.55264	-5.50962	21.61499	29.91423	1.18605	0.84314	109.73328	148.41708	40.18932	0.3652	12.76904	118534.7715	0.55353	5.96286E-5	1821.09831	21764.619	44.0692	13054.982
1170.0	0.97363	0.026365	7.69923	7.54909	-5.55396	21.56259	29.84869	1.18455	0.8442	111.55155	148.73632	40.87494	0.36455	12.94512	129056.8626	0.54412	5.45779E-5	1820.8913	21546.975	43.5288	13089.493
1165.0	0.97645	0.0235483	7.70161	7.545	-5.60513	21.48702	29.73986	1.18476	0.84405	113.34158	149.07079	41.5519	0.36386	13.12711	140434.2463	0.53471	4.99825E-5	1823.59758	21295.89597	50.21581	13120.45
1160.0	0.97903	0.0209732	7.71041	7.53798	-5.693	21.28819	29.39356	1.19455	0.83713	115.7488	149.51012	42.47791	0.36246	13.31507	155163.351	0.52533	4.50805E-5	1826.32067	20875.6202	84.05515	13148.297
1155.0	0.98139	0.0186109	7.71867	7.53106	-5.77962	21.09182	29.06526	1.20383	0.83068	118.02128	149.92809	43.35353	0.36115	13.50905	171341.1937	0.51598	4.06817E-5	1829.06061	20467.22844	81.67835	13173.41
1150.0	0.98357	0.0164282	7.72642	7.52424	-5.86494	20.89807	28.7536	1.21262	0.82466	120.17758	150.32858	44.18559	0.35992	13.70727	189125.6553	0.50674	3.67271E-5	1831.81697	20069.55526	79.53464	13196.491
1145.0	0.98584	0.0141609	7.73383	7.51739	-5.95061	20.70139	28.4576	1.22093	0.81905	122.36494	150.72909	45.02954	0.35872	13.88561	208880.9385	0.49848	3.31368E-5	1834.58442	19675.29226	78.8526	13224.019
1140.0	0.98792	0.0120801	7.74078	7.51068	-6.0345	20.50902	28.17567	1.2288	0.8138	124.4319	151.1139	45.82814	0.35759	14.07067	230588.4157	0.49019	2.99115E-5	1837.36931	19291.99313	76.65983	13248.694
1135.0	0.98988	0.0101175	7.74732	7.50407	-6.11722	20.31893	27.90436	1.23635	0.80883	126.42947	151.49389	46.60063	0.35652	14.27152	254526.2138	0.48158	2.70024E-5	1840.16063	18914.995	75.39963	13274.778
1130.0	0.99179	0.00820614	7.75343	7.49751	-6.1993	20.12928	27.64009	1.24374	0.80402	128.42198	151.88574	47.37135	0.35548	14.50892	281042.7928	0.47201	2.43679E-5	1842.93385	18536.54854	75.68929	13309.69
1125.0	0.99344	0.00655987	7.75909	7.49122	-6.27801	19.94951	27.38687	1.25077	0.79951	130.24052	152.25502	48.07615	0.35452	14.75335	310042.7813	0.46254	2.20099E-5	1845.73036	18170.54428	73.20085	13339.225
1120.0	0.99487	0.00512687	7.76436	7.48517	-6.35373	19.77848	27.14528	1.25739	0.7953	131.91228	152.60536	48.7252	0.35364	15.00501	341802.9048	0.45316	1.98934E-5	1848.5503	17815.59606	70.98964	13364.468
1115.0	0.99613	0.00386827	7.76928	7.47933	-6.42677	19.6152	26.91447	1.26362	0.79138	133.46005	152.93969	49.32706	0.35281	15.26382	376628.519	0.44387	1.79891E-5	1851.39319	17470.60453	68.99831	13386.237
1110.0	0.9974	0.00259517	7.77383	7.47362	-6.49818	19.45609	26.69499	1.26942	0.78776	134.92608	153.26761	49.89841	0.35201	15.56422	415132.5243	0.43374	1.62618E-5	1854.26279	17131.83904	67.7531	13407.987
1105.0	0.99878	0.00121953	7.77795	7.468	-6.56847	19.29945	26.48918	1.27466	0.78452	136.36478	153.59404	50.4599	0.35122	15.92714	457883.0009	0.42232	1.46902E-5	1857.16119	16797.46825	66.87416	13431.29
1100.0	1.0	0.0	7.78182	7.46257	-6.63645	19.14951	26.29175	1.27957	0.78151	138.07158	153.90764	51.11936	0.35048	 	504836.966	 	1.32756E-5	 	16471.81856	65.12994	13451.565
1095.0	1.0	0.0	7.78663	7.45796	-6.69409	19.03476	26.09554	1.2845	0.77851	138.80116	154.1388	51.41098	0.34992	 	556302.2732	 	1.20035E-5	 	16182.36053	57.89161	 
1090.0	1.0	0.0	7.79134	7.45345	-6.75057	18.92311	25.90709	1.28911	0.77573	139.5086	154.36373	51.69388	0.34937	 	613516.0252	 	1.08444E-5	 	15894.60431	57.55124	 
1085.0	1.0	0.0	7.79597	7.44902	-6.80593	18.81439	25.72595	1.29343	0.77314	140.19522	154.58304	51.96859	0.34885	 	677167.7444	 	9.789E-6	 	15611.70984	56.57889	 
1080.0	1.0	0.0	7.80051	7.44468	-6.86022	18.7085	25.55168	1.29746	0.77074	140.86229	154.79728	52.23557	0.34834	 	748034.838	 	8.82899E-6	 	15333.46615	55.64874	 
1075.0	1.0	0.0	7.80498	7.44043	-6.91348	18.60529	25.38387	1.30121	0.76852	141.51096	155.00693	52.49528	0.34784	 	826994.5666	 	7.9565E-6	 	15059.67	54.75923	 
1070.0	1.0	0.0	7.80936	7.43625	-6.96577	18.50464	25.22214	1.30469	0.76646	142.14236	155.21245	52.74816	0.34737	 	915037.6895	 	7.16427E-6	 	14790.12574	53.90885	 
1065.0	1.0	0.0	7.81368	7.43214	-7.01712	18.40643	25.06612	1.30793	0.76457	142.75753	155.41424	52.9946	0.34691	 	1013283.932	 	6.44556E-6	 	14524.64443	53.09626	 
1060.0	1.0	0.0	7.81792	7.42811	-7.06758	18.31054	24.91545	1.31092	0.76282	143.35746	155.61267	53.23499	0.34646	 	1122999.962	 	5.7941E-6	 	14263.04455	52.31998	 
1055.0	1.0	0.0	7.82209	7.42414	-7.11718	18.21687	24.76982	1.31368	0.76122	143.9431	155.80807	53.46969	0.34603	 	1245619.831	 	5.20413E-6	 	14005.15114	51.57868	 
1050.0	1.0	0.0	7.8262	7.42024	-7.16597	18.1253	24.62891	1.31622	0.75975	144.51531	156.00076	53.69905	0.3456	 	1382768.388	 	4.67032E-6	 	13750.79594	50.87104	 
1045.0	1.0	0.0	7.83025	7.41641	-7.21398	18.03572	24.49243	1.31856	0.7584	145.07493	156.19101	53.92339	0.34519	 	1536288.474	 	4.18773E-6	 	13499.81776	50.19564	 
1040.0	1.0	0.0	7.83425	7.41263	-7.26125	17.94804	24.36012	1.32069	0.75718	145.62275	156.37907	54.14301	0.3448	 	1708271.81	 	3.75184E-6	 	13252.06163	49.55123	 
1035.0	1.0	0.0	7.83818	7.40891	-7.3078	17.86215	24.23172	1.32263	0.75607	146.15949	156.56518	54.35821	0.34441	 	1901094.666	 	3.35846E-6	 	13007.37917	48.93649	 
1030.0	1.0	0.0	7.84206	7.40524	-7.35368	17.77797	24.10698	1.3244	0.75506	146.68586	156.74954	54.56926	0.34403	 	2117459.231	 	3.00377E-6	 	12765.62844	48.35015	 
1025.0	1.0	0.0	7.84589	7.40163	-7.39891	17.6954	23.98569	1.32599	0.75416	147.2025	156.93235	54.77642	0.34367	 	2360440.975	 	2.68422E-6	 	12526.67363	47.79096	 
1020.0	1.0	0.0	7.84967	7.39806	-7.44353	17.61435	23.86764	1.32741	0.75335	147.71001	157.11378	54.97991	0.34331	 	2633543.289	 	2.3966E-6	 	12290.38568	47.25759	 
1015.0	1.0	0.0	7.85341	7.39454	-7.48755	17.53475	23.75263	1.32868	0.75263	148.20899	157.29399	55.17998	0.34296	 	2940761.05	 	2.13793E-6	 	12056.64086	46.74896	 
1010.0	1.0	0.0	7.8571	7.39107	-7.53101	17.4565	23.64048	1.3298	0.75199	148.69995	157.47312	55.37683	0.34262	 	3286653.493	 	1.90551E-6	 	11825.32117	46.26394	 
1005.0	1.0	0.0	7.86075	7.38764	-7.57393	17.37955	23.53103	1.33078	0.75144	149.1834	157.6513	55.57067	0.34229	 	3676429.077	 	1.69685E-6	 	11596.31469	45.8013	 
1000.0	1.0	0.0	7.86436	7.38425	-7.61633	17.30381	23.42411	1.33163	0.75096	149.65982	157.82866	55.76167	0.34196	 	4116043.61	 	1.50968E-6	 	11369.51508	45.35992	 
995.0	1.0	0.0	7.86793	7.3809	-7.65825	17.22921	23.31958	1.33234	0.75056	150.12964	158.0053	55.95002	0.34164	 	4612314.266	 	1.34196E-6	 	11144.82112	44.93879	 
990.0	1.0	0.0	7.87146	7.37758	-7.69969	17.15569	23.21731	1.33294	0.75022	150.59327	158.18132	56.13587	0.34133	 	5173051.383	 	1.19178E-6	 	10922.13597	44.53703	 
985.0	1.0	0.0	7.87496	7.37431	-7.74068	17.08318	23.11716	1.33341	0.74996	151.05111	158.3568	56.31938	0.34102	 	5807212.418	 	1.05743E-6	 	10701.36895	44.1534	 
980.0	1.0	0.0	7.87842	7.37107	-7.78123	17.01163	23.01901	1.33377	0.74975	151.5035	158.53182	56.5007	0.34072	 	6525080.655	 	9.37355E-7	 	10482.4335	43.78709	 
975.0	1.0	0.0	7.88185	7.36786	-7.82138	16.94098	22.92128	1.33412	0.74956	151.95079	158.70647	56.67996	0.34043	 	7338473.667	 	8.30133E-7	 	10265.24789	43.43712	 
970.0	1.0	0.0	7.88525	7.36468	-7.86113	16.87116	22.8268	1.33427	0.74947	152.39328	158.88081	56.85728	0.34014	 	8260985.874	 	7.34477E-7	 	10049.73462	43.10265	 
965.0	1.0	0.0	7.88862	7.36153	-7.9005	16.80213	22.73402	1.33433	0.74944	152.83128	159.05489	57.03278	0.33985	 	9308271.418	 	6.49219E-7	 	9835.81964	42.783	 
960.0	1.0	0.0	7.89196	7.35842	-7.93951	16.73384	22.64285	1.33429	0.74946	153.26507	159.22877	57.20657	0.33958	 	1.049837675E7	 	5.73298E-7	 	9623.43342	42.47724	 
955.0	1.0	0.0	7.89528	7.35533	-7.97816	16.66624	22.55321	1.33416	0.74953	153.69488	159.40249	57.37876	0.3393	 	1.185212641E7	 	5.05757E-7	 	9412.50942	42.1848	 
950.0	1.0	0.0	7.89857	7.35226	-8.01648	16.59929	22.46502	1.33395	0.74965	154.12097	159.57611	57.54944	0.33903	 	1.339357864E7	 	4.45728E-7	 	9202.98497	41.90489	 
945.0	1.0	0.0	7.90183	7.34923	-8.05448	16.53294	22.37822	1.33365	0.74982	154.54355	159.74967	57.71871	0.33876	 	1.515055561E7	 	3.92427E-7	 	8994.80114	41.63677	 
940.0	1.0	0.0	7.90507	7.34621	-8.09217	16.46715	22.29272	1.33327	0.75004	154.96284	159.92319	57.88663	0.3385	 	1.715526994E7	 	3.45147E-7	 	8787.90152	41.37992	 
935.0	1.0	0.0	7.90829	7.34323	-8.12955	16.40188	22.20848	1.33281	0.75029	155.37904	160.09672	58.0533	0.33824	 	1.944505658E7	 	3.03248E-7	 	8582.23266	41.13377	 
930.0	1.0	0.0	7.91149	7.34026	-8.16665	16.3371	22.12544	1.33228	0.7506	155.79232	160.27028	58.21879	0.33799	 	2.206323828E7	 	2.66157E-7	 	8377.74449	40.89763	 
925.0	1.0	0.0	7.91466	7.33732	-8.20348	16.27277	22.04353	1.33167	0.75094	156.20286	160.4439	58.38317	0.33774	 	2.506014146E7	 	2.33354E-7	 	8174.38879	40.67114	 
920.0	1.0	0.0	7.91781	7.33439	-8.24003	16.20885	21.96272	1.33099	0.75132	156.61082	160.6176	58.54649	0.33749	 	2.84942975E7	 	2.04373E-7	 	7972.12062	40.45363	 
915.0	1.0	0.0	7.92094	7.33149	-8.27633	16.14531	21.88294	1.33024	0.75174	157.01634	160.79141	58.70883	0.33725	 	3.243385755E7	 	1.78797E-7	 	7770.8966	40.2448	 
910.0	1.0	0.0	7.92406	7.32861	-8.31237	16.08213	21.80417	1.32943	0.7522	157.41958	160.96535	58.87024	0.337	 	3.695826906E7	 	1.56248E-7	 	7570.67616	40.04409	 
905.0	1.0	0.0	7.92715	7.32575	-8.34818	16.01927	21.72636	1.32856	0.7527	157.82065	161.13944	59.03077	0.33677	 	4.216025531E7	 	1.3639E-7	 	7371.42083	39.85107	 
900.0	1.0	0.0	7.93023	7.32291	-8.38375	15.95671	21.64946	1.32762	0.75323	158.2197	161.31369	59.19048	0.33653	 	4.814816797E7	 	1.18922E-7	 	7173.09351	39.66547	 
895.0	1.0	0.0	7.93329	7.32008	-8.41909	15.89441	21.57345	1.32662	0.7538	158.61682	161.48811	59.3494	0.3363	 	5.504877213E7	 	1.03571E-7	 	6975.65954	39.48679	 
890.0	1.0	0.0	7.93634	7.31727	-8.45422	15.83235	21.49829	1.32556	0.7544	159.01213	161.66273	59.50759	0.33607	 	6.30105623E7	 	9.00967E-8	 	6779.08586	39.31474	 
885.0	1.0	0.0	7.93936	7.31448	-8.48913	15.77051	21.42395	1.32444	0.75504	159.40573	161.83755	59.66508	0.33584	 	7.220769188E7	 	7.82831E-8	 	6583.34103	39.14897	 
880.0	1.0	0.0	7.94238	7.31171	-8.52384	15.70886	21.3504	1.32326	0.75571	159.79772	162.01258	59.82192	0.33561	 	8.284467692E7	 	6.79372E-8	 	6388.39521	38.98916	 
875.0	1.0	0.0	7.94537	7.30895	-8.55834	15.64738	21.27761	1.32203	0.75641	160.18819	162.18784	59.97813	0.33539	 	9.516199457E7	 	5.88873E-8	 	6194.21946	38.83515	 
870.0	1.0	0.0	7.94836	7.30621	-8.59265	15.58605	21.20556	1.32075	0.75715	160.57721	162.36334	60.13377	0.33517	 	1.094427448E8	 	5.09804E-8	 	6000.78756	38.68638	 
865.0	1.0	0.0	7.95132	7.30348	-8.62678	15.52484	21.13422	1.31941	0.75792	160.96488	162.53908	60.28884	0.33495	 	1.260206751E8	 	4.40803E-8	 	5808.07391	38.54273	 
860.0	1.0	0.0	7.95428	7.30077	-8.66071	15.46374	21.06357	1.31802	0.75871	161.35126	162.71507	60.4434	0.33473	 	1.452897217E8	 	3.80662E-8	 	5616.05418	38.40395	 
855.0	1.0	0.0	7.95722	7.29807	-8.69447	15.40273	20.99359	1.31658	0.75955	161.73642	162.89132	60.59745	0.33451	 	1.67715503E8	 	3.28307E-8	 	5424.70519	38.2698	 
850.0	1.0	0.0	7.96015	7.29539	-8.72805	15.34179	20.92426	1.31508	0.76041	162.12043	163.06783	60.75104	0.3343	 	1.938490823E8	 	2.82788E-8	 	5234.00495	38.14005	 
845.0	1.0	0.0	7.96238	7.29334	-8.75365	15.31699	20.86258	1.3131	0.76156	162.46432	163.2766	60.88626	0.33416	 	2.202112608E8	 	2.47826E-8	 	5076.01516	31.59796	 
840.0	1.0	0.0	7.96461	7.2913	-8.77918	15.29219	20.8009	1.31111	0.76272	162.80765	163.48452	61.02129	0.33402	 	2.504452311E8	 	2.16934E-8	 	4915.01678	32.19968	 
835.0	1.0	0.0	7.96683	7.28926	-8.80465	15.26739	20.73921	1.3091	0.76388	163.15043	163.69159	61.15614	0.33388	 	2.851610547E8	 	1.89668E-8	 	4754.23553	32.15625	 
830.0	1.0	0.0	7.96905	7.28723	-8.83005	15.24259	20.6775	1.30708	0.76506	163.49266	163.89782	61.29081	0.33375	 	3.250713666E8	 	1.65631E-8	 	4593.67066	32.11297	 
825.0	1.0	0.0	7.97127	7.28521	-8.85539	15.21779	20.61579	1.30505	0.76625	163.83434	164.1032	61.4253	0.33361	 	3.710096973E8	 	1.44465E-8	 	4433.32136	32.06986	 
820.0	1.0	0.0	7.97348	7.28319	-8.88066	15.19299	20.55407	1.30301	0.76745	164.17547	164.30775	61.55961	0.33347	 	4.239522586E8	 	1.25849E-8	 	4273.18683	32.0269	 
815.0	1.0	0.0	7.97569	7.28117	-8.90587	15.16819	20.49234	1.30096	0.76866	164.51605	164.51146	61.69373	0.33333	 	4.850438834E8	 	1.09495E-8	 	4113.26624	31.98412	 
810.0	1.0	0.0	7.97789	7.27916	-8.93101	15.14339	20.4306	1.29889	0.76989	164.85608	164.71433	61.82768	0.33319	 	5.55628957E8	 	9.5146E-9	 	3953.5587	31.94151	 
805.0	1.0	0.0	7.98009	7.27716	-8.95609	15.1186	20.36884	1.29682	0.77112	165.19555	164.91637	61.96144	0.33305	 	6.372883499E8	 	8.25715E-9	 	3794.06334	31.89907	 
800.0	1.0	0.0	7.98228	7.27516	-8.9811	15.0938	20.30708	1.29473	0.77236	165.53448	165.11758	62.09503	0.33291	 	7.318835842E8	 	7.15657E-9	 	3634.7792	31.85683	 
795.0	1.0	0.0	7.98447	7.27317	-9.00605	15.069	20.24531	1.29263	0.77362	165.87285	165.31796	62.22843	0.33277	 	8.416097239E8	 	6.19453E-9	 	3475.70534	31.81477	 
790.0	1.0	0.0	7.98665	7.27118	-9.03093	15.0442	20.18352	1.29052	0.77488	166.21068	165.51752	62.36165	0.33264	 	9.690588091E8	 	5.35465E-9	 	3316.84075	31.77292	 
785.0	1.0	0.0	7.98883	7.26919	-9.05574	15.0194	20.12173	1.28839	0.77616	166.54795	165.71625	62.49469	0.3325	 	1.117296049E9	 	4.62238E-9	 	3158.18439	31.73127	 
780.0	1.0	0.0	7.991	7.26722	-9.08049	14.9946	20.05992	1.28626	0.77745	166.88468	165.91416	62.62755	0.33236	 	1.289951481E9	 	3.98477E-9	 	2999.73517	31.68984	 
775.0	1.0	0.0	7.99317	7.26524	-9.10518	14.9698	19.9981	1.28411	0.77875	167.22085	166.11125	62.76022	0.33222	 	1.491330402E9	 	3.43033E-9	 	2841.49198	31.64864	 
770.0	1.0	0.0	7.99534	7.26328	-9.1298	14.945	19.93627	1.28194	0.78007	167.55647	166.30753	62.89272	0.33208	 	1.72654663E9	 	2.94887E-9	 	2683.45364	31.60767	 
765.0	1.0	0.0	7.9975	7.26131	-9.15435	14.9202	19.87443	1.27977	0.78139	167.89155	166.50299	63.02503	0.33194	 	2.001683567E9	 	2.53135E-9	 	2525.61893	31.56694	 
760.0	1.0	0.0	7.99966	7.25936	-9.17884	14.8954	19.81258	1.27758	0.78273	168.22607	166.69764	63.15716	0.33181	 	2.323989179E9	 	2.16978E-9	 	2367.98657	31.52647	 
755.0	1.0	0.0	8.00181	7.2574	-9.20326	14.87061	19.75071	1.27538	0.78408	168.56005	166.89149	63.28911	0.33167	 	2.702112421E9	 	1.85712E-9	 	2210.55523	31.48627	 
750.0	1.0	0.0	8.00396	7.25546	-9.22762	14.84581	19.68883	1.27317	0.78544	168.89347	167.08452	63.42088	0.33153	 	3.146390383E9	 	1.58713E-9	 	2053.32354	31.44634	 
745.0	1.0	0.0	8.0061	7.25351	-9.25191	14.82101	19.62694	1.27094	0.78682	169.22635	167.27675	63.55247	0.33139	 	3.669197637E9	 	1.35434E-9	 	1896.29002	31.4067	 
740.0	1.0	0.0	8.00824	7.25158	-9.27614	14.79621	19.56504	1.2687	0.78821	169.55867	167.46818	63.68387	0.33125	 	4.285371969E9	 	1.15391E-9	 	1739.45316	31.36737	 
735.0	1.0	0.0	8.01037	7.24965	-9.3003	14.77141	19.50312	1.26645	0.78961	169.89045	167.65881	63.8151	0.33111	 	5.012734098E9	 	9.81606E-10	 	1582.81134	31.32836	 
730.0	1.0	0.0	8.0125	7.24772	-9.32439	14.74661	19.44119	1.26418	0.79103	170.22168	167.84864	63.94614	0.33098	 	5.872723243E9	 	8.33706E-10	 	1426.36293	31.28968	 
725.0	1.0	0.0	8.01462	7.2458	-9.34842	14.72181	19.37925	1.2619	0.79246	170.55236	168.03767	64.077	0.33084	 	6.89117573E9	 	7.06951E-10	 	1270.10613	31.25136	 
720.0	1.0	0.0	8.01674	7.24389	-9.37239	14.69701	19.31729	1.25961	0.7939	170.88248	168.22591	64.20768	0.3307	 	8.09928056E9	 	5.98488E-10	 	1114.03913	31.2134	 
715.0	1.0	0.0	8.01886	7.24197	-9.39629	14.67222	19.25532	1.2573	0.79536	171.21206	168.41336	64.33817	0.33056	 	9.534754287E9	 	5.05825E-10	 	958.15996	31.17583	 
710.0	1.0	0.0	8.02097	7.24007	-9.42012	14.64742	19.19334	1.25498	0.79683	171.5411	168.60001	64.46849	0.33043	 	1.12433E10	 	4.26789E-10	 	802.46659	31.13867	 
705.0	1.0	0.0	8.02307	7.23817	-9.44389	14.62262	19.13134	1.25264	0.79831	171.86958	168.78588	64.59862	0.33029	 	1.3280299999999998E10	 	3.59487E-10	 	646.95688	31.10194	 
700.0	1.0	0.0	8.02517	7.23628	-9.46759	14.59782	19.06932	1.25029	0.79981	172.19751	168.97097	64.72857	0.33015	 	1.5713299999999998E10	 	3.02273E-10	 	491.62855	31.06567	 
695.0	1.0	0.0	8.02727	7.23439	-9.49123	14.57302	19.00729	1.24792	0.80133	172.5249	169.15527	64.85834	0.33001	 	1.86244E10	 	2.53716E-10	 	336.47923	31.02986	 
690.0	1.0	0.0	8.02936	7.2325	-9.5148	14.54822	18.94525	1.24555	0.80286	172.85173	169.3388	64.98792	0.32988	 	2.21137E10	 	2.12579E-10	 	181.50639	30.99457	 
685.0	1.0	0.0	8.03145	7.23062	-9.53831	14.52342	18.88319	1.24315	0.80441	173.17802	169.52154	65.11732	0.32974	 	2.6303799999999996E10	 	1.77787E-10	 	26.70738	30.9598	 
680.0	1.0	0.0	8.03353	7.22875	-9.56175	14.49862	18.82111	1.24074	0.80597	173.50376	169.70351	65.24655	0.3296	 	3.1344999999999996E10	 	1.48416E-10	 	-127.92063	30.9256	 
675.0	1.0	0.0	8.0356	7.22688	-9.58513	14.47382	18.75902	1.23832	0.80755	173.82895	169.8847	65.37558	0.32946	 	3.74214E10	 	1.23664E-10	 	-282.38059	30.89199	 
670.0	1.0	0.0	8.03768	7.22502	-9.60844	14.44903	18.69691	1.23588	0.80914	174.15359	170.06512	65.50444	0.32933	 	4.47597E10	 	1.02844E-10	 	-436.67565	30.85901	 
665.0	1.0	0.0	8.03974	7.22316	-9.63168	14.42423	18.63479	1.23343	0.81075	174.47768	170.24478	65.63312	0.32919	 	5.363949999999999E10	 	8.5364E-11	 	-590.80915	30.8267	 
660.0	1.0	0.0	8.04181	7.22131	-9.65486	14.39943	18.57265	1.23096	0.81237	174.80123	170.42366	65.76161	0.32905	 	6.440559999999999E10	 	7.07155E-11	 	-744.77552	30.79327	 
655.0	1.0	0.0	8.04386	7.21946	-9.67797	14.37463	18.51049	1.22848	0.81402	175.12422	170.60178	65.88992	0.32892	 	7.74851E10	 	5.84637E-11	 	-898.52416	30.74973	 
650.0	1.0	0.0	8.04592	7.21762	-9.70102	14.34983	18.44831	1.22598	0.81568	175.44667	170.77913	66.01804	0.32878	 	9.340779999999998E10	 	4.82365E-11	 	-1051.98796	30.69276	 
645.0	1.0	0.0	8.04797	7.21578	-9.72401	14.32503	18.38612	1.22346	0.81735	175.76857	170.95572	66.14599	0.32864	 	1.12832E11	 	3.97163E-11	 	-1205.16806	30.63602	 
640.0	1.0	0.0	8.05001	7.21395	-9.74692	14.30023	18.32391	1.22093	0.81905	176.08993	171.13155	66.27375	0.3285	 	1.36577E11	 	3.26325E-11	 	-1358.06563	30.57951	 
635.0	1.0	0.0	8.05205	7.21212	-9.76978	14.27544	18.26167	1.21838	0.82076	176.41073	171.30663	66.40133	0.32837	 	1.65668E11	 	2.6755E-11	 	-1510.68179	30.52323	 
630.0	1.0	0.0	8.05408	7.2103	-9.79256	14.25064	18.19942	1.21582	0.82249	176.73099	171.48095	66.52873	0.32823	 	2.01386E11	 	2.18886E-11	 	-1663.0177	30.46718	 
625.0	1.0	0.0	8.05611	7.20848	-9.81529	14.22584	18.13716	1.21324	0.82424	177.0507	171.65451	66.65594	0.32809	 	2.45336E11	 	1.78679E-11	 	-1815.07483	30.41143	 
620.0	1.0	0.0	8.05814	7.20667	-9.83794	14.20104	18.07487	1.21064	0.82601	177.36986	171.82733	66.78297	0.32796	 	2.9954E11	 	1.45531E-11	 	-1966.85519	30.35607	 
615.0	1.0	0.0	8.06016	7.20487	-9.86053	14.17624	18.01256	1.20803	0.8278	177.68847	171.99939	66.90982	0.32782	 	3.66542E11	 	1.18263E-11	 	-2118.35946	30.30085	 
610.0	1.0	0.0	8.06217	7.20307	-9.88306	14.15144	17.95023	1.2054	0.8296	178.00654	172.17071	67.03648	0.32768	 	4.49558E11	 	9.58816E-12	 	-2269.58878	30.24586	 
605.0	1.0	0.0	8.06418	7.20127	-9.90552	14.12664	17.88788	1.20275	0.83143	178.32406	172.34128	67.16297	0.32755	 	5.52659E11	 	7.75529E-12	 	-2420.54423	30.19109	 
600.0	1.0	0.0	8.06619	7.19948	-9.92791	14.10184	17.82551	1.20009	0.83327	178.64103	172.51111	67.28926	0.32741	 	6.81014E11	 	6.25777E-12	 	-2571.22697	30.13655	 
595.0	1.0	0.0	8.06819	7.1977	-9.95024	14.07705	17.76312	1.19741	0.83514	178.95746	172.68019	67.41538	0.32727	 	8.412E11	 	5.03712E-12	 	-2721.6381	30.08223	 
590.0	1.0	0.0	8.07018	7.19592	-9.97251	14.05225	17.70071	1.19471	0.83702	179.27333	172.84854	67.54131	0.32714	 	1.04161E12	 	4.04453E-12	 	-2871.77872	30.02812	 
585.0	1.0	0.0	8.07217	7.19414	-9.9947	14.02745	17.63827	1.19199	0.83893	179.58866	173.01615	67.66706	0.327	 	1.29298E12	 	3.23934E-12	 	-3021.64995	29.97425	 
580.0	1.0	0.0	8.07416	7.19237	-10.01684	14.00265	17.57581	1.18926	0.84086	179.90344	173.18302	67.79263	0.32687	 	1.60909E12	 	2.5878E-12	 	-3171.2529	29.92059	 
575.0	1.0	0.0	8.07614	7.19061	-10.0389	13.97785	17.51333	1.18651	0.84281	180.21768	173.34916	67.91801	0.32673	 	2.00765E12	 	2.06191E-12	 	-3320.58867	29.86715	 
570.0	1.0	0.0	8.07811	7.18885	-10.06091	13.95305	17.45083	1.18374	0.84478	180.53137	173.51457	68.04321	0.32659	 	2.51152E12	 	1.63853E-12	 	-3469.65836	29.81394	 
565.0	1.0	0.0	8.08008	7.1871	-10.08284	13.92825	17.3883	1.18095	0.84678	180.84451	173.67925	68.16823	0.32646	 	3.15025E12	 	1.29856E-12	 	-3618.46308	29.76094	 
560.0	1.0	0.0	8.08205	7.18535	-10.10471	13.90346	17.32575	1.17814	0.84879	181.1571	173.8432	68.29306	0.32632	 	3.96218E12	 	1.0263E-12	 	-3767.00392	29.70817	 
555.0	1.0	0.0	8.08401	7.18361	-10.12652	13.87866	17.26317	1.17532	0.85084	181.46915	174.00642	68.41771	0.32619	 	4.99719E12	 	8.08853E-13	 	-3915.28196	29.65561	 
550.0	1.0	0.0	8.08597	7.18187	-10.14826	13.85386	17.20057	1.17247	0.8529	181.78065	174.16892	68.54218	0.32605	 	6.32037E12	 	6.35658E-13	 	-4063.29831	29.60327	 
545.0	1.0	0.0	8.08792	7.18014	-10.16994	13.82906	17.13794	1.16961	0.85499	182.0916	174.3307	68.66646	0.32591	 	8.01688E12	 	4.98097E-13	 	-4211.05403	29.55114	 
540.0	1.0	0.0	8.08986	7.17841	-10.19154	13.80426	17.07529	1.16673	0.8571	182.402	174.49176	68.79056	0.32578	 	1.01986E13	 	3.89151E-13	 	-4358.55023	29.49924	 
535.0	1.0	0.0	8.0918	7.17669	-10.21309	13.77946	17.01261	1.16382	0.85924	182.71186	174.65209	68.91448	0.32564	 	1.30126E13	 	3.03119E-13	 	-4505.78797	29.44755	 
530.0	1.0	0.0	8.09374	7.17497	-10.23457	13.75466	16.9499	1.1609	0.8614	183.02118	174.81172	69.03821	0.32551	 	1.66537E13	 	2.35382E-13	 	-4652.76834	29.39607	 
525.0	1.0	0.0	8.09567	7.17326	-10.25598	13.72987	16.88716	1.15796	0.86359	183.32994	174.97062	69.16176	0.32537	 	2.13794E13	 	1.82211E-13	 	-4799.4924	29.34481	 
520.0	1.0	0.0	8.0976	7.17155	-10.27733	13.70507	16.8244	1.155	0.8658	183.63816	175.12882	69.28512	0.32524	 	2.75328E13	 	1.40602E-13	 	-4945.96123	29.29377	 
515.0	1.0	0.0	8.09952	7.16985	-10.29861	13.68027	16.76161	1.15202	0.86804	183.94583	175.2863	69.4083	0.3251	 	3.55713E13	 	1.08143E-13	 	-5092.17589	29.24293	 
510.0	1.0	0.0	8.10144	7.16816	-10.31983	13.65547	16.69878	1.14902	0.87031	184.25296	175.44307	69.5313	0.32496	 	4.61071E13	 	8.29017E-14	 	-5238.13743	29.19231	 
505.0	1.0	0.0	8.10335	7.16647	-10.34098	13.63067	16.63593	1.14599	0.87261	184.55954	175.59914	69.65411	0.32483	 	5.99632E13	 	6.33381E-14	 	-5383.84692	29.1419	 
500.0	1.0	0.0	8.10525	7.16478	-10.36207	13.60587	16.57305	1.14295	0.87493	184.86557	175.7545	69.77674	0.32469	 	7.82488E13	 	4.82251E-14	 	-5529.3054	29.0917	 
495.0	1.0	0.0	8.10715	7.1631	-10.38309	13.58107	16.51013	1.13989	0.87728	185.17106	175.90916	69.89918	0.32456	 	1.02465E14	 	3.65896E-14	 	-5674.51393	29.04171	 
490.0	1.0	0.0	8.10905	7.16142	-10.40404	13.55628	16.44719	1.1368	0.87966	185.476	176.06312	70.02144	0.32442	 	1.3464999999999998E14	 	2.76624E-14	 	-5819.47355	28.99192	 
485.0	1.0	0.0	8.11094	7.15976	-10.42493	13.53148	16.38421	1.13369	0.88207	185.78039	176.21637	70.14352	0.32429	 	1.77584E14	 	2.08371E-14	 	-5964.18529	28.94235	 
480.0	1.0	0.0	8.11283	7.15809	-10.44576	13.50668	16.3212	1.13057	0.88451	186.08424	176.36893	70.26541	0.32415	 	2.3507E14	 	1.56377E-14	 	-6108.6502	28.89298	 
475.0	1.0	0.0	8.11471	7.15643	-10.46652	13.48188	16.25815	1.12741	0.88699	186.38754	176.52079	70.38712	0.32402	 	3.12332E14	 	1.16912E-14	 	-6252.8693	28.84382	 
470.0	1.0	0.0	8.11658	7.15478	-10.48721	13.45708	16.19507	1.12424	0.88949	186.69029	176.67196	70.50864	0.32388	 	4.1658E14	 	8.70693E-15	 	-6396.84361	28.79486	 
465.0	1.0	0.0	8.11846	7.15313	-10.50784	13.43228	16.13195	1.12105	0.89202	186.9925	176.82243	70.62998	0.32375	 	5.5779399999999994E14	 	6.45888E-15	 	-6540.57415	28.74611	 
460.0	1.0	0.0	8.12032	7.15148	-10.5284	13.40749	16.0688	1.11783	0.89459	187.29416	176.97221	70.75113	0.32361	 	7.49858E14	 	4.772E-15	 	-6684.06193	28.69756	 
455.0	1.0	0.0	8.12218	7.14985	-10.5489	13.38269	16.00561	1.11459	0.89719	187.59528	177.1213	70.8721	0.32348	 	1.01216E15	 	3.51122E-15	 	-6827.30796	28.64921	 
450.0	1.0	0.0	8.12404	7.14821	-10.56933	13.35789	15.94239	1.11133	0.89983	187.89585	177.26971	70.99289	0.32334	 	1.37189E15	 	2.57273E-15	 	-6970.31326	28.60106	 
445.0	1.0	0.0	8.12589	7.14659	-10.5897	13.33309	15.87912	1.10804	0.9025	188.19587	177.41743	71.11349	0.32321	 	1.86737E15	 	1.87703E-15	 	-7113.07879	28.55311	 
440.0	1.0	0.0	8.12773	7.14496	-10.61	13.30829	15.81582	1.10473	0.9052	188.49535	177.56446	71.2339	0.32307	 	2.55281E15	 	1.36348E-15	 	-7255.60557	28.50536	 
435.0	1.0	0.0	8.12957	7.14335	-10.63023	13.28349	15.75248	1.10139	0.90794	188.79428	177.71081	71.35413	0.32294	 	3.50529E15	 	9.86025E-16	 	-7397.89456	28.4578	 
430.0	1.0	0.0	8.13141	7.14173	-10.6504	13.2587	15.68909	1.09804	0.91072	189.09267	177.85648	71.47418	0.3228	 	4.83491E15	 	7.09817E-16	 	-7539.94675	28.41044	 
425.0	1.0	0.0	8.13324	7.14013	-10.67051	13.2339	15.62567	1.09465	0.91353	189.39051	178.00147	71.59404	0.32267	 	6.69966E15	 	5.08608E-16	 	-7681.76297	28.36324	 
420.0	1.0	0.0	8.13506	7.13852	-10.69055	13.2091	15.5622	1.09125	0.91638	189.6878	178.14579	71.71371	0.32254	 	9.32741E15	 	3.62705E-16	 	-7823.3444	28.31628	 
415.0	1.0	0.0	8.13688	7.13693	-10.71052	13.1843	15.49868	1.08781	0.91928	189.98455	178.28943	71.8332	0.3224	 	1.30484E16	 	2.57402E-16	 	-7964.69144	28.26941	 
410.0	1.0	0.0	8.1387	7.13534	-10.73043	13.1595	15.43513	1.08436	0.92221	190.28075	178.43239	71.95251	0.32227	 	1.83438E16	 	1.81767E-16	 	-8105.80429	28.22257	 
405.0	1.0	0.0	8.14051	7.13375	-10.75027	13.1347	15.37152	1.08087	0.92518	190.57641	178.57469	72.07163	0.32213	 	2.59179E16	 	1.27706E-16	 	-8246.68316	28.17577	 
400.0	1.0	0.0	8.14231	7.13217	-10.77005	13.10991	15.30788	1.07737	0.92819	190.87152	178.71631	72.19056	0.322	 	3.6808E16	 	8.92598E-17	 	-8387.3282	28.12901	 
395.0	1.0	0.0	8.14411	7.13059	-10.78976	13.08511	15.24418	1.07383	0.93125	191.16608	178.85726	72.30931	0.32186	 	5.2549E16	 	6.20577E-17	 	-8527.73961	28.08228	 
390.0	1.0	0.0	8.14591	7.12902	-10.80941	13.06031	15.18043	1.07027	0.93434	191.4601	178.99755	72.42788	0.32173	 	7.54255E16	 	4.29121E-17	 	-8667.91754	28.03559	 
385.0	1.0	0.0	8.14769	7.12746	-10.82899	13.03551	15.11664	1.06668	0.93748	191.75357	179.13717	72.54626	0.3216	 	1.08857E17	 	2.9509E-17	 	-8807.86214	27.98892	 
380.0	1.0	0.0	8.14948	7.1259	-10.84851	13.01071	15.05279	1.06307	0.94067	192.0465	179.27613	72.66445	0.32146	 	1.57992E17	 	2.01774E-17	 	-8947.57357	27.94229	 
375.0	1.0	0.0	8.15126	7.12434	-10.86796	12.98591	14.98889	1.05943	0.9439	192.33888	179.41442	72.78246	0.32133	 	2.30627E17	 	1.37168E-17	 	-9087.05196	27.89568	 
370.0	1.0	0.0	8.15303	7.12279	-10.88734	12.96112	14.92494	1.05576	0.94718	192.63072	179.55205	72.90028	0.32119	 	3.3864E17	 	9.26961E-18	 	-9226.29742	27.84909	 
365.0	1.0	0.0	8.1548	7.12125	-10.90666	12.93632	14.86093	1.05207	0.95051	192.92201	179.68903	73.01792	0.32106	 	5.00242E17	 	6.22629E-18	 	-9365.31009	27.80253	 
360.0	1.0	0.0	8.15656	7.11971	-10.92592	12.91152	14.79687	1.04834	0.95389	193.21275	179.82535	73.13537	0.32093	 	7.43531E17	 	4.15618E-18	 	-9504.09007	27.756	 
355.0	1.0	0.0	8.15832	7.11818	-10.94511	12.88672	14.73275	1.04459	0.95731	193.50295	179.96101	73.25263	0.32079	 	1.11214E18	 	2.75672E-18	 	-9642.63743	27.70947	 
350.0	1.0	0.0	8.16007	7.11665	-10.96423	12.86192	14.66857	1.04081	0.96079	193.79261	180.09601	73.36971	0.32066	 	1.67426E18	 	1.81659E-18	 	-9780.95226	27.66297	 
345.0	1.0	0.0	8.16182	7.11513	-10.98329	12.83712	14.60433	1.037	0.96432	194.08171	180.23037	73.48661	0.32052	 	2.53724E18	 	1.1891E-18	 	-9919.03464	27.61648	 
340.0	1.0	0.0	8.16356	7.11361	-11.00228	12.81233	14.54003	1.03316	0.9679	194.37028	180.36407	73.60331	0.32039	 	3.8712E18	 	7.73051E-19	 	-10056.8846	27.56999	 
335.0	1.0	0.0	8.1653	7.11209	-11.02121	12.78753	14.47567	1.02929	0.97154	194.65829	180.49713	73.71983	0.32026	 	5.94766E18	 	4.99058E-19	 	-10194.50221	27.52352	 
330.0	1.0	0.0	8.16703	7.11059	-11.04007	12.76273	14.41124	1.02539	0.97524	194.94577	180.62953	73.83617	0.32012	 	9.2032E18	 	3.1987E-19	 	-10331.88748	27.47705	 
325.0	1.0	0.0	8.16875	7.10908	-11.05887	12.73793	14.34674	1.02146	0.97899	195.23269	180.76129	73.95232	0.31999	 	1.4345E19	 	2.03515E-19	 	-10469.04044	27.43059	 
320.0	1.0	0.0	8.17047	7.10759	-11.0776	12.71313	14.28218	1.0175	0.9828	195.51907	180.89241	74.06828	0.31986	 	2.25275E19	 	1.2851E-19	 	-10605.96105	27.38412	 
315.0	1.0	0.0	8.17219	7.1061	-11.09626	12.68834	14.21754	1.01351	0.98667	195.80491	181.02288	74.18406	0.31972	 	3.56499E19	 	8.05224E-20	 	-10742.64933	27.33766	 
310.0	1.0	0.0	8.1739	7.10461	-11.11486	12.66354	14.15284	1.00949	0.9906	196.09035	181.15286	74.29971	0.31959	 	5.68619E19	 	5.00548E-20	 	-10879.10521	27.29118	 
305.0	1.0	0.0	8.1756	7.10313	-11.1334	12.63874	14.08806	1.00544	0.99459	196.3751	181.28205	74.41511	0.31946	 	9.14306E19	 	3.08628E-20	 	-11015.32867	27.24469	 
300.0	1.0	0.0	8.1773	7.10165	-11.15187	12.61394	14.02321	1.00135	0.99865	196.6593	181.4106	74.53033	0.31932	 	1.48238E20	 	1.8871E-20	 	-11151.31963	27.19819	 
295.0	1.0	0.0	8.179	7.10018	-11.17027	12.58914	13.95828	0.99723	1.00277	196.94295	181.53852	74.64536	0.31919	 	2.4239499999999997E20	 	1.144E-20	 	-11287.07798	27.15167	 
290.0	1.0	0.0	8.18069	7.09871	-11.18861	12.56435	13.89327	0.99308	1.00696	197.22606	181.6658	74.7602	0.31906	 	3.99834E20	 	6.87434E-21	 	-11422.60364	27.10513	 
285.0	1.0	0.0	8.18237	7.09725	-11.20688	12.53955	13.82817	0.9889	1.01123	197.50862	181.79245	74.87486	0.31892	 	6.654709999999999E20	 	4.09363E-21	 	-11557.89646	27.05856	 
280.0	1.0	0.0	8.18405	7.0958	-11.22509	12.51475	13.763	0.98468	1.01556	197.79064	181.91846	74.98933	0.31879	 	1.11784E21	 	2.41519E-21	 	-11692.95631	27.01197	 
275.0	1.0	0.0	8.18572	7.09435	-11.24323	12.48995	13.69774	0.98043	1.01996	198.07211	182.04384	75.10362	0.31866	 	1.89556E21	 	1.4114E-21	 	-11827.78299	26.96534	 
270.0	1.0	0.0	8.18739	7.0929	-11.26131	12.46515	13.63239	0.97614	1.02444	198.35304	182.1686	75.21771	0.31853	 	3.24578E21	 	8.16747E-22	 	-11962.37632	26.91867	 
265.0	1.0	0.0	8.18905	7.09146	-11.27932	12.44035	13.56694	0.97182	1.02899	198.63342	182.29273	75.33162	0.31839	 	5.61359E21	 	4.67896E-22	 	-12096.73608	26.87195	 
260.0	1.0	0.0	8.19071	7.09003	-11.29727	12.41556	13.50141	0.96747	1.03363	198.91326	182.41623	75.44535	0.31826	 	9.80901E21	 	2.65284E-22	 	-12230.86202	26.82519	 
255.0	1.0	0.0	8.19236	7.0886	-11.31515	12.39076	13.43578	0.96308	1.03834	199.19255	182.5391	75.55888	0.31813	 	1.7322E22	 	1.48814E-22	 	-12364.75387	26.77837	 
250.0	1.0	0.0	8.19401	7.08718	-11.33297	12.36596	13.37005	0.95865	1.04314	199.4713	182.66136	75.67223	0.318	 	3.0923899999999998E22	 	8.25694E-23	 	-12498.41131	26.73149	 
245.0	1.0	0.0	8.19565	7.08576	-11.35071	12.34116	13.30422	0.95418	1.04802	199.7495	182.78299	75.78539	0.31786	 	5.58272E22	 	4.52998E-23	 	-12631.83404	26.68455	 
240.0	1.0	0.0	8.19728	7.08434	-11.3684	12.31636	13.23828	0.94968	1.05298	200.02716	182.904	75.89837	0.31773	 	1.01953E23	 	2.45659E-23	 	-12765.02168	26.63753	 
235.0	1.0	0.0	8.19891	7.08294	-11.38602	12.29157	13.17223	0.94515	1.05804	200.30427	183.02439	76.01116	0.3176	 	1.8840699999999998E23	 	1.31638E-23	 	-12897.97384	26.59043	 
230.0	1.0	0.0	8.20054	7.08153	-11.40357	12.26677	13.10608	0.94057	1.06319	200.58084	183.14416	76.12376	0.31747	 	3.5244899999999996E23	 	6.96767E-24	 	-13030.69008	26.54325	 
225.0	1.0	0.0	8.20215	7.08013	-11.42106	12.24197	13.03981	0.93596	1.06843	200.85686	183.26332	76.23617	0.31733	 	6.67662E23	 	3.64158E-24	 	-13163.16996	26.49598	 
220.0	1.0	0.0	8.20377	7.07874	-11.43848	12.21717	12.97342	0.9313	1.07377	201.13233	183.38187	76.34839	0.3172	 	1.28128E24	 	1.87855E-24	 	-13295.41295	26.4486	 
215.0	1.0	0.0	8.20538	7.07735	-11.45584	12.19237	12.90691	0.92661	1.0792	201.40726	183.4998	76.46043	0.31707	 	2.49188E24	 	9.5612E-25	 	-13427.41854	26.40112	 
210.0	1.0	0.0	8.20698	7.07597	-11.47313	12.16758	12.84027	0.92188	1.08474	201.68165	183.61712	76.57228	0.31694	 	4.91351E24	 	4.79929E-25	 	-13559.18613	26.35352	 
205.0	1.0	0.0	8.20858	7.0746	-11.49036	12.14278	12.77351	0.91711	1.09039	201.95549	183.73383	76.68394	0.3168	 	9.82705E24	 	2.3748E-25	 	-13690.71509	26.30579	 
200.0	1.0	0.0	8.21017	7.07322	-11.50752	12.11798	12.70661	0.91229	1.09614	202.22878	183.84993	76.79542	0.31667	 	1.99442E25	 	1.15789E-25	 	-13822.00476	26.25793	 
195.0	1.0	0.0	8.21175	7.07186	-11.52462	12.09318	12.63957	0.90744	1.102	202.50154	183.96543	76.9067	0.31654	 	4.10938E25	 	5.56026E-26	 	-13953.05442	26.20993	 
190.0	1.0	0.0	8.21334	7.0705	-11.54165	12.06838	12.57239	0.90255	1.10798	202.77374	184.08031	77.0178	0.31641	 	8.60032E25	 	2.62841E-26	 	-14083.8633	26.16178	 
185.0	1.0	0.0	8.21491	7.06914	-11.55861	12.04359	12.50507	0.89761	1.11407	203.0454	184.1946	77.12871	0.31628	 	1.82917E26	 	1.22248E-26	 	-14214.43057	26.11345	 
180.0	1.0	0.0	8.21648	7.06779	-11.57551	12.01879	12.43759	0.89263	1.12028	203.31652	184.30828	77.23943	0.31614	 	3.9557200000000005E26	 	5.59118E-27	 	-14344.75536	26.06496	 
175.0	1.0	0.0	8.21805	7.06644	-11.59234	11.99399	12.36995	0.88761	1.12662	203.58709	184.42136	77.34997	0.31601	 	8.703050000000001E26	 	2.51327E-27	 	-14474.83671	26.01627	 
170.0	1.0	0.0	8.2196	7.0651	-11.60911	11.96919	12.30215	0.88254	1.13309	203.85711	184.53384	77.46031	0.31588	 	1.94915E27	 	1.10967E-27	 	-14604.67363	25.96738	 
165.0	1.0	0.0	8.22116	7.06377	-11.62582	11.94439	12.23419	0.87743	1.13969	204.12659	184.64572	77.57047	0.31575	 	4.44642E27	 	4.80948E-28	 	-14734.26505	25.91828	 
160.0	1.0	0.0	8.22271	7.06244	-11.64245	11.9196	12.16605	0.87228	1.14642	204.39553	184.757	77.68044	0.31562	 	1.0338200000000001E28	 	2.04493E-28	 	-14863.60983	25.86896	 
155.0	1.0	0.0	8.22425	7.06111	-11.65903	11.8948	12.09773	0.86708	1.1533	204.66392	184.86769	77.79022	0.31549	 	2.45154E28	 	8.52401E-29	 	-14992.70675	25.81938	 
150.0	1.0	0.0	8.22579	7.05979	-11.67553	11.87	12.02922	0.86183	1.16032	204.93177	184.97778	77.89982	0.31535	 	5.9332700000000005E28	 	3.48086E-29	 	-15121.55452	25.76955	 
145.0	1.0	0.0	8.22732	7.05848	-11.69197	11.8452	11.96052	0.85654	1.16749	205.19907	185.08728	78.00922	0.31522	 	1.4666600000000001E29	 	1.39152E-29	 	-15250.15177	25.71945	 
140.0	1.0	0.0	8.22884	7.05717	-11.70835	11.82041	11.89162	0.8512	1.17481	205.46582	185.19619	78.11844	0.31509	 	3.70576E29	 	5.44149E-30	 	-15378.49702	25.66905	 
135.0	1.0	0.0	8.23036	7.05587	-11.72466	11.79561	11.82251	0.84582	1.18229	205.73203	185.30451	78.22746	0.31496	 	9.578290000000001E29	 	2.07979E-30	 	-15506.58872	25.61834	 
130.0	1.0	0.0	8.23188	7.05457	-11.74091	11.77081	11.75318	0.84038	1.18993	205.9977	185.41224	78.3363	0.31483	 	2.5347099999999998E30	 	7.76292E-31	 	-15634.42519	25.56729	 
125.0	1.0	0.0	8.23339	7.05328	-11.75709	11.74601	11.68363	0.8349	1.19775	206.26282	185.51938	78.44495	0.3147	 	6.8736E30	 	2.82715E-31	 	-15762.00468	25.5159	 
120.0	1.0	0.0	8.23489	7.05199	-11.7732	11.72121	11.61385	0.82937	1.20573	206.5274	185.62593	78.55341	0.31457	 	1.91188E31	 	1.00366E-31	 	-15889.3253	25.46412	 
115.0	1.0	0.0	8.23639	7.0507	-11.78925	11.69642	11.54382	0.82379	1.2139	206.79143	185.7319	78.66168	0.31444	 	5.45986E31	 	3.4698E-32	 	-16016.38507	25.41195	 
110.0	1.0	0.0	8.23788	7.04943	-11.80523	11.67162	11.47355	0.81816	1.22226	207.05491	185.83729	78.76977	0.3143	 	1.6024999999999999E32	 	1.16697E-32	 	-16143.18184	25.35935	 
105.0	1.0	0.0	8.23937	7.04815	-11.82115	11.64682	11.40301	0.81248	1.2308	207.31786	185.94209	78.87766	0.31417	 	4.83926E32	 	3.81392E-33	 	-16269.71335	25.3063	 
100.0	1.0	0.0	8.24085	7.04689	-11.837	11.62202	11.33219	0.80674	1.23955	207.58025	186.04631	78.98537	0.31404	 	1.5053000000000002E33	 	1.20989E-33	 	-16395.97719	25.25277	 
95.0	1.0	0.0	8.24233	7.04563	-11.85279	11.59722	11.2611	0.80096	1.2485	207.8421	186.14995	79.09288	0.31391	 	4.82898E33	 	3.72097E-34	 	-16521.97079	25.19872	 
90.0	1.0	0.0	8.2438	7.04437	-11.86851	11.57243	11.1897	0.79512	1.25767	208.10341	186.25302	79.20021	0.31378	 	1.59966E34	 	1.10801E-34	 	-16647.69143	25.14413	 
85.0	1.0	0.0	8.24526	7.04312	-11.88417	11.54763	11.118	0.78923	1.26706	208.36417	186.3555	79.30734	0.31365	 	5.47927E34	 	3.19028E-35	 	-16773.13618	25.08895	 
80.0	1.0	0.0	8.24672	7.04187	-11.89976	11.52283	11.04597	0.78329	1.27667	208.62439	186.45742	79.41429	0.31352	 	1.94339E35	 	8.86924E-36	 	-16898.30195	25.03315	 
75.0	1.0	0.0	8.24818	7.04063	-11.91529	11.49803	10.97361	0.77729	1.28652	208.88406	186.55875	79.52105	0.31339	 	7.14807E35	 	2.37719E-36	 	-17023.18543	24.9767	 
70.0	1.0	0.0	8.24962	7.03939	-11.93075	11.47324	10.9009	0.77124	1.29662	209.14319	186.65952	79.62762	0.31326	 	2.73087E36	 	6.13294E-37	 	-17147.78311	24.91954	 
65.0	1.0	0.0	8.25107	7.03816	-11.94614	11.44844	10.82781	0.76513	1.30697	209.40177	186.75971	79.734	0.31313	 	1.0855E37	 	1.52043E-37	 	-17272.09121	24.86162	 
60.0	1.0	0.0	8.2525	7.03694	-11.96147	11.42364	10.75434	0.75897	1.31758	209.65981	186.85933	79.84019	0.313	 	4.497249999999999E37	 	3.6156E-38	 	-17396.10572	24.8029	 
55.0	1.0	0.0	8.25393	7.03572	-11.97673	11.39884	10.68047	0.75275	1.32847	209.9173	186.95838	79.94619	0.31287	 	1.9457E38	 	8.23158E-39	 	-17519.82237	24.74333	 
50.0	1.0	0.0	8.25536	7.0345	-11.99193	11.37404	10.60617	0.74647	1.33964	210.17425	187.05686	80.052	0.31274	 	8.808269999999999E38	 	1.79061E-39	 	-17643.23656	24.68284	 
45.0	1.0	0.0	8.25678	7.03329	-12.00707	11.34925	10.53143	0.74013	1.35111	210.43066	187.15478	80.15762	0.31261	 	4.18137E39	 	3.71364E-40	 	-17766.34342	24.62137	 
40.0	1.0	0.0	8.25819	7.03209	-12.02213	11.32445	10.45623	0.73374	1.36288	210.68652	187.25213	80.26305	0.31248	 	2.08616E40	 	7.32642E-41	 	-17889.1377	24.55886	 
35.0	1.0	0.0	8.2596	7.03089	-12.03714	11.29965	10.38053	0.72729	1.37496	210.94183	187.34892	80.36829	0.31234	 	1.09655E41	 	1.37158E-41	 	-18011.61379	24.49522	 
30.0	1.0	0.0	8.261	7.0297	-12.05207	11.27485	10.30432	0.72078	1.38738	211.1966	187.44514	80.47334	0.31221	 	6.0881100000000005E41	 	2.43031E-42	 	-18133.7657	24.43038	 
25.0	1.0	0.0	8.2624	7.02851	-12.06694	 	10.22756	0.71421	1.40014	211.45082	187.54081	80.5782	0.31208	 	3.5801799999999995E42	 	4.06458E-43	 	-18255.587	 	 
