T (C)	Fraction solid (wt)-TOTAL	Fraction liquid (wt)-LIQUID	Density (g/(cm)^3)-TOTAL	Molar volume (cm^3)-TOTAL	Volume change (%)-  	Average expansion coeff. (10e-6 1/K)-  	Thermal conductivity (W/(m*K))-TOTAL	Electrical resistivity (10e-6 Ohm*m)-TOTAL	Electrical conductivity (10e6 1/(Ohm*m))-TOTAL	Young's modulus (GPa)-TOTAL	Bulk modulus (GPa)-TOTAL	Shear modulus(GPa)-TOTAL	Poisson's ratio-TOTAL	Liquid viscosity (mPa s)-  	Total viscosity (mPa s)-  	Liquid diffusivity (10e-9 (m^2)/s)-  	Total diffusivity (10e-9 (m^2)/s)-  	Surface Tension (mN/m)-  	Enthalpy (J/mole)-TOTAL	Specific heat (J/(mole K))-TOTAL	Latent heat (J/mole)-TOTAL
1400.0	0.0	1.0	7.61742	7.94899	0.0	34.84069	33.01359	1.24168	0.80536	0.0	125.68343	0.0	0.5	7.10591	7.10591	1.14922	1.14922	1867.29154	41283.038	 	0.0
1395.0	0.0	1.0	7.62187	7.94434	-0.0584666	34.80514	32.9258	1.24127	0.80563	0.0	125.81782	0.0	0.5	7.18363	7.18363	1.13339	1.13339	1870.59454	41083.886	39.8304	0.0
1392.77	0.0	1.0	7.62386	7.94228	-0.084489	34.78935	32.88665	1.24108	0.80575	0.0	125.87776	0.0	0.5	7.21872	7.21872	1.12637	1.12637	1872.07028	40995.209	39.76636	0.0
1390.0	0.0834413	0.91656	7.65638	7.90855	-0.50882	33.67481	33.09383	1.23126	0.81217	0.00460428	128.76036	0.00154466	0.49039	7.25026	8.52391	1.1196	0.95231	1873.3822	39582.634	509.94567	1302.539
1385.0	0.21443	0.78557	7.70831	7.85528	-1.17891	31.92019	33.41916	1.21561	0.82263	0.20756	133.30487	0.0703571	0.47505	7.31097	29.63666	1.10697	0.27307	1875.73011	37349.871	446.5526	3337.032
1380.0	0.3208	0.6792	7.75153	7.81145	-1.73026	30.48672	33.67868	1.20261	0.83153	1.06832	137.0364	0.36527	0.46235	7.37571	116.25136	1.09394	0.0694066	1878.05746	35511.578	367.6586	4977.486
1375.0	0.40817	0.59183	7.78784	7.77501	-2.18866	29.30511	33.88585	1.19164	0.83918	2.86361	140.13578	0.98626	0.45176	7.44421	301.9348	1.0806	0.0266422	1880.36706	33978.753	306.565	6312.909
1370.0	0.48066	0.51934	7.81867	7.74439	-2.57393	28.32201	34.05043	1.18228	0.84582	5.61346	142.73903	1.94528	0.44284	7.51648	598.92696	1.06696	0.0133903	1882.66205	32684.855	258.7796	7409.832
1365.0	0.54137	0.45863	7.84507	7.71825	-2.90274	27.49222	34.17946	1.17423	0.85162	9.18415	144.94718	3.19948	0.43526	7.59228	1005.57408	1.0531	0.00795108	1884.94819	31579.649	221.0412	8318.489
1360.0	0.59265	0.40735	7.86787	7.69581	-3.18503	26.78904	34.279	1.16725	0.85671	13.38098	146.84027	4.68269	0.42877	7.67154	1513.68564	1.03903	0.00526595	1887.2267	30624.841	190.9616	9077.171
1355.0	0.6363	0.3637	7.88771	7.67637	-3.42966	26.18853	34.35364	1.16115	0.86122	18.00606	148.47784	6.32599	0.42318	7.75416	2113.28616	1.02482	0.0037603	1889.50009	29790.97	166.7742	9715.336
1350.0	0.67372	0.32628	7.90514	7.65933	-3.64398	25.67067	34.40733	1.15578	0.86522	22.88619	149.9083	8.06801	0.41833	7.84013	2795.06556	1.01047	0.00283435	1891.77197	29055.165	147.161	10255.853
1345.0	0.706	0.294	7.92054	7.64427	-3.83343	25.22075	34.44309	1.15102	0.86879	27.87853	151.16753	9.85742	0.41409	7.92938	3551.16002	0.99602	0.002224	1894.04508	28399.515	131.13	10716.629
1340.0	0.73403	0.26597	7.93426	7.63085	-4.00232	24.82701	34.46367	1.14678	0.87201	32.87812	152.28578	11.65596	0.41036	8.02191	4376.36501	0.98148	0.00179907	1896.32143	27809.879	117.9272	11111.802
1335.0	0.75849	0.24151	7.94655	7.61882	-4.15364	24.4814	34.47127	1.14297	0.87491	37.80156	153.28623	13.43285	0.40706	8.11756	5266.64538	0.96691	0.00149032	1898.60208	27275.001	106.9756	11452.627
1330.0	0.77997	0.22003	7.95763	7.60795	-4.29043	24.1756	34.46775	1.13953	0.87755	42.59704	154.18816	15.16858	0.40412	8.21639	6220.6758	0.95231	0.00125783	1900.8891	26785.854	97.8294	11748.125
1325.0	0.7989	0.2011	7.96768	7.59807	-4.41463	23.90434	34.45463	1.13641	0.87996	47.22411	155.00636	16.84774	0.4015	8.31834	7237.87582	0.93771	0.00107769	1903.1831	26335.151	90.1406	12005.584
1320.0	0.81568	0.18432	7.97685	7.58902	-4.52852	23.66136	34.43327	1.13356	0.88218	51.66614	155.75435	18.46359	0.39914	8.42346	8320.19607	0.92311	9.34566E-4	1905.49365	25916.96	83.6382	12230.93
1315.0	0.83062	0.16938	7.98525	7.5807	-4.63323	23.4436	34.4047	1.13094	0.88422	55.90485	156.44123	20.00884	0.397	8.53165	9469.25619	0.90854	8.18582E-4	1907.80673	25526.427	78.1066	12429.016
1310.0	0.84396	0.15604	7.993	7.57299	-4.73023	23.24703	34.36991	1.12852	0.88612	59.94241	157.07666	21.48369	0.39507	8.64305	10689.48152	0.89401	7.22857E-4	1910.13027	25159.554	73.3746	12603.837
1305.0	0.85592	0.14408	8.00018	7.56579	-4.82071	23.06837	34.32966	1.12628	0.88788	63.77629	157.66694	22.88674	0.3933	8.75759	11984.64815	0.87953	6.42702E-4	1912.46647	24813.026	69.3056	12758.705
1300.0	0.86669	0.13331	8.00686	7.55908	-4.90519	22.90621	34.28467	1.12418	0.88954	67.41359	158.21837	24.22013	0.39169	8.87523	13360.59606	0.86512	5.74687E-4	1914.81352	24484.082	65.7888	12896.379
1295.0	0.87643	0.12357	8.0131	7.55277	-4.98457	22.75811	34.23545	1.12222	0.89109	70.85836	158.73561	25.48497	0.3902	8.9961	14822.77908	0.85079	5.16351E-4	1917.17316	24170.407	62.735	13019.171
1290.0	0.88524	0.11476	8.01895	7.54681	-5.05949	22.62229	34.18258	1.12037	0.89256	74.12347	159.22317	26.68564	0.38883	9.12011	16378.86	0.83654	4.65805E-4	1919.5452	23870.052	60.071	13129.03
1287.93	0.88862	0.11138	8.02125	7.54446	-5.08911	22.5699	34.15956	1.11964	0.89314	75.40755	159.41582	27.15833	0.3883	9.17229	17048.54325	0.83068	4.46915E-4	1920.52616	23749.775	 	13170.627
1285.0	0.89443	0.10557	8.02544	7.54013	-5.14359	22.45759	34.08036	1.12014	0.89275	77.71382	159.68754	28.00941	0.38728	9.2639	18148.37185	0.82092	4.19043E-4	1922.31992	23548.345	64.3414	13260.621
1280.0	0.90345	0.0965488	8.03211	7.5332	-5.23074	22.28231	33.94982	1.12084	0.89219	81.41835	160.12607	29.37837	0.38569	9.42315	20108.39287	0.80446	3.76984E-4	1925.41755	23220.075	65.654	13399.154
1275.0	0.91141	0.0885856	8.0382	7.52681	-5.31115	22.12621	33.82486	1.12136	0.89178	84.83284	160.53648	30.6422	0.38425	9.58585	22178.42865	0.78826	3.40698E-4	1928.54798	22909.599	62.0952	13520.27
1270.0	0.91849	0.081511	8.04382	7.52086	-5.38601	21.98583	33.7047	1.12172	0.89149	87.99027	160.92353	31.81268	0.38294	9.75211	24371.27608	0.77232	3.09041E-4	1931.71134	22614.121	59.0956	13626.762
1265.0	0.92481	0.0751918	8.04904	7.51528	-5.45615	21.85884	33.58864	1.12195	0.89131	90.91717	161.29051	32.89924	0.38175	9.92212	26699.65643	0.75663	2.81177E-4	1934.90658	22331.386	56.547	13720.883
1260.0	0.93048	0.0695188	8.05391	7.51003	-5.52226	21.74325	33.47613	1.12206	0.89122	93.63789	161.64009	33.91063	0.38066	10.09587	29177.16575	0.74119	2.56465E-4	1938.1331	22059.56	54.3652	13804.466
1255.0	0.9356	0.0644037	8.05849	7.50505	-5.58489	21.63751	33.3667	1.12207	0.89121	96.17472	161.9747	34.85486	0.37965	10.27352	31818.8837	0.72599	2.34405E-4	1941.38964	21797.135	52.485	13879.014
1250.0	0.94023	0.0597714	8.06281	7.50031	-5.64446	21.54045	33.25994	1.12199	0.89128	98.54548	162.29601	35.73835	0.37871	10.45496	34640.23298	0.71106	2.14609E-4	1944.67482	21542.866	50.8538	13945.772
1245.0	0.94444	0.0555616	8.06691	7.49579	-5.7014	21.4508	33.15552	1.12182	0.89141	100.76788	162.60592	36.56751	0.37783	10.64046	37658.72328	0.69637	1.9676E-4	1947.98796	21295.713	49.4306	14005.775
1240.0	0.94828	0.0517201	8.07081	7.49144	-5.75606	21.36755	33.05312	1.12159	0.89159	102.85665	162.90533	37.34771	0.37701	10.83016	40892.15632	0.68192	1.80605E-4	1951.32966	21054.806	48.1814	14059.894
1235.0	0.9518	0.0482046	8.07454	7.48726	-5.80869	21.29003	32.95251	1.1213	0.89182	104.82495	163.1958	38.08369	0.37624	11.02392	44361.02056	0.66772	1.65932E-4	1954.6973	20819.407	47.0798	14108.862
1230.0	0.95502	0.0449756	8.07811	7.48322	-5.85948	21.21768	32.85345	1.12095	0.8921	106.6842	163.47782	38.77964	0.37552	11.22195	48086.1554	0.65376	1.5257E-4	1958.09019	20588.892	46.103	14153.302
1225.0	0.958	0.042001	8.08156	7.47931	-5.9087	21.14973	32.75576	1.12056	0.89241	108.44498	163.75247	39.4394	0.37483	11.42446	52091.12003	0.64004	1.40371E-4	1961.50848	20362.726	45.2332	14193.746
1220.0	0.96075	0.0392531	8.08488	7.47551	-5.95651	21.08569	32.65926	1.12012	0.89276	110.11608	164.02031	40.06618	0.37418	11.63158	56400.99503	0.62654	1.29212E-4	1964.95149	20140.451	44.455	14230.651
1215.0	0.96329	0.0367083	8.0881	7.47181	-6.00306	21.02514	32.56385	1.11964	0.89315	111.70627	164.28215	40.6632	0.37355	11.84328	61043.88131	0.61328	1.18985E-4	1968.41768	19921.672	43.7558	14264.41
1210.0	0.96565	0.0343464	8.09062	7.46799	-6.0511	20.95931	32.43835	1.12019	0.8927	113.24346	164.46593	41.24305	0.37288	12.05978	66048.79191	0.60025	1.09599E-4	1972.25549	19687.17654	46.89909	14295.363
1205.0	0.96785	0.0321479	8.09952	7.46187	-6.12808	20.79941	32.11755	1.12757	0.88687	115.12836	164.46233	41.96801	0.37162	12.2811	72637.23838	0.58745	9.93221E-5	1976.07054	19358.97905	65.6395	14323.811
1200.0	0.9699	0.0300968	8.10786	7.45591	-6.2031	20.6445	31.80909	1.13465	0.88133	116.9227	164.44819	42.65959	0.37042	12.50746	79851.73434	0.57486	9.00429E-5	1979.86204	19036.64775	64.46626	14350.006
1195.0	0.97182	0.0281779	8.11568	7.45009	-6.27633	20.49412	31.51171	1.14147	0.87606	118.63271	164.42583	43.32	0.36926	12.73571	87753.85438	0.56264	8.16565E-5	1983.63456	18719.59656	63.41024	14374.425
1190.0	0.97366	0.0263423	8.12313	7.4444	-6.34781	20.34815	31.22326	1.14809	0.87101	120.27224	164.39717	43.9544	0.36815	12.94965	96416.86156	0.55146	7.40666E-5	1987.39757	18405.95002	62.72931	14398.835
1185.0	0.97538	0.0246174	8.13011	7.43885	-6.41764	20.20634	30.94493	1.15446	0.86621	121.84041	164.36289	44.56231	0.36708	13.16899	105913.3037	0.54043	6.71952E-5	1991.1395	18097.34958	61.72009	14421.489
1180.0	0.97701	0.0229936	8.13667	7.43343	-6.48587	20.06863	30.67613	1.16058	0.86164	123.34317	164.32427	45.14585	0.36605	13.39378	116327.8391	0.52953	6.09696E-5	1994.85721	17793.52939	60.76404	14442.549
1175.0	0.97854	0.0214632	8.14284	7.42813	-6.55254	19.93485	30.41621	1.16647	0.85729	124.78211	164.28228	45.70558	0.36506	13.62173	127750.6826	0.51888	5.5327E-5	1998.55205	17494.1764	59.8706	14462.23
1170.0	0.98	0.0200045	8.14866	7.42294	-6.61784	19.80448	30.16448	1.17215	0.85314	126.16842	164.23784	46.24565	0.36411	13.85149	140290.7073	0.50851	5.02076E-5	2002.22602	17198.77745	59.07979	14480.945
1165.0	0.98138	0.0186242	8.15415	7.41786	-6.68178	19.67751	29.9208	1.1776	0.84919	127.50112	164.19166	46.76563	0.36319	14.08682	154057.4864	0.49829	4.55626E-5	2005.87661	16907.48924	58.25764	14498.445
1160.0	0.98268	0.0173157	8.15932	7.41288	-6.74442	19.55379	29.68475	1.18284	0.84543	128.78352	164.14425	47.26672	0.36231	14.32772	169175.7357	0.4882	4.13466E-5	2009.5042	16620.11539	57.47477	14514.835
1155.0	0.98393	0.0160747	8.16419	7.40799	-6.80586	19.43302	29.45591	1.18787	0.84185	130.01948	164.09624	47.75033	0.36145	14.57485	185785.4463	0.47825	3.75188E-5	2013.11003	16336.47546	56.72799	14530.206
1150.0	0.98511	0.0148948	8.1688	7.40321	-6.8661	19.31526	29.23388	1.1927	0.83844	131.21016	164.04798	48.21688	0.36062	14.82769	204038.6244	0.46845	3.40428E-5	2016.69136	16056.3999	56.01511	14544.644
1145.0	0.98623	0.0137726	8.17316	7.3985	-6.92526	19.20012	29.01831	1.19734	0.83519	132.36032	164.0	48.66811	0.35983	15.08719	224108.5083	0.45878	3.08852E-5	2020.25015	15779.73005	55.33397	14558.224
1140.0	0.9873	0.0127039	8.17728	7.39388	-6.98338	19.0875	28.80886	1.20179	0.83209	133.47149	163.9525	49.1046	0.35905	15.35315	246182.9113	0.44924	2.80167E-5	2023.78714	15506.31608	54.68279	14571.015
1135.0	0.98831	0.0116854	8.1812	7.38934	-7.0405	18.9773	28.60523	1.20606	0.82914	134.43144	163.90583	49.48502	0.3583	15.62575	270472.0532	0.43984	2.54105E-5	2027.30133	15236.01997	54.05922	14583.081
1130.0	0.98929	0.0107127	8.18491	7.38488	-7.09666	18.8694	28.4071	1.21016	0.82634	135.48585	163.86027	49.8998	0.35758	15.90542	297210.1488	0.43057	2.30424E-5	2030.79179	14968.71041	53.46191	14594.477
1125.0	0.99022	0.00978372	8.18844	7.38048	-7.15195	18.76354	28.21419	1.21409	0.82366	136.50659	163.81596	50.3018	0.35688	16.19249	326657.2347	0.42143	2.08905E-5	2034.26195	14704.2628	52.88952	14605.257
1120.0	0.99111	0.00889184	8.19178	7.37616	-7.20641	18.65963	28.0261	1.21787	0.82111	137.49807	163.77333	50.69268	0.35619	16.48967	359108.0314	0.41236	1.89347E-5	2037.7062	14442.37612	52.37734	14615.652
1115.0	0.99198	0.00802063	8.19494	7.37188	-7.26016	18.55722	27.8423	1.22151	0.81866	138.47096	163.73277	51.07648	0.35553	16.79959	394906.1524	0.4033	1.71565E-5	2041.12757	14182.4979	51.97564	14626.149
1110.0	0.99282	0.00717779	8.19795	7.36767	-7.31318	18.45643	27.66284	1.22501	0.81632	139.42075	163.69416	51.45148	0.35488	17.11698	434399.5182	0.39439	1.55406E-5	2044.52805	13924.90114	51.51935	14636.412
1105.0	0.99364	0.00635895	8.20082	7.36351	-7.36548	18.35726	27.48749	1.22837	0.81409	140.34916	163.65758	51.81832	0.35424	17.44333	477991.2141	0.38561	1.40722E-5	2047.90466	13669.4372	51.09279	14646.529
1100.0	0.99444	0.00555972	8.20356	7.35941	-7.41711	18.25953	27.316	1.23159	0.81196	141.25955	163.6232	52.17827	0.35362	17.7779	526135.8848	0.37699	1.27382E-5	2051.25922	13415.91974	50.70349	14656.624
1095.0	0.99522	0.00478012	8.20616	7.35535	-7.46815	18.16302	27.14828	1.23469	0.80992	142.15298	163.59124	52.53172	0.35302	18.12169	579335.3996	0.36849	1.15263E-5	2054.59279	13164.33368	50.31721	14666.658
1090.0	0.99602	0.00398276	8.20863	7.35131	-7.51902	18.06619	26.9841	1.23766	0.80798	143.05475	163.56332	52.88827	0.35242	18.47794	638244.3896	0.36006	1.04242E-5	2057.88789	12913.98304	50.07013	14677.273
1085.0	0.99682	0.00317752	8.21096	7.34728	-7.56969	17.96915	26.82334	1.24051	0.80612	143.95939	163.53912	53.24586	0.35184	18.84615	703487.8189	0.35173	9.42275E-6	2061.14866	12665.01994	49.79262	14688.261
1080.0	0.99763	0.00236661	8.21316	7.34326	-7.62019	17.87183	26.66584	1.24324	0.80435	144.86554	163.51855	53.60398	0.35126	19.22781	775779.0806	0.34348	8.51323E-6	2064.37615	12417.43148	49.51769	14699.588
1075.0	0.99844	0.00155773	8.21524	7.33927	-7.67047	17.77437	26.5115	1.24586	0.80266	145.76948	163.50139	53.9612	0.35069	19.62307	855904.0664	0.33532	7.68776E-6	2067.56929	12171.34667	49.21696	14711.074
1070.0	0.99923	7.65185E-4	8.21721	7.3353	-7.72041	17.67723	26.36026	1.24836	0.80105	146.66211	163.48704	54.31408	0.35013	20.03123	944709.2421	0.32727	6.93926E-6	2070.7352	11926.99734	48.86987	14722.442
1065.0	1.0	0.0	8.21908	7.33137	-7.76986	17.58095	26.21205	1.25075	0.79952	147.53462	163.4749	54.65926	0.34958	 	1043133.093	 	6.26112E-6	 	11684.6091	48.47765	14733.419
1060.0	1.0	0.0	8.2228	7.32805	-7.81156	17.51227	26.06796	1.25296	0.79811	147.93633	163.45761	54.82537	0.34916	 	1154101.286	 	5.63796E-6	 	11615.78955	13.76391	 
1055.0	1.0	0.0	8.22648	7.32477	-7.85288	17.44435	25.92651	1.25507	0.79677	148.33249	163.44325	54.9892	0.34874	 	1277868.311	 	5.0728E-6	 	11406.4875	41.86041	 
1050.0	1.0	0.0	8.23014	7.32151	-7.89382	17.37716	25.78761	1.25708	0.79549	148.72338	163.43178	55.15084	0.34833	 	1416021.575	 	4.56064E-6	 	11198.46295	41.60491	 
1045.0	1.0	0.0	8.23377	7.31829	-7.9344	17.31067	25.65115	1.259	0.79428	149.10923	163.42315	55.31039	0.34793	 	1570358.892	 	4.09687E-6	 	10991.68129	41.35633	 
1040.0	1.0	0.0	8.23737	7.31509	-7.97463	17.24485	25.51705	1.26081	0.79314	149.49028	163.41732	55.46796	0.34754	 	1742918.112	 	3.67726E-6	 	10786.10922	41.11441	 
1035.0	1.0	0.0	8.24094	7.31192	-8.01451	17.17969	25.38521	1.26253	0.79206	149.86676	163.41423	55.62362	0.34715	 	1936011.209	 	3.29789E-6	 	10581.71471	40.8789	 
1030.0	1.0	0.0	8.24448	7.30878	-8.05405	17.11516	25.25555	1.26416	0.79104	150.23888	163.41384	55.77746	0.34677	 	2152263.448	 	2.95519E-6	 	10378.46694	40.64955	 
1025.0	1.0	0.0	8.248	7.30566	-8.09326	17.05125	25.128	1.26571	0.79007	150.60683	163.41612	55.92956	0.3464	 	2394658.549	 	2.64587E-6	 	10176.33638	40.42611	 
1020.0	1.0	0.0	8.25149	7.30257	-8.13215	16.98791	25.00247	1.26716	0.78917	150.97082	163.421	56.08	0.34603	 	2666590.59	 	2.3669E-6	 	9975.29472	40.20833	 
1015.0	1.0	0.0	8.25496	7.2995	-8.17073	16.92515	24.87889	1.26853	0.78831	151.33101	163.42846	56.22885	0.34567	 	2971924.097	 	2.11551E-6	 	9775.31419	39.99611	 
1010.0	1.0	0.0	8.2584	7.29646	-8.20901	16.86293	24.75721	1.26982	0.78751	151.6876	163.43844	56.37619	0.34532	 	3315063.237	 	1.88918E-6	 	9576.36833	39.78917	 
1005.0	1.0	0.0	8.26182	7.29344	-8.24698	16.80125	24.63734	1.27103	0.78677	152.04074	163.4509	56.52207	0.34497	 	3701031.869	 	1.68557E-6	 	9378.43166	39.58733	 
1000.0	1.0	0.0	8.26521	7.29044	-8.28466	16.74007	24.51922	1.27215	0.78607	152.3906	163.46579	56.66656	0.34463	 	4135566.119	 	1.50256E-6	 	9181.47964	39.3904	 
995.0	1.0	0.0	8.26858	7.28747	-8.32206	16.67938	24.40318	1.27318	0.78543	152.73732	163.48309	56.80973	0.34429	 	4625221.636	 	1.33821E-6	 	8985.4886	39.19821	 
990.0	1.0	0.0	8.27193	7.28452	-8.35917	16.61917	24.28838	1.27416	0.78483	153.08106	163.50274	56.95163	0.34396	 	5177497.86	 	1.19075E-6	 	8790.43576	39.01057	 
985.0	1.0	0.0	8.27526	7.28159	-8.39601	16.55941	24.17517	1.27506	0.78428	153.42194	163.5247	57.09232	0.34363	 	5800982.319	 	1.05857E-6	 	8596.29912	38.82733	 
980.0	1.0	0.0	8.27857	7.27869	-8.43259	16.5001	24.06349	1.27588	0.78377	153.76011	163.54894	57.23186	0.34331	 	6505518.08	 	9.40173E-7	 	8403.05751	38.64832	 
975.0	1.0	0.0	8.28185	7.2758	-8.46891	16.44121	23.95329	1.27664	0.78331	154.09569	163.57542	57.37028	0.34299	 	7302398.585	 	8.34234E-7	 	8210.69047	38.47341	 
970.0	1.0	0.0	8.28511	7.27293	-8.50496	16.38273	23.84452	1.27732	0.78289	154.4288	163.6041	57.50765	0.34268	 	8204594.491	 	7.39525E-7	 	8019.17828	38.30244	 
965.0	1.0	0.0	8.28836	7.27009	-8.54077	16.32464	23.73714	1.27794	0.78251	154.75955	163.63493	57.64401	0.34237	 	9227017.787	 	6.54936E-7	 	7828.5019	38.13528	 
960.0	1.0	0.0	8.29158	7.26726	-8.57634	16.26693	23.63111	1.27849	0.78217	155.08806	163.6679	57.77941	0.34207	 	1.038683007E7	 	5.79455E-7	 	7638.64296	37.97179	 
955.0	1.0	0.0	8.29479	7.26445	-8.61166	16.20959	23.52637	1.27898	0.78188	155.41443	163.70295	57.91388	0.34177	 	1.170380247E7	 	5.12166E-7	 	7449.5837	37.81185	 
950.0	1.0	0.0	8.29797	7.26166	-8.64675	16.1526	23.4229	1.2794	0.78162	155.73877	163.74006	58.04747	0.34148	 	1.320073642E7	 	4.52239E-7	 	7261.307	37.65534	 
945.0	1.0	0.0	8.30114	7.25889	-8.6816	16.09594	23.32065	1.27975	0.7814	156.06117	163.77919	58.18022	0.34119	 	1.490395599E7	 	3.9892E-7	 	7073.79628	37.50215	 
940.0	1.0	0.0	8.30429	7.25614	-8.71623	16.03961	23.21958	1.28005	0.78122	156.38172	163.8203	58.31217	0.3409	 	1.684388506E7	 	3.51527E-7	 	6887.03554	37.35215	 
935.0	1.0	0.0	8.30742	7.2534	-8.75064	15.9836	23.11966	1.28028	0.78108	156.70052	163.86337	58.44336	0.34062	 	1.905572376E7	 	3.09444E-7	 	6701.00929	37.20525	 
930.0	1.0	0.0	8.31053	7.25069	-8.78483	15.92788	23.02085	1.28046	0.78097	157.01765	163.90837	58.57381	0.34034	 	2.158024361E7	 	2.72114E-7	 	6515.70257	37.06134	 
925.0	1.0	0.0	8.31363	7.24799	-8.8188	15.87245	22.92313	1.28057	0.7809	157.33319	163.95525	58.70357	0.34006	 	2.446472137E7	 	2.39033E-7	 	6331.10092	36.92033	 
920.0	1.0	0.0	8.31671	7.2453	-8.85257	15.81729	22.82645	1.28063	0.78087	157.64723	164.004	58.83267	0.33979	 	2.776403918E7	 	2.09749E-7	 	6147.19032	36.78212	 
915.0	1.0	0.0	8.31977	7.24263	-8.88613	15.7624	22.7308	1.28063	0.78087	157.95983	164.05458	58.96113	0.33953	 	3.15419805E7	 	1.83852E-7	 	5963.9572	36.64662	 
910.0	1.0	0.0	8.32282	7.23998	-8.91948	15.70776	22.63614	1.28057	0.7809	158.27107	164.10697	59.08899	0.33926	 	3.587275899E7	 	1.60976E-7	 	5781.38844	36.51375	 
905.0	1.0	0.0	8.32585	7.23735	-8.95264	15.65337	22.54244	1.28046	0.78097	158.58103	164.16113	59.21628	0.339	 	4.084282529E7	 	1.4079E-7	 	5599.47131	36.38343	 
900.0	1.0	0.0	8.32887	7.23473	-8.9856	15.5992	22.44967	1.28029	0.78107	158.88976	164.21704	59.34302	0.33874	 	4.655300295E7	 	1.22996E-7	 	5418.19351	36.25556	 
895.0	1.0	0.0	8.33187	7.23212	-9.01837	15.54526	22.35781	1.28007	0.7812	159.19734	164.27468	59.46924	0.33848	 	5.312101893E7	 	1.07329E-7	 	5237.54308	36.13009	 
890.0	1.0	0.0	8.33485	7.22953	-9.05095	15.49152	22.26684	1.2798	0.78137	159.50382	164.33401	59.59498	0.33823	 	6.068450269E7	 	9.35502E-8	 	5057.50845	36.00693	 
885.0	1.0	0.0	8.33782	7.22696	-9.08334	15.43799	22.17673	1.27948	0.78157	159.80926	164.39501	59.72024	0.33798	 	6.94045484E7	 	8.14448E-8	 	4878.07838	35.88601	 
880.0	1.0	0.0	8.34078	7.2244	-9.11555	15.38465	22.08746	1.2791	0.7818	160.11373	164.45766	59.84506	0.33774	 	7.94699471E7	 	7.08222E-8	 	4699.24192	35.76729	 
875.0	1.0	0.0	8.34372	7.22185	-9.14758	15.33148	21.999	1.27868	0.78206	160.41728	164.52193	59.96946	0.33749	 	9.110222747E7	 	6.15115E-8	 	4520.98848	35.65069	 
870.0	1.0	0.0	8.34664	7.21932	-9.17944	15.27849	21.91133	1.27821	0.78235	160.71997	164.58781	60.09346	0.33725	 	1.04561659E8	 	5.33602E-8	 	4343.30789	35.53612	 
865.0	1.0	0.0	8.34956	7.2168	-9.21111	15.22566	21.82444	1.27768	0.78267	161.02183	164.65526	60.21709	0.33701	 	1.201544206E8	 	4.62324E-8	 	4166.19019	35.42354	 
860.0	1.0	0.0	8.35245	7.2143	-9.24262	15.17299	21.73829	1.27711	0.78302	161.32293	164.72426	60.34036	0.33677	 	1.382411639E8	 	4.00071E-8	 	3989.62568	35.3129	 
855.0	1.0	0.0	8.35534	7.21181	-9.27396	15.12045	21.65289	1.27649	0.7834	161.62331	164.7948	60.46329	0.33654	 	1.592472625E8	 	3.45765E-8	 	3813.60495	35.20415	 
850.0	1.0	0.0	8.35821	7.20933	-9.30513	15.06806	21.56819	1.27582	0.78381	161.92303	164.86686	60.58591	0.33631	 	1.836750923E8	 	2.98452E-8	 	3638.11884	35.09722	 
845.0	1.0	0.0	8.36048	7.20737	-9.32973	15.04555	21.50608	1.27381	0.78505	162.24532	165.0484	60.71311	0.33616	 	2.085942601E8	 	2.61628E-8	 	3489.81612	29.66054	 
840.0	1.0	0.0	8.36274	7.20542	-9.35428	15.02303	21.44396	1.27179	0.78629	162.56707	165.22913	60.84012	0.33602	 	2.371651098E8	 	2.29081E-8	 	3338.67249	30.22873	 
835.0	1.0	0.0	8.365	7.20347	-9.37877	15.0005	21.38182	1.26976	0.78755	162.88828	165.40906	60.96697	0.33587	 	2.699618033E8	 	2.00347E-8	 	3187.71577	30.19134	 
830.0	1.0	0.0	8.36726	7.20153	-9.4032	14.97796	21.31967	1.26771	0.78882	163.20896	165.58818	61.09363	0.33573	 	3.076548455E8	 	1.75008E-8	 	3036.94528	30.1541	 
825.0	1.0	0.0	8.36951	7.19959	-9.42757	14.95541	21.25751	1.26566	0.7901	163.52909	165.76651	61.22012	0.33558	 	3.510282597E8	 	1.52688E-8	 	2886.36035	30.11699	 
820.0	1.0	0.0	8.37176	7.19766	-9.45189	14.93284	21.19534	1.26359	0.7914	163.84869	165.94404	61.34643	0.33544	 	4.010000043E8	 	1.33052E-8	 	2735.96025	30.08002	 
815.0	1.0	0.0	8.374	7.19573	-9.47616	14.91027	21.13315	1.26151	0.7927	164.16774	166.12077	61.47256	0.33529	 	4.586462759E8	 	1.15797E-8	 	2585.74422	30.04321	 
810.0	1.0	0.0	8.37624	7.19381	-9.50036	14.88769	21.07095	1.25942	0.79402	164.48626	166.29671	61.59852	0.33515	 	5.252304786E8	 	1.00653E-8	 	2435.71148	30.00655	 
805.0	1.0	0.0	8.37848	7.19189	-9.52451	14.86509	21.00873	1.25732	0.79534	164.80423	166.47186	61.7243	0.335	 	6.022378058E8	 	8.73772E-9	 	2285.86119	29.97006	 
800.0	1.0	0.0	8.38071	7.18997	-9.5486	14.84249	20.9465	1.25521	0.79668	165.12167	166.64622	61.8499	0.33486	 	6.914165802E8	 	7.57543E-9	 	2136.1925	29.93374	 
795.0	1.0	0.0	8.38294	7.18806	-9.57263	14.81987	20.88426	1.25308	0.79803	165.43857	166.81979	61.97532	0.33471	 	7.948277456E8	 	6.55913E-9	 	1986.70451	29.8976	 
790.0	1.0	0.0	8.38516	7.18616	-9.59661	14.79724	20.822	1.25094	0.7994	165.75493	166.99259	62.10057	0.33457	 	9.149042064E8	 	5.6716E-9	 	1837.39629	29.86165	 
785.0	1.0	0.0	8.38738	7.18426	-9.62053	14.7746	20.75973	1.2488	0.80077	166.07074	167.16459	62.22563	0.33442	 	1.054522079E9	 	4.89754E-9	 	1688.26683	29.82589	 
780.0	1.0	0.0	8.38959	7.18236	-9.64439	14.75195	20.69744	1.24664	0.80216	166.38602	167.33582	62.35052	0.33428	 	1.217086379E9	 	4.22334E-9	 	1539.3151	29.79035	 
775.0	1.0	0.0	8.39181	7.18047	-9.6682	14.72929	20.63514	1.24446	0.80356	166.70076	167.50627	62.47523	0.33413	 	1.406634227E9	 	3.63688E-9	 	1390.54003	29.75501	 
770.0	1.0	0.0	8.39401	7.17858	-9.69195	14.70662	20.57282	1.24228	0.80497	167.01496	167.67595	62.59976	0.33399	 	1.627959344E9	 	3.12745E-9	 	1241.94045	29.71991	 
765.0	1.0	0.0	8.39621	7.1767	-9.71564	14.68394	20.51049	1.24008	0.8064	167.32862	167.84485	62.72412	0.33385	 	1.886762482E9	 	2.68553E-9	 	1093.51518	29.68505	 
760.0	1.0	0.0	8.39841	7.17482	-9.73927	14.66125	20.44814	1.23787	0.80784	167.64174	168.01299	62.84829	0.3337	 	2.189833455E9	 	2.30271E-9	 	945.26297	29.65044	 
755.0	1.0	0.0	8.40061	7.17294	-9.76285	14.63855	20.38578	1.23565	0.80929	167.95432	168.18035	62.97229	0.33356	 	2.545271807E9	 	1.97156E-9	 	797.18248	29.6161	 
750.0	1.0	0.0	8.4028	7.17107	-9.78636	14.61583	20.3234	1.23341	0.81076	168.26636	168.34695	63.09611	0.33341	 	2.962754717E9	 	1.68551E-9	 	649.27232	29.58203	 
745.0	1.0	0.0	8.40498	7.16921	-9.80982	14.59311	20.261	1.23117	0.81224	168.57786	168.51278	63.21975	0.33327	 	3.453862834E9	 	1.43878E-9	 	501.53103	29.54826	 
740.0	1.0	0.0	8.40716	7.16735	-9.83323	14.57037	20.19858	1.22891	0.81373	168.88882	168.67785	63.34321	0.33312	 	4.032477218E9	 	1.22628E-9	 	353.95705	29.5148	 
735.0	1.0	0.0	8.40934	7.16549	-9.85657	14.54763	20.13615	1.22663	0.81524	169.19924	168.84216	63.46649	0.33298	 	4.71526374E9	 	1.04353E-9	 	206.54875	29.48166	 
730.0	1.0	0.0	8.41151	7.16364	-9.87986	14.52487	20.07371	1.22435	0.81676	169.50912	169.00572	63.5896	0.33284	 	5.522265254E9	 	8.86615E-10	 	59.30441	29.44887	 
725.0	1.0	0.0	8.41368	7.1618	-9.90309	14.5021	20.01124	1.22205	0.8183	169.81846	169.16851	63.71252	0.33269	 	6.477626787E9	 	7.52084E-10	 	-87.77777	29.41644	 
720.0	1.0	0.0	8.41585	7.15995	-9.92626	14.47932	19.94876	1.21973	0.81985	170.12727	169.33056	63.83527	0.33255	 	7.610485225E9	 	6.36926E-10	 	-234.69973	29.38439	 
715.0	1.0	0.0	8.41801	7.15812	-9.94938	14.45654	19.88625	1.21741	0.82142	170.43553	169.49185	63.95783	0.33241	 	8.956062804E9	 	5.38508E-10	 	-381.46348	29.35275	 
710.0	1.0	0.0	8.42016	7.15628	-9.97243	14.43374	19.82373	1.21507	0.823	170.74325	169.65239	64.08022	0.33226	 	1.0557E10	 	4.54533E-10	 	-528.07119	29.32154	 
705.0	1.0	0.0	8.42232	7.15446	-9.99543	14.41092	19.76119	1.21271	0.8246	171.05043	169.81219	64.20243	0.33212	 	1.2465099999999998E10	 	3.82998E-10	 	-674.52511	29.29078	 
700.0	1.0	0.0	8.42446	7.15263	-10.01837	14.3881	19.69864	1.21035	0.82621	171.35707	169.97124	64.32446	0.33197	 	1.4743199999999998E10	 	3.22163E-10	 	-820.82763	29.2605	 
695.0	1.0	0.0	8.42661	7.15081	-10.04126	14.36527	19.63606	1.20797	0.82784	171.66317	170.12955	64.44631	0.33183	 	1.74678E10	 	2.70514E-10	 	-966.98131	29.23074	 
690.0	1.0	0.0	8.42874	7.149	-10.06408	14.34243	19.57346	1.20557	0.82948	171.96873	170.28711	64.56798	0.33169	 	2.07325E10	 	2.2674E-10	 	-1112.98884	29.2015	 
685.0	1.0	0.0	8.43088	7.14719	-10.08685	14.31957	19.51084	1.20316	0.83114	172.27376	170.44394	64.68947	0.33154	 	2.4651399999999996E10	 	1.89705E-10	 	-1258.85308	29.17285	 
680.0	1.0	0.0	8.43301	7.14538	-10.10956	14.29671	19.44821	1.20074	0.83282	172.57824	170.60003	64.81078	0.3314	 	2.9364399999999996E10	 	1.58426E-10	 	-1404.57705	29.14479	 
675.0	1.0	0.0	8.43513	7.14358	-10.13221	14.27383	19.38555	1.1983	0.83452	172.88218	170.75538	64.93191	0.33126	 	3.5043E10	 	1.32057E-10	 	-1550.16398	29.11739	 
670.0	1.0	0.0	8.43726	7.14179	-10.1548	14.25094	19.32287	1.19585	0.83623	173.18558	170.91001	65.05286	0.33111	 	4.18982E10	 	1.09868E-10	 	-1695.61727	29.09066	 
665.0	1.0	0.0	8.43937	7.14	-10.17733	14.22805	19.26017	1.19338	0.83796	173.48844	171.0639	65.17363	0.33097	 	5.018989999999999E10	 	9.1231E-11	 	-1840.94056	29.06466	 
660.0	1.0	0.0	8.44148	7.13821	-10.19981	14.20514	19.19744	1.1909	0.8397	173.79076	171.21706	65.29422	0.33083	 	6.023899999999999E10	 	7.56067E-11	 	-1986.12729	29.03734	 
655.0	1.0	0.0	8.44359	7.13643	-10.22223	14.18222	19.1347	1.1884	0.84147	174.09254	171.36949	65.41463	0.33069	 	7.24425E10	 	6.25333E-11	 	-2131.11936	28.99841	 
650.0	1.0	0.0	8.4457	7.13465	-10.24459	14.15929	19.07193	1.18589	0.84325	174.39378	171.5212	65.53486	0.33054	 	8.72925E10	 	5.16157E-11	 	-2275.83976	28.94408	 
645.0	1.0	0.0	8.44779	7.13288	-10.26689	14.13635	19.00914	1.18336	0.84505	174.69448	171.67219	65.65491	0.3304	 	1.054E11	 	4.25165E-11	 	-2420.28963	28.88998	 
640.0	1.0	0.0	8.44989	7.13111	-10.28913	14.1134	18.94632	1.18082	0.84687	174.99464	171.82245	65.77478	0.33026	 	1.27528E11	 	3.49482E-11	 	-2564.4701	28.83609	 
635.0	1.0	0.0	8.45198	7.12935	-10.31131	14.09044	18.88349	1.17826	0.84871	175.29426	171.972	65.89447	0.33011	 	1.54624E11	 	2.8666E-11	 	-2708.38231	28.78244	 
630.0	1.0	0.0	8.45406	7.12759	-10.33344	14.06746	18.82062	1.17569	0.85057	175.59334	172.12083	66.01398	0.32997	 	1.87879E11	 	2.34622E-11	 	-2852.02739	28.72902	 
625.0	1.0	0.0	8.45615	7.12583	-10.35551	14.04448	18.75774	1.1731	0.85244	175.89187	172.26894	66.13331	0.32983	 	2.28781E11	 	1.91609E-11	 	-2995.40655	28.67583	 
620.0	1.0	0.0	8.45822	7.12408	-10.37751	14.02148	18.69482	1.17049	0.85434	176.18987	172.41634	66.25245	0.32969	 	2.79202E11	 	1.56132E-11	 	-3138.52109	28.62291	 
615.0	1.0	0.0	8.46029	7.12234	-10.39946	13.99848	18.63189	1.16787	0.85626	176.48733	172.56303	66.37142	0.32954	 	3.41501E11	 	1.26935E-11	 	-3281.37205	28.57019	 
610.0	1.0	0.0	8.46236	7.1206	-10.42135	13.97546	18.56892	1.16524	0.8582	176.78424	172.70901	66.4902	0.3294	 	4.18654E11	 	1.02959E-11	 	-3423.96055	28.5177	 
605.0	1.0	0.0	8.46442	7.11886	-10.44319	13.95244	18.50593	1.16258	0.86015	177.08062	172.85428	66.60881	0.32926	 	5.14431E11	 	8.3316E-12	 	-3566.28773	28.46543	 
600.0	1.0	0.0	8.46648	7.11713	-10.46496	13.9294	18.44292	1.15991	0.86213	177.37645	172.99885	66.72723	0.32912	 	6.33611E11	 	6.72594E-12	 	-3708.35469	28.41339	 
595.0	1.0	0.0	8.46854	7.11541	-10.48667	13.90635	18.37987	1.15723	0.86414	177.67175	173.14271	66.84547	0.32897	 	7.82278E11	 	5.41652E-12	 	-3850.16258	28.36158	 
590.0	1.0	0.0	8.47059	7.11369	-10.50833	13.88329	18.3168	1.15452	0.86616	177.9665	173.28587	66.96353	0.32883	 	9.68188E11	 	4.35124E-12	 	-3991.71251	28.30999	 
585.0	1.0	0.0	8.47263	7.11197	-10.52993	13.86022	18.2537	1.1518	0.8682	178.26071	173.42833	67.08141	0.32869	 	1.20126E12	 	3.48668E-12	 	-4133.00559	28.25862	 
580.0	1.0	0.0	8.47467	7.11026	-10.55147	13.83714	18.19057	1.14907	0.87027	178.55438	173.57009	67.19911	0.32855	 	1.49422E12	 	2.78675E-12	 	-4274.04295	28.20747	 
575.0	1.0	0.0	8.47671	7.10855	-10.57294	13.81405	18.12741	1.14631	0.87236	178.84751	173.71115	67.31662	0.32841	 	1.8634E12	 	2.22153E-12	 	-4414.8257	28.15655	 
570.0	1.0	0.0	8.47874	7.10685	-10.59436	13.79094	18.06422	1.14354	0.87448	179.1401	173.85152	67.43396	0.32826	 	2.3299E12	 	1.76626E-12	 	-4555.35496	28.10585	 
565.0	1.0	0.0	8.48076	7.10515	-10.61573	13.76783	18.001	1.14075	0.87661	179.43215	173.9912	67.55111	0.32812	 	2.92096E12	 	1.4005E-12	 	-4695.63183	28.05537	 
560.0	1.0	0.0	8.48278	7.10346	-10.63703	13.74471	17.93775	1.13795	0.87878	179.72366	174.13018	67.66808	0.32798	 	3.67192E12	 	1.10743E-12	 	-4835.65746	28.00512	 
555.0	1.0	0.0	8.4848	7.10177	-10.65827	13.72157	17.87446	1.13512	0.88096	180.01462	174.26848	67.78487	0.32784	 	4.62871E12	 	8.73245E-13	 	-4975.43291	27.95509	 
550.0	1.0	0.0	8.48681	7.10008	-10.67945	13.69842	17.81115	1.13228	0.88318	180.30505	174.40609	67.90147	0.3277	 	5.85124E12	 	6.86622E-13	 	-5114.95932	27.90528	 
545.0	1.0	0.0	8.48882	7.0984	-10.70058	13.67527	17.7478	1.12942	0.88541	180.59493	174.54301	68.0179	0.32755	 	7.41789E12	 	5.38318E-13	 	-5254.2378	27.8557	 
540.0	1.0	0.0	8.49082	7.09673	-10.72164	13.6521	17.68441	1.12654	0.88767	180.88427	174.67926	68.13414	0.32741	 	9.43149E12	 	4.20801E-13	 	-5393.26944	27.80633	 
535.0	1.0	0.0	8.49282	7.09506	-10.74265	13.62892	17.621	1.12364	0.88996	181.17307	174.81481	68.2502	0.32727	 	1.20274E13	 	3.2795E-13	 	-5532.05535	27.75718	 
530.0	1.0	0.0	8.49482	7.09339	-10.76359	13.60573	17.55754	1.12072	0.89228	181.46133	174.94969	68.36607	0.32713	 	1.53842E13	 	2.54805E-13	 	-5670.59664	27.70826	 
525.0	1.0	0.0	8.49681	7.09173	-10.78448	13.58253	17.49406	1.11779	0.89462	181.74905	175.08389	68.48177	0.32699	 	1.97388E13	 	1.97356E-13	 	-5808.89439	27.65955	 
520.0	1.0	0.0	8.49879	7.09008	-10.80531	13.55932	17.43053	1.11484	0.89699	182.03623	175.21742	68.59728	0.32685	 	2.54056E13	 	1.52375E-13	 	-5946.94973	27.61107	 
515.0	1.0	0.0	8.50077	7.08843	-10.82608	13.5361	17.36697	1.11186	0.89939	182.32286	175.35026	68.71261	0.32671	 	3.28042E13	 	1.17265E-13	 	-6084.76372	27.5628	 
510.0	1.0	0.0	8.50274	7.08678	-10.84678	13.51287	17.30337	1.10887	0.90182	182.60896	175.48244	68.82775	0.32656	 	4.24958E13	 	8.99468E-14	 	-6222.33749	27.51475	 
505.0	1.0	0.0	8.50471	7.08514	-10.86743	13.48962	17.23973	1.10586	0.90428	182.89451	175.61394	68.94272	0.32642	 	5.52342E13	 	6.8761E-14	 	-6359.67211	27.46693	 
500.0	1.0	0.0	8.50668	7.0835	-10.88802	13.46637	17.17605	1.10282	0.90676	183.17952	175.74478	69.0575	0.32628	 	7.20348E13	 	5.23851E-14	 	-6496.76868	27.41931	 
495.0	1.0	0.0	8.50864	7.08187	-10.90855	13.44311	17.11233	1.09977	0.90928	183.46399	175.87494	69.1721	0.32614	 	9.42711E13	 	3.97699E-14	 	-6633.62828	27.37192	 
490.0	1.0	0.0	8.51059	7.08024	-10.92902	13.41983	17.04858	1.0967	0.91183	183.74792	176.00444	69.28651	0.326	 	1.23807E14	 	3.00851E-14	 	-6770.252	27.32475	 
485.0	1.0	0.0	8.51254	7.07862	-10.94943	13.39654	16.98477	1.09361	0.9144	184.0313	176.13328	69.40074	0.32586	 	1.63183E14	 	2.26761E-14	 	-6906.64093	27.27779	 
480.0	1.0	0.0	8.51449	7.077	-10.96978	13.37325	16.92093	1.09049	0.91702	184.31414	176.26145	69.51479	0.32572	 	2.15871E14	 	1.70284E-14	 	-7042.79616	27.23104	 
475.0	1.0	0.0	8.51643	7.07539	-10.99007	13.34994	16.85704	1.08736	0.91966	184.59645	176.38896	69.62865	0.32558	 	2.86642E14	 	1.2739E-14	 	-7178.71874	27.18452	 
470.0	1.0	0.0	8.51837	7.07378	-11.0103	13.32662	16.79311	1.08421	0.92233	184.87821	176.51581	69.74233	0.32544	 	3.82068E14	 	9.49341E-15	 	-7314.40978	27.13821	 
465.0	1.0	0.0	8.5203	7.07218	-11.03047	13.30329	16.72913	1.08103	0.92504	185.15942	176.64201	69.85583	0.3253	 	5.1125099999999994E14	 	7.04689E-15	 	-7449.87032	27.09211	 
460.0	1.0	0.0	8.52222	7.07058	-11.05058	13.27995	16.66511	1.07783	0.92779	185.4401	176.76755	69.96914	0.32516	 	6.86834E14	 	5.20988E-15	 	-7585.10146	27.04623	 
455.0	1.0	0.0	8.52415	7.06899	-11.07063	13.2566	16.60103	1.07461	0.93057	185.72023	176.89243	70.08227	0.32502	 	9.26469E14	 	3.83598E-15	 	-7720.10427	27.00056	 
450.0	1.0	0.0	8.52606	7.0674	-11.09062	13.23324	16.53691	1.07137	0.93338	185.99982	177.01666	70.19521	0.32488	 	1.25489E15	 	2.8126E-15	 	-7854.87981	26.95511	 
445.0	1.0	0.0	8.52797	7.06581	-11.11056	13.20986	16.47274	1.06811	0.93623	186.27887	177.14024	70.30797	0.32474	 	1.70694E15	 	2.05345E-15	 	-7989.42913	26.90986	 
440.0	1.0	0.0	8.52988	7.06423	-11.13043	13.18648	16.40852	1.06482	0.93912	186.55738	177.26317	70.42055	0.32459	 	2.33186E15	 	1.49267E-15	 	-8123.75332	26.86484	 
435.0	1.0	0.0	8.53178	7.06266	-11.15024	13.16308	16.34425	1.06152	0.94205	186.83534	177.38546	70.53294	0.32445	 	3.19964E15	 	1.08022E-15	 	-8257.85342	26.82002	 
430.0	1.0	0.0	8.53368	7.06109	-11.16999	13.13968	16.27992	1.05819	0.94501	187.11276	177.50709	70.64515	0.32431	 	4.41015E15	 	7.78183E-16	 	-8391.73049	26.77541	 
425.0	1.0	0.0	8.53557	7.05953	-11.18968	13.11626	16.21554	1.05483	0.94802	187.38964	177.62808	70.75717	0.32417	 	6.10662E15	 	5.58E-16	 	-8525.38543	26.73099	 
420.0	1.0	0.0	8.53746	7.05796	-11.2093	13.09284	16.15111	1.05146	0.95106	187.66598	177.74843	70.86901	0.32403	 	8.49549E15	 	3.98222E-16	 	-8658.81954	26.68682	 
415.0	1.0	0.0	8.53934	7.05641	-11.22887	13.0694	16.08661	1.04806	0.95415	187.94177	177.86814	70.98067	0.32389	 	1.18757E16	 	2.8282E-16	 	-8792.03322	26.64274	 
410.0	1.0	0.0	8.54122	7.05486	-11.24838	13.04595	16.02206	1.04463	0.95727	188.21702	177.98721	71.09213	0.32375	 	1.6682400000000002E16	 	1.99868E-16	 	-8925.02669	26.59869	 
405.0	1.0	0.0	8.54309	7.05331	-11.26783	13.02249	15.95745	1.04119	0.96044	188.49173	178.10564	71.20342	0.32361	 	2.35525E16	 	1.40532E-16	 	-9057.80012	26.55469	 
400.0	1.0	0.0	8.54496	7.05177	-11.28722	12.99902	15.89278	1.03771	0.96366	188.76589	178.22343	71.31452	0.32347	 	3.3422400000000004E16	 	9.83015E-17	 	-9190.35368	26.51071	 
395.0	1.0	0.0	8.54682	7.05024	-11.30655	12.97554	15.82805	1.03422	0.96691	189.03952	178.34059	71.42543	0.32333	 	4.76777E16	 	6.83983E-17	 	-9322.68757	26.46678	 
390.0	1.0	0.0	8.54868	7.0487	-11.32581	12.95205	15.76325	1.0307	0.97022	189.31259	178.45711	71.53616	0.3232	 	6.8378300000000008E16	 	4.73348E-17	 	-9454.80193	26.42287	 
385.0	1.0	0.0	8.55053	7.04718	-11.34502	12.92855	15.69839	1.02715	0.97356	189.58513	178.57301	71.64671	0.32306	 	9.86055E16	 	3.2577E-17	 	-9586.69696	26.37901	 
380.0	1.0	0.0	8.55237	7.04566	-11.36416	12.90503	15.63346	1.02358	0.97696	189.85712	178.68827	71.75707	0.32292	 	1.42994E17	 	2.22937E-17	 	-9718.37281	26.33517	 
375.0	1.0	0.0	8.55422	7.04414	-11.38325	12.88151	15.56847	1.01999	0.9804	190.12857	178.8029	71.86724	0.32278	 	2.08557E17	 	1.51683E-17	 	-9849.82965	26.29137	 
370.0	1.0	0.0	8.55605	7.04263	-11.40227	12.85797	15.5034	1.01637	0.98389	190.39948	178.91691	71.97723	0.32264	 	3.05971E17	 	1.02593E-17	 	-9981.06763	26.2476	 
365.0	1.0	0.0	8.55789	7.04112	-11.42124	12.83443	15.43826	1.01272	0.98744	190.66985	179.03029	72.08703	0.3225	 	4.51591E17	 	6.89707E-18	 	-10112.08691	26.20386	 
360.0	1.0	0.0	8.55971	7.03962	-11.44014	12.81087	15.37305	1.00905	0.99103	190.93967	179.14305	72.19665	0.32236	 	6.70624E17	 	4.60802E-18	 	-10242.88765	26.16015	 
355.0	1.0	0.0	8.56153	7.03812	-11.45898	12.7873	15.30777	1.00535	0.99468	191.20894	179.25518	72.30608	0.32222	 	1.00218E18	 	3.05916E-18	 	-10373.46998	26.11647	 
350.0	1.0	0.0	8.56335	7.03663	-11.47776	12.76373	15.2424	1.00163	0.99838	191.47768	179.36669	72.41532	0.32208	 	1.50736E18	 	2.01773E-18	 	-10503.83405	26.07281	 
345.0	1.0	0.0	8.56516	7.03514	-11.49648	12.74014	15.17696	0.99787	1.00213	191.74587	179.47759	72.52438	0.32194	 	2.28219E18	 	1.32199E-18	 	-10633.98001	26.02919	 
340.0	1.0	0.0	8.56697	7.03365	-11.51514	12.71654	15.11144	0.99409	1.00594	192.01351	179.58786	72.63325	0.3218	 	3.47876E18	 	8.60257E-19	 	-10763.90798	25.98559	 
335.0	1.0	0.0	8.56877	7.03218	-11.53374	12.69293	15.04583	0.99029	1.00981	192.28061	179.69752	72.74194	0.32166	 	5.3396E18	 	5.55889E-19	 	-10893.61808	25.94202	 
330.0	1.0	0.0	8.57056	7.0307	-11.55227	12.6693	14.98014	0.98645	1.01373	192.54717	179.80656	72.85044	0.32152	 	8.25426E18	 	3.56643E-19	 	-11023.11048	25.89848	 
325.0	1.0	0.0	8.57235	7.02923	-11.57075	12.64567	14.91436	0.98259	1.01772	192.81319	179.91499	72.95875	0.32138	 	1.28532E19	 	2.27136E-19	 	-11152.38526	25.85496	 
320.0	1.0	0.0	8.57414	7.02777	-11.58916	12.62203	14.84849	0.9787	1.02177	193.07866	180.02281	73.06688	0.32125	 	2.01644E19	 	1.43571E-19	 	-11281.44255	25.81146	 
315.0	1.0	0.0	8.57592	7.02631	-11.60752	12.59838	14.78253	0.97478	1.02588	193.34359	180.13002	73.17482	0.32111	 	3.18775E19	 	9.00515E-20	 	-11410.28248	25.76799	 
310.0	1.0	0.0	8.5777	7.02486	-11.62581	12.57471	14.71647	0.97083	1.03005	193.60797	180.23662	73.28257	0.32097	 	5.07919E19	 	5.60367E-20	 	-11538.90513	25.72453	 
305.0	1.0	0.0	8.57947	7.02341	-11.64404	12.55104	14.65032	0.96685	1.03429	193.87181	180.34261	73.39014	0.32083	 	8.15838E19	 	3.45878E-20	 	-11667.31062	25.6811	 
300.0	1.0	0.0	8.58123	7.02196	-11.66221	12.52735	14.58406	0.96284	1.03859	194.1351	180.44799	73.49752	0.32069	 	1.3213099999999998E20	 	2.11714E-20	 	-11795.49906	25.63769	 
295.0	1.0	0.0	8.58299	7.02052	-11.68032	12.50365	14.51771	0.95881	1.04296	194.39785	180.55277	73.60471	0.32055	 	2.1581899999999997E20	 	1.28487E-20	 	-11923.47053	25.59429	 
290.0	1.0	0.0	8.58474	7.01909	-11.69836	12.47994	14.45124	0.95474	1.04741	194.66006	180.65695	73.71172	0.32041	 	3.5559899999999997E20	 	7.72948E-21	 	-12051.22514	25.55092	 
285.0	1.0	0.0	8.58649	7.01766	-11.71635	12.45623	14.38467	0.95064	1.05192	194.92172	180.76052	73.81854	0.32028	 	5.911749999999999E20	 	4.6081E-21	 	-12178.76295	25.50756	 
280.0	1.0	0.0	8.58824	7.01624	-11.73427	12.4325	14.31799	0.94651	1.05651	195.18284	180.8635	73.92517	0.32014	 	9.918879999999999E20	 	2.72187E-21	 	-12306.08406	25.46422	 
275.0	1.0	0.0	8.58997	7.01482	-11.75213	12.40876	14.25119	0.94235	1.06117	195.44341	180.96587	74.03161	0.32	 	1.68E21	 	1.59249E-21	 	-12433.18855	25.4209	 
270.0	1.0	0.0	8.59171	7.0134	-11.76994	12.385	14.18428	0.93816	1.06591	195.70344	181.06765	74.13787	0.31986	 	2.87322E21	 	9.22652E-22	 	-12560.07648	25.37759	 
265.0	1.0	0.0	8.59343	7.01199	-11.78767	12.36124	14.11724	0.93394	1.07073	195.96292	181.16883	74.24393	0.31972	 	4.96317E21	 	5.29213E-22	 	-12686.74794	25.33429	 
260.0	1.0	0.0	8.59516	7.01059	-11.80535	12.33747	14.05008	0.92969	1.07563	196.22186	181.26941	74.34981	0.31959	 	8.661680000000001E21	 	3.00423E-22	 	-12813.203	25.29101	 
255.0	1.0	0.0	8.59687	7.00918	-11.82297	12.31369	13.98279	0.9254	1.08061	196.48026	181.36941	74.45551	0.31945	 	1.52765E22	 	1.68741E-22	 	-12939.4417	25.24774	 
250.0	1.0	0.0	8.59859	7.00779	-11.84052	12.28989	13.91536	0.92108	1.08568	196.73811	181.46881	74.56101	0.31931	 	2.7236899999999997E22	 	9.37467E-23	 	-13065.46412	25.20448	 
245.0	1.0	0.0	8.60029	7.0064	-11.85801	12.26609	13.8478	0.91673	1.09084	196.99541	181.56762	74.66633	0.31917	 	4.91062E22	 	5.14998E-23	 	-13191.2703	25.16124	 
240.0	1.0	0.0	8.60199	7.00501	-11.87544	12.24227	13.7801	0.91234	1.09608	197.25217	181.66584	74.77146	0.31903	 	8.95579E22	 	2.79658E-23	 	-13316.86031	25.118	 
235.0	1.0	0.0	8.60369	7.00363	-11.89281	12.21844	13.71225	0.90792	1.10141	197.50838	181.76347	74.8764	0.3189	 	1.6527499999999997E23	 	1.50062E-23	 	-13442.23419	25.07478	 
230.0	1.0	0.0	8.60538	7.00226	-11.91012	12.19461	13.64425	0.90347	1.10684	197.76405	181.86052	74.98115	0.31876	 	3.0874499999999996E23	 	7.95399E-24	 	-13567.392	25.03156	 
225.0	1.0	0.0	8.60706	7.00089	-11.92736	12.17076	13.5761	0.89898	1.11237	198.01917	181.95698	75.08571	0.31862	 	5.8403599999999995E23	 	4.16301E-24	 	-13692.33379	24.98836	 
220.0	1.0	0.0	8.60874	6.99952	-11.94455	12.1469	13.50778	0.89446	1.11799	198.27375	182.05286	75.19009	0.31848	 	1.1191600000000001E24	 	2.15066E-24	 	-13817.05959	24.94516	 
215.0	1.0	0.0	8.61042	6.99816	-11.96167	12.12303	13.43931	0.8899	1.12372	198.52778	182.14815	75.29427	0.31835	 	2.17337E24	 	1.09624E-24	 	-13941.56948	24.90198	 
210.0	1.0	0.0	8.61209	6.9968	-11.97872	12.09915	13.37066	0.88531	1.12955	198.78127	182.24287	75.39827	0.31821	 	4.27897E24	 	5.51099E-25	 	-14065.86348	24.8588	 
205.0	1.0	0.0	8.61375	6.99545	-11.99572	12.07526	13.30183	0.88068	1.13548	199.03421	182.337	75.50208	0.31807	 	8.54472E24	 	2.7312E-25	 	-14189.94166	24.81564	 
200.0	1.0	0.0	8.61541	6.99411	-12.01265	12.05136	13.23283	0.87602	1.14153	199.28661	182.43056	75.6057	0.31793	 	1.73143E25	 	1.33377E-25	 	-14313.80407	24.77248	 
195.0	1.0	0.0	8.61706	6.99277	-12.02953	12.02744	13.16363	0.87132	1.14769	199.53846	182.52354	75.70913	0.3178	 	3.56175E25	 	6.41518E-26	 	-14437.45076	24.72934	 
190.0	1.0	0.0	8.61871	6.99143	-12.04634	12.00352	13.09424	0.86658	1.15396	199.78976	182.61594	75.81237	0.31766	 	7.4419200000000006E25	 	3.03755E-26	 	-14560.88181	24.68621	 
185.0	1.0	0.0	8.62035	6.9901	-12.06308	11.97958	13.02465	0.8618	1.16036	200.04052	182.70777	75.91542	0.31752	 	1.58013E26	 	1.41515E-26	 	-14684.09729	24.6431	 
180.0	1.0	0.0	8.62198	6.98877	-12.07977	11.95564	12.95485	0.85699	1.16687	200.29073	182.79902	76.01828	0.31739	 	3.41126E26	 	6.48356E-27	 	-14807.09728	24.6	 
175.0	1.0	0.0	8.62361	6.98745	-12.09639	11.93168	12.88483	0.85214	1.17352	200.5404	182.88971	76.12095	0.31725	 	7.491980000000001E26	 	2.91953E-27	 	-14929.88187	24.55692	 
170.0	1.0	0.0	8.62524	6.98613	-12.11295	11.90771	12.81459	0.84725	1.18029	200.78952	182.97982	76.22344	0.31711	 	1.6749E27	 	1.29137E-27	 	-15052.45118	24.51386	 
165.0	1.0	0.0	8.62686	6.98482	-12.12945	11.88374	12.74411	0.84232	1.18719	201.03809	183.06936	76.32573	0.31697	 	3.8137599999999997E27	 	5.60732E-28	 	-15174.80533	24.47083	 
160.0	1.0	0.0	8.62847	6.98352	-12.14588	11.85975	12.6734	0.83736	1.19423	201.28612	183.15834	76.42783	0.31684	 	8.85055E27	 	2.38866E-28	 	-15296.94445	24.42783	 
155.0	1.0	0.0	8.63008	6.98221	-12.16226	11.83575	12.60243	0.83235	1.20141	201.5336	183.24675	76.52975	0.3167	 	2.09472E28	 	9.97601E-29	 	-15418.86875	24.38486	 
150.0	1.0	0.0	8.63168	6.98092	-12.17857	11.81174	12.53121	0.82731	1.20874	201.78053	183.3346	76.63147	0.31656	 	5.05968E28	 	4.08186E-29	 	-15540.57838	24.34193	 
145.0	1.0	0.0	8.63328	6.97963	-12.19481	11.78772	12.45971	0.82222	1.21621	202.02692	183.42188	76.733	0.31643	 	1.24819E29	 	1.63508E-29	 	-15662.07362	24.29905	 
140.0	1.0	0.0	8.63487	6.97834	-12.211	11.76368	12.38794	0.8171	1.22384	202.27276	183.50859	76.83435	0.31629	 	3.1472400000000004E29	 	6.40715E-30	 	-15783.35471	24.25622	 
135.0	1.0	0.0	8.63646	6.97706	-12.22712	11.73964	12.31587	0.81193	1.23163	202.51805	183.59475	76.9355	0.31615	 	8.11744E29	 	2.45407E-30	 	-15904.42196	24.21345	 
130.0	1.0	0.0	8.63804	6.97578	-12.24318	11.71559	12.24351	0.80673	1.23958	202.7628	183.68035	77.03646	0.31602	 	2.1434599999999998E30	 	9.17989E-31	 	-16025.27578	24.17076	 
125.0	1.0	0.0	8.63961	6.97451	-12.25918	11.69152	12.17082	0.80148	1.24769	203.007	183.76538	77.13723	0.31588	 	5.79968E30	 	3.35066E-31	 	-16145.91656	24.12816	 
120.0	1.0	0.0	8.64118	6.97324	-12.27511	11.66745	12.09781	0.79619	1.25598	203.25065	183.84986	77.23781	0.31575	 	1.60949E31	 	1.19222E-31	 	-16266.34483	24.08565	 
115.0	1.0	0.0	8.64275	6.97198	-12.29098	11.64336	12.02445	0.79086	1.26444	203.49376	183.93378	77.3382	0.31561	 	4.5855499999999995E31	 	4.13138E-32	 	-16386.56115	24.04326	 
110.0	1.0	0.0	8.6443	6.97073	-12.30679	11.61927	11.95074	0.78549	1.27309	203.73632	184.01715	77.4384	0.31547	 	1.34265E32	 	1.39281E-32	 	-16506.56622	24.00101	 
105.0	1.0	0.0	8.64586	6.96947	-12.32253	11.59516	11.87666	0.78007	1.28193	203.97833	184.09997	77.53841	0.31534	 	4.04457E32	 	4.5633E-33	 	-16626.36081	23.95892	 
100.0	1.0	0.0	8.6474	6.96823	-12.33821	11.57104	11.80218	0.77462	1.29096	204.21979	184.18223	77.63822	0.3152	 	1.25492E33	 	1.45129E-33	 	-16745.94586	23.91701	 
95.0	1.0	0.0	8.64894	6.96699	-12.35383	11.54691	11.7273	0.76912	1.30019	204.46071	184.26393	77.73785	0.31507	 	4.01529E33	 	4.47502E-34	 	-16865.32241	23.87531	 
90.0	1.0	0.0	8.65048	6.96575	-12.36939	11.52277	11.652	0.76358	1.30963	204.70108	184.34509	77.83728	0.31493	 	1.32656E34	 	1.33612E-34	 	-16984.4917	23.83386	 
85.0	1.0	0.0	8.65201	6.96452	-12.38488	11.49862	11.57625	0.75799	1.31928	204.9409	184.4257	77.93653	0.31479	 	4.531360000000001E34	 	3.85766E-35	 	-17103.45518	23.7927	 
80.0	1.0	0.0	8.65353	6.96329	-12.40031	11.47446	11.50003	0.75236	1.32915	205.18017	184.50576	78.03558	0.31466	 	1.6026399999999998E35	 	1.0755E-35	 	-17222.21449	23.75186	 
75.0	1.0	0.0	8.65505	6.96207	-12.41567	11.45028	11.42333	0.74669	1.33925	205.41889	184.58528	78.13444	0.31452	 	5.87763E35	 	2.89102E-36	 	-17340.77158	23.71142	 
70.0	1.0	0.0	8.65656	6.96085	-12.43098	11.4261	11.34612	0.74097	1.34958	205.65707	184.66425	78.2331	0.31439	 	2.2388E36	 	7.48093E-37	 	-17459.1287	23.67142	 
65.0	1.0	0.0	8.65807	6.95964	-12.44622	11.40191	11.26837	0.73522	1.36015	205.8947	184.74267	78.33158	0.31425	 	8.871649999999999E36	 	1.86034E-37	 	-17577.28845	23.63195	 
60.0	1.0	0.0	8.65957	6.95844	-12.46139	11.3777	11.19005	0.72941	1.37096	206.13178	184.82056	78.42986	0.31412	 	3.66389E37	 	4.43797E-38	 	-17695.25391	23.59309	 
55.0	1.0	0.0	8.66107	6.95724	-12.47651	11.35349	11.11115	0.72357	1.38204	206.36832	184.8979	78.52796	0.31398	 	1.57998E38	 	1.0137E-38	 	-17813.02865	23.55495	 
50.0	1.0	0.0	8.66256	6.95604	-12.49155	11.32926	11.03162	0.71768	1.39338	206.6043	184.97469	78.62585	0.31384	 	7.12854E38	 	2.21253E-39	 	-17930.61685	23.51764	 
45.0	1.0	0.0	8.66404	6.95485	-12.50654	11.30502	10.95143	0.71175	1.40499	206.83974	185.05095	78.72356	0.31371	 	3.37224E39	 	4.60469E-40	 	-18048.02346	23.48132	 
40.0	1.0	0.0	8.66552	6.95366	-12.52146	11.28077	10.87056	0.70578	1.41688	207.07462	185.12668	78.82108	0.31357	 	1.67644E40	 	9.11699E-41	 	-18165.25428	23.44616	 
35.0	1.0	0.0	8.66699	6.95248	-12.53632	11.25652	10.78895	0.69976	1.42906	207.30896	185.20186	78.9184	0.31344	 	8.779279999999999E40	 	1.71313E-41	 	-18282.31623	23.41239	 
30.0	1.0	0.0	8.66846	6.9513	-12.55112	11.23224	10.70658	0.6937	1.44154	207.54275	185.27651	79.01553	0.3133	 	4.85568E41	 	3.04715E-42	 	-18399.21755	23.38026	 
25.0	1.0	0.0	8.66992	6.95013	-12.56585	 	10.62339	0.6876	1.45433	207.77599	185.35062	79.11246	0.31317	 	2.8441599999999995E42	 	5.11643E-43	 	-18515.96814	 	 
