T (C)	Fraction solid (wt)-TOTAL	Fraction liquid (wt)-LIQUID	Density (g/(cm)^3)-TOTAL	Molar volume (cm^3)-TOTAL	Volume change (%)-  	Average expansion coeff. (10e-6 1/K)-  	Thermal conductivity (W/(m*K))-TOTAL	Electrical resistivity (10e-6 Ohm*m)-TOTAL	Electrical conductivity (10e6 1/(Ohm*m))-TOTAL	Young's modulus (GPa)-TOTAL	Bulk modulus (GPa)-TOTAL	Shear modulus(GPa)-TOTAL	Poisson's ratio-TOTAL	Liquid viscosity (mPa s)-  	Total viscosity (mPa s)-  	Liquid diffusivity (10e-9 (m^2)/s)-  	Total diffusivity (10e-9 (m^2)/s)-  	Surface Tension (mN/m)-  	Enthalpy (J/mole)-TOTAL	Specific heat (J/(mole K))-TOTAL	Latent heat (J/mole)-TOTAL
1400.0	0.0	1.0	7.05965	7.8889	0.0	33.41538	30.5879	1.34014	0.74619	0.0	121.02377	0.0	0.5	6.44289	6.44289	1.26748	1.26748	1752.72286	39031.688	 	0.0
1395.0	0.0	1.0	7.06368	7.8844	-0.0570548	33.37938	30.50647	1.33971	0.74643	0.0	121.15913	0.0	0.5	6.51182	6.51182	1.25031	1.25031	1755.07976	38828.48	40.6416	0.0
1390.0	0.0	1.0	7.0677	7.87991	-0.11395	33.34356	30.42505	1.33926	0.74668	0.0	121.29449	0.0	0.5	6.58191	6.58191	1.23329	1.23329	1757.45025	38625.74	40.548	0.0
1385.0	0.0	1.0	7.07172	7.87544	-0.17068	33.30794	30.34363	1.33882	0.74693	0.0	121.42985	0.0	0.5	6.65318	6.65318	1.21641	1.21641	1759.8342	38423.467	40.4546	0.0
1380.0	0.0	1.0	7.07573	7.87098	-0.22725	33.2725	30.2622	1.33837	0.74717	0.0	121.56521	0.0	0.5	6.72566	6.72566	1.19968	1.19968	1762.23144	38221.657	40.362	0.0
1375.0	0.0	1.0	7.07973	7.86653	-0.28365	33.23726	30.18078	1.33793	0.74743	0.0	121.70057	0.0	0.5	6.79937	6.79937	1.18308	1.18308	1764.64178	38020.306	40.2702	0.0
1370.0	0.0	1.0	7.08372	7.86209	-0.3399	33.20222	30.09936	1.33748	0.74768	0.0	121.83593	0.0	0.5	6.87435	6.87435	1.16663	1.16663	1767.06504	37819.413	40.1786	0.0
1365.0	0.0	1.0	7.08771	7.85766	-0.39598	33.16737	30.01793	1.33702	0.74793	0.0	121.9713	0.0	0.5	6.95062	6.95062	1.15031	1.15031	1769.50101	37618.975	40.0876	0.0
1360.0	0.0	1.0	7.09169	7.85325	-0.4519	33.13272	29.93651	1.33657	0.74819	0.0	122.10666	0.0	0.5	7.02822	7.02822	1.13414	1.13414	1771.94945	37418.989	39.9972	0.0
1355.0	0.0	1.0	7.09567	7.84885	-0.50766	33.09827	29.85509	1.33611	0.74844	0.0	122.24202	0.0	0.5	7.10716	7.10716	1.11811	1.11811	1774.41011	37219.452	39.9074	0.0
1350.0	0.0	1.0	7.09964	7.84447	-0.56325	33.06402	29.77367	1.33565	0.7487	0.0	122.37738	0.0	0.5	7.18748	7.18748	1.10222	1.10222	1776.88276	37020.361	39.8182	0.0
1345.0	0.0	1.0	7.1036	7.8401	-0.61869	33.02999	29.69224	1.33519	0.74896	0.0	122.51274	0.0	0.5	7.26922	7.26922	1.08647	1.08647	1779.36709	36821.715	39.7292	0.0
1343.58	0.0	1.0	7.10472	7.83886	-0.63438	33.02037	29.66915	1.33505	0.74903	0.0	122.55113	0.0	0.5	7.29266	7.29266	1.08203	1.08203	1780.07371	36765.466	39.6698	0.0
1340.0	0.14886	0.85114	7.15147	7.78759	-1.28428	31.23584	30.05147	1.31515	0.76037	0.0414384	123.18366	0.0139841	0.48162	7.36464	19.56153	1.06908	0.40249	1779.26121	34633.162	595.27145	1990.343
1335.0	0.31897	0.68103	7.20572	7.729	-2.02698	29.20474	30.49687	1.29193	0.77404	0.90375	123.99278	0.30945	0.46025	7.46788	246.93259	1.05103	0.0317859	1778.19918	32186.798	489.2728	4238.941
1330.0	0.45023	0.54977	7.24835	7.68344	-2.60443	27.63837	30.84488	1.27338	0.78531	3.68545	124.71911	1.2766	0.44346	7.57415	1001.10241	1.03306	0.00781596	1777.22342	30280.147	381.3302	5948.261
1325.0	0.55285	0.44715	7.28229	7.64758	-3.05907	26.41825	31.11747	1.25829	0.79473	8.56429	125.38508	2.99421	0.43014	7.68367	2388.84501	1.01516	0.00326525	1776.33969	28769.66	302.0974	7261.851
1320.0	0.63397	0.36603	7.30961	7.61888	-3.42281	25.45493	31.32898	1.24588	0.80264	15.08009	126.00383	5.31189	0.41946	7.79653	4359.3377	0.99734	0.0017837	1775.55282	27553.644	243.2032	8281.4
1315.0	0.69874	0.30126	7.33187	7.59555	-3.71858	24.68398	31.49059	1.2356	0.80933	22.5939	126.58468	8.00732	0.41083	7.91286	6803.27563	0.97959	0.00113936	1774.86572	26559.045	198.9198	9079.96
1310.0	0.75085	0.24915	7.35017	7.57643	-3.96098	24.06455	31.61108	1.22701	0.81499	30.52115	127.13613	10.87095	0.40379	8.03273	9607.16945	0.96193	8.04291E-4	1774.27935	25732.705	165.268	9710.688
1305.0	0.7931	0.2069	7.36539	7.56052	-4.16259	23.56116	31.69788	1.21979	0.81982	38.42975	127.66344	13.74437	0.39802	8.15629	12680.05123	0.94437	6.07455E-4	1773.79412	25035.486	139.4438	10212.718
1300.0	0.8276	0.1724	7.37817	7.54713	-4.33229	23.14876	31.75688	1.21366	0.82395	46.02403	128.17005	16.5169	0.39324	8.28357	15953.86925	0.92691	4.81272E-4	1773.40927	24438.265	119.4442	10615.171
1295.0	0.85593	0.14407	7.38901	7.53574	-4.47674	22.80849	31.7931	1.20843	0.82752	53.13427	128.65978	19.12321	0.38926	8.41469	19386.16418	0.90957	3.94805E-4	1773.12306	23919.148	103.8234	10939.939
1290.0	0.87935	0.12065	7.3983	7.52593	-4.60108	22.52583	31.81053	1.20391	0.83062	59.67826	129.13509	21.53015	0.38592	8.54971	22953.90628	0.89235	3.32377E-4	1772.93304	23461.526	91.5244	11203.626
1285.0	0.89882	0.10118	7.40636	7.51737	-4.70961	22.28853	31.81252	1.19999	0.83334	65.6304	129.59799	23.7258	0.3831	8.68883	26647.83593	0.87526	2.85387E-4	1772.83678	23052.69	81.7672	11418.942
1280.0	0.91507	0.0849297	7.4134	7.50982	-4.80523	22.08837	31.80172	1.19654	0.83574	71.00558	130.05036	25.71359	0.3807	8.83201	30471.23749	0.8583	2.48777E-4	1772.83072	22682.835	73.971	11595.687
1275.0	0.92872	0.0712763	7.41963	7.50311	-4.89037	21.91839	31.7803	1.1935	0.83787	75.83536	130.4935	27.50358	0.37865	8.9794	34433.30067	0.8415	2.19443E-4	1772.91137	22344.341	67.6988	11741.481
1270.0	0.94025	0.0597537	7.42519	7.49705	-4.96712	21.77258	31.75001	1.19078	0.83979	80.1668	130.9283	29.11196	0.37687	9.13103	38550.68176	0.82485	1.95372E-4	1773.07532	22031.242	62.6198	11862.285
1265.0	0.95002	0.0499835	7.43019	7.49154	-5.03694	21.64682	31.71233	1.18833	0.84152	84.04845	131.35584	30.55577	0.37533	9.28698	42843.60836	0.80837	1.75226E-4	1773.31859	21738.838	58.4808	11962.799
1260.0	0.95834	0.0416597	7.43475	7.48649	-5.10106	21.53754	31.66843	1.18611	0.84309	87.52976	131.77684	31.85265	0.37398	9.44735	47335.68261	0.79207	1.58082E-4	1773.63738	21463.4	55.0876	12046.749
1255.0	0.96546	0.0345376	7.43892	7.4818	-5.16048	21.44186	31.61928	1.18408	0.84454	90.65734	132.19191	33.01937	0.37279	9.61223	52053.02711	0.77594	1.43287E-4	1774.02807	21201.953	52.2894	12117.106
1250.0	0.97158	0.0284176	7.44278	7.47742	-5.21601	21.35745	31.5657	1.18221	0.84588	93.47458	132.60164	34.07166	0.37173	9.78161	57024.70714	0.76001	1.30367E-4	1774.48683	20952.112	49.9682	12176.256
1245.0	0.97686	0.0231359	7.44638	7.47329	-5.2683	21.28243	31.50836	1.18047	0.84712	96.02016	133.00642	35.02361	0.37079	9.95567	62281.43001	0.74427	1.18971E-4	1775.01011	20711.95	48.0324	12226.121
1240.0	0.98144	0.0185603	7.44975	7.46938	-5.31784	21.21536	31.44778	1.17885	0.84829	98.32845	133.40662	35.88777	0.36994	10.13439	67856.21981	0.72874	1.08838E-4	1775.59431	20479.905	46.409	12268.26
1235.0	0.98542	0.0145803	7.45294	7.46565	-5.36512	21.15484	31.38446	1.17732	0.84938	100.43019	133.8026	36.67543	0.36918	10.31793	73784.70217	0.71341	9.97619E-5	1776.23638	20254.705	45.04	12303.946
1230.0	0.98889	0.0111052	7.45596	7.46208	-5.41043	21.09999	31.31876	1.17588	0.85043	102.3507	134.19461	37.39588	0.36848	10.50631	80104.1832	0.69829	9.1587E-5	1776.93262	20035.307	43.8796	12334.217
1229.57	0.98916	0.0108395	7.45621	7.46178	-5.41419	21.09561	31.31303	1.17576	0.85051	102.5032	134.22777	37.45312	0.36842	10.52254	80658.92023	0.69702	9.09314E-5	1776.99312	20016.967	 	12336.479
1225.0	0.9917	0.00830227	7.45642	7.45638	-5.48266	20.95962	31.01582	1.18342	0.84501	104.85385	135.11934	38.34233	0.36734	10.72222	86788.28752	0.68196	8.42521E-5	1778.89576	19624.18835	82.22373	12361.641
1220.0	0.99416	0.00584063	7.46439	7.44963	-5.56828	20.77557	30.65665	1.19329	0.83802	107.54797	136.07992	39.36862	0.36591	10.946	95451.71484	0.66579	7.63495E-5	1780.97492	19211.65871	82.50593	12385.437
1215.0	0.99634	0.0036611	7.47174	7.44299	-5.65239	20.59479	30.31733	1.2026	0.83153	110.07688	136.9958	40.33359	0.36458	11.17554	104865.949	0.64993	6.92626E-5	1783.05446	18811.69386	79.99297	12405.865
1210.0	0.99827	0.00172608	7.47854	7.43649	-5.73475	20.41807	29.99608	1.2114	0.82549	112.45561	137.87103	41.24264	0.36334	11.41112	115102.525	0.63437	6.28908E-5	1785.13449	18423.26027	77.68672	12423.437
1205.0	1.0	0.0	7.48483	7.43014	-5.81526	20.2458	29.69133	1.21971	0.81987	114.69952	138.70906	42.10139	0.36218	 	126241.9653	 	5.71481E-5	 	18045.44867	75.56232	12438.575
1200.0	1.0	0.0	7.48998	7.42503	-5.88004	20.12287	29.39821	1.2277	0.81453	116.02888	139.47203	42.61545	0.36135	 	137337.2909	 	5.23534E-5	 	17671.70958	74.74782	 
1195.0	1.0	0.0	7.49501	7.42005	-5.94326	20.00391	29.11768	1.23532	0.80951	117.3124	140.20424	43.11225	0.36055	 	149492.8884	 	4.79332E-5	 	17330.43243	68.25543	 
1190.0	1.0	0.0	7.49994	7.41517	-6.00501	19.88872	28.84898	1.24258	0.80478	118.55301	140.90829	43.59287	0.35978	 	162818.259	 	4.38604E-5	 	16995.9493	66.89663	 
1185.0	1.0	0.0	7.50476	7.41041	-6.06538	19.77706	28.59138	1.24949	0.80033	119.75335	141.58639	44.05827	0.35903	 	177435.023	 	4.01097E-5	 	16667.90167	65.60953	 
1180.0	1.0	0.0	7.50948	7.40575	-6.12444	19.66875	28.34422	1.25606	0.79614	120.91582	142.2405	44.50933	0.35832	 	193478.3472	 	3.66577E-5	 	16345.95608	64.38912	 
1175.0	1.0	0.0	7.51411	7.40119	-6.18225	19.56361	28.10687	1.26231	0.7922	122.04257	142.87231	44.94685	0.35763	 	211098.5486	 	3.34823E-5	 	16029.80254	63.23071	 
1170.0	1.0	0.0	7.51865	7.39672	-6.23888	19.46145	27.87875	1.26825	0.78849	123.13557	143.48334	45.37156	0.35697	 	230462.9105	 	3.05631E-5	 	15719.15056	62.1304	 
1165.0	1.0	0.0	7.5231	7.39234	-6.29439	19.36212	27.65932	1.27388	0.785	124.19663	144.07493	45.78412	0.35633	 	251757.6855	 	2.7881E-5	 	15413.73238	61.08364	 
1160.0	1.0	0.0	7.52747	7.38805	-6.34884	19.26547	27.44807	1.27922	0.78173	125.2274	144.64826	46.18516	0.35571	 	275190.4188	 	2.54182E-5	 	15113.29602	60.08727	 
1155.0	1.0	0.0	7.53177	7.38383	-6.40227	19.17136	27.24452	1.28428	0.77864	126.22942	145.20444	46.57524	0.35511	 	300992.503	 	2.31582E-5	 	14817.60686	59.13783	 
1150.0	1.0	0.0	7.536	7.37969	-6.45474	19.07967	27.04824	1.28907	0.77575	127.20411	145.74444	46.95489	0.35454	 	329422.0984	 	2.10855E-5	 	14526.44574	58.23222	 
1145.0	1.0	0.0	7.54015	7.37563	-6.50629	18.99027	26.85882	1.2936	0.77303	128.15279	146.26916	47.32461	0.35398	 	360767.4103	 	1.91859E-5	 	14239.60773	57.3676	 
1140.0	1.0	0.0	7.54424	7.37163	-6.55697	18.90305	26.67585	1.29788	0.77048	129.07669	146.77942	47.68486	0.35343	 	395350.3961	 	1.74459E-5	 	13956.90107	56.54133	 
1135.0	1.0	0.0	7.54827	7.3677	-6.60681	18.81791	26.499	1.30192	0.76809	129.97697	147.27597	48.03608	0.35291	 	433530.9569	 	1.58531E-5	 	13678.14612	55.75099	 
1130.0	1.0	0.0	7.55223	7.36383	-6.65584	18.73475	26.32791	1.30573	0.76585	130.85472	147.75951	48.37866	0.3524	 	475711.6704	 	1.43962E-5	 	13403.17448	54.99433	 
1125.0	1.0	0.0	7.55614	7.36002	-6.70411	18.65347	26.16229	1.30932	0.76376	131.71094	148.2307	48.71299	0.35191	 	522343.1547	 	1.30643E-5	 	13131.82807	54.26928	 
1120.0	1.0	0.0	7.55999	7.35627	-6.75165	18.57399	26.00182	1.31268	0.7618	132.54661	148.69013	49.03944	0.35143	 	573930.1332	 	1.18475E-5	 	12863.95833	53.57395	 
1115.0	1.0	0.0	7.56379	7.35258	-6.79848	18.49623	25.84623	1.31585	0.75997	133.36261	149.13838	49.35834	0.35096	 	631038.3206	 	1.07366E-5	 	12599.42528	52.90661	 
1110.0	1.0	0.0	7.56754	7.34894	-6.84464	18.42011	25.69528	1.31881	0.75826	134.15982	149.57597	49.67002	0.35051	 	694302.2043	 	9.72316E-6	 	12338.09785	52.26549	 
1105.0	1.0	0.0	7.57124	7.34535	-6.89015	18.34557	25.5487	1.32158	0.75667	134.93904	150.00339	49.97479	0.35007	 	764433.9203	 	8.7992E-6	 	12079.85161	51.64925	 
1100.0	1.0	0.0	7.57489	7.3418	-6.93504	18.27253	25.40629	1.32417	0.75519	135.70105	150.42112	50.27293	0.34964	 	842233.2854	 	7.95742E-6	 	11824.56932	51.05646	 
1095.0	1.0	0.0	7.57849	7.33831	-6.97933	18.20093	25.26781	1.32658	0.75382	136.44657	150.8296	50.56473	0.34923	 	928599.2348	 	7.19105E-6	 	11572.14011	50.48584	 
1090.0	1.0	0.0	7.58206	7.33486	-7.02304	18.13071	25.13307	1.32881	0.75255	137.1763	151.22924	50.85045	0.34882	 	1024542.813	 	6.49382E-6	 	11322.45894	49.93624	 
1085.0	1.0	0.0	7.58558	7.33146	-7.06619	18.06182	25.00188	1.33089	0.75138	137.8909	151.62044	51.13034	0.34843	 	1131201.963	 	5.85996E-6	 	11075.42619	49.40655	 
1080.0	1.0	0.0	7.58906	7.3281	-7.10881	17.9942	24.87406	1.3328	0.7503	138.59101	152.00357	51.40465	0.34804	 	1249858.392	 	5.28411E-6	 	10830.94721	48.8958	 
1075.0	1.0	0.0	7.5925	7.32477	-7.15092	17.9278	24.74944	1.33456	0.74931	139.27724	152.37898	51.67359	0.34766	 	1381956.763	 	4.76135E-6	 	10588.93197	48.40305	 
1070.0	1.0	0.0	7.5959	7.32149	-7.19252	17.86257	24.62787	1.33618	0.7484	139.95015	152.74703	51.9374	0.3473	 	1529126.657	 	4.28714E-6	 	10349.29467	47.92746	 
1065.0	1.0	0.0	7.59927	7.31825	-7.23365	17.79846	24.50918	1.33765	0.74758	140.6103	153.10801	52.19629	0.34694	 	1693207.572	 	3.85728E-6	 	10111.95346	47.46824	 
1060.0	1.0	0.0	7.6026	7.31504	-7.27431	17.73544	24.39324	1.33898	0.74683	141.25822	153.46225	52.45044	0.34659	 	1876277.568	 	3.46792E-6	 	9876.83013	47.02467	 
1055.0	1.0	0.0	7.6059	7.31187	-7.31452	17.67346	24.27992	1.34019	0.74616	141.89441	153.81003	52.70007	0.34624	 	2080685.993	 	3.1155E-6	 	9643.84984	46.59606	 
1050.0	1.0	0.0	7.60917	7.30873	-7.3543	17.61249	24.16908	1.34127	0.74556	142.51937	154.15163	52.94536	0.34591	 	2309090.967	 	2.79676E-6	 	9412.94091	46.18179	 
1045.0	1.0	0.0	7.6124	7.30562	-7.39366	17.55247	24.06061	1.34222	0.74503	143.13354	154.48731	53.18647	0.34558	 	2564502.351	 	2.5087E-6	 	9184.03436	45.78131	 
1040.0	1.0	0.0	7.6156	7.30255	-7.43261	17.49338	23.95438	1.34306	0.74457	143.73739	154.81732	53.42359	0.34526	 	2850330.916	 	2.24857E-6	 	8957.06472	45.39393	 
1035.0	1.0	0.0	7.61878	7.29951	-7.47117	17.43517	23.8503	1.34379	0.74417	144.33133	155.14191	53.65688	0.34495	 	3170444.971	 	2.01384E-6	 	8731.96831	45.01928	 
1030.0	1.0	0.0	7.62192	7.2965	-7.50935	17.37783	23.74825	1.3444	0.74383	144.91577	155.46131	53.8865	0.34464	 	3529235.274	 	1.80219E-6	 	8508.68418	44.65683	 
1025.0	1.0	0.0	7.62504	7.29351	-7.54716	17.3213	23.64814	1.34491	0.74354	145.49111	155.77574	54.11259	0.34434	 	3931689.733	 	1.61151E-6	 	8287.15375	44.30609	 
1020.0	1.0	0.0	7.62813	7.29056	-7.58462	17.26557	23.54987	1.34532	0.74332	146.05772	156.0854	54.3353	0.34404	 	4383479.251	 	1.43985E-6	 	8067.32068	43.96661	 
1015.0	1.0	0.0	7.6312	7.28763	-7.62173	17.2106	23.45337	1.34564	0.74314	146.61597	156.39049	54.55477	0.34375	 	4891056.913	 	1.28544E-6	 	7849.13035	43.63807	 
1010.0	1.0	0.0	7.63423	7.28473	-7.6585	17.15635	23.35853	1.34585	0.74302	147.1662	156.69121	54.77114	0.34346	 	5461771.995	 	1.14665E-6	 	7632.53032	43.32	 
1005.0	1.0	0.0	7.63725	7.28186	-7.69495	17.10282	23.26529	1.34598	0.74295	147.70874	156.98774	54.98454	0.34318	 	6104001.753	 	1.02201E-6	 	7417.47006	43.01205	 
1000.0	1.0	0.0	7.64024	7.27901	-7.73109	17.04995	23.17357	1.34602	0.74293	148.24392	157.28025	55.19507	0.34291	 	6827303.612	 	9.10159E-7	 	7203.90083	42.71385	 
995.0	1.0	0.0	7.64321	7.27618	-7.76692	16.99774	23.08329	1.34598	0.74295	148.77203	157.56891	55.40287	0.34264	 	7642591.15	 	8.09873E-7	 	6991.77566	42.42503	 
990.0	1.0	0.0	7.64615	7.27338	-7.80245	16.94615	22.99439	1.34586	0.74302	149.29336	157.85387	55.60805	0.34237	 	8562337.648	 	7.20028E-7	 	6781.04927	42.14528	 
985.0	1.0	0.0	7.64908	7.27059	-7.8377	16.89515	22.9068	1.34566	0.74313	149.80821	158.13529	55.81072	0.34211	 	9600812.097	 	6.39604E-7	 	6571.67801	41.87425	 
980.0	1.0	0.0	7.65198	7.26784	-7.87267	16.84473	22.82047	1.34538	0.74329	150.31683	158.41332	56.01097	0.34185	 	1.077435271E7	 	5.67673E-7	 	6363.61978	41.61164	 
975.0	1.0	0.0	7.65486	7.2651	-7.90737	16.79487	22.73533	1.34503	0.74348	150.81949	158.68808	56.20892	0.3416	 	1.210168447E7	 	5.03394E-7	 	6156.83404	41.35715	 
970.0	1.0	0.0	7.65773	7.26238	-7.9418	16.74553	22.65132	1.34461	0.74371	151.31642	158.95971	56.40464	0.34135	 	1.360428804E7	 	4.46E-7	 	5951.28169	41.11047	 
965.0	1.0	0.0	7.66057	7.25969	-7.97598	16.69669	22.56841	1.34412	0.74398	151.80786	159.22833	56.59824	0.3411	 	1.530682899E7	 	3.94798E-7	 	5746.92485	40.87137	 
960.0	1.0	0.0	7.6634	7.25701	-8.00991	16.64834	22.48652	1.34357	0.74429	152.29404	159.49406	56.78981	0.34086	 	1.723765697E7	 	3.4916E-7	 	5543.72775	40.63942	 
955.0	1.0	0.0	7.6662	7.25435	-8.0436	16.60046	22.40563	1.34295	0.74463	152.77517	159.75702	56.97942	0.34062	 	1.942938856E7	 	3.08517E-7	 	5341.65523	40.4145	 
950.0	1.0	0.0	7.66899	7.25171	-8.07705	16.55302	22.32568	1.34227	0.745	153.25145	160.0173	57.16715	0.34038	 	2.19195862E7	 	2.72354E-7	 	5140.67369	40.19631	 
945.0	1.0	0.0	7.67177	7.24909	-8.11028	16.50601	22.24664	1.34154	0.74541	153.72308	160.27503	57.35308	0.34015	 	2.475155165E7	 	2.40207E-7	 	4940.75076	39.98458	 
940.0	1.0	0.0	7.67452	7.24649	-8.14328	16.4594	22.16845	1.34074	0.74586	154.19024	160.53028	57.53729	0.33992	 	2.79752536E7	 	2.11654E-7	 	4741.85535	39.77908	 
935.0	1.0	0.0	7.67726	7.2439	-8.17607	16.41318	22.09109	1.33989	0.74633	154.65312	160.78315	57.71984	0.33969	 	3.164841328E7	 	1.86318E-7	 	4543.95751	39.57957	 
930.0	1.0	0.0	7.67999	7.24133	-8.20864	16.36734	22.01452	1.33899	0.74683	155.11188	161.03373	57.9008	0.33946	 	3.583777671E7	 	1.63857E-7	 	4347.02846	39.38581	 
925.0	1.0	0.0	7.6827	7.23878	-8.24101	16.32185	21.9387	1.33803	0.74737	155.56668	161.28211	58.08023	0.33924	 	4.062060693E7	 	1.43963E-7	 	4151.04054	39.19758	 
920.0	1.0	0.0	7.68539	7.23624	-8.27319	16.2767	21.8636	1.33703	0.74793	156.01768	161.52836	58.25819	0.33902	 	4.608643616E7	 	1.2636E-7	 	3955.96713	39.01468	 
915.0	1.0	0.0	7.68807	7.23372	-8.30516	16.23188	21.78919	1.33597	0.74852	156.46503	161.77256	58.43474	0.3388	 	5.233912618E7	 	1.10798E-7	 	3761.78269	38.83689	 
910.0	1.0	0.0	7.69074	7.23121	-8.33695	16.18736	21.71544	1.33486	0.74914	156.90886	162.01477	58.60994	0.33859	 	5.949929338E7	 	9.70543E-8	 	3568.46264	38.66401	 
905.0	1.0	0.0	7.69339	7.22872	-8.36855	16.14314	21.64233	1.33371	0.74979	157.34931	162.25508	58.78383	0.33837	 	6.770716569E7	 	8.49283E-8	 	3375.98337	38.49585	 
900.0	1.0	0.0	7.69603	7.22624	-8.39996	16.0992	21.56982	1.33252	0.75046	157.78651	162.49353	58.95646	0.33816	 	7.712595443E7	 	7.42403E-8	 	3184.32223	38.33223	 
895.0	1.0	0.0	7.69866	7.22377	-8.43121	16.05552	21.4979	1.33128	0.75116	158.22057	162.7302	59.12789	0.33795	 	8.794583521E7	 	6.48291E-8	 	2993.45743	38.17296	 
890.0	1.0	0.0	7.70127	7.22132	-8.46227	16.0121	21.42654	1.32999	0.75188	158.65162	162.96515	59.29816	0.33774	 	1.003886577E8	 	5.65507E-8	 	2803.36804	38.01788	 
885.0	1.0	0.0	7.70387	7.21888	-8.49317	15.96892	21.35572	1.32867	0.75263	159.07976	163.19842	59.46731	0.33754	 	1.147135206E8	 	4.92762E-8	 	2614.03399	37.86681	 
880.0	1.0	0.0	7.70646	7.21646	-8.52391	15.92597	21.28541	1.3273	0.75341	159.50509	163.43007	59.63538	0.33734	 	1.312233785E8	 	4.28905E-8	 	2425.43558	37.71968	 
875.0	1.0	0.0	7.70903	7.21405	-8.55448	15.88324	21.21561	1.3259	0.75421	159.92772	163.66015	59.80242	0.33713	 	1.502728981E8	 	3.72911E-8	 	2237.55415	37.57629	 
870.0	1.0	0.0	7.7116	7.21165	-8.58489	15.84071	21.14628	1.32445	0.75503	160.34775	163.88871	59.96845	0.33693	 	1.722777665E8	 	3.23863E-8	 	2050.3724	37.43635	 
865.0	1.0	0.0	7.71415	7.20926	-8.61515	15.79838	21.0774	1.32297	0.75588	160.76526	164.11579	60.13351	0.33674	 	1.977257938E8	 	2.80946E-8	 	1863.87375	37.29973	 
860.0	1.0	0.0	7.71669	7.20689	-8.64526	15.75623	21.00898	1.32144	0.75675	161.18034	164.34144	60.29765	0.33654	 	2.271901355E8	 	2.43436E-8	 	1678.04157	37.16644	 
855.0	1.0	0.0	7.71923	7.20452	-8.67522	15.71425	20.94098	1.31988	0.75764	161.59307	164.56571	60.46089	0.33634	 	2.61345061E8	 	2.10688E-8	 	1492.86009	37.0363	 
850.0	1.0	0.0	7.72175	7.20217	-8.70503	15.67244	20.87339	1.31829	0.75856	162.00354	164.78861	60.62325	0.33615	 	3.009847962E8	 	1.82129E-8	 	1308.31422	36.90917	 
845.0	1.0	0.0	7.72392	7.20015	-8.73067	15.6494	20.81367	1.31619	0.75977	162.36239	165.00953	60.76405	0.33601	 	3.425744946E8	 	1.59306E-8	 	1147.69688	32.12347	 
840.0	1.0	0.0	7.72608	7.19813	-8.75625	15.62635	20.75395	1.31407	0.76099	162.7207	165.22955	60.90467	0.33586	 	3.903646301E8	 	1.39178E-8	 	984.02198	32.73498	 
835.0	1.0	0.0	7.72824	7.19612	-8.78178	15.60329	20.69422	1.31194	0.76223	163.07847	165.44865	61.04511	0.33572	 	4.453461459E8	 	1.21447E-8	 	820.569	32.6906	 
830.0	1.0	0.0	7.7304	7.19411	-8.80724	15.58021	20.63449	1.30981	0.76347	163.43568	165.66686	61.18538	0.33558	 	5.086788702E8	 	1.05847E-8	 	657.33725	32.64635	 
825.0	1.0	0.0	7.73256	7.1921	-8.83265	15.55712	20.57474	1.30766	0.76473	163.79235	165.88416	61.32547	0.33544	 	5.817220766E8	 	9.21367E-9	 	494.32607	32.60224	 
820.0	1.0	0.0	7.73471	7.1901	-8.858	15.53402	20.51499	1.30549	0.76599	164.14848	166.10057	61.46538	0.33529	 	6.660708955E8	 	8.01025E-9	 	331.53472	32.55827	 
815.0	1.0	0.0	7.73685	7.18811	-8.8833	15.51091	20.45523	1.30332	0.76727	164.50405	166.31609	61.60512	0.33515	 	7.63599755E8	 	6.9552E-9	 	168.96245	32.51445	 
810.0	1.0	0.0	7.739	7.18612	-8.90853	15.48778	20.39546	1.30113	0.76856	164.85909	166.53072	61.74468	0.33501	 	8.765142868E8	 	6.03137E-9	 	6.6085	32.47079	 
805.0	1.0	0.0	7.74114	7.18413	-8.93371	15.46464	20.33569	1.29893	0.76986	165.21358	166.74446	61.88407	0.33486	 	1.007413431E9	 	5.22346E-9	 	-155.52793	32.42729	 
800.0	1.0	0.0	7.74327	7.18215	-8.95883	15.44149	20.27591	1.29672	0.77118	165.56752	166.95731	62.02328	0.33472	 	1.159363857E9	 	4.5178E-9	 	-317.44768	32.38395	 
795.0	1.0	0.0	7.7454	7.18017	-8.98388	15.41833	20.21612	1.2945	0.7725	165.92092	167.16928	62.16232	0.33458	 	1.335989273E9	 	3.90226E-9	 	-479.15163	32.34079	 
790.0	1.0	0.0	7.74753	7.1782	-9.00889	15.39515	20.15632	1.29226	0.77384	166.27377	167.38037	62.30118	0.33444	 	1.541577764E9	 	3.36601E-9	 	-640.64066	32.29781	 
785.0	1.0	0.0	7.74966	7.17623	-9.03383	15.37196	20.09651	1.29001	0.77519	166.62608	167.59059	62.43986	0.33429	 	1.781210995E9	 	2.89947E-9	 	-801.91572	32.25501	 
780.0	1.0	0.0	7.75178	7.17427	-9.05871	15.34875	20.0367	1.28775	0.77655	166.97785	167.79993	62.57837	0.33415	 	2.060919973E9	 	2.49411E-9	 	-962.97779	32.21241	 
775.0	1.0	0.0	7.75389	7.17231	-9.08354	15.32554	19.97687	1.28547	0.77793	167.32907	168.0084	62.7167	0.33401	 	2.387873119E9	 	2.14239E-9	 	-1123.8279	32.17002	 
770.0	1.0	0.0	7.75601	7.17036	-9.1083	15.30231	19.91704	1.28318	0.77931	167.67976	168.216	62.85486	0.33386	 	2.770603723E9	 	1.83763E-9	 	-1284.46712	32.12784	 
765.0	1.0	0.0	7.75812	7.16841	-9.13301	15.27906	19.8572	1.28088	0.78071	168.02989	168.42273	62.99284	0.33372	 	3.219285445E9	 	1.57394E-9	 	-1444.89656	32.08589	 
760.0	1.0	0.0	7.76022	7.16646	-9.15766	15.25581	19.79735	1.27856	0.78213	168.37949	168.6286	63.13065	0.33358	 	3.746066598E9	 	1.34609E-9	 	-1605.1174	32.04417	 
755.0	1.0	0.0	7.76232	7.16452	-9.18225	15.23254	19.73749	1.27624	0.78355	168.72855	168.83361	63.26828	0.33344	 	4.365476373E9	 	1.14951E-9	 	-1765.13085	32.00269	 
750.0	1.0	0.0	7.76442	7.16259	-9.20678	15.20926	19.67762	1.27389	0.785	169.07706	169.03776	63.40574	0.33329	 	5.094919366E9	 	9.80141E-10	 	-1924.93821	31.96147	 
745.0	1.0	0.0	7.76651	7.16066	-9.23125	15.18597	19.61774	1.27154	0.78645	169.42503	169.24106	63.54302	0.33315	 	5.955278584E9	 	8.34442E-10	 	-2084.54081	31.92052	 
740.0	1.0	0.0	7.7686	7.15873	-9.25567	15.16266	19.55785	1.26917	0.78792	169.77246	169.4435	63.68013	0.33301	 	6.97165202E9	 	7.09291E-10	 	-2243.94007	31.87985	 
735.0	1.0	0.0	7.77069	7.15681	-9.28002	15.13934	19.49795	1.26678	0.7894	170.11935	169.64509	63.81706	0.33287	 	8.174253938E9	 	6.01955E-10	 	-2403.13749	31.83948	 
730.0	1.0	0.0	7.77277	7.15489	-9.30431	15.11601	19.43805	1.26439	0.7909	170.4657	169.84583	63.95381	0.33273	 	9.599519666E9	 	5.10039E-10	 	-2562.1346	31.79942	 
725.0	1.0	0.0	7.77485	7.15298	-9.32855	15.09266	19.37813	1.26197	0.79241	170.81151	170.04573	64.09039	0.33258	 	1.12915E10	 	4.31452E-10	 	-2720.93306	31.75969	 
720.0	1.0	0.0	7.77692	7.15108	-9.35273	15.0693	19.3182	1.25955	0.79394	171.15678	170.24479	64.2268	0.33244	 	1.3303299999999998E10	 	3.64368E-10	 	-2879.53459	31.7203	 
715.0	1.0	0.0	7.77899	7.14917	-9.37684	15.04593	19.25826	1.25711	0.79548	171.50151	170.443	64.36303	0.3323	 	1.5699699999999998E10	 	3.07197E-10	 	-3037.94101	31.68128	 
710.0	1.0	0.0	7.78106	7.14728	-9.4009	15.02255	19.19831	1.25465	0.79703	171.84569	170.64038	64.49908	0.33216	 	1.8559E10	 	2.58554E-10	 	-3196.15423	31.64264	 
705.0	1.0	0.0	7.78312	7.14538	-9.4249	14.99915	19.13835	1.25218	0.79861	172.18934	170.83692	64.63496	0.33201	 	2.19766E10	 	2.17236E-10	 	-3354.17629	31.60441	 
700.0	1.0	0.0	7.78517	7.14349	-9.44884	14.97574	19.07838	1.2497	0.80019	172.53246	171.03263	64.77067	0.33187	 	2.6068799999999996E10	 	1.82199E-10	 	-3512.0093	31.5666	 
695.0	1.0	0.0	7.78723	7.14161	-9.47272	14.95232	19.0184	1.2472	0.8018	172.87503	171.22751	64.9062	0.33173	 	3.0977499999999996E10	 	1.5254E-10	 	-3669.65553	31.52924	 
690.0	1.0	0.0	7.78928	7.13973	-9.49654	14.92889	18.9584	1.24468	0.80342	173.21706	171.42156	65.04156	0.33159	 	3.68766E10	 	1.27477E-10	 	-3827.11735	31.49237	 
685.0	1.0	0.0	7.79132	7.13786	-9.5203	14.90544	18.8984	1.24215	0.80505	173.55856	171.61478	65.17674	0.33145	 	4.39789E10	 	1.06335E-10	 	-3984.3973	31.45599	 
680.0	1.0	0.0	7.79337	7.13599	-9.544	14.88198	18.83838	1.23961	0.80671	173.89951	171.80718	65.31174	0.3313	 	5.254619999999999E10	 	8.85334E-11	 	-4141.49803	31.42015	 
675.0	1.0	0.0	7.7954	7.13412	-9.56765	14.8585	18.77835	1.23705	0.80838	174.23993	171.99876	65.44657	0.33116	 	6.290029999999999E10	 	7.35717E-11	 	-4298.42235	31.38486	 
670.0	1.0	0.0	7.79744	7.13226	-9.59123	14.83502	18.71831	1.23447	0.81006	174.57982	172.18953	65.58123	0.33102	 	7.54385E10	 	6.10203E-11	 	-4455.17328	31.35019	 
665.0	1.0	0.0	7.79947	7.1304	-9.61475	14.81152	18.65826	1.23188	0.81177	174.91916	172.37947	65.71571	0.33088	 	9.06514E10	 	5.05108E-11	 	-4611.75397	31.31614	 
660.0	1.0	0.0	7.80149	7.12855	-9.63821	14.788	18.59819	1.22927	0.81349	175.25797	172.56861	65.85002	0.33074	 	1.09147E11	 	4.1728E-11	 	-4768.15896	31.281	 
655.0	1.0	0.0	7.80351	7.12671	-9.66161	14.76448	18.53811	1.22664	0.81523	175.59624	172.75693	65.98415	0.33059	 	1.31679E11	 	3.44024E-11	 	-4924.3391	31.23603	 
650.0	1.0	0.0	7.80553	7.12487	-9.68496	14.74094	18.47802	1.224	0.81699	175.93397	172.94444	66.11811	0.33045	 	1.59186E11	 	2.83045E-11	 	-5080.22921	31.17802	 
645.0	1.0	0.0	7.80754	7.12303	-9.70824	14.71739	18.41791	1.22135	0.81877	176.27117	173.13115	66.25189	0.33031	 	1.92837E11	 	2.32386E-11	 	-5235.83033	31.12022	 
640.0	1.0	0.0	7.80955	7.1212	-9.73146	14.69383	18.35779	1.21867	0.82056	176.60783	173.31705	66.38549	0.33017	 	2.34092E11	 	1.90389E-11	 	-5391.14353	31.06264	 
635.0	1.0	0.0	7.81155	7.11937	-9.75462	14.67025	18.29766	1.21598	0.82238	176.94396	173.50215	66.51893	0.33003	 	2.84781E11	 	1.55644E-11	 	-5546.16985	31.00526	 
630.0	1.0	0.0	7.81355	7.11755	-9.77773	14.64666	18.23751	1.21328	0.82421	177.27955	173.68646	66.65219	0.32989	 	3.47199E11	 	1.2696E-11	 	-5700.91035	30.9481	 
625.0	1.0	0.0	7.81555	7.11573	-9.80077	14.62306	18.17735	1.21055	0.82607	177.6146	173.86996	66.78527	0.32974	 	4.24233E11	 	1.03331E-11	 	-5855.36657	30.89124	 
620.0	1.0	0.0	7.81754	7.11392	-9.82375	14.59944	18.11717	1.20781	0.82794	177.94912	174.05267	66.91818	0.3296	 	5.19522E11	 	8.39087E-12	 	-6009.54078	30.83484	 
615.0	1.0	0.0	7.81953	7.11211	-9.84667	14.57581	18.05698	1.20506	0.82984	178.2831	174.23459	67.05091	0.32946	 	6.37668E11	 	6.79795E-12	 	-6163.4334	30.77852	 
610.0	1.0	0.0	7.82151	7.11031	-9.86954	14.55217	17.99678	1.20228	0.83175	178.61655	174.41572	67.18347	0.32932	 	7.845E11	 	5.4945E-12	 	-6317.04545	30.72241	 
605.0	1.0	0.0	7.82349	7.10851	-9.89234	14.52852	17.93656	1.19949	0.83369	178.94946	174.59605	67.31586	0.32918	 	9.67423E11	 	4.43036E-12	 	-6470.37795	30.6665	 
600.0	1.0	0.0	7.82547	7.10671	-9.91508	14.50485	17.87632	1.19668	0.83565	179.28184	174.77561	67.44807	0.32904	 	1.19586E12	 	3.56364E-12	 	-6623.43194	30.6108	 
595.0	1.0	0.0	7.82744	7.10492	-9.93776	14.48117	17.81607	1.19385	0.83763	179.61369	174.95438	67.5801	0.32889	 	1.48186E12	 	2.85939E-12	 	-6776.20843	30.5553	 
590.0	1.0	0.0	7.8294	7.10314	-9.96038	14.45748	17.7558	1.191	0.83963	179.945	175.13237	67.71196	0.32875	 	1.84083E12	 	2.28855E-12	 	-6928.70844	30.5	 
585.0	1.0	0.0	7.83137	7.10136	-9.98294	14.43377	17.69551	1.18814	0.84165	180.27577	175.30958	67.84365	0.32861	 	2.29253E12	 	1.82698E-12	 	-7080.93298	30.44491	 
580.0	1.0	0.0	7.83332	7.09958	-10.00543	14.41006	17.63521	1.18525	0.8437	180.60602	175.48601	67.97516	0.32847	 	2.86243E12	 	1.45471E-12	 	-7232.88309	30.39002	 
575.0	1.0	0.0	7.83528	7.09781	-10.02787	14.38632	17.57489	1.18235	0.84577	180.93572	175.66167	68.1065	0.32833	 	3.58337E12	 	1.15523E-12	 	-7384.55976	30.33533	 
570.0	1.0	0.0	7.83723	7.09605	-10.05025	14.36258	17.51456	1.17943	0.84787	181.2649	175.83655	68.23766	0.32819	 	4.49786E12	 	9.14925E-13	 	-7535.96401	30.28085	 
565.0	1.0	0.0	7.83917	7.09429	-10.07257	14.33882	17.4542	1.17649	0.84999	181.59354	176.01067	68.36865	0.32805	 	5.66106E12	 	7.22622E-13	 	-7687.09685	30.22657	 
560.0	1.0	0.0	7.84111	7.09253	-10.09482	14.31505	17.39383	1.17353	0.85213	181.92165	176.18401	68.49946	0.32791	 	7.14476E12	 	5.69144E-13	 	-7837.95929	30.17249	 
555.0	1.0	0.0	7.84305	7.09078	-10.11702	14.29127	17.33344	1.17055	0.8543	182.24923	176.3566	68.6301	0.32776	 	9.04272E12	 	4.46989E-13	 	-7988.55233	30.11861	 
550.0	1.0	0.0	7.84498	7.08904	-10.13915	14.26748	17.27303	1.16755	0.85649	182.57627	176.52841	68.76057	0.32762	 	1.14777E13	 	3.50036E-13	 	-8138.87698	30.06493	 
545.0	1.0	0.0	7.84691	7.08729	-10.16122	14.24367	17.2126	1.16454	0.85871	182.90278	176.69947	68.89086	0.32748	 	1.46108E13	 	2.73305E-13	 	-8288.93423	30.01145	 
540.0	1.0	0.0	7.84883	7.08556	-10.18324	14.21985	17.15215	1.1615	0.86096	183.22876	176.86977	69.02097	0.32734	 	1.86544E13	 	2.12753E-13	 	-8438.72508	29.95817	 
535.0	1.0	0.0	7.85075	7.08383	-10.20519	14.19601	17.09168	1.15844	0.86323	183.5542	177.0393	69.15091	0.3272	 	2.38893E13	 	1.65111E-13	 	-8588.25053	29.90509	 
530.0	1.0	0.0	7.85266	7.0821	-10.22708	14.17217	17.03119	1.15536	0.86553	183.87912	177.20809	69.28068	0.32706	 	3.06876E13	 	1.27738E-13	 	-8737.51157	29.85221	 
525.0	1.0	0.0	7.85457	7.08038	-10.2489	14.14831	16.97069	1.15226	0.86786	184.2035	177.37612	69.41027	0.32692	 	3.95444E13	 	9.85114E-14	 	-8886.50919	29.79952	 
520.0	1.0	0.0	7.85648	7.07866	-10.27067	14.12443	16.91016	1.14914	0.87021	184.52735	177.5434	69.53969	0.32678	 	5.11205E13	 	7.57264E-14	 	-9035.24437	29.74704	 
515.0	1.0	0.0	7.85838	7.07695	-10.29238	14.10055	16.8496	1.146	0.8726	184.85067	177.70993	69.66893	0.32664	 	6.6301E13	 	5.80197E-14	 	-9183.71811	29.69475	 
510.0	1.0	0.0	7.86028	7.07524	-10.31402	14.07665	16.78903	1.14284	0.87501	185.17346	177.87571	69.798	0.3265	 	8.62754E13	 	4.43042E-14	 	-9331.93137	29.64265	 
505.0	1.0	0.0	7.86217	7.07354	-10.3356	14.05274	16.72844	1.13966	0.87746	185.49571	178.04075	69.92689	0.32635	 	1.12648E14	 	3.37152E-14	 	-9479.88513	29.59075	 
500.0	1.0	0.0	7.86406	7.07184	-10.35713	14.02882	16.66782	1.13645	0.87993	185.81744	178.20504	70.05561	0.32621	 	1.47591E14	 	2.55677E-14	 	-9627.58038	29.53905	 
495.0	1.0	0.0	7.86594	7.07015	-10.37859	14.00488	16.60718	1.13323	0.88244	186.13863	178.3686	70.18415	0.32607	 	1.94054E14	 	1.93202E-14	 	-9775.01809	29.48754	 
490.0	1.0	0.0	7.86782	7.06846	-10.39999	13.98093	16.54651	1.12998	0.88497	186.4593	178.53141	70.31252	0.32593	 	2.5605999999999997E14	 	1.45464E-14	 	-9922.19921	29.43622	 
485.0	1.0	0.0	7.86969	7.06678	-10.42132	13.95697	16.48582	1.12671	0.88754	186.77943	178.69349	70.44072	0.32579	 	3.39118E14	 	1.09117E-14	 	-10069.12471	29.3851	 
480.0	1.0	0.0	7.87156	7.0651	-10.4426	13.93299	16.42511	1.12341	0.89014	187.09903	178.85484	70.56874	0.32565	 	4.50795E14	 	8.15435E-15	 	-10215.79556	29.33417	 
475.0	1.0	0.0	7.87343	7.06342	-10.46381	13.909	16.36437	1.1201	0.89278	187.4181	179.01545	70.69658	0.32551	 	6.01533E14	 	6.07038E-15	 	-10362.21271	29.28343	 
470.0	1.0	0.0	7.87529	7.06175	-10.48496	13.885	16.30361	1.11676	0.89545	187.73664	179.17533	70.82425	0.32537	 	8.05798E14	 	4.50129E-15	 	-10508.37712	29.23288	 
465.0	1.0	0.0	7.87714	7.06009	-10.50605	13.86099	16.24281	1.1134	0.89815	188.05465	179.33448	70.95175	0.32523	 	1.08371E15	 	3.32444E-15	 	-10654.28973	29.18252	 
460.0	1.0	0.0	7.87899	7.05843	-10.52708	13.83696	16.182	1.11001	0.90089	188.37214	179.49291	71.07907	0.32509	 	1.46337E15	 	2.44526E-15	 	-10799.95148	29.13235	 
455.0	1.0	0.0	7.88084	7.05678	-10.54805	13.81292	16.12115	1.1066	0.90367	188.68909	179.65061	71.20622	0.32495	 	1.98421E15	 	1.7911E-15	 	-10945.36332	29.08237	 
450.0	1.0	0.0	7.88268	7.05513	-10.56895	13.78887	16.06028	1.10317	0.90648	189.00551	179.80758	71.33319	0.32481	 	2.70178E15	 	1.30636E-15	 	-11090.52617	29.03257	 
445.0	1.0	0.0	7.88452	7.05348	-10.5898	13.7648	15.99938	1.09971	0.90933	189.3214	179.96384	71.45999	0.32467	 	3.6947E15	 	9.48686E-16	 	-11235.44099	28.98296	 
440.0	1.0	0.0	7.88635	7.05185	-10.61058	13.74073	15.93845	1.09623	0.91222	189.63676	180.11938	71.58661	0.32453	 	5.07475E15	 	6.85888E-16	 	-11380.10868	28.93354	 
435.0	1.0	0.0	7.88818	7.05021	-10.6313	13.71663	15.87749	1.09272	0.91515	189.9516	180.2742	71.71306	0.32439	 	7.00157E15	 	4.93647E-16	 	-11524.53018	28.8843	 
430.0	1.0	0.0	7.89001	7.04858	-10.65195	13.69253	15.8165	1.08919	0.91811	190.2659	180.4283	71.83933	0.32425	 	9.70431E15	 	3.53647E-16	 	-11668.7064	28.83524	 
425.0	1.0	0.0	7.89182	7.04696	-10.67255	13.66841	15.75548	1.08563	0.92112	190.57968	180.5817	71.96543	0.32411	 	1.35134E16	 	2.52157E-16	 	-11812.6381	28.78634	 
420.0	1.0	0.0	7.89364	7.04534	-10.69308	13.64428	15.69443	1.08205	0.92417	190.89292	180.73438	72.09135	0.32397	 	1.89077E16	 	1.78927E-16	 	-11956.32643	28.73767	 
415.0	1.0	0.0	7.89545	7.04372	-10.71355	13.62014	15.63334	1.07844	0.92726	191.20564	180.88635	72.2171	0.32383	 	2.65848E16	 	1.26339E-16	 	-12099.77173	28.68906	 
410.0	1.0	0.0	7.89725	7.04211	-10.73395	13.59599	15.57223	1.07481	0.9304	191.51783	181.03761	72.34267	0.32369	 	3.75659E16	 	8.87583E-17	 	-12242.97419	28.64049	 
405.0	1.0	0.0	7.89905	7.04051	-10.7543	13.57182	15.51107	1.07115	0.93358	191.82949	181.18817	72.46807	0.32354	 	5.33542E16	 	6.2036E-17	 	-12385.93396	28.59195	 
400.0	1.0	0.0	7.90085	7.03891	-10.77458	13.54764	15.44989	1.06746	0.9368	192.14063	181.33803	72.5933	0.3234	 	7.6174E16	 	4.31312E-17	 	-12528.65119	28.54345	 
395.0	1.0	0.0	7.90264	7.03731	-10.7948	13.52344	15.38867	1.06375	0.94007	192.45123	181.48718	72.71835	0.32326	 	1.09335E17	 	2.98264E-17	 	-12671.12604	28.49497	 
390.0	1.0	0.0	7.90443	7.03572	-10.81496	13.49924	15.32741	1.06001	0.94339	192.76131	181.63564	72.84322	0.32312	 	1.5779E17	 	2.05125E-17	 	-12813.35864	28.44652	 
385.0	1.0	0.0	7.90621	7.03414	-10.83505	13.47502	15.26612	1.05624	0.94676	193.07085	181.78339	72.96792	0.32298	 	2.28992E17	 	1.40279E-17	 	-12955.34914	28.3981	 
380.0	1.0	0.0	7.90798	7.03256	-10.85509	13.45078	15.20479	1.05244	0.95017	193.37987	181.93045	73.09244	0.32284	 	3.34223E17	 	9.53813E-18	 	-13097.09765	28.3497	 
375.0	1.0	0.0	7.90976	7.03098	-10.87506	13.42654	15.14341	1.04862	0.95364	193.68837	182.07681	73.21679	0.3227	 	4.90667E17	 	6.44727E-18	 	-13238.6043	28.30133	 
370.0	1.0	0.0	7.91152	7.02941	-10.89496	13.40228	15.082	1.04477	0.95715	193.99633	182.22249	73.34097	0.32256	 	7.24652E17	 	4.33181E-18	 	-13379.8692	28.25298	 
365.0	1.0	0.0	7.91329	7.02784	-10.91481	13.37801	15.02055	1.04089	0.96072	194.30377	182.36747	73.46497	0.32242	 	1.07678E18	 	2.89257E-18	 	-13520.89246	28.20465	 
360.0	1.0	0.0	7.91504	7.02628	-10.93459	13.35373	14.95906	1.03698	0.96434	194.61068	182.51176	73.58879	0.32228	 	1.61005E18	 	1.91935E-18	 	-13661.67416	28.15634	 
355.0	1.0	0.0	7.9168	7.02473	-10.9543	13.32943	14.89753	1.03304	0.96802	194.91706	182.65537	73.71244	0.32214	 	2.42289E18	 	1.26537E-18	 	-13802.21441	28.10805	 
350.0	1.0	0.0	7.91854	7.02318	-10.97396	13.30512	14.83595	1.02907	0.97175	195.22292	182.79829	73.83591	0.32201	 	3.67009E18	 	8.2871E-19	 	-13942.51326	28.05977	 
345.0	1.0	0.0	7.92029	7.02163	-10.99355	13.2808	14.77433	1.02507	0.97555	195.52824	182.94052	73.95921	0.32187	 	5.59677E18	 	5.39068E-19	 	-14082.5708	28.01151	 
340.0	1.0	0.0	7.92203	7.02009	-11.01308	13.25646	14.71266	1.02104	0.9794	195.83305	183.08208	74.08234	0.32173	 	8.59383E18	 	3.48231E-19	 	-14222.38708	27.96326	 
335.0	1.0	0.0	7.92376	7.01856	-11.03255	13.23211	14.65095	1.01698	0.98331	196.13732	183.22295	74.20528	0.32159	 	1.32892E19	 	2.23357E-19	 	-14361.96214	27.91501	 
330.0	1.0	0.0	7.92549	7.01703	-11.05195	13.20775	14.58918	1.01289	0.98728	196.44107	183.36315	74.32806	0.32145	 	2.0699E19	 	1.42221E-19	 	-14501.29603	27.86678	 
325.0	1.0	0.0	7.92721	7.0155	-11.07129	13.18338	14.52737	1.00876	0.99131	196.74429	183.50267	74.45066	0.32131	 	3.248E19	 	8.98835E-20	 	-14640.38877	27.81855	 
320.0	1.0	0.0	7.92893	7.01398	-11.09057	13.15899	14.46551	1.00461	0.99541	197.04698	183.64151	74.57308	0.32117	 	5.13551E19	 	5.63726E-20	 	-14779.24038	27.77032	 
315.0	1.0	0.0	7.93064	7.01246	-11.10978	13.13459	14.4036	1.00042	0.99958	197.34915	183.77968	74.69533	0.32103	 	8.18338E19	 	3.50786E-20	 	-14917.85084	27.72209	 
310.0	1.0	0.0	7.93235	7.01095	-11.12893	13.11018	14.34163	0.9962	1.00381	197.65079	183.91719	74.8174	0.32089	 	1.3144799999999998E20	 	2.16528E-20	 	-15056.22017	27.67387	 
305.0	1.0	0.0	7.93406	7.00945	-11.14801	13.08575	14.27961	0.99195	1.00811	197.95191	184.05402	74.9393	0.32075	 	2.1287899999999997E20	 	1.32555E-20	 	-15194.34832	27.62563	 
300.0	1.0	0.0	7.93575	7.00795	-11.16704	13.06131	14.21753	0.98767	1.01249	198.25249	184.19018	75.06102	0.32061	 	3.47668E20	 	8.04619E-21	 	-15332.23528	27.57739	 
295.0	1.0	0.0	7.93745	7.00645	-11.186	13.03686	14.1554	0.98335	1.01693	198.55256	184.32568	75.18256	0.32047	 	5.7272599999999993E20	 	4.84175E-21	 	-15469.88097	27.52914	 
290.0	1.0	0.0	7.93914	7.00496	-11.20489	13.0124	14.09321	0.97899	1.02146	198.85209	184.46051	75.30393	0.32033	 	9.518719999999999E20	 	2.88757E-21	 	-15607.28534	27.48087	 
285.0	1.0	0.0	7.94082	7.00347	-11.22372	12.98792	14.03095	0.97461	1.02605	199.1511	184.59468	75.42513	0.32019	 	1.59648E21	 	1.70637E-21	 	-15744.4483	27.43259	 
280.0	1.0	0.0	7.9425	7.00199	-11.24249	12.96343	13.96864	0.97019	1.03073	199.44959	184.72819	75.54615	0.32005	 	2.7027600000000003E21	 	9.98899E-22	 	-15881.36976	27.38429	 
275.0	1.0	0.0	7.94418	7.00052	-11.2612	12.93893	13.90626	0.96573	1.03549	199.74755	184.86104	75.66699	0.31991	 	4.61981E21	 	5.79112E-22	 	-16018.0496	27.33597	 
270.0	1.0	0.0	7.94584	6.99905	-11.27984	12.91442	13.84381	0.96124	1.04033	200.04498	184.99324	75.78766	0.31977	 	7.97492E21	 	3.32415E-22	 	-16154.48769	27.28762	 
265.0	1.0	0.0	7.94751	6.99758	-11.29841	12.88989	13.7813	0.95671	1.04525	200.34189	185.12477	75.90816	0.31963	 	1.3907E22	 	1.88867E-22	 	-16290.68387	27.23923	 
260.0	1.0	0.0	7.94917	6.99612	-11.31693	12.86535	13.71872	0.95214	1.05026	200.63827	185.25566	76.02847	0.31949	 	2.4505999999999997E22	 	1.06185E-22	 	-16426.63797	27.19082	 
255.0	1.0	0.0	7.95082	6.99467	-11.33538	12.84079	13.65607	0.94754	1.05536	200.93412	185.38589	76.14862	0.31936	 	4.36485E22	 	5.90575E-23	 	-16562.3498	27.14237	 
250.0	1.0	0.0	7.95247	6.99322	-11.35376	12.81622	13.59335	0.9429	1.06056	201.22946	185.51546	76.26858	0.31922	 	7.860639999999999E22	 	3.24829E-23	 	-16697.81915	27.09387	 
245.0	1.0	0.0	7.95411	6.99177	-11.37208	12.79165	13.53054	0.93822	1.06584	201.52426	185.64439	76.38837	0.31908	 	1.4317799999999998E23	 	1.7663E-23	 	-16833.04577	27.04532	 
240.0	1.0	0.0	7.95575	6.99033	-11.39034	12.76705	13.46767	0.93351	1.07123	201.81854	185.77268	76.50799	0.31894	 	2.63859E23	 	9.49204E-24	 	-16968.02941	26.99673	 
235.0	1.0	0.0	7.95739	6.9889	-11.40853	12.74245	13.40471	0.92875	1.07671	202.1123	185.90031	76.62743	0.3188	 	4.92142E23	 	5.03951E-24	 	-17102.76978	26.94807	 
230.0	1.0	0.0	7.95902	6.98746	-11.42666	12.71783	13.34167	0.92396	1.0823	202.40553	186.02731	76.74669	0.31866	 	9.293719999999999E23	 	2.64237E-24	 	-17237.26659	26.89936	 
225.0	1.0	0.0	7.96064	6.98604	-11.44473	12.6932	13.27854	0.91913	1.08799	202.69823	186.15365	76.86578	0.31852	 	1.77759E24	 	1.36778E-24	 	-17371.51947	26.85058	 
220.0	1.0	0.0	7.96226	6.98462	-11.46273	12.66855	13.21533	0.91425	1.09379	202.99041	186.27936	76.98469	0.31838	 	3.44497E24	 	6.98684E-25	 	-17505.52808	26.80172	 
215.0	1.0	0.0	7.96387	6.9832	-11.48066	12.6439	13.15203	0.90934	1.0997	203.28207	186.40443	77.10342	0.31824	 	6.76744E24	 	3.52059E-25	 	-17639.29201	26.75279	 
210.0	1.0	0.0	7.96548	6.98179	-11.49854	12.61923	13.08863	0.90439	1.10572	203.5732	186.52886	77.22198	0.3181	 	1.34814E25	 	1.74918E-25	 	-17772.81083	26.70376	 
205.0	1.0	0.0	7.96708	6.98039	-11.51634	12.59454	13.02514	0.89939	1.11187	203.86381	186.65266	77.34037	0.31797	 	2.7246E25	 	8.56542E-26	 	-17906.08409	26.65465	 
200.0	1.0	0.0	7.96868	6.97899	-11.53409	12.56985	12.96155	0.89435	1.11813	204.15389	186.77582	77.45858	0.31783	 	5.58894E25	 	4.13196E-26	 	-18039.11128	26.60544	 
195.0	1.0	0.0	7.97027	6.9776	-11.55176	12.54514	12.89786	0.88927	1.12452	204.44345	186.89834	77.57661	0.31769	 	1.16418E26	 	1.96269E-26	 	-18171.89187	26.55612	 
190.0	1.0	0.0	7.97186	6.97621	-11.56938	12.52042	12.83406	0.88415	1.13104	204.73248	187.02024	77.69446	0.31755	 	2.4637400000000002E26	 	9.17517E-27	 	-18304.4253	26.50669	 
185.0	1.0	0.0	7.97344	6.97482	-11.58693	12.49569	12.77015	0.87898	1.13769	205.02099	187.1415	77.81214	0.31741	 	5.2999700000000004E26	 	4.21911E-27	 	-18436.71095	26.45713	 
180.0	1.0	0.0	7.97502	6.97344	-11.60441	12.47094	12.70613	0.87377	1.14447	205.30897	187.26214	77.92964	0.31727	 	1.15956E27	 	1.90737E-27	 	-18568.74816	26.40744	 
175.0	1.0	0.0	7.97659	6.97207	-11.62183	12.44618	12.642	0.86851	1.1514	205.59643	187.38215	78.04697	0.31713	 	2.58168E27	 	8.47243E-28	 	-18700.53621	26.35761	 
170.0	1.0	0.0	7.97816	6.9707	-11.63918	12.42141	12.57774	0.86321	1.15847	205.88337	187.50153	78.16412	0.31699	 	5.85267E27	 	3.69559E-28	 	-18832.07439	26.30764	 
165.0	1.0	0.0	7.97972	6.96934	-11.65647	12.39662	12.51336	0.85786	1.16569	206.16978	187.62029	78.2811	0.31686	 	1.35182E28	 	1.58194E-28	 	-18963.36187	26.2575	 
160.0	1.0	0.0	7.98128	6.96798	-11.6737	12.37182	12.44885	0.85246	1.17307	206.45567	187.73843	78.3979	0.31672	 	3.18329E28	 	6.64123E-29	 	-19094.39779	26.20719	 
155.0	1.0	0.0	7.98283	6.96662	-11.69086	12.34701	12.3842	0.84702	1.18061	206.74103	187.85595	78.51452	0.31658	 	7.64754E28	 	2.7325E-29	 	-19225.18126	26.15669	 
150.0	1.0	0.0	7.98437	6.96527	-11.70795	12.32219	12.31942	0.84153	1.18831	207.02587	187.97285	78.63096	0.31644	 	1.8757E29	 	1.10108E-29	 	-19355.71129	26.10601	 
145.0	1.0	0.0	7.98591	6.96393	-11.72498	12.29735	12.25449	0.83599	1.19618	207.31019	188.08913	78.74723	0.3163	 	4.700260000000001E29	 	4.34207E-30	 	-19485.98686	26.05511	 
140.0	1.0	0.0	7.98745	6.96259	-11.74195	12.2725	12.18941	0.83041	1.20423	207.59398	188.20479	78.86332	0.31616	 	1.2043099999999999E30	 	1.67439E-30	 	-19616.00684	26.004	 
135.0	1.0	0.0	7.98898	6.96126	-11.75885	12.24764	12.12418	0.82477	1.21246	207.87725	188.31984	78.97924	0.31602	 	3.15766E30	 	6.30872E-31	 	-19745.77008	25.95265	 
130.0	1.0	0.0	7.9905	6.95993	-11.77568	12.22276	12.05879	0.81909	1.22087	208.16	188.43428	79.09498	0.31589	 	8.47962E30	 	2.32048E-31	 	-19875.2753	25.90104	 
125.0	1.0	0.0	7.99202	6.95861	-11.79245	12.19787	11.99323	0.81335	1.22949	208.44222	188.5481	79.21054	0.31575	 	2.33433E31	 	8.32474E-32	 	-20004.52118	25.84918	 
120.0	1.0	0.0	7.99354	6.95729	-11.80916	12.17297	11.9275	0.80756	1.2383	208.72392	188.66132	79.32593	0.31561	 	6.59379E31	 	2.91011E-32	 	-20133.5063	25.79702	 
115.0	1.0	0.0	7.99504	6.95598	-11.8258	12.14806	11.86159	0.80172	1.24732	209.00509	188.77393	79.44114	0.31547	 	1.91305E32	 	9.90285E-33	 	-20262.22914	25.74457	 
110.0	1.0	0.0	7.99655	6.95467	-11.84237	12.12313	11.79549	0.79583	1.25655	209.28575	188.88592	79.55617	0.31533	 	5.7067699999999995E32	 	3.27691E-33	 	-20390.6881	25.69179	 
105.0	1.0	0.0	7.99804	6.95337	-11.85888	12.09819	11.72919	0.78988	1.26601	209.56587	188.99732	79.67103	0.3152	 	1.75229E33	 	1.05328E-33	 	-20518.88145	25.63867	 
100.0	1.0	0.0	7.99954	6.95207	-11.87532	12.07324	11.66269	0.78388	1.2757	209.84548	189.10811	79.78571	0.31506	 	5.54473E33	 	3.28465E-34	 	-20646.80738	25.58518	 
95.0	1.0	0.0	8.00102	6.95078	-11.8917	12.04827	11.59598	0.77783	1.28563	210.12456	189.21829	79.90021	0.31492	 	1.8102700000000001E34	 	9.92587E-35	 	-20774.46392	25.53131	 
90.0	1.0	0.0	8.0025	6.94949	-11.90801	12.0233	11.52905	0.77172	1.29581	210.40312	189.32788	80.01453	0.31478	 	6.105980000000001E34	 	2.9028E-35	 	-20901.84901	25.47702	 
85.0	1.0	0.0	8.00398	6.94821	-11.92425	11.9983	11.46189	0.76555	1.30625	210.68116	189.43686	80.12868	0.31464	 	2.1306399999999997E35	 	8.20429E-36	 	-21028.96043	25.42229	 
80.0	1.0	0.0	8.00545	6.94693	-11.94043	11.9733	11.39449	0.75933	1.31695	210.95867	189.54525	80.24265	0.3145	 	7.702549999999999E35	 	2.23775E-36	 	-21155.79586	25.36708	 
75.0	1.0	0.0	8.00692	6.94566	-11.95655	11.94828	11.32683	0.75305	1.32793	211.23566	189.65304	80.35645	0.31437	 	2.8892799999999995E36	 	5.88116E-37	 	-21282.35274	25.31138	 
70.0	1.0	0.0	8.00838	6.9444	-11.97259	11.92325	11.25891	0.74671	1.3392	211.51212	189.76024	80.47006	0.31423	 	1.1263599999999998E37	 	1.48694E-37	 	-21408.62841	25.25514	 
65.0	1.0	0.0	8.00983	6.94314	-11.98858	11.89821	11.19072	0.74032	1.35077	211.78807	189.86684	80.58351	0.31409	 	4.57129E37	 	3.61042E-38	 	-21534.62002	25.19832	 
60.0	1.0	0.0	8.01128	6.94188	-12.00449	11.87316	11.12224	0.73386	1.36266	212.06349	189.97284	80.69677	0.31395	 	1.93491E38	 	8.4036E-39	 	-21660.32451	25.1409	 
55.0	1.0	0.0	8.01272	6.94063	-12.02034	11.84809	11.05345	0.72735	1.37486	212.33839	190.07826	80.80985	0.31381	 	8.55813E38	 	1.87146E-39	 	-21785.73862	25.08282	 
50.0	1.0	0.0	8.01416	6.93938	-12.03613	11.82301	10.98435	0.72077	1.38741	212.61276	190.18309	80.92276	0.31368	 	3.9635000000000004E39	 	3.97935E-40	 	-21910.85885	25.02405	 
45.0	1.0	0.0	8.01559	6.93814	-12.05185	11.79791	10.91491	0.71413	1.4003	212.88662	190.28733	81.03549	0.31354	 	1.92621E40	 	8.0615E-41	 	-22035.6815	24.96453	 
40.0	1.0	0.0	8.01702	6.93691	-12.0675	11.7728	10.84513	0.70743	1.41357	213.15995	190.39098	81.14805	0.3134	 	9.84584E40	 	1.55234E-41	 	-22160.20257	24.90421	 
35.0	1.0	0.0	8.01844	6.93568	-12.08309	11.74769	10.77497	0.70067	1.42721	213.43276	190.49404	81.26043	0.31326	 	5.306360000000001E41	 	2.83434E-42	 	-22284.41778	24.84304	 
30.0	1.0	0.0	8.01986	6.93446	-12.09861	11.72256	10.70443	0.69384	1.44125	213.70504	190.59652	81.37262	0.31313	 	3.02324E42	 	4.89409E-43	 	-22408.32255	24.78096	 
25.0	1.0	0.0	8.02127	6.93324	-12.11406	 	10.63348	0.68695	1.45571	213.97681	190.69842	81.48465	0.31299	 	1.82597E43	 	7.96945E-44	 	-22531.91199	 	 
