T (C)	Fraction solid (wt)-TOTAL	Fraction liquid (wt)-LIQUID	Density (g/(cm)^3)-TOTAL	Molar volume (cm^3)-TOTAL	Volume change (%)-  	Average expansion coeff. (10e-6 1/K)-  	Thermal conductivity (W/(m*K))-TOTAL	Electrical resistivity (10e-6 Ohm*m)-TOTAL	Electrical conductivity (10e6 1/(Ohm*m))-TOTAL	Young's modulus (GPa)-TOTAL	Bulk modulus (GPa)-TOTAL	Shear modulus(GPa)-TOTAL	Poisson's ratio-TOTAL	Liquid viscosity (mPa s)-  	Total viscosity (mPa s)-  	Liquid diffusivity (10e-9 (m^2)/s)-  	Total diffusivity (10e-9 (m^2)/s)-  	Surface Tension (mN/m)-  	Enthalpy (J/mole)-TOTAL	Specific heat (J/(mole K))-TOTAL	Latent heat (J/mole)-TOTAL
1400.0	0.0	1.0	7.42483	7.8899	0.0	31.21984	29.28762	1.39964	0.71447	0.0	123.1143	0.0	0.5	7.26715	7.26715	1.12372	1.12372	1779.40342	43928.575	 	0.0
1395.0	0.0	1.0	7.42894	7.88554	-0.0552626	31.182	29.21248	1.39905	0.71477	0.0	123.2571	0.0	0.5	7.34644	7.34644	1.10827	1.10827	1782.57892	43724.075	40.9	0.0
1390.0	0.0	1.0	7.43304	7.8812	-0.11037	31.14433	29.13735	1.39845	0.71508	0.0	123.3999	0.0	0.5	7.42707	7.42707	1.09295	1.09295	1785.79139	43520.05	40.805	0.0
1385.0	0.0	1.0	7.43713	7.87686	-0.16531	31.10681	29.06222	1.39785	0.71538	0.0	123.5427	0.0	0.5	7.50908	7.50908	1.07776	1.07776	1789.04105	43316.498	40.7104	0.0
1380.0	0.0	1.0	7.44121	7.87254	-0.2201	31.06946	28.98708	1.39725	0.71569	0.0	123.6855	0.0	0.5	7.5925	7.5925	1.06271	1.06271	1792.32808	43113.417	40.6162	0.0
1375.0	0.0	1.0	7.44529	7.86823	-0.27473	31.03227	28.91195	1.39664	0.716	0.0	123.8283	0.0	0.5	7.67737	7.67737	1.04778	1.04778	1795.65267	42910.803	40.5228	0.0
1370.0	0.0	1.0	7.44936	7.86393	-0.32921	30.99525	28.83681	1.39603	0.71631	0.0	123.9711	0.0	0.5	7.7637	7.7637	1.03299	1.03299	1799.01494	42708.654	40.4298	0.0
1365.0	0.0	1.0	7.45342	7.85964	-0.38352	30.95839	28.76168	1.39542	0.71663	0.0	124.1139	0.0	0.5	7.85155	7.85155	1.01832	1.01832	1802.41503	42506.967	40.3374	0.0
1360.0	0.0	1.0	7.45747	7.85537	-0.43768	30.9217	28.68654	1.39481	0.71695	0.0	124.2567	0.0	0.5	7.94093	7.94093	1.00379	1.00379	1805.85302	42305.741	40.2452	0.0
1355.0	0.0	1.0	7.46152	7.85111	-0.49168	30.88518	28.61141	1.39419	0.71726	0.0	124.3995	0.0	0.5	8.03189	8.03189	0.98938	0.98938	1809.32898	42104.972	40.1538	0.0
1350.0	0.0	1.0	7.46556	7.84686	-0.54552	30.84884	28.53628	1.39357	0.71758	0.0	124.5423	0.0	0.5	8.12446	8.12446	0.9751	0.9751	1812.84295	41904.657	40.063	0.0
1345.0	0.0	1.0	7.46959	7.84263	-0.5992	30.81267	28.46114	1.39294	0.71791	0.0	124.6851	0.0	0.5	8.21869	8.21869	0.96096	0.96096	1816.39493	41704.795	39.9724	0.0
1340.0	0.0	1.0	7.47362	7.8384	-0.65273	30.77668	28.38601	1.39231	0.71823	0.0	124.8279	0.0	0.5	8.3146	8.3146	0.94694	0.94694	1819.98491	41505.383	39.8824	0.0
1335.45	0.0	1.0	7.47727	7.83458	-0.70125	30.74411	28.3177	1.39174	0.71853	0.0	124.95773	0.0	0.5	8.40329	8.40329	0.9343	0.9343	1823.28171	41324.483	39.79506	0.0
1335.0	0.01427	0.98573	7.48132	7.83032	-0.75515	30.59996	28.35361	1.38958	0.71964	3.90745E-6	125.09821	1.3041E-6	0.49814	8.41183	8.57439	0.93309	0.9154	1823.07045	41095.388	504.38123	211.026
1330.0	0.16362	0.83638	7.52394	7.78596	-1.31747	29.09591	28.73401	1.36692	0.73157	0.0692885	126.50826	0.023432	0.4785	8.50999	34.02891	0.91946	0.22994	1820.86339	38703.826	478.3124	2404.068
1325.0	0.28543	0.71457	7.5593	7.74958	-1.77851	27.87342	29.04271	1.34818	0.74174	0.65517	127.66575	0.22403	0.46227	8.61265	242.6438	0.90566	0.0321466	1818.77257	36734.724	393.8204	4175.093
1320.0	0.38578	0.61422	7.58895	7.71925	-2.16299	26.86393	29.29481	1.33239	0.75053	2.22542	128.63458	0.76806	0.44872	8.71984	827.93268	0.89173	0.00939179	1816.80116	35094.767	327.9914	5617.413
1315.0	0.46921	0.53079	7.61406	7.69375	-2.48614	26.02551	29.5011	1.31892	0.75819	4.9441	129.46418	1.71989	0.43733	8.83168	1903.23232	0.87768	0.00407274	1814.9485	33713.711	276.2112	6801.268
1310.0	0.53916	0.46084	7.6355	7.67209	-2.7607	25.32284	29.66925	1.30732	0.76492	8.73313	130.18922	3.05848	0.42769	8.94815	3507.2535	0.86353	0.00220314	1813.21388	32538.144	235.1134	7780.072
1305.0	0.59823	0.40177	7.65396	7.6535	-2.99634	24.7291	29.80486	1.29726	0.77085	13.38892	130.83384	4.71616	0.41947	9.06938	5632.36041	0.84929	0.00136755	1811.5955	31527.052	202.2184	8594.832
1300.0	0.64847	0.35153	7.66998	7.63737	-3.20073	24.2229	29.91276	1.28849	0.7761	18.67352	131.41657	6.61049	0.41242	9.19542	8250.36821	0.835	9.30644E-4	1810.09106	30648.664	175.6776	9277.32
1295.0	0.69144	0.30856	7.68399	7.62329	-3.37919	23.78956	29.99694	1.28079	0.78077	24.35534	131.95159	8.65918	0.40633	9.32635	11324.89076	0.82066	6.75834E-4	1808.69733	29878.153	154.1022	9852.358
1290.0	0.72841	0.27159	7.69632	7.61086	-3.53669	23.41511	30.06066	1.274	0.78493	30.24066	132.44861	10.79215	0.40105	9.46224	14823.4488	0.80629	5.14681E-4	1807.41143	29195.959	136.4388	10339.506
1285.0	0.76035	0.23965	7.70726	7.59983	-3.67658	23.09029	30.1068	1.26798	0.78866	36.1744	132.91588	12.95235	0.39644	9.60316	18719.94684	0.79192	4.06248E-4	1806.22963	28586.555	121.8808	10754.288
1280.0	0.78809	0.21191	7.71701	7.58997	-3.80151	22.80773	30.13766	1.26261	0.79201	42.03596	133.35959	15.09471	0.39241	9.74933	22994.6606	0.77754	3.29665E-4	1805.14813	28037.524	109.8062	11109.118
1275.0	0.8123	0.1877	7.72576	7.58107	-3.91433	22.55937	30.15538	1.25781	0.79503	47.7422	133.78378	17.18763	0.38885	9.90073	27637.76192	0.76319	2.73399E-4	1804.16411	27538.866	99.7316	11413.993
1270.0	0.83348	0.16652	7.73367	7.573	-4.01661	22.34084	30.16175	1.25348	0.79778	53.23455	134.19246	19.20838	0.38571	10.05751	32646.98043	0.74887	2.30702E-4	1803.27357	27082.479	91.2774	11677.016
1265.0	0.85209	0.14791	7.74085	7.56563	-4.10995	22.14771	30.15827	1.24956	0.80028	58.47884	134.5885	21.14321	0.38292	10.21982	38029.03269	0.73458	1.9741E-4	1802.47312	26661.754	84.145	11904.792
1260.0	0.86851	0.13149	7.74741	7.55886	-4.19578	21.97588	30.14613	1.246	0.80257	63.44877	134.97356	22.98142	0.38044	10.38774	43791.72674	0.72036	1.70875E-4	1801.75995	26271.268	78.0972	12102.74
1255.0	0.88304	0.11696	7.75344	7.55259	-4.27527	21.82205	30.1266	1.24274	0.80467	68.14408	135.34979	24.72197	0.37821	10.56138	49959.43009	0.70621	1.49292E-4	1801.13092	25906.549	72.9438	12275.332
1250.0	0.89592	0.10408	7.759	7.54678	-4.34886	21.68508	30.10047	1.23975	0.80661	72.55589	135.71869	26.36073	0.37621	10.74097	56549.85822	0.69213	1.31461E-4	1800.58231	25563.887	68.5324	12426.274
1245.0	0.90739	0.0926087	7.76416	7.54135	-4.41776	21.56147	30.06862	1.23699	0.80841	76.69528	136.08089	27.90117	0.37441	10.92648	63595.24223	0.67814	1.16514E-4	1800.11223	25240.191	64.7392	12558.657
1240.0	0.91762	0.0823764	7.76898	7.53623	-4.48258	21.44947	30.03179	1.23443	0.81009	80.57456	136.43741	29.34728	0.37278	11.11818	71131.983	0.66426	1.03825E-4	1799.71805	24932.87	61.4642	12675.069
1235.0	0.92678	0.0732228	7.77348	7.53141	-4.54366	21.34818	29.99049	1.23205	0.81166	84.20107	136.78903	30.70126	0.3713	11.31619	79196.00731	0.65048	9.29454E-5	1799.39682	24639.745	58.625	12777.684
1230.0	0.93498	0.0650153	7.77772	7.52684	-4.60158	21.25587	29.9453	1.22981	0.81313	87.59052	137.13631	31.96856	0.36995	11.52062	87833.04992	0.63681	8.35278E-5	1799.1466	24358.974	56.1542	12868.346
1225.0	0.94236	0.0576415	7.78173	7.5225	-4.65668	21.17169	29.89664	1.22772	0.81452	90.75821	137.47968	33.15453	0.36872	11.73175	97093.72479	0.62327	7.53097E-5	1798.96486	24088.996	53.9956	12948.613
1220.0	0.949	0.0509997	7.78553	7.51834	-4.70934	21.09447	29.84492	1.22574	0.81583	93.71858	137.81938	34.26427	0.36758	11.94959	107032.5968	0.60987	6.80885E-5	1798.84986	23828.477	52.1038	13019.816
1215.0	0.95499	0.0450087	7.78914	7.51436	-4.75986	21.02337	29.79047	1.22387	0.81708	96.48616	138.15586	35.30296	0.36655	12.17434	117711.2003	0.59661	6.17043E-5	1798.79964	23576.278	50.4398	13083.091
1210.0	0.96041	0.0395922	7.7926	7.51052	-4.80846	20.95777	29.7336	1.22209	0.81827	99.07493	138.48928	36.27561	0.36559	12.40622	129196.6601	0.58349	5.603E-5	1798.8122	23331.423	48.971	13139.413
1205.0	0.96531	0.0346885	7.79591	7.50682	-4.85537	20.89697	29.67457	1.22039	0.81941	101.49881	138.81998	37.18726	0.3647	12.64539	141564.0814	0.57052	5.09627E-5	1798.88574	23093.069	47.6708	13189.623
1200.0	0.96976	0.0302397	7.7991	7.50324	-4.90077	20.84053	29.61359	1.21877	0.8205	103.7699	139.14792	38.04229	0.36388	12.89201	154893.605	0.55772	4.64195E-5	1799.01861	22860.488	46.5162	13234.447
1195.0	0.9738	0.0261983	7.80217	7.49976	-4.94484	20.78787	29.55087	1.21721	0.82155	105.90066	139.4733	38.84526	0.36311	13.14626	169275.531	0.54507	4.23314E-5	1799.20929	22633.049	45.4878	13274.513
1190.0	0.97748	0.022521	7.80514	7.49638	-4.9877	20.73865	29.4866	1.21571	0.82256	107.90214	139.79632	39.6002	0.36239	13.40841	184808.1722	0.5326	3.86415E-5	1799.45595	22410.203	44.5692	13310.369
1185.0	0.98083	0.0191718	7.80802	7.49308	-5.02947	20.69255	29.42092	1.21426	0.82355	109.78419	140.11694	40.31071	0.36172	13.67855	201598.4796	0.52029	3.53022E-5	1799.75707	22191.472	43.7462	13342.491
1180.0	0.98389	0.0161145	7.81082	7.48986	-5.07028	20.6492	29.35396	1.21286	0.8245	111.55662	140.4353	40.98041	0.3611	13.95692	219765.1378	0.50817	3.22729E-5	1800.11124	21976.436	43.0072	13371.294
1177.65	0.98521	0.0147916	7.81211	7.48837	-5.08915	20.62978	29.32193	1.21221	0.82494	112.34625	140.58451	41.27896	0.36082	14.09075	228815.7429	0.50253	3.09462E-5	1800.28881	21876.593	 	13383.566
1175.0	0.98722	0.0127765	7.81356	7.48651	-5.11277	20.59993	29.29129	1.21127	0.82558	113.49456	140.76125	41.71294	0.36042	14.24283	239952.4575	0.49625	2.94561E-5	1800.12901	21753.969	44.4934	13407.906
1170.0	0.99089	0.00911141	7.81625	7.48303	-5.15683	20.54512	29.23212	1.20953	0.82677	115.61528	141.09495	42.51488	0.3597	14.53881	262435.6511	0.48447	2.68396E-5	1799.84906	21524.938	45.8062	13451.456
1165.0	0.99423	0.00576998	7.81883	7.47964	-5.19986	20.49322	29.1705	1.20789	0.82789	117.60579	141.42671	43.26824	0.35903	14.84558	286793.6013	0.47282	2.44749E-5	1799.58205	21301.095	44.7686	13490.189
1160.0	0.99726	0.00273881	7.82133	7.47633	-5.2418	20.44443	29.10658	1.20633	0.82896	119.46742	141.75591	43.9734	0.35841	15.16298	313184.1946	0.46131	2.23346E-5	1799.34352	21082.091	43.8008	13524.454
1155.0	1.0	0.0	7.82374	7.47309	-5.28283	20.3983	29.0414	1.20482	0.83	121.20569	142.08255	44.63238	0.35782	 	341790.164	 	2.03939E-5	 	20867.567	42.9048	13554.605
1150.0	1.0	0.0	7.8262	7.47075	-5.31255	20.38955	28.95999	1.20398	0.83058	121.62315	142.37898	44.79246	0.35763	 	369469.5501	 	1.88E-5	 	20642.56721	44.99996	 
1145.93	1.0	0.0	7.8282	7.46884	-5.33673	20.38242	28.8937	1.20329	0.83106	121.96237	142.61894	44.92258	0.35747	 	393811.2118	 	1.75875E-5	 	20496.44108	 	 
1145.0	1.0	0.0	7.82928	7.46781	-5.34974	20.35562	28.83234	1.20506	0.82983	122.19998	142.74474	45.01513	0.35732	 	400790.4478	 	1.727E-5	 	20426.21248	43.27095	 
1140.0	1.0	0.0	7.835	7.46236	-5.41887	20.21362	28.51556	1.21415	0.82362	123.45105	143.40335	45.50277	0.35652	 	440709.1296	 	1.56503E-5	 	20052.46407	74.74968	 
1135.0	1.0	0.0	7.84062	7.45702	-5.48659	20.07513	28.21068	1.22293	0.81771	124.65831	144.03346	45.97383	0.35575	 	484953.1012	 	1.41722E-5	 	19685.50202	73.39241	 
1130.0	1.0	0.0	7.84613	7.45178	-5.55296	19.93996	27.91739	1.23139	0.81209	125.82483	144.63795	46.42942	0.35501	 	534028.7932	 	1.28241E-5	 	19325.04029	72.09235	 
1125.0	1.0	0.0	7.85154	7.44664	-5.61805	19.80797	27.6352	1.23953	0.80676	126.95333	145.2193	46.87056	0.3543	 	588506.0504	 	1.15955E-5	 	18970.80889	70.84628	 
1120.0	1.0	0.0	7.85685	7.44161	-5.68191	19.67899	27.3636	1.24736	0.8017	128.04622	145.77961	47.29813	0.35361	 	649026.4151	 	1.04766E-5	 	18622.55633	69.65051	 
1115.0	1.0	0.0	7.86208	7.43666	-5.74459	19.55289	27.10215	1.25487	0.7969	129.10567	146.32071	47.71293	0.35294	 	716312.6621	 	9.45846E-6	 	18280.04715	68.50184	 
1110.0	1.0	0.0	7.86721	7.4318	-5.80614	19.42954	26.85041	1.26207	0.79235	130.1336	146.84419	48.11566	0.3523	 	791179.5534	 	8.53259E-6	 	17943.06231	67.39697	 
1105.0	1.0	0.0	7.87227	7.42703	-5.86662	19.30881	26.60795	1.26897	0.78804	131.13174	147.35142	48.50698	0.35168	 	874546.0359	 	7.69131E-6	 	17611.39951	66.33256	 
1100.0	1.0	0.0	7.87724	7.42234	-5.92605	19.1906	26.37441	1.27556	0.78397	132.10166	147.84359	48.88745	0.35108	 	967449.191	 	6.9275E-6	 	17284.87108	65.30569	 
1095.0	1.0	0.0	7.88214	7.41773	-5.98448	19.07482	26.1494	1.28185	0.78012	133.04475	148.32175	49.2576	0.3505	 	1071059.973	 	6.23457E-6	 	16963.30457	64.3133	 
1090.0	1.0	0.0	7.88696	7.4132	-6.04194	18.96136	25.93257	1.28785	0.77649	133.9623	148.78682	49.6179	0.34994	 	1186701.136	 	5.60646E-6	 	16646.54182	63.35255	 
1085.0	1.0	0.0	7.89171	7.40874	-6.09846	18.85015	25.72361	1.29355	0.77307	134.85544	149.23962	49.96877	0.3494	 	1315867.588	 	5.03758E-6	 	16334.4381	62.42074	 
1080.0	1.0	0.0	7.89638	7.40435	-6.15408	18.74113	25.52219	1.29895	0.76985	135.72524	149.68086	50.31062	0.34887	 	1460249.455	 	4.52278E-6	 	16026.86226	61.51517	 
1075.0	1.0	0.0	7.90099	7.40003	-6.20882	18.63422	25.32802	1.30408	0.76683	136.57264	150.11118	50.6438	0.34837	 	1621758.413	 	4.05732E-6	 	15723.69442	60.63357	 
1070.0	1.0	0.0	7.90553	7.39578	-6.2627	18.52938	25.14081	1.30891	0.76399	137.39854	150.53115	50.96863	0.34787	 	1802557.501	 	3.63682E-6	 	15424.82587	59.77371	 
1065.0	1.0	0.0	7.91001	7.3916	-6.31575	18.42655	24.9603	1.31347	0.76134	138.20374	150.94129	51.28542	0.3474	 	2005095.096	 	3.25729E-6	 	15130.15779	58.93362	 
1060.0	1.0	0.0	7.91442	7.38748	-6.36797	18.32571	24.78622	1.31776	0.75887	138.989	151.34206	51.59446	0.34694	 	2232143.622	 	2.91503E-6	 	14839.5996	58.11164	 
1055.0	1.0	0.0	7.91877	7.38342	-6.4194	18.2268	24.61832	1.32177	0.75656	139.75504	151.7339	51.89601	0.34649	 	2486843.514	 	2.60667E-6	 	14553.06865	57.30619	 
1050.0	1.0	0.0	7.92306	7.37942	-6.47004	18.12981	24.45636	1.32551	0.75443	140.50251	152.11718	52.19033	0.34606	 	2772753.682	 	2.32908E-6	 	14270.48729	56.51627	 
1045.0	1.0	0.0	7.92728	7.37549	-6.51991	18.03471	24.3001	1.32899	0.75245	141.23208	152.49229	52.47765	0.34564	 	3093909.2	 	2.07943E-6	 	13991.78082	55.74129	 
1040.0	1.0	0.0	7.93145	7.37161	-6.56903	17.94148	24.1493	1.33222	0.75063	141.94435	152.85956	52.75822	0.34523	 	3454885.988	 	1.8551E-6	 	13716.88152	54.97986	 
1035.0	1.0	0.0	7.93556	7.3678	-6.61741	17.85008	24.00375	1.33519	0.74895	142.63994	153.21933	53.03226	0.34484	 	3860877.895	 	1.65371E-6	 	13445.71829	54.23265	 
1030.0	1.0	0.0	7.93961	7.36404	-6.66505	17.76051	23.86322	1.33792	0.74743	143.31944	153.57191	53.3	0.34446	 	4317781.938	 	1.47306E-6	 	13178.22245	53.49917	 
1025.0	1.0	0.0	7.94361	7.36033	-6.71198	17.67273	23.72748	1.34042	0.74604	143.98345	153.91762	53.56167	0.34409	 	4832298.535	 	1.31117E-6	 	12914.32273	52.77994	 
1020.0	1.0	0.0	7.94754	7.35669	-6.75821	17.58672	23.59632	1.34267	0.74478	144.63256	154.25675	53.8175	0.34373	 	5412045.252	 	1.1662E-6	 	12653.9466	52.07523	 
1015.0	1.0	0.0	7.95143	7.35309	-6.80375	17.50246	23.46952	1.34471	0.74366	145.26737	154.58961	54.06771	0.34338	 	6065689.324	 	1.03651E-6	 	12397.01712	51.3859	 
1010.0	1.0	0.0	7.95526	7.34955	-6.84862	17.41992	23.34686	1.34653	0.74265	145.88846	154.9165	54.31253	0.34305	 	6803099.446	 	9.20571E-7	 	12143.45403	50.71262	 
1005.0	1.0	0.0	7.95904	7.34607	-6.89283	17.33906	23.22814	1.34814	0.74177	146.49643	155.23769	54.55219	0.34272	 	7635520.995	 	8.17015E-7	 	11893.17426	50.05595	 
1000.0	1.0	0.0	7.96276	7.34263	-6.9364	17.25985	23.11314	1.34954	0.74099	147.09188	155.55348	54.78692	0.3424	 	8575779.384	 	7.24591E-7	 	11646.09007	49.41684	 
995.0	1.0	0.0	7.96644	7.33924	-6.97934	17.18224	23.00168	1.35076	0.74033	147.67539	155.86414	55.01696	0.34209	 	9638514.395	 	6.42166E-7	 	11402.11007	48.796	 
990.0	1.0	0.0	7.97006	7.3359	-7.02167	17.1062	22.89354	1.35179	0.73976	148.24755	156.16996	55.24253	0.34179	 	1.084045128E7	 	5.68714E-7	 	11161.1401	48.19399	 
985.0	1.0	0.0	7.97364	7.33261	-7.06342	17.03168	22.78854	1.35264	0.7393	148.80895	156.4712	55.46385	0.34149	 	1.220071558E7	 	5.03308E-7	 	10923.08302	47.61142	 
980.0	1.0	0.0	7.97718	7.32936	-7.1046	16.95862	22.68649	1.35332	0.73892	149.36014	156.76813	55.68115	0.34121	 	1.374119628E7	 	4.45108E-7	 	10687.84079	47.04845	 
975.0	1.0	0.0	7.98067	7.32615	-7.14522	16.88699	22.58722	1.35385	0.73864	149.90168	157.06099	55.89465	0.34093	 	1.548696962E7	 	3.93357E-7	 	10455.31319	46.50552	 
970.0	1.0	0.0	7.98412	7.32299	-7.18531	16.81671	22.49056	1.35422	0.73843	150.43411	157.35002	56.10455	0.34066	 	1.746678888E7	 	3.47374E-7	 	10225.40003	45.98263	 
965.0	1.0	0.0	7.98752	7.31987	-7.22488	16.74775	22.39634	1.35445	0.73831	150.95794	157.63547	56.31106	0.34039	 	1.971365479E7	 	3.06544E-7	 	9998.00099	45.47981	 
960.0	1.0	0.0	7.99089	7.31678	-7.26396	16.68005	22.30442	1.35454	0.73826	151.47368	157.91754	56.51437	0.34013	 	2.226547852E7	 	2.70315E-7	 	9773.01681	44.99684	 
955.0	1.0	0.0	7.99422	7.31374	-7.30257	16.61355	22.21417	1.35453	0.73827	151.9818	158.19644	56.71467	0.33988	 	2.516585241E7	 	2.38192E-7	 	9550.35061	44.53324	 
950.0	1.0	0.0	7.99751	7.31073	-7.34071	16.5482	22.12639	1.35436	0.73835	152.48275	158.47238	56.91215	0.33963	 	2.846495167E7	 	2.09728E-7	 	9329.90659	44.0888	 
945.0	1.0	0.0	8.00076	7.30775	-7.37841	16.48393	22.04049	1.35408	0.73851	152.97697	158.74554	57.10697	0.33939	 	3.222058242E7	 	1.84525E-7	 	9111.5918	43.66296	 
940.0	1.0	0.0	8.00398	7.30481	-7.41569	16.42071	21.95636	1.35369	0.73872	153.46486	159.01608	57.29928	0.33915	 	3.649940749E7	 	1.62224E-7	 	8895.31631	43.2551	 
935.0	1.0	0.0	8.00717	7.3019	-7.45256	16.35848	21.87386	1.3532	0.73899	153.94681	159.28417	57.48926	0.33892	 	4.137838063E7	 	1.42506E-7	 	8680.99256	42.86475	 
930.0	1.0	0.0	8.01033	7.29903	-7.48904	16.29718	21.79291	1.3526	0.73931	154.42317	159.54995	57.67702	0.33869	 	4.694641903E7	 	1.25085E-7	 	8468.53776	42.49096	 
925.0	1.0	0.0	8.01346	7.29618	-7.52515	16.23678	21.7134	1.35192	0.73969	154.89428	159.81357	57.86272	0.33846	 	5.330637253E7	 	1.09703E-7	 	8257.87146	42.13326	 
920.0	1.0	0.0	8.01656	7.29336	-7.5609	16.17721	21.63524	1.35114	0.74012	155.36047	160.07514	58.04647	0.33824	 	6.057732438E7	 	9.61328E-8	 	8048.91707	41.79088	 
915.0	1.0	0.0	8.01963	7.29056	-7.5963	16.11844	21.55834	1.35027	0.74059	155.82201	160.3348	58.22839	0.33802	 	6.889729672E7	 	8.41697E-8	 	7841.60159	41.4631	 
910.0	1.0	0.0	8.02267	7.2878	-7.63136	16.06041	21.48263	1.34933	0.74111	156.2792	160.59263	58.4086	0.33781	 	7.842642906E7	 	7.36316E-8	 	7635.85554	41.14921	 
905.0	1.0	0.0	8.02569	7.28506	-7.66611	16.0031	21.40803	1.34831	0.74167	156.73228	160.84876	58.58718	0.3376	 	8.935071979E7	 	6.4356E-8	 	7431.61309	40.84849	 
900.0	1.0	0.0	8.02869	7.28234	-7.70055	15.94646	21.33447	1.34722	0.74227	157.18148	161.10325	58.76424	0.33739	 	1.018864356E8	 	5.61984E-8	 	7228.81106	40.56041	 
895.0	1.0	0.0	8.03166	7.27964	-7.73469	15.89045	21.2619	1.34605	0.74291	157.62704	161.3562	58.93987	0.33719	 	1.162853024E8	 	4.90298E-8	 	7027.391	40.28401	 
890.0	1.0	0.0	8.0346	7.27697	-7.76855	15.83503	21.19024	1.34483	0.74359	158.06916	161.60768	59.11414	0.33698	 	1.328406519E8	 	4.27358E-8	 	6827.29651	40.0189	 
885.0	1.0	0.0	8.03753	7.27432	-7.80213	15.78016	21.11946	1.34353	0.74431	158.50802	161.85777	59.28713	0.33678	 	1.518946729E8	 	3.72142E-8	 	6628.47456	39.76439	 
880.0	1.0	0.0	8.04044	7.27169	-7.83544	15.72583	21.04949	1.34218	0.74506	158.9438	162.10651	59.45892	0.33659	 	1.73846999E8	 	3.23747E-8	 	6430.87476	39.51996	 
875.0	1.0	0.0	8.04332	7.26909	-7.86851	15.67199	20.98029	1.34077	0.74584	159.37666	162.35398	59.62956	0.33639	 	1.991648999E8	 	2.81367E-8	 	6234.44957	39.28504	 
870.0	1.0	0.0	8.04619	7.2665	-7.90132	15.61861	20.91182	1.3393	0.74666	159.80676	162.60023	59.79912	0.3362	 	2.2839534E8	 	2.44288E-8	 	6039.15509	39.0589	 
865.0	1.0	0.0	8.04903	7.26393	-7.93389	15.56567	20.84403	1.33778	0.74751	160.23423	162.84529	59.96765	0.33601	 	2.621793361E8	 	2.11879E-8	 	5844.94931	38.84116	 
860.0	1.0	0.0	8.05186	7.26138	-7.96623	15.51314	20.77689	1.3362	0.74839	160.65921	163.08922	60.1352	0.33582	 	3.012690349E8	 	1.83578E-8	 	5651.79186	38.63149	 
855.0	1.0	0.0	8.05467	7.25884	-7.99835	15.461	20.71037	1.33458	0.7493	161.08182	163.33206	60.30183	0.33563	 	3.465480145E8	 	1.58888E-8	 	5459.646	38.42917	 
850.0	1.0	0.0	8.05747	7.25632	-8.03025	15.40921	20.64443	1.33291	0.75024	161.50215	163.57384	60.46758	0.33544	 	3.990555561E8	 	1.3737E-8	 	5268.47599	38.234	 
845.0	1.0	0.0	8.05971	7.2543	-8.05589	15.38555	20.58514	1.3308	0.75143	161.85294	163.79291	60.60513	0.33531	 	4.547692805E8	 	1.20004E-8	 	5107.62755	32.16969	 
840.0	1.0	0.0	8.06196	7.25228	-8.08146	15.36188	20.52585	1.32867	0.75263	162.20319	164.0111	60.7425	0.33517	 	5.188702412E8	 	1.04708E-8	 	4943.73384	32.77874	 
835.0	1.0	0.0	8.06419	7.25027	-8.10697	15.33821	20.46655	1.32654	0.75384	162.5529	164.2284	60.8797	0.33503	 	5.927112795E8	 	9.12519E-9	 	4780.07923	32.73092	 
830.0	1.0	0.0	8.06643	7.24826	-8.13242	15.31453	20.40725	1.32439	0.75506	162.90207	164.44482	61.01672	0.3349	 	6.778778352E8	 	7.94273E-9	 	4616.66304	32.68324	 
825.0	1.0	0.0	8.06866	7.24626	-8.1578	15.29084	20.34795	1.32223	0.7563	163.25069	164.66036	61.15357	0.33476	 	7.762303934E8	 	6.90491E-9	 	4453.48459	32.63569	 
820.0	1.0	0.0	8.07088	7.24426	-8.18313	15.26714	20.28864	1.32006	0.75754	163.59878	164.87503	61.29024	0.33462	 	8.899551222E8	 	5.99513E-9	 	4290.54312	32.58829	 
815.0	1.0	0.0	8.0731	7.24227	-8.2084	15.24344	20.22932	1.31787	0.7588	163.94633	165.08882	61.42674	0.33449	 	1.02162437E9	 	5.19857E-9	 	4127.83795	32.54104	 
810.0	1.0	0.0	8.07532	7.24028	-8.2336	15.21972	20.17	1.31568	0.76007	164.29334	165.30174	61.56306	0.33435	 	1.174269041E9	 	4.50202E-9	 	3965.36829	32.49393	 
805.0	1.0	0.0	8.07754	7.2383	-8.25874	15.196	20.11067	1.31347	0.76134	164.63981	165.51379	61.6992	0.33421	 	1.35146532E9	 	3.89369E-9	 	3803.13338	32.44698	 
800.0	1.0	0.0	8.07974	7.23632	-8.28383	15.17227	20.05133	1.31124	0.76264	164.98574	165.72497	61.83517	0.33408	 	1.55743872E9	 	3.36307E-9	 	3641.13242	32.40019	 
795.0	1.0	0.0	8.08195	7.23434	-8.30885	15.14853	19.99199	1.30901	0.76394	165.33113	165.93528	61.97097	0.33394	 	1.797189136E9	 	2.90085E-9	 	3479.36459	32.35357	 
790.0	1.0	0.0	8.08415	7.23237	-8.3338	15.12478	19.93265	1.30676	0.76525	165.67598	166.14474	62.10659	0.3338	 	2.076641332E9	 	2.49873E-9	 	3317.82902	32.30711	 
785.0	1.0	0.0	8.08635	7.23041	-8.3587	15.10102	19.8733	1.3045	0.76658	166.0203	166.35333	62.24204	0.33367	 	2.402826351E9	 	2.14937E-9	 	3156.52486	32.26083	 
780.0	1.0	0.0	8.08854	7.22845	-8.38354	15.07726	19.81394	1.30222	0.76792	166.36407	166.56107	62.37731	0.33353	 	2.784100516E9	 	1.84626E-9	 	2995.45118	32.21474	 
775.0	1.0	0.0	8.09073	7.2265	-8.40831	15.05349	19.75457	1.29994	0.76927	166.70731	166.76795	62.5124	0.33339	 	3.230410235E9	 	1.58363E-9	 	2834.60706	32.16883	 
770.0	1.0	0.0	8.09291	7.22455	-8.43302	15.02971	19.6952	1.29763	0.77063	167.05001	166.97398	62.64732	0.33326	 	3.753612715E9	 	1.35639E-9	 	2673.99152	32.12311	 
765.0	1.0	0.0	8.09509	7.2226	-8.45767	15.00592	19.63582	1.29532	0.77201	167.39217	167.17916	62.78206	0.33312	 	4.367864996E9	 	1.16005E-9	 	2513.60353	32.0776	 
760.0	1.0	0.0	8.09726	7.22066	-8.48226	14.98212	19.57644	1.29299	0.7734	167.7338	167.38349	62.91663	0.33298	 	5.090096663E9	 	9.90659E-10	 	2353.44207	32.03229	 
755.0	1.0	0.0	8.09943	7.21873	-8.50679	14.95831	19.51705	1.29065	0.7748	168.07488	167.58697	63.05103	0.33285	 	5.940585159E9	 	8.44722E-10	 	2193.50604	31.98721	 
750.0	1.0	0.0	8.1016	7.2168	-8.53126	14.9345	19.45765	1.28829	0.77622	168.41543	167.78961	63.18525	0.33271	 	6.943657184E9	 	7.1918E-10	 	2033.79432	31.94234	 
745.0	1.0	0.0	8.10376	7.21487	-8.55566	14.91068	19.39825	1.28592	0.77765	168.75544	167.99141	63.31929	0.33258	 	8.128545251E9	 	6.11344E-10	 	1874.30571	31.89772	 
740.0	1.0	0.0	8.10592	7.21295	-8.58001	14.88685	19.33884	1.28354	0.7791	169.09492	168.19237	63.45316	0.33244	 	9.530435552E9	 	5.18857E-10	 	1715.039	31.85334	 
735.0	1.0	0.0	8.10807	7.21103	-8.60429	14.86301	19.27942	1.28114	0.78055	169.43386	168.3925	63.58685	0.3323	 	1.11918E10	 	4.39657E-10	 	1555.9929	31.80922	 
730.0	1.0	0.0	8.11022	7.20912	-8.62851	14.83916	19.21999	1.27873	0.78203	169.77226	168.59179	63.72037	0.33217	 	1.3163699999999998E10	 	3.71941E-10	 	1397.16609	31.76536	 
725.0	1.0	0.0	8.11237	7.20722	-8.65266	14.81531	19.16056	1.2763	0.78351	170.11012	168.79024	63.85371	0.33203	 	1.5508399999999998E10	 	3.14135E-10	 	1238.55716	31.72179	 
720.0	1.0	0.0	8.11451	7.20532	-8.67676	14.79145	19.10112	1.27386	0.78501	170.44745	168.98787	63.98688	0.33189	 	1.83008E10	 	2.64869E-10	 	1080.16465	31.6785	 
715.0	1.0	0.0	8.11664	7.20342	-8.70079	14.76757	19.04167	1.27141	0.78653	170.78424	169.18467	64.11987	0.33176	 	2.16322E10	 	2.2295E-10	 	921.98703	31.63552	 
710.0	1.0	0.0	8.11878	7.20153	-8.72476	14.74369	18.98221	1.26893	0.78806	171.12049	169.38065	64.25268	0.33162	 	2.5613699999999996E10	 	1.87342E-10	 	764.0227	31.59287	 
705.0	1.0	0.0	8.1209	7.19964	-8.74867	14.71981	18.92274	1.26645	0.78961	171.45621	169.5758	64.38532	0.33149	 	3.0380299999999996E10	 	1.57145E-10	 	606.26999	31.55054	 
700.0	1.0	0.0	8.12303	7.19776	-8.77252	14.69591	18.86327	1.26395	0.79117	171.79139	169.77013	64.51779	0.33135	 	3.60973E10	 	1.31581E-10	 	448.72713	31.50857	 
695.0	1.0	0.0	8.12515	7.19588	-8.79631	14.672	18.80379	1.26143	0.79275	172.12604	169.96364	64.65008	0.33121	 	4.29665E10	 	1.09976E-10	 	291.39227	31.46697	 
690.0	1.0	0.0	8.12726	7.19401	-8.82003	14.64809	18.7443	1.2589	0.79434	172.46015	170.15633	64.7822	0.33108	 	5.123549999999999E10	 	9.17508E-11	 	134.26346	31.42576	 
685.0	1.0	0.0	8.12937	7.19215	-8.84369	14.62417	18.6848	1.25635	0.79596	172.79373	170.34821	64.91414	0.33094	 	6.120819999999999E10	 	7.6403E-11	 	-22.66134	31.38496	 
680.0	1.0	0.0	8.13147	7.19028	-8.86729	14.60024	18.62529	1.25379	0.79758	173.12677	170.53928	65.0459	0.3308	 	7.32587E10	 	6.35022E-11	 	-179.3843	31.34459	 
675.0	1.0	0.0	8.13357	7.18843	-8.89083	14.5763	18.56577	1.25121	0.79923	173.45927	170.72954	65.17749	0.33067	 	8.78479E10	 	5.26784E-11	 	-335.90768	31.30468	 
670.0	1.0	0.0	8.13567	7.18657	-8.9143	14.55236	18.50625	1.24861	0.80089	173.79124	170.91899	65.3089	0.33053	 	1.05546E11	 	4.36142E-11	 	-492.2339	31.26524	 
665.0	1.0	0.0	8.13776	7.18473	-8.93771	14.5284	18.44671	1.246	0.80257	174.12267	171.10763	65.44014	0.3304	 	1.27057E11	 	3.6038E-11	 	-648.36547	31.22631	 
660.0	1.0	0.0	8.13985	7.18288	-8.96106	14.50444	18.38717	1.24338	0.80426	174.45357	171.29547	65.5712	0.33026	 	1.53257E11	 	2.97179E-11	 	-804.29849	31.1866	 
655.0	1.0	0.0	8.14193	7.18105	-8.98435	14.48047	18.32761	1.24073	0.80598	174.78394	171.48251	65.70209	0.33012	 	1.85233E11	 	2.44561E-11	 	-959.99647	31.1396	 
650.0	1.0	0.0	8.14401	7.17921	-9.00758	14.45649	18.26805	1.23807	0.80771	175.11377	171.66875	65.8328	0.32999	 	2.24341E11	 	2.0084E-11	 	-1115.41096	31.0829	 
645.0	1.0	0.0	8.14608	7.17739	-9.03074	14.43251	18.20847	1.2354	0.80946	175.44306	171.8542	65.96334	0.32985	 	2.72273E11	 	1.64587E-11	 	-1270.54292	31.02639	 
640.0	1.0	0.0	8.14815	7.17556	-9.05384	14.40851	18.14889	1.2327	0.81123	175.77182	172.03884	66.0937	0.32972	 	3.31148E11	 	1.34588E-11	 	-1425.39328	30.97007	 
635.0	1.0	0.0	8.15022	7.17375	-9.07688	14.38451	18.08929	1.22999	0.81301	176.10005	172.2227	66.22388	0.32958	 	4.03623E11	 	1.09817E-11	 	-1579.96299	30.91394	 
630.0	1.0	0.0	8.15228	7.17193	-9.09986	14.36049	18.02969	1.22726	0.81482	176.42774	172.40576	66.35389	0.32945	 	4.93039E11	 	8.94058E-12	 	-1734.25303	30.85801	 
625.0	1.0	0.0	8.15433	7.17013	-9.12277	14.33647	17.97007	1.22452	0.81665	176.7549	172.58804	66.48373	0.32931	 	6.03606E11	 	7.26243E-12	 	-1888.26479	30.80235	 
620.0	1.0	0.0	8.15638	7.16832	-9.14562	14.31245	17.91045	1.22175	0.81849	177.08152	172.76952	66.61339	0.32917	 	7.40646E11	 	5.88573E-12	 	-2042.00036	30.74711	 
615.0	1.0	0.0	8.15843	7.16652	-9.16841	14.28841	17.85081	1.21897	0.82036	177.40761	172.95023	66.74287	0.32904	 	9.10893E11	 	4.75889E-12	 	-2195.46011	30.69195	 
610.0	1.0	0.0	8.16047	7.16473	-9.19114	14.26436	17.79116	1.21618	0.82225	177.73317	173.13015	66.87218	0.3289	 	1.1229E12	 	3.83865E-12	 	-2348.64493	30.63696	 
605.0	1.0	0.0	8.16251	7.16294	-9.2138	14.24031	17.7315	1.21336	0.82416	178.05819	173.30929	67.00131	0.32877	 	1.38756E12	 	3.0889E-12	 	-2501.55577	30.58217	 
600.0	1.0	0.0	8.16454	7.16116	-9.2364	14.21625	17.67182	1.21052	0.82609	178.38268	173.48765	67.13027	0.32863	 	1.71875E12	 	2.47949E-12	 	-2654.19354	30.52755	 
595.0	1.0	0.0	8.16657	7.15938	-9.25894	14.19218	17.61214	1.20767	0.82804	178.70663	173.66523	67.25905	0.3285	 	2.13426E12	 	1.98534E-12	 	-2806.55916	30.47312	 
590.0	1.0	0.0	8.16859	7.15761	-9.28141	14.1681	17.55244	1.2048	0.83001	179.03005	173.84204	67.38765	0.32836	 	2.65686E12	 	1.58564E-12	 	-2958.65354	30.41888	 
585.0	1.0	0.0	8.17061	7.15584	-9.30383	14.14402	17.49273	1.20191	0.83201	179.35294	174.01808	67.51608	0.32822	 	3.31588E12	 	1.26314E-12	 	-3110.4776	30.36481	 
580.0	1.0	0.0	8.17263	7.15408	-9.32617	14.11992	17.43301	1.199	0.83403	179.6753	174.19335	67.64434	0.32809	 	4.14914E12	 	1.00359E-12	 	-3262.03225	30.31093	 
575.0	1.0	0.0	8.17464	7.15232	-9.34846	14.09582	17.37328	1.19607	0.83607	179.99712	174.36785	67.77241	0.32795	 	5.20552E12	 	7.95234E-13	 	-3413.3184	30.25723	 
570.0	1.0	0.0	8.17664	7.15057	-9.37069	14.07171	17.31353	1.19312	0.83814	180.31841	174.54158	67.90032	0.32782	 	6.54846E12	 	6.28423E-13	 	-3564.33696	30.20371	 
565.0	1.0	0.0	8.17864	7.14882	-9.39285	14.04759	17.25377	1.19016	0.84023	180.63917	174.71455	68.02804	0.32768	 	8.26044E12	 	4.95228E-13	 	-3715.08884	30.15038	 
560.0	1.0	0.0	8.18063	7.14707	-9.41494	14.02346	17.19399	1.18717	0.84234	180.95939	174.88675	68.15559	0.32755	 	1.04491E13	 	3.89163E-13	 	-3865.57492	30.09722	 
555.0	1.0	0.0	8.18263	7.14534	-9.43698	13.99933	17.1342	1.18416	0.84448	181.27908	175.05819	68.28297	0.32741	 	1.32552E13	 	3.04937E-13	 	-4015.79611	30.04424	 
550.0	1.0	0.0	8.18461	7.1436	-9.45895	13.97518	17.0744	1.18114	0.84664	181.59824	175.22888	68.41017	0.32728	 	1.68635E13	 	2.38242E-13	 	-4165.75332	29.99144	 
545.0	1.0	0.0	8.18659	7.14187	-9.48086	13.95103	17.01458	1.17809	0.84883	181.91687	175.39881	68.53719	0.32714	 	2.15173E13	 	1.8558E-13	 	-4315.44744	29.93882	 
540.0	1.0	0.0	8.18857	7.14015	-9.50271	13.92687	16.95475	1.17502	0.85105	182.23496	175.56798	68.66404	0.327	 	2.75378E13	 	1.44121E-13	 	-4464.87935	29.88638	 
535.0	1.0	0.0	8.19054	7.13843	-9.52449	13.9027	16.8949	1.17193	0.85329	182.55252	175.7364	68.79071	0.32687	 	3.53507E13	 	1.11579E-13	 	-4614.04994	29.83412	 
530.0	1.0	0.0	8.19251	7.13672	-9.54621	13.87852	16.83504	1.16882	0.85556	182.86955	175.90407	68.91721	0.32673	 	4.55214E13	 	8.61128E-14	 	-4762.96009	29.78203	 
525.0	1.0	0.0	8.19447	7.13501	-9.56787	13.85434	16.77516	1.16569	0.85786	183.18605	176.071	69.04353	0.3266	 	5.88044E13	 	6.62463E-14	 	-4911.61071	29.73012	 
520.0	1.0	0.0	8.19643	7.1333	-9.58946	13.83014	16.71527	1.16254	0.86019	183.50201	176.23717	69.16967	0.32646	 	7.62089E13	 	5.07968E-14	 	-5060.00264	29.67839	 
515.0	1.0	0.0	8.19838	7.13161	-9.61099	13.80594	16.65536	1.15937	0.86254	183.81745	176.4026	69.29564	0.32633	 	9.90902E13	 	3.88208E-14	 	-5208.13679	29.62683	 
510.0	1.0	0.0	8.20033	7.12991	-9.63246	13.78173	16.59543	1.15617	0.86492	184.13235	176.56728	69.42143	0.32619	 	1.2927399999999998E14	 	2.95679E-14	 	-5356.014	29.57544	 
505.0	1.0	0.0	8.20227	7.12822	-9.65386	13.75751	16.53549	1.15296	0.86734	184.44672	176.73123	69.54704	0.32606	 	1.69229E14	 	2.24426E-14	 	-5503.63517	29.52423	 
500.0	1.0	0.0	8.20421	7.12654	-9.6752	13.73329	16.47553	1.14972	0.86978	184.76056	176.89443	69.67248	0.32592	 	2.22307E14	 	1.69745E-14	 	-5651.00114	29.47319	 
495.0	1.0	0.0	8.20614	7.12486	-9.69648	13.70905	16.41555	1.14645	0.87225	185.07386	177.0569	69.79775	0.32579	 	2.93071E14	 	1.27926E-14	 	-5798.11278	29.42233	 
490.0	1.0	0.0	8.20807	7.12319	-9.71769	13.68481	16.35555	1.14317	0.87476	185.38664	177.21863	69.92283	0.32565	 	3.87763E14	 	9.60574E-15	 	-5944.97095	29.37164	 
485.0	1.0	0.0	8.20999	7.12152	-9.73884	13.66056	16.29554	1.13986	0.8773	185.69888	177.37963	70.04774	0.32552	 	5.1494699999999994E14	 	7.18587E-15	 	-6091.5765	29.32111	 
480.0	1.0	0.0	8.21191	7.11985	-9.75993	13.6363	16.23551	1.13653	0.87987	186.0106	177.53989	70.17248	0.32538	 	6.86427E14	 	5.35517E-15	 	-6237.93028	29.27076	 
475.0	1.0	0.0	8.21382	7.1182	-9.78095	13.61203	16.17546	1.13318	0.88247	186.32178	177.69943	70.29704	0.32525	 	9.18534E14	 	3.97539E-15	 	-6384.03313	29.22057	 
470.0	1.0	0.0	8.21573	7.11654	-9.80191	13.58775	16.11538	1.1298	0.88511	186.63243	177.85824	70.42142	0.32511	 	1.23395E15	 	2.93944E-15	 	-6529.88591	29.17055	 
465.0	1.0	0.0	8.21763	7.11489	-9.82281	13.56347	16.05529	1.1264	0.88778	186.94255	178.01632	70.54562	0.32498	 	1.66432E15	 	2.16468E-15	 	-6675.48943	29.1207	 
460.0	1.0	0.0	8.21953	7.11325	-9.84364	13.53918	15.99518	1.12297	0.89049	187.25213	178.17367	70.66965	0.32484	 	2.25398E15	 	1.58756E-15	 	-6820.84453	29.07102	 
455.0	1.0	0.0	8.22143	7.11161	-9.86441	13.51488	15.93505	1.11952	0.89324	187.56119	178.3303	70.79351	0.32471	 	3.06529E15	 	1.15941E-15	 	-6965.95203	29.0215	 
450.0	1.0	0.0	8.22332	7.10998	-9.88511	13.49057	15.8749	1.11605	0.89602	187.86972	178.48622	70.91718	0.32457	 	4.18638E15	 	8.43096E-16	 	-7110.81277	28.97215	 
445.0	1.0	0.0	8.2252	7.10835	-9.90575	13.46625	15.81473	1.11255	0.89884	188.17772	178.64141	71.04068	0.32444	 	5.74236E15	 	6.10396E-16	 	-7255.42755	28.92296	 
440.0	1.0	0.0	8.22708	7.10673	-9.92633	13.44192	15.75453	1.10903	0.90169	188.48518	178.79588	71.16401	0.3243	 	7.91165E15	 	4.39947E-16	 	-7399.79718	28.87393	 
435.0	1.0	0.0	8.22895	7.10511	-9.94685	13.41759	15.69431	1.10548	0.90459	188.79212	178.94964	71.28715	0.32417	 	1.09499E16	 	3.15648E-16	 	-7543.92247	28.82506	 
430.0	1.0	0.0	8.23082	7.10349	-9.9673	13.39325	15.63407	1.1019	0.90752	189.09852	179.10269	71.41013	0.32403	 	1.52251E16	 	2.25411E-16	 	-7687.80421	28.77635	 
425.0	1.0	0.0	8.23269	7.10189	-9.98768	13.3689	15.57381	1.0983	0.9105	189.40439	179.25502	71.53292	0.3239	 	2.12696E16	 	1.60205E-16	 	-7831.44312	28.72778	 
420.0	1.0	0.0	8.23455	7.10028	-10.00801	13.34454	15.51352	1.09467	0.91352	189.70974	179.40664	71.65554	0.32376	 	2.98575E16	 	1.13308E-16	 	-7974.84012	28.6794	 
415.0	1.0	0.0	8.2364	7.09868	-10.02826	13.32017	15.45321	1.09101	0.91658	190.01455	179.55756	71.77798	0.32363	 	4.212E16	 	7.97409E-17	 	-8117.99559	28.63109	 
410.0	1.0	0.0	8.23825	7.09709	-10.04846	13.2958	15.39288	1.08733	0.91968	190.31883	179.70776	71.90024	0.32349	 	5.97188E16	 	5.58331E-17	 	-8260.90978	28.58284	 
405.0	1.0	0.0	8.24009	7.0955	-10.06859	13.27141	15.33252	1.08362	0.92283	190.62259	179.85727	72.02233	0.32336	 	8.51079E16	 	3.88904E-17	 	-8403.5829	28.53462	 
400.0	1.0	0.0	8.24193	7.09392	-10.08866	13.24702	15.27213	1.07989	0.92602	190.92581	180.00606	72.14424	0.32322	 	1.21931E17	 	2.69454E-17	 	-8546.01517	28.48645	 
395.0	1.0	0.0	8.24377	7.09234	-10.10866	13.22262	15.21171	1.07612	0.92926	191.2285	180.15416	72.26597	0.32309	 	1.75628E17	 	1.8568E-17	 	-8688.20681	28.43833	 
390.0	1.0	0.0	8.2456	7.09077	-10.1286	13.19821	15.15127	1.07233	0.93255	191.53066	180.30156	72.38753	0.32295	 	2.5437E17	 	1.27243E-17	 	-8830.15801	28.39024	 
385.0	1.0	0.0	8.24742	7.0892	-10.14847	13.1738	15.09081	1.06851	0.93588	191.8323	180.44826	72.50891	0.32282	 	3.70494E17	 	8.67023E-18	 	-8971.86898	28.34219	 
380.0	1.0	0.0	8.24924	7.08764	-10.16828	13.14937	15.03031	1.06466	0.93927	192.1334	180.59426	72.63012	0.32268	 	5.42746E17	 	5.87359E-18	 	-9113.33989	28.29418	 
375.0	1.0	0.0	8.25105	7.08608	-10.18803	13.12494	14.96978	1.06078	0.9427	192.43397	180.73957	72.75114	0.32255	 	7.99779E17	 	3.95542E-18	 	-9254.57091	28.24621	 
370.0	1.0	0.0	8.25286	7.08452	-10.20771	13.1005	14.90923	1.05687	0.94619	192.73402	180.88418	72.87199	0.32241	 	1.18566E18	 	2.64751E-18	 	-9395.56224	28.19826	 
365.0	1.0	0.0	8.25466	7.08298	-10.22733	13.07605	14.84864	1.05294	0.94973	193.03353	181.0281	72.99267	0.32228	 	1.76861E18	 	1.76107E-18	 	-9536.314	28.15035	 
360.0	1.0	0.0	8.25646	7.08143	-10.24689	13.05159	14.78803	1.04897	0.95332	193.33252	181.17134	73.11316	0.32215	 	2.6549E18	 	1.16398E-18	 	-9676.82637	28.10247	 
355.0	1.0	0.0	8.25826	7.0799	-10.26638	13.02713	14.72738	1.04497	0.95697	193.63097	181.31388	73.23348	0.32201	 	4.01116E18	 	7.64328E-19	 	-9817.09946	28.05462	 
350.0	1.0	0.0	8.26004	7.07836	-10.2858	13.00265	14.6667	1.04094	0.96067	193.9289	181.45574	73.35362	0.32188	 	6.10055E18	 	4.98552E-19	 	-9957.13343	28.00679	 
345.0	1.0	0.0	8.26183	7.07684	-10.30516	12.97817	14.60599	1.03688	0.96443	194.22629	181.59692	73.47359	0.32174	 	9.34144E18	 	3.22973E-19	 	-10096.92837	27.95899	 
340.0	1.0	0.0	8.2636	7.07531	-10.32446	12.95368	14.54524	1.03279	0.96825	194.52316	181.73741	73.59337	0.32161	 	1.44038E19	 	2.07767E-19	 	-10236.48441	27.91121	 
335.0	1.0	0.0	8.26538	7.0738	-10.34369	12.92918	14.48446	1.02867	0.97213	194.8195	181.87722	73.71298	0.32147	 	2.23682E19	 	1.32699E-19	 	-10375.80162	27.86344	 
330.0	1.0	0.0	8.26714	7.07228	-10.36286	12.90467	14.42364	1.02451	0.97608	195.11531	182.01635	73.83242	0.32134	 	3.49909E19	 	8.41311E-20	 	-10514.8801	27.81569	 
325.0	1.0	0.0	8.26891	7.07078	-10.38196	12.88016	14.36279	1.02032	0.98008	195.41059	182.1548	73.95167	0.3212	 	5.51478E19	 	5.29381E-20	 	-10653.71992	27.76796	 
320.0	1.0	0.0	8.27066	7.06927	-10.401	12.85563	14.3019	1.0161	0.98415	195.70534	182.29257	74.07075	0.32107	 	8.75856E19	 	3.30536E-20	 	-10792.32111	27.72024	 
315.0	1.0	0.0	8.27242	7.06778	-10.41997	12.8311	14.24097	1.01185	0.98829	195.99956	182.42968	74.18965	0.32094	 	1.4020099999999998E20	 	2.04749E-20	 	-10930.68375	27.67253	 
310.0	1.0	0.0	8.27416	7.06629	-10.43888	12.80656	14.18	1.00756	0.9925	196.29325	182.5661	74.30838	0.3208	 	2.2624299999999997E20	 	1.25803E-20	 	-11068.80784	27.62482	 
305.0	1.0	0.0	8.2759	7.0648	-10.45773	12.78201	14.11899	1.00324	0.99677	196.58642	182.70186	74.42692	0.32067	 	3.68124E20	 	7.66537E-21	 	-11206.6934	27.57711	 
300.0	1.0	0.0	8.27764	7.06332	-10.47651	12.75745	14.05794	0.99888	1.00112	196.87905	182.83695	74.54529	0.32053	 	6.04089E20	 	4.63078E-21	 	-11344.34044	27.52941	 
295.0	1.0	0.0	8.27937	7.06184	-10.49522	12.73289	13.99685	0.99449	1.00554	197.17116	182.97137	74.66348	0.3204	 	9.999859999999999E20	 	2.77304E-21	 	-11481.74891	27.48169	 
290.0	1.0	0.0	8.2811	7.06037	-10.51388	12.70832	13.93571	0.99006	1.01004	197.46273	183.10512	74.7815	0.32026	 	1.6702200000000001E21	 	1.64565E-21	 	-11618.9188	27.43398	 
285.0	1.0	0.0	8.28282	7.0589	-10.53246	12.68373	13.87453	0.9856	1.01462	197.75378	183.2382	74.89933	0.32013	 	2.81543E21	 	9.67593E-22	 	-11755.85004	27.38625	 
280.0	1.0	0.0	8.28453	7.05744	-10.55098	12.65914	13.81331	0.9811	1.01927	198.0443	183.37063	75.01699	0.32	 	4.79089E21	 	5.63526E-22	 	-11892.54256	27.3385	 
275.0	1.0	0.0	8.28624	7.05599	-10.56944	12.63455	13.75203	0.97656	1.024	198.3343	183.50239	75.13447	0.31986	 	8.23187E21	 	3.25003E-22	 	-12028.99627	27.29074	 
270.0	1.0	0.0	8.28795	7.05453	-10.58783	12.60994	13.69071	0.97199	1.02882	198.62376	183.63349	75.25177	0.31973	 	1.4285999999999998E22	 	1.85565E-22	 	-12165.21105	27.24296	 
265.0	1.0	0.0	8.28965	7.05309	-10.60616	12.58533	13.62934	0.96737	1.03373	198.91269	183.76393	75.3689	0.31959	 	2.50478E22	 	1.04863E-22	 	-12301.18677	27.19514	 
260.0	1.0	0.0	8.29134	7.05165	-10.62442	12.5607	13.56792	0.96272	1.03872	199.2011	183.89371	75.48585	0.31946	 	4.43816E22	 	5.86318E-23	 	-12436.92326	27.1473	 
255.0	1.0	0.0	8.29303	7.05021	-10.64262	12.53607	13.50645	0.95804	1.0438	199.48898	184.02284	75.60262	0.31933	 	7.949499999999999E22	 	3.24268E-23	 	-12572.42035	27.09942	 
250.0	1.0	0.0	8.29471	7.04878	-10.66075	12.51143	13.44492	0.95331	1.04898	199.77633	184.15132	75.71921	0.31919	 	1.43985E23	 	1.77336E-23	 	-12707.67784	27.0515	 
245.0	1.0	0.0	8.29639	7.04736	-10.67882	12.48678	13.38334	0.94854	1.05425	200.06315	184.27914	75.83562	0.31906	 	2.6379799999999996E23	 	9.58674E-24	 	-12842.69547	27.00353	 
240.0	1.0	0.0	8.29806	7.04593	-10.69682	12.46213	13.3217	0.94374	1.05962	200.34944	184.40631	75.95186	0.31892	 	4.8904699999999995E23	 	5.1213E-24	 	-12977.473	26.95551	 
235.0	1.0	0.0	8.29973	7.04452	-10.71476	12.43746	13.26001	0.93889	1.06509	200.63521	184.53283	76.06792	0.31879	 	9.1771E23	 	2.70255E-24	 	-13112.01016	26.90743	 
230.0	1.0	0.0	8.30139	7.04311	-10.73263	12.41279	13.19825	0.934	1.07066	200.92045	184.65871	76.1838	0.31866	 	1.74379E24	 	1.40829E-24	 	-13246.30659	26.85929	 
225.0	1.0	0.0	8.30305	7.0417	-10.75044	12.38811	13.13643	0.92907	1.07634	201.20515	184.78394	76.2995	0.31852	 	3.35643E24	 	7.24385E-25	 	-13380.36197	26.81108	 
220.0	1.0	0.0	8.3047	7.0403	-10.76818	12.36342	13.07455	0.9241	1.08214	201.48934	184.90852	76.41502	0.31839	 	6.54679E24	 	3.67653E-25	 	-13514.1759	26.76279	 
215.0	1.0	0.0	8.30634	7.03891	-10.78585	12.33873	13.0126	0.91908	1.08804	201.77299	185.03246	76.53037	0.31825	 	1.2945600000000001E25	 	1.84042E-25	 	-13647.74799	26.71442	 
210.0	1.0	0.0	8.30798	7.03752	-10.80347	12.31402	12.95059	0.91403	1.09406	202.05611	185.15576	76.64553	0.31812	 	2.5962500000000003E25	 	9.08286E-26	 	-13781.07776	26.66595	 
205.0	1.0	0.0	8.30962	7.03614	-10.82101	12.28931	12.8885	0.90892	1.1002	202.33871	185.27841	76.76052	0.31799	 	5.28311E25	 	4.41734E-26	 	-13914.16472	26.61739	 
200.0	1.0	0.0	8.31125	7.03476	-10.83849	12.26458	12.82635	0.90378	1.10647	202.62078	185.40043	76.87533	0.31785	 	1.09133E26	 	2.11607E-26	 	-14047.00835	26.56873	 
195.0	1.0	0.0	8.31287	7.03338	-10.85591	12.23985	12.76412	0.89859	1.11286	202.90232	185.52181	76.98997	0.31772	 	2.2895500000000003E26	 	9.9798E-27	 	-14179.60807	26.51994	 
190.0	1.0	0.0	8.31449	7.03201	-10.87326	12.21512	12.70181	0.89335	1.11938	203.18334	185.64256	77.10442	0.31759	 	4.88082E26	 	4.63144E-27	 	-14311.96326	26.47104	 
185.0	1.0	0.0	8.3161	7.03065	-10.89054	12.19037	12.63943	0.88807	1.12604	203.46382	185.76267	77.2187	0.31745	 	1.0578199999999999E27	 	2.11389E-27	 	-14444.07325	26.422	 
180.0	1.0	0.0	8.31771	7.02929	-10.90776	12.16561	12.57696	0.88274	1.13284	203.74378	185.88215	77.33279	0.31732	 	2.33207E27	 	9.48389E-28	 	-14575.93732	26.37281	 
175.0	1.0	0.0	8.31931	7.02794	-10.92491	12.14085	12.51441	0.87736	1.13978	204.02321	186.001	77.44671	0.31718	 	5.232809999999999E27	 	4.17999E-28	 	-14707.55472	26.32348	 
170.0	1.0	0.0	8.32091	7.02659	-10.942	12.11608	12.45178	0.87194	1.14687	204.30211	186.11921	77.56045	0.31705	 	1.19577E28	 	1.8088E-28	 	-14838.9246	26.27398	 
165.0	1.0	0.0	8.3225	7.02525	-10.95903	12.0913	12.38905	0.86646	1.15412	204.58049	186.2368	77.67401	0.31692	 	2.78453E28	 	7.67994E-29	 	-14970.0461	26.2243	 
160.0	1.0	0.0	8.32408	7.02391	-10.97598	12.06651	12.32623	0.86094	1.16152	204.85834	186.35376	77.78739	0.31678	 	6.61198E28	 	3.19738E-29	 	-15100.91824	26.17443	 
155.0	1.0	0.0	8.32566	7.02258	-10.99287	12.04171	12.26332	0.85537	1.16908	205.13566	186.4701	77.9006	0.31665	 	1.6020800000000003E29	 	1.30437E-29	 	-15231.54005	26.12436	 
150.0	1.0	0.0	8.32724	7.02125	-11.0097	12.01691	12.20031	0.84975	1.17682	205.41245	186.58581	78.01362	0.31652	 	3.9638600000000004E29	 	5.21031E-30	 	-15361.91042	26.07407	 
145.0	1.0	0.0	8.3288	7.01993	-11.02646	11.9921	12.13719	0.84407	1.18473	205.68872	186.7009	78.12647	0.31638	 	1.00222E30	 	2.03637E-30	 	-15492.02819	26.02355	 
140.0	1.0	0.0	8.33037	7.01861	-11.04315	11.96728	12.07397	0.83835	1.19282	205.96446	186.81537	78.23914	0.31625	 	2.59153E30	 	7.78106E-31	 	-15621.89214	25.97279	 
135.0	1.0	0.0	8.33193	7.0173	-11.05978	11.94245	12.01064	0.83257	1.2011	206.23967	186.92922	78.35163	0.31612	 	6.85897E30	 	2.90434E-31	 	-15751.50096	25.92176	 
130.0	1.0	0.0	8.33348	7.01599	-11.07635	11.91761	11.9472	0.82674	1.20958	206.51435	187.04245	78.46394	0.31598	 	1.85972E31	 	1.05805E-31	 	-15880.85323	25.87045	 
125.0	1.0	0.0	8.33502	7.01469	-11.09284	11.89276	11.88364	0.82085	1.21825	206.78851	187.15506	78.57607	0.31585	 	5.1703E31	 	3.75853E-32	 	-16009.94746	25.81885	 
120.0	1.0	0.0	8.33656	7.01339	-11.10928	11.86791	11.81995	0.81491	1.22713	207.06214	187.26706	78.68802	0.31572	 	1.47529E32	 	1.30067E-32	 	-16138.78205	25.76692	 
115.0	1.0	0.0	8.3381	7.0121	-11.12564	11.84305	11.75614	0.80891	1.23623	207.33524	187.37844	78.79979	0.31558	 	4.32488E32	 	4.38039E-33	 	-16267.35528	25.71465	 
110.0	1.0	0.0	8.33963	7.01082	-11.14194	11.81818	11.6922	0.80286	1.24555	207.60782	187.48921	78.91138	0.31545	 	1.30395E33	 	1.43415E-33	 	-16395.66536	25.66202	 
105.0	1.0	0.0	8.34115	7.00953	-11.15817	11.7933	11.62812	0.79675	1.2551	207.87987	187.59937	79.0228	0.31532	 	4.04781E33	 	4.55964E-34	 	-16523.71033	25.60899	 
100.0	1.0	0.0	8.34267	7.00826	-11.17434	11.76841	11.56389	0.79058	1.2649	208.15139	187.70892	79.13403	0.31518	 	1.29528E34	 	1.40607E-34	 	-16651.48813	25.55556	 
95.0	1.0	0.0	8.34418	7.00699	-11.19044	11.74352	11.49952	0.78435	1.27494	208.42238	187.81786	79.24509	0.31505	 	4.27789E34	 	4.20031E-35	 	-16778.99654	25.50168	 
90.0	1.0	0.0	8.34569	7.00572	-11.20648	11.71861	11.435	0.77807	1.28524	208.69285	187.9262	79.35597	0.31492	 	1.4600999999999998E35	 	1.21392E-35	 	-16906.23324	25.44734	 
85.0	1.0	0.0	8.34719	7.00446	-11.22245	11.6937	11.37031	0.77172	1.29581	208.96279	188.03393	79.46666	0.31478	 	5.15731E35	 	3.38944E-36	 	-17033.1957	25.39249	 
80.0	1.0	0.0	8.34869	7.00321	-11.23835	11.66878	11.30546	0.76531	1.30666	209.2322	188.14105	79.57718	0.31465	 	1.8879099999999998E36	 	9.12987E-37	 	-17159.88124	25.33711	 
75.0	1.0	0.0	8.35018	7.00196	-11.25419	11.64385	11.24043	0.75884	1.3178	209.50109	188.24757	79.68752	0.31452	 	7.173429999999999E36	 	2.36879E-37	 	-17286.28701	25.28115	 
70.0	1.0	0.0	8.35166	7.00071	-11.26996	11.61891	11.17522	0.7523	1.32925	209.76945	188.35349	79.79768	0.31438	 	2.83379E37	 	5.91021E-38	 	-17412.40997	25.22459	 
65.0	1.0	0.0	8.35314	6.99948	-11.28567	11.59397	11.10982	0.74571	1.34101	210.03728	188.45881	79.90766	0.31425	 	1.16588E38	 	1.41561E-38	 	-17538.24684	25.16737	 
60.0	1.0	0.0	8.35461	6.99824	-11.30131	11.56902	11.04423	0.73904	1.3531	210.30459	188.56353	80.01746	0.31412	 	5.0046699999999995E38	 	3.24901E-39	 	-17663.79415	25.10946	 
55.0	1.0	0.0	8.35608	6.99701	-11.31688	11.54406	10.97842	0.73232	1.36553	210.57137	188.66765	80.12708	0.31398	 	2.24585E39	 	7.13147E-40	 	-17789.04819	25.05081	 
50.0	1.0	0.0	8.35754	6.99579	-11.33238	11.51909	10.9124	0.72552	1.37832	210.83762	188.77118	80.23652	0.31385	 	1.05575E40	 	1.49393E-40	 	-17914.00497	24.99136	 
45.0	1.0	0.0	8.359	6.99457	-11.34782	11.49411	10.84615	0.71866	1.39148	211.10335	188.87411	80.34578	0.31372	 	5.2104E40	 	2.98022E-41	 	-18038.66023	24.93105	 
40.0	1.0	0.0	8.36045	6.99336	-11.3632	11.46912	10.77966	0.71173	1.40503	211.36855	188.97645	80.45486	0.31358	 	2.70595E41	 	5.64832E-42	 	-18163.0094	24.86983	 
35.0	1.0	0.0	8.36189	6.99215	-11.37851	11.44413	10.71292	0.70473	1.41899	211.63322	189.0782	80.56376	0.31345	 	1.48247E42	 	1.01452E-42	 	-18287.04762	24.80764	 
30.0	1.0	0.0	8.36333	6.99095	-11.39375	11.41912	10.64592	0.69765	1.43337	211.89737	189.17935	80.67248	0.31332	 	8.59052E42	 	1.72236E-43	 	-18410.76962	24.7444	 
25.0	1.0	0.0	8.36476	6.98975	-11.40892	 	10.57864	0.69051	1.4482	212.16099	189.27992	80.78102	0.31319	 	5.28013E43	 	2.75598E-44	 	-18534.16981	 	 
