T (C)	Fraction solid (wt)-TOTAL	Fraction liquid (wt)-LIQUID	Density (g/(cm)^3)-TOTAL	Molar volume (cm^3)-TOTAL	Volume change (%)-  	Average expansion coeff. (10e-6 1/K)-  	Thermal conductivity (W/(m*K))-TOTAL	Electrical resistivity (10e-6 Ohm*m)-TOTAL	Electrical conductivity (10e6 1/(Ohm*m))-TOTAL	Young's modulus (GPa)-TOTAL	Bulk modulus (GPa)-TOTAL	Shear modulus(GPa)-TOTAL	Poisson's ratio-TOTAL	Liquid viscosity (mPa s)-  	Total viscosity (mPa s)-  	Liquid diffusivity (10e-9 (m^2)/s)-  	Total diffusivity (10e-9 (m^2)/s)-  	Surface Tension (mN/m)-  	Enthalpy (J/mole)-TOTAL	Specific heat (J/(mole K))-TOTAL	Latent heat (J/mole)-TOTAL
1400.0	0.0	1.0	7.06697	8.00672	0.0	34.65881	29.65077	1.3825	0.72333	0.0	121.2239	0.0	0.5	6.58891	6.58891	1.23939	1.23939	1787.75459	40985.258	 	0.0
1395.0	0.0	1.0	7.07105	8.0021	-0.0577443	34.62472	29.56908	1.38218	0.7235	0.0	121.36203	0.0	0.5	6.65922	6.65922	1.22264	1.22264	1791.15892	40785.321	39.9874	0.0
1390.0	0.0	1.0	7.07513	7.99749	-0.11533	34.59083	29.48739	1.38185	0.72367	0.0	121.50016	0.0	0.5	6.7307	6.7307	1.20603	1.20603	1794.59517	40585.823	39.8996	0.0
1385.0	0.0	1.0	7.0792	7.99289	-0.17275	34.55714	29.40571	1.38152	0.72384	0.0	121.6383	0.0	0.5	6.80339	6.80339	1.18956	1.18956	1798.06333	40386.76	39.8126	0.0
1380.0	0.0	1.0	7.08326	7.98831	-0.23001	34.52366	29.32402	1.38119	0.72401	0.0	121.77643	0.0	0.5	6.87732	6.87732	1.17322	1.17322	1801.56339	40188.128	39.7264	0.0
1375.0	0.0	1.0	7.08732	7.98373	-0.2871	34.49039	29.24233	1.38086	0.72418	0.0	121.91456	0.0	0.5	6.9525	6.9525	1.15702	1.15702	1805.0953	39989.927	39.6402	0.0
1370.0	0.0	1.0	7.09137	7.97918	-0.34404	34.45733	29.16064	1.38053	0.72436	0.0	122.05269	0.0	0.5	7.02897	7.02897	1.14096	1.14096	1808.65899	39792.153	39.5548	0.0
1365.0	0.0	1.0	7.09541	7.97463	-0.40081	34.42449	29.07896	1.3802	0.72453	0.0	122.19082	0.0	0.5	7.10675	7.10675	1.12504	1.12504	1812.25438	39594.803	39.47	0.0
1360.0	0.0	1.0	7.09945	7.9701	-0.45742	34.39186	28.99727	1.37986	0.72471	0.0	122.32896	0.0	0.5	7.18588	7.18588	1.10926	1.10926	1815.88134	39397.875	39.3856	0.0
1355.0	0.0	1.0	7.10347	7.96558	-0.51387	34.35945	28.91558	1.37952	0.72489	0.0	122.46709	0.0	0.5	7.26639	7.26639	1.09361	1.09361	1819.53975	39201.367	39.3016	0.0
1350.0	0.0	1.0	7.1075	7.96107	-0.57016	34.32725	28.8339	1.37918	0.72507	0.0	122.60522	0.0	0.5	7.3483	7.3483	1.0781	1.0781	1823.22945	39005.275	39.2184	0.0
1345.29	0.0	1.0	7.11128	7.95684	-0.62305	34.29713	28.75693	1.37886	0.72524	0.0	122.73537	0.0	0.5	7.42679	7.42679	1.06361	1.06361	1826.73433	38820.898	39.13788	0.0
1345.0	0.01102	0.98898	7.11486	7.95286	-0.67273	34.16122	28.78927	1.37706	0.72618	1.27155E-6	122.93527	4.24227E-7	0.49867	7.43089	7.53964	1.06283	1.0475	1826.64184	38655.25	573.09715	154.348
1340.0	0.19435	0.80565	7.17441	7.88683	-1.49744	31.90172	29.34753	1.3467	0.74256	0.12828	126.22787	0.0434489	0.47623	7.50156	28.99219	1.04957	0.27157	1825.03547	35907.838	549.4824	2706.493
1335.0	0.33924	0.66076	7.22263	7.83424	-2.15426	30.11326	29.80163	1.32206	0.75639	1.22983	128.88645	0.42172	0.45812	7.57365	199.82325	1.03635	0.0392796	1823.42619	33714.274	438.7128	4705.201
1330.0	0.45491	0.54509	7.2621	7.79164	-2.68626	28.67547	30.17523	1.30164	0.76826	4.08538	131.05987	1.41521	0.44338	7.64721	651.90905	1.02319	0.0120026	1821.82669	31941.59	354.5368	6283.436
1325.0	0.54808	0.45192	7.29469	7.75688	-3.12039	27.51346	30.48313	1.28447	0.77853	8.80749	132.86216	3.07672	0.43131	7.72219	1428.52872	1.0101	0.00546028	1820.24406	30491.784	289.9612	7539.198
1320.0	0.62373	0.37627	7.32188	7.72818	-3.47886	26.56508	30.73537	1.26994	0.78744	15.0651	134.37673	5.29954	0.42136	7.7987	2510.42794	0.99706	0.00309739	1818.68645	29291.869	239.983	8545.469
1315.0	0.68558	0.31442	7.34475	7.70421	-3.77827	25.78376	30.93971	1.2576	0.79517	22.36624	135.66463	7.91391	0.4131	7.87678	3851.38364	0.98408	0.00201262	1817.16099	28286.964	200.981	9357.131
1310.0	0.73645	0.26355	7.36416	7.68399	-4.03076	25.13548	31.10311	1.24705	0.80189	30.22793	136.77408	10.74811	0.4062	7.95648	5400.41724	0.97115	0.00143081	1815.67339	27435.422	170.3084	10015.827
1305.0	0.77853	0.22147	7.38077	7.66682	-4.24515	24.59556	31.23134	1.23801	0.80775	38.25381	137.74156	13.6581	0.40041	8.03782	7113.25932	0.95829	0.00108285	1814.22636	26705.376	146.0092	10553.423
1300.0	0.81352	0.18648	7.39511	7.65207	-4.42943	24.14134	31.32968	1.23021	0.81287	46.14871	138.5946	16.53463	0.39552	8.12083	8954.80874	0.94549	8.57434E-4	1812.8252	26072.24	126.6272	10994.5
1295.0	0.84273	0.15727	7.40758	7.63931	-4.58883	23.75822	31.40253	1.22346	0.81736	53.71314	139.35543	19.30226	0.39137	8.20562	10900.70547	0.93275	7.02134E-4	1811.47088	25516.909	111.0662	11358.163
1290.0	0.86725	0.13275	7.41852	7.62816	-4.72803	23.43287	31.45371	1.21757	0.82131	60.82532	140.04107	21.9138	0.38783	8.29219	12935.46105	0.92006	5.89801E-4	1810.16569	25024.428	98.4962	11659.365
1285.0	0.8879	0.1121	7.4282	7.61832	-4.85088	23.15439	31.48649	1.21241	0.8248	67.42156	140.66503	24.34347	0.3848	8.3807	15050.96224	0.90744	5.0528E-4	1808.912	24583.013	88.283	11909.886
1280.0	0.90535	0.0946451	7.43684	7.60959	-4.95998	22.91544	31.50366	1.20787	0.82791	73.48136	141.23874	26.58164	0.38218	8.47116	17245.63447	0.89486	4.39563E-4	1807.70912	24183.321	79.9384	12119.067
1275.0	0.92018	0.079824	7.4446	7.60176	-5.05781	22.70893	31.5075	1.20383	0.83068	79.00668	141.77023	28.62731	0.37992	8.56355	19521.2301	0.88236	3.87073E-4	1806.55819	23817.898	73.0846	12294.361
1270.0	0.9328	0.0672022	7.45164	7.59467	-5.14627	22.52942	31.49999	1.20023	0.83317	84.02372	142.26691	30.48877	0.37795	8.65819	21884.57031	0.8699	3.44157E-4	1805.459	23480.767	67.4262	12441.743
1265.0	0.94358	0.0564187	7.45806	7.58822	-5.22689	22.37256	31.48279	1.19699	0.83543	88.56511	142.73432	32.17699	0.37622	8.75493	24344.18338	0.8575	3.08383E-4	1804.4114	23167.103	62.7328	12566.033
1260.0	0.95283	0.0471741	7.46397	7.5823	-5.3008	22.23514	31.45728	1.19407	0.83747	92.6685	143.17721	33.70502	0.3747	8.85401	26910.99744	0.84514	2.78062E-4	1803.41324	22872.999	58.8208	12671.139
1255.0	0.96077	0.0392264	7.46944	7.57683	-5.36917	22.11374	31.42466	1.19141	0.83934	96.37369	143.59917	35.08696	0.37335	8.95534	29597.65812	0.83286	2.51997E-4	1802.46519	22595.268	55.5462	12760.244
1250.0	0.96763	0.0323729	7.47454	7.57173	-5.43283	22.00601	31.38591	1.18898	0.84106	99.72013	144.00328	36.33692	0.37216	9.05915	32418.41149	0.82062	2.29318E-4	1801.56551	22331.307	52.7922	12835.95
1245.0	0.97355	0.0264486	7.47932	7.56695	-5.49253	21.90978	31.34189	1.18674	0.84264	102.74559	144.39219	37.46855	0.37109	9.16547	35389.12173	0.80844	2.09378E-4	1800.71361	22078.971	50.4672	12900.399
1240.0	0.97869	0.0213119	7.48384	7.56244	-5.5488	21.82347	31.29329	1.18467	0.84412	105.48445	144.76788	38.4943	0.37013	9.27455	38526.28919	0.7963	1.91695E-4	1799.90823	21836.492	48.4958	12955.357
1235.0	0.98315	0.0168489	7.48812	7.55818	-5.60212	21.74577	31.24073	1.18274	0.84549	107.96845	145.13204	39.42574	0.36926	9.38625	41848.13399	0.78422	1.75896E-4	1799.14691	21602.405	46.8174	13002.288
1230.0	0.98704	0.0129602	7.4922	7.5541	-5.653	21.67513	31.18476	1.18094	0.84679	110.22746	145.48631	40.27382	0.36848	9.50094	45374.83557	0.77219	1.61687E-4	1798.43064	21375.489	45.3832	13042.409
1225.53	0.99008	0.00991834	7.4957	7.55061	-5.69657	21.61764	31.132	1.17942	0.84788	112.06963	145.79539	40.96618	0.36783	9.60593	48717.26579	0.76147	1.50145E-4	1797.82472	21177.93	 	13073.162
1225.0	0.99054	0.00946373	7.49612	7.55015	-5.70232	21.60887	31.12779	1.17916	0.84806	112.34317	145.83578	41.06893	0.36774	9.62982	49149.28585	0.75932	1.48773E-4	1797.81928	21152.975	44.5028	13078.489
1224.87	0.99065	0.00934874	7.49622	7.55004	-5.70378	21.60665	31.12669	1.1791	0.84811	112.41155	145.846	41.09462	0.36772	9.63601	49259.57749	0.75876	1.48427E-4	1797.81897	21146.635	 	13079.82
1220.0	0.99588	0.00412487	7.50082	7.54545	-5.76109	21.51192	31.09959	1.17629	0.85013	115.45246	146.24945	42.2371	0.36672	9.77995	53647.45788	0.74517	1.35844E-4	1793.47812	20898.752	50.8446	13146.634
1215.0	1.0	0.0	7.50501	7.54124	-5.81358	21.43425	31.06314	1.17373	0.85199	118.00175	146.63128	43.1964	0.36587	 	58321.17197	 	1.2454E-4	 	20661.597	47.431	13198.069
1210.0	1.0	0.0	7.50751	7.53873	-5.845	21.42368	30.97983	1.17293	0.85257	118.43116	146.91719	43.36077	0.36565	 	62472.56288	 	1.15873E-4	 	20456.77712	40.96398	 
1205.0	1.0	0.0	7.51001	7.53622	-5.87635	21.41321	30.89652	1.17213	0.85315	118.85969	147.20132	43.52487	0.36542	 	66950.59957	 	1.07758E-4	 	20277.13806	35.92781	 
1200.0	1.0	0.0	7.51251	7.53371	-5.90766	21.40284	30.81321	1.17132	0.85374	119.28732	147.48368	43.68868	0.3652	 	71783.34731	 	1.00164E-4	 	20097.74256	35.8791	 
1197.98	1.0	0.0	7.51352	7.5327	-5.92029	21.39867	30.77953	1.17099	0.85397	119.45989	147.59729	43.7548	0.36511	 	73844.00082	 	9.72349E-5	 	20025.30953	 	 
1195.0	1.0	0.0	7.5174	7.52881	-5.96888	21.29492	30.55527	1.1772	0.84947	120.23065	147.81897	44.05863	0.36444	 	77454.82512	 	9.25143E-5	 	19792.0621	61.13609	 
1190.0	1.0	0.0	7.52378	7.52243	-6.04855	21.12577	30.19729	1.1871	0.84239	121.47116	148.16251	44.54851	0.36336	 	83966.91447	 	8.50486E-5	 	19408.45132	76.72216	 
1185.0	1.0	0.0	7.52998	7.51623	-6.12598	20.96253	29.85534	1.19659	0.83571	122.65046	148.47519	45.01522	0.36232	 	91096.13588	 	7.81248E-5	 	19034.20305	74.84965	 
1180.0	1.0	0.0	7.53603	7.5102	-6.20128	20.80489	29.52868	1.20568	0.82941	123.77385	148.76169	45.46068	0.36133	 	98906.5796	 	7.17087E-5	 	18668.81512	73.07759	 
1175.0	1.0	0.0	7.54192	7.50433	-6.27457	20.65253	29.21647	1.21437	0.82347	124.84597	149.02585	45.88658	0.36038	 	107469.5148	 	6.5768E-5	 	18311.81793	71.39944	 
1170.0	1.0	0.0	7.54767	7.49862	-6.34596	20.50519	28.91784	1.22268	0.81788	125.87086	149.2708	46.29442	0.35946	 	116864.2608	 	6.02721E-5	 	17962.77198	69.80919	 
1165.0	1.0	0.0	7.55328	7.49305	-6.41554	20.36258	28.63201	1.2306	0.81261	126.85212	149.49918	46.68552	0.35858	 	127179.1422	 	5.51919E-5	 	17621.26564	68.30127	 
1160.0	1.0	0.0	7.55876	7.48761	-6.48341	20.22446	28.35822	1.23817	0.80765	127.79294	149.71315	47.06105	0.35774	 	138512.594	 	5.04997E-5	 	17286.91301	66.87053	 
1155.0	1.0	0.0	7.56412	7.48231	-6.54966	20.0906	28.09577	1.24537	0.80297	128.69619	149.91456	47.42208	0.35692	 	150974.3925	 	4.61697E-5	 	16959.35203	65.5122	 
1150.0	1.0	0.0	7.56936	7.47713	-6.61436	19.96077	27.84397	1.25223	0.79857	129.56444	150.10497	47.76956	0.35614	 	164687.0467	 	4.21772E-5	 	16638.24272	64.22186	 
1145.0	1.0	0.0	7.57449	7.47206	-6.6776	19.83477	27.60221	1.25876	0.79443	130.40006	150.28571	48.10438	0.35539	 	179787.3813	 	3.8499E-5	 	16323.26562	62.99542	 
1140.0	1.0	0.0	7.57952	7.46711	-6.73944	19.7124	27.36988	1.26497	0.79053	131.20518	150.45793	48.42734	0.35466	 	196428.3166	 	3.51132E-5	 	16014.12022	61.82908	 
1135.0	1.0	0.0	7.58444	7.46227	-6.79996	19.59347	27.14644	1.27087	0.78686	131.98176	150.62262	48.73917	0.35396	 	214780.8804	 	3.19993E-5	 	15710.52369	60.7193	 
1130.0	1.0	0.0	7.58926	7.45752	-6.85921	19.47782	26.93137	1.27647	0.78341	132.7316	150.78066	49.04056	0.35328	 	235036.5149	 	2.91377E-5	 	15412.20958	59.66282	 
1125.0	1.0	0.0	7.594	7.45287	-6.91727	19.36528	26.72417	1.28179	0.78016	133.45639	150.93282	49.33213	0.35263	 	257409.6559	 	2.65104E-5	 	15118.92666	58.65658	 
1120.0	1.0	0.0	7.59864	7.44832	-6.97418	19.2557	26.52439	1.28682	0.77711	134.15767	151.07976	49.61447	0.352	 	282140.6782	 	2.41001E-5	 	14830.43795	57.69774	 
1115.0	1.0	0.0	7.6032	7.44385	-7.03	19.14892	26.33159	1.29159	0.77424	134.83687	151.2221	49.88814	0.35139	 	309499.2532	 	2.18909E-5	 	14546.5196	56.78367	 
1110.0	1.0	0.0	7.60769	7.43946	-7.08478	19.0448	26.14537	1.29611	0.77154	135.49533	151.36037	50.15364	0.3508	 	339788.1433	 	1.98677E-5	 	14266.96017	55.91189	 
1105.0	1.0	0.0	7.61209	7.43516	-7.13857	18.94323	25.96537	1.30037	0.76901	136.13432	151.49505	50.41144	0.35023	 	373347.5234	 	1.80165E-5	 	13991.55964	55.08011	 
1100.0	1.0	0.0	7.61643	7.43093	-7.19141	18.84407	25.79121	1.3044	0.76663	136.755	151.6266	50.66201	0.34968	 	410559.9294	 	1.63241E-5	 	13720.12877	54.28617	 
1095.0	1.0	0.0	7.62069	7.42677	-7.24334	18.7472	25.62257	1.30821	0.7644	137.35847	151.75539	50.90575	0.34914	 	451855.8534	 	1.47782E-5	 	13452.48836	53.52808	 
1090.0	1.0	0.0	7.62489	7.42268	-7.29441	18.65252	25.45915	1.31179	0.76231	137.94576	151.88179	51.14308	0.34863	 	497720.1675	 	1.33673E-5	 	13188.46862	52.80395	 
1085.0	1.0	0.0	7.62902	7.41865	-7.34466	18.55991	25.30065	1.31517	0.76036	138.51784	152.00613	51.37435	0.34812	 	548699.4259	 	1.20809E-5	 	12927.90855	52.11201	 
1080.0	1.0	0.0	7.6331	7.4147	-7.39412	18.46927	25.14679	1.31835	0.75853	139.07561	152.1287	51.59993	0.34763	 	605410.2355	 	1.09089E-5	 	12670.65545	51.45062	 
1075.0	1.0	0.0	7.63711	7.4108	-7.44281	18.38052	24.99734	1.32133	0.75681	139.61994	152.24978	51.82014	0.34716	 	668548.819	 	9.84219E-6	 	12416.56436	50.81822	 
1070.0	1.0	0.0	7.64108	7.40695	-7.49079	18.29355	24.85203	1.32412	0.75522	140.15162	152.36961	52.03529	0.3467	 	738901.9579	 	8.87206E-6	 	12165.49767	50.21334	 
1065.0	1.0	0.0	7.64498	7.40317	-7.53807	18.20828	24.71066	1.32674	0.75373	140.67141	152.48843	52.24568	0.34625	 	817359.543	 	7.99058E-6	 	11917.32461	49.63461	 
1060.0	1.0	0.0	7.64884	7.39944	-7.58469	18.12463	24.57302	1.32919	0.75234	141.18003	152.60644	52.4516	0.34581	 	904928.9626	 	7.19037E-6	 	11671.92092	49.08074	 
1055.0	1.0	0.0	7.65265	7.39575	-7.63068	18.04252	24.4389	1.33147	0.75105	141.67815	152.72383	52.65329	0.34539	 	1002751.617	 	6.46458E-6	 	11429.16844	48.5505	 
1050.0	1.0	0.0	7.65641	7.39212	-7.67606	17.96187	24.30813	1.33359	0.74985	142.16641	152.84078	52.85102	0.34497	 	1112121.917	 	5.80689E-6	 	11188.95482	48.04272	 
1045.0	1.0	0.0	7.66013	7.38853	-7.72085	17.88261	24.18053	1.33557	0.74875	142.6454	152.95746	53.045	0.34457	 	1234509.102	 	5.21143E-6	 	10951.17313	47.55634	 
1040.0	1.0	0.0	7.6638	7.38499	-7.76508	17.80468	24.05594	1.33739	0.74773	143.11569	153.07401	53.23548	0.34418	 	1371582.387	 	4.67282E-6	 	10715.72163	47.0903	 
1035.0	1.0	0.0	7.66743	7.38149	-7.80877	17.728	23.93311	1.33914	0.74675	143.57781	153.19056	53.42264	0.34379	 	1525239.946	 	4.18607E-6	 	10482.50348	46.64363	 
1030.0	1.0	0.0	7.67102	7.37804	-7.85195	17.65251	23.81409	1.34068	0.74589	144.03226	153.30725	53.6067	0.34342	 	1697642.322	 	3.74658E-6	 	10251.42647	46.2154	 
1025.0	1.0	0.0	7.67458	7.37462	-7.89463	17.57816	23.69765	1.3421	0.7451	144.47952	153.42418	53.78784	0.34305	 	1891251.037	 	3.35014E-6	 	10022.40276	45.80474	 
1020.0	1.0	0.0	7.6781	7.37124	-7.93684	17.50488	23.58368	1.34339	0.74438	144.92003	153.54147	53.96623	0.34269	 	2108873.191	 	2.99285E-6	 	9795.34871	45.41081	 
1015.0	1.0	0.0	7.68158	7.3679	-7.97859	17.43263	23.47204	1.34456	0.74374	145.35422	153.6592	54.14205	0.34234	 	2353713.117	 	2.67116E-6	 	9570.18461	45.03282	 
1010.0	1.0	0.0	7.68503	7.36459	-8.01989	17.36135	23.36264	1.34562	0.74315	145.78248	153.77748	54.31544	0.342	 	2629432.14	 	2.38178E-6	 	9346.83449	44.67002	 
1005.0	1.0	0.0	7.68845	7.36132	-8.06078	17.29099	23.25537	1.34656	0.74264	146.2052	153.89637	54.48657	0.34166	 	2940217.986	 	2.12172E-6	 	9125.22595	44.32171	 
1000.0	1.0	0.0	7.69183	7.35808	-8.10125	17.22149	23.15014	1.34739	0.74218	146.62272	154.01597	54.65557	0.34133	 	3290865.184	 	1.88824E-6	 	8905.28999	43.98719	 
995.0	1.0	0.0	7.69519	7.35487	-8.14134	17.15283	23.04685	1.34811	0.74178	147.03539	154.13632	54.82257	0.34101	 	3686868.676	 	1.6788E-6	 	8686.96078	43.66584	 
990.0	1.0	0.0	7.69852	7.35169	-8.18104	17.08494	22.94541	1.34873	0.74144	147.44351	154.25751	54.9877	0.3407	 	4134532.575	 	1.49113E-6	 	8470.17557	43.35704	 
985.0	1.0	0.0	7.70182	7.34854	-8.22038	17.0178	22.84575	1.34925	0.74115	147.8474	154.37958	55.15108	0.34039	 	4641096.839	 	1.32312E-6	 	8254.87447	43.06022	 
980.0	1.0	0.0	7.70509	7.34542	-8.25937	16.95135	22.74779	1.34968	0.74092	148.24732	154.50259	55.31282	0.34008	 	5214885.075	 	1.17286E-6	 	8041.00036	42.77482	 
975.0	1.0	0.0	7.70834	7.34232	-8.29802	16.88556	22.65146	1.35001	0.74074	148.64356	154.62659	55.47303	0.33978	 	5865476.853	 	1.0386E-6	 	7828.49871	42.50033	 
970.0	1.0	0.0	7.71156	7.33925	-8.33635	16.8204	22.55669	1.35025	0.7406	149.03637	154.75162	55.63182	0.33949	 	6603909.207	 	9.18775E-7	 	7617.31749	42.23624	 
965.0	1.0	0.0	7.71476	7.33621	-8.37436	16.75582	22.46342	1.3504	0.74052	149.42598	154.87773	55.78927	0.3392	 	7442912.169	 	8.11927E-7	 	7407.40702	41.98209	 
960.0	1.0	0.0	7.71794	7.33319	-8.41206	16.69179	22.3716	1.35047	0.74048	149.81261	155.00495	55.94547	0.33892	 	8397184.973	 	7.16752E-7	 	7198.71981	41.73744	 
955.0	1.0	0.0	7.72109	7.3302	-8.44947	16.62828	22.28116	1.35045	0.74049	150.19649	155.13331	56.10052	0.33864	 	9483719.427	 	6.32062E-7	 	6991.21054	41.50185	 
950.0	1.0	0.0	7.72422	7.32722	-8.48659	16.56526	22.19205	1.35036	0.74055	150.57782	155.26286	56.2545	0.33836	 	1.072217991E7	 	5.5678E-7	 	6784.83589	41.27493	 
945.0	1.0	0.0	7.72733	7.32427	-8.52344	16.50269	22.10423	1.35018	0.74064	150.95679	155.3936	56.40748	0.33809	 	1.213534983E7	 	4.89931E-7	 	6579.55443	41.05629	 
940.0	1.0	0.0	7.73042	7.32134	-8.56002	16.44055	22.01764	1.34993	0.74078	151.33358	155.52558	56.55953	0.33783	 	1.374965688E7	 	4.30635E-7	 	6375.32656	40.84557	 
935.0	1.0	0.0	7.7335	7.31844	-8.59635	16.3788	21.93225	1.3496	0.74096	151.70698	155.65739	56.71021	0.33756	 	1.559579226E7	 	3.78094E-7	 	6172.11439	40.64243	 
930.0	1.0	0.0	7.73655	7.31555	-8.63242	16.31743	21.84802	1.34919	0.74118	152.08001	155.792	56.86065	0.3373	 	1.770944072E7	 	3.3159E-7	 	5969.88169	40.44654	 
925.0	1.0	0.0	7.73959	7.31268	-8.66825	16.2564	21.7649	1.34872	0.74145	152.45134	155.9279	57.01037	0.33705	 	2.013214283E7	 	2.90474E-7	 	5768.59375	40.25759	 
920.0	1.0	0.0	7.7426	7.30983	-8.70385	16.19568	21.68286	1.34817	0.74175	152.82114	156.06512	57.15941	0.3368	 	2.291231525E7	 	2.54163E-7	 	5568.21733	40.07528	 
915.0	1.0	0.0	7.7456	7.307	-8.73922	16.13526	21.60186	1.34755	0.74209	153.18953	156.20366	57.30784	0.33655	 	2.610645831E7	 	2.22131E-7	 	5368.72062	39.89934	 
910.0	1.0	0.0	7.74859	7.30418	-8.77437	16.07511	21.52188	1.34687	0.74246	153.55664	156.34355	57.45572	0.3363	 	2.978058749E7	 	1.93907E-7	 	5170.0731	39.7295	 
905.0	1.0	0.0	7.75156	7.30139	-8.8093	16.0152	21.44288	1.34612	0.74288	153.9226	156.48479	57.60308	0.33606	 	3.401193396E7	 	1.69066E-7	 	4972.24554	39.56551	 
900.0	1.0	0.0	7.75451	7.2986	-8.84403	15.95551	21.36483	1.3453	0.74333	154.28753	156.62741	57.74998	0.33582	 	3.889096487E7	 	1.47228E-7	 	4775.20989	39.40713	 
895.0	1.0	0.0	7.75745	7.29584	-8.87855	15.89602	21.28771	1.34442	0.74381	154.65153	156.7714	57.89647	0.33559	 	4.452378882E7	 	1.28054E-7	 	4578.93924	39.25413	 
890.0	1.0	0.0	7.76037	7.29309	-8.91288	15.83672	21.21149	1.34348	0.74434	155.01472	156.91677	58.04258	0.33535	 	5.103502294E7	 	1.11238E-7	 	4383.40776	39.1063	 
885.0	1.0	0.0	7.76328	7.29036	-8.94701	15.77757	21.13615	1.34247	0.74489	155.3772	157.06354	58.18836	0.33512	 	5.857121493E7	 	9.65089E-8	 	4188.59066	38.96342	 
880.0	1.0	0.0	7.76618	7.28764	-8.98096	15.71856	21.06166	1.3414	0.74549	155.73906	157.21172	58.33384	0.33489	 	6.730493161E7	 	8.3623E-8	 	3994.46385	38.82536	 
875.0	1.0	0.0	7.76906	7.28494	-9.01473	15.65967	20.988	1.34027	0.74612	156.10038	157.3613	58.47907	0.33467	 	7.743965713E7	 	7.23639E-8	 	3801.00438	38.69189	 
870.0	1.0	0.0	7.77193	7.28225	-9.04832	15.60089	20.91516	1.33909	0.74678	156.46126	157.51229	58.62408	0.33445	 	8.921565481E7	 	6.25387E-8	 	3608.19071	38.56273	 
865.0	1.0	0.0	7.77478	7.27957	-9.08173	15.54218	20.84311	1.33784	0.74748	156.82178	157.6647	58.76889	0.33422	 	1.029170115E8	 	5.39758E-8	 	3416.00171	38.4378	 
860.0	1.0	0.0	7.77763	7.27691	-9.11498	15.48354	20.77183	1.33653	0.74821	157.18201	157.81852	58.91355	0.33401	 	1.188800973E8	 	4.65227E-8	 	3224.41707	38.31693	 
855.0	1.0	0.0	7.78046	7.27426	-9.14807	15.42495	20.70132	1.33517	0.74897	157.54202	157.97377	59.05808	0.33379	 	1.375037546E8	 	4.00441E-8	 	3033.41723	38.19997	 
850.0	1.0	0.0	7.78328	7.27162	-9.18099	15.36639	20.63154	1.33374	0.74977	157.90188	158.13043	59.20251	0.33357	 	1.592615715E8	 	3.44202E-8	 	2842.98335	38.08677	 
845.0	1.0	0.0	7.78548	7.26957	-9.20663	15.34099	20.57141	1.33169	0.75093	158.24222	158.34104	59.3362	0.33344	 	1.80753341E8	 	3.01926E-8	 	2683.16271	31.96413	 
840.0	1.0	0.0	7.78767	7.26753	-9.23219	15.31559	20.51128	1.32962	0.7521	158.58204	158.55084	59.46973	0.3333	 	2.053787669E8	 	2.64536E-8	 	2520.28975	32.57459	 
835.0	1.0	0.0	7.78986	7.26548	-9.25769	15.29019	20.45113	1.32754	0.75327	158.92136	158.75985	59.60309	0.33316	 	2.336282239E8	 	2.31505E-8	 	2357.62745	32.53246	 
830.0	1.0	0.0	7.79204	7.26345	-9.28313	15.26479	20.39098	1.32545	0.75446	159.26016	158.96806	59.73628	0.33303	 	2.660739984E8	 	2.02357E-8	 	2195.175	32.49049	 
825.0	1.0	0.0	7.79422	7.26142	-9.30849	15.23939	20.33081	1.32334	0.75566	159.59845	159.17548	59.8693	0.33289	 	3.033848278E8	 	1.76667E-8	 	2032.93154	32.44869	 
820.0	1.0	0.0	7.7964	7.25939	-9.33379	15.21399	20.27064	1.32123	0.75687	159.93622	159.38212	60.00216	0.33275	 	3.463431722E8	 	1.54049E-8	 	1870.89618	32.40707	 
815.0	1.0	0.0	7.79857	7.25737	-9.35903	15.18859	20.21046	1.3191	0.75809	160.27349	159.58796	60.13485	0.33262	 	3.958657604E8	 	1.34161E-8	 	1709.06799	32.36564	 
810.0	1.0	0.0	7.80073	7.25536	-9.38419	15.16319	20.15026	1.31696	0.75932	160.61024	159.79303	60.26737	0.33248	 	4.530280638E8	 	1.16694E-8	 	1547.44605	32.32439	 
805.0	1.0	0.0	7.8029	7.25335	-9.40929	15.13779	20.09006	1.31481	0.76056	160.94648	159.99731	60.39972	0.33234	 	5.190934921E8	 	1.01373E-8	 	1386.02935	32.28334	 
800.0	1.0	0.0	7.80505	7.25134	-9.43433	15.11239	20.02985	1.31265	0.76182	161.28221	160.20081	60.53191	0.33221	 	5.95548271E8	 	8.79489E-9	 	1224.81687	32.2425	 
795.0	1.0	0.0	7.8072	7.24934	-9.45929	15.08699	19.96962	1.31047	0.76308	161.61743	160.40353	60.66392	0.33207	 	6.841431683E8	 	7.6203E-9	 	1063.80752	32.20187	 
790.0	1.0	0.0	7.80935	7.24735	-9.48419	15.06159	19.90939	1.30829	0.76436	161.95214	160.60548	60.79577	0.33194	 	7.869434867E8	 	6.59383E-9	 	903.0002	32.16146	 
785.0	1.0	0.0	7.8115	7.24536	-9.50903	15.03618	19.84915	1.30609	0.76565	162.28634	160.80666	60.92746	0.3318	 	9.063890516E8	 	5.69796E-9	 	742.39374	32.12129	 
780.0	1.0	0.0	7.81363	7.24338	-9.53379	15.01078	19.78889	1.30387	0.76695	162.62002	161.00706	61.05897	0.33166	 	1.0453663E9	 	4.91709E-9	 	581.98693	32.08136	 
775.0	1.0	0.0	7.81577	7.2414	-9.55849	14.98538	19.72862	1.30165	0.76826	162.9532	161.2067	61.19032	0.33153	 	1.207295043E9	 	4.23737E-9	 	421.77849	32.04169	 
770.0	1.0	0.0	7.8179	7.23943	-9.58313	14.95998	19.66834	1.29941	0.76958	163.28586	161.40557	61.32149	0.33139	 	1.396233061E9	 	3.64649E-9	 	261.76712	32.00227	 
765.0	1.0	0.0	7.82002	7.23746	-9.60769	14.93457	19.60805	1.29715	0.77092	163.61801	161.60367	61.4525	0.33126	 	1.617002375E9	 	3.13355E-9	 	101.9514	31.96314	 
760.0	1.0	0.0	7.82214	7.2355	-9.63219	14.90917	19.54775	1.29489	0.77227	163.94966	161.80101	61.58335	0.33112	 	1.875341954E9	 	2.68887E-9	 	-57.67011	31.9243	 
755.0	1.0	0.0	7.82426	7.23354	-9.65663	14.88377	19.48744	1.29261	0.77363	164.28079	161.99759	61.71402	0.33098	 	2.178092681E9	 	2.30392E-9	 	-217.09892	31.88576	 
750.0	1.0	0.0	7.82637	7.23159	-9.681	14.85836	19.42711	1.29032	0.775	164.61141	162.19342	61.84453	0.33085	 	2.533421748E9	 	1.97114E-9	 	-376.33665	31.84755	 
745.0	1.0	0.0	7.82848	7.22965	-9.7053	14.83296	19.36678	1.28801	0.77639	164.94152	162.38849	61.97486	0.33071	 	2.951095371E9	 	1.6839E-9	 	-535.38495	31.80966	 
740.0	1.0	0.0	7.83058	7.2277	-9.72953	14.80756	19.30642	1.2857	0.77779	165.27112	162.5828	62.10503	0.33058	 	3.442810752E9	 	1.43631E-9	 	-694.24559	31.77213	 
735.0	1.0	0.0	7.83267	7.22577	-9.7537	14.78215	19.24606	1.28336	0.7792	165.60021	162.77636	62.23504	0.33044	 	4.022600885E9	 	1.22322E-9	 	-852.92043	31.73497	 
730.0	1.0	0.0	7.83477	7.22384	-9.7778	14.75675	19.18568	1.28102	0.78063	165.92879	162.96918	62.36487	0.33031	 	4.707329019E9	 	1.04011E-9	 	-1011.41138	31.69819	 
725.0	1.0	0.0	7.83685	7.22192	-9.80183	14.73134	19.12529	1.27866	0.78207	166.25686	163.16124	62.49453	0.33017	 	5.517293728E9	 	8.82991E-10	 	-1169.72051	31.66183	 
720.0	1.0	0.0	7.83894	7.22	-9.8258	14.70594	19.06489	1.27628	0.78353	166.58442	163.35256	62.62403	0.33004	 	6.476970629E9	 	7.48393E-10	 	-1327.84997	31.62589	 
715.0	1.0	0.0	7.84101	7.21808	-9.8497	14.68053	19.00447	1.27389	0.785	166.91147	163.54314	62.75336	0.3299	 	7.615923274E9	 	6.33267E-10	 	-1485.80204	31.59041	 
710.0	1.0	0.0	7.84309	7.21617	-9.87353	14.65513	18.94404	1.27149	0.78648	167.23801	163.73298	62.88252	0.32977	 	8.969923852E9	 	5.34956E-10	 	-1643.57909	31.55541	 
705.0	1.0	0.0	7.84516	7.21427	-9.8973	14.62972	18.8836	1.26907	0.78798	167.56404	163.92208	63.01151	0.32963	 	1.05823E10	 	4.51139E-10	 	-1801.18367	31.52091	 
700.0	1.0	0.0	7.84722	7.21237	-9.921	14.60431	18.82314	1.26664	0.78949	167.88956	164.11043	63.14033	0.3295	 	1.2505799999999998E10	 	3.798E-10	 	-1958.61842	31.48695	 
695.0	1.0	0.0	7.84928	7.21048	-9.94464	14.57891	18.76266	1.2642	0.79102	168.21457	164.29806	63.26899	0.32936	 	1.4804399999999998E10	 	3.19182E-10	 	-2115.88617	31.45355	 
690.0	1.0	0.0	7.85134	7.20859	-9.9682	14.5535	18.70217	1.26173	0.79256	168.53907	164.48495	63.39748	0.32923	 	1.75563E10	 	2.67762E-10	 	-2272.98992	31.42075	 
685.0	1.0	0.0	7.85339	7.20671	-9.99171	14.5281	18.64167	1.25926	0.79412	168.86307	164.67111	63.52579	0.32909	 	2.08567E10	 	2.2422E-10	 	-2429.93279	31.38857	 
680.0	1.0	0.0	7.85543	7.20484	-10.01514	14.50269	18.58115	1.25677	0.79569	169.18655	164.85654	63.65394	0.32896	 	2.4822399999999996E10	 	1.87415E-10	 	-2586.71814	31.35707	 
675.0	1.0	0.0	7.85747	7.20297	-10.03851	14.47728	18.52061	1.25426	0.79728	169.50952	165.04125	63.78192	0.32882	 	2.9596399999999996E10	 	1.5636E-10	 	-2743.3495	31.32627	 
670.0	1.0	0.0	7.85951	7.2011	-10.06181	14.45187	18.46006	1.25174	0.79889	169.83199	165.22523	63.90973	0.32869	 	3.53545E10	 	1.30204E-10	 	-2899.83062	31.29622	 
665.0	1.0	0.0	7.86154	7.19924	-10.08504	14.42647	18.39949	1.2492	0.80051	170.15394	165.40848	64.03738	0.32855	 	4.23129E10	 	1.08215E-10	 	-3056.16548	31.26697	 
660.0	1.0	0.0	7.86356	7.19739	-10.10821	14.40106	18.3389	1.24665	0.80215	170.47539	165.59102	64.16485	0.32842	 	5.073849999999999E10	 	8.97637E-11	 	-3212.34713	31.23633	 
655.0	1.0	0.0	7.86559	7.19554	-10.13131	14.37565	18.2783	1.24408	0.80381	170.79633	165.77283	64.29216	0.32828	 	6.096089999999999E10	 	7.4311E-11	 	-3368.31361	31.1933	 
650.0	1.0	0.0	7.8676	7.19369	-10.15435	14.35024	18.21768	1.2415	0.80548	171.11675	165.95393	64.41929	0.32815	 	7.33887E10	 	6.13945E-11	 	-3523.9827	31.13382	 
645.0	1.0	0.0	7.86961	7.19185	-10.17731	14.32483	18.15704	1.2389	0.80717	171.43667	166.13432	64.54626	0.32801	 	8.85288E10	 	5.06192E-11	 	-3679.35569	31.0746	 
640.0	1.0	0.0	7.87162	7.19002	-10.20021	14.29942	18.09639	1.23628	0.80888	171.75608	166.31399	64.67306	0.32788	 	1.07012E11	 	4.16482E-11	 	-3834.43389	31.01564	 
635.0	1.0	0.0	7.87362	7.18819	-10.22305	14.27401	18.03571	1.23365	0.81061	172.07498	166.49295	64.79969	0.32775	 	1.29624E11	 	3.41946E-11	 	-3989.21861	30.95695	 
630.0	1.0	0.0	7.87562	7.18637	-10.24582	14.24861	17.97502	1.231	0.81235	172.39338	166.6712	64.92615	0.32761	 	1.57348E11	 	2.80146E-11	 	-4143.71116	30.89851	 
625.0	1.0	0.0	7.87761	7.18455	-10.26852	14.2232	17.91431	1.22833	0.81411	172.71126	166.84874	65.05244	0.32748	 	1.91415E11	 	2.29013E-11	 	-4297.91313	30.8404	 
620.0	1.0	0.0	7.8796	7.18274	-10.29115	14.19779	17.85357	1.22565	0.8159	173.02864	167.02557	65.17856	0.32734	 	2.33368E11	 	1.86797E-11	 	-4451.82665	30.7827	 
615.0	1.0	0.0	7.88158	7.18093	-10.31372	14.17238	17.79282	1.22295	0.8177	173.34551	167.20171	65.30451	0.32721	 	2.85152E11	 	1.52018E-11	 	-4605.45257	30.72519	 
610.0	1.0	0.0	7.88356	7.17913	-10.33622	14.14697	17.73205	1.22023	0.81952	173.66186	167.37714	65.4303	0.32708	 	3.49219E11	 	1.23431E-11	 	-4758.79219	30.66792	 
605.0	1.0	0.0	7.88553	7.17733	-10.35866	14.12155	17.67126	1.2175	0.82136	173.97771	167.55187	65.55591	0.32694	 	4.28668E11	 	9.9985E-12	 	-4911.84679	30.61092	 
600.0	1.0	0.0	7.8875	7.17554	-10.38102	14.09614	17.61045	1.21474	0.82322	174.29306	167.7259	65.68136	0.32681	 	5.27428E11	 	8.08002E-12	 	-5064.61766	30.55417	 
595.0	1.0	0.0	7.88947	7.17376	-10.40333	14.07073	17.54961	1.21197	0.8251	174.60789	167.89923	65.80663	0.32667	 	6.50494E11	 	6.51386E-12	 	-5217.10604	30.49768	 
590.0	1.0	0.0	7.89142	7.17198	-10.42556	14.04532	17.48876	1.20919	0.827	174.92222	168.07188	65.93174	0.32654	 	8.04226E11	 	5.23835E-12	 	-5369.31323	30.44144	 
585.0	1.0	0.0	7.89338	7.1702	-10.44773	14.01991	17.42788	1.20638	0.82893	175.23603	168.24382	66.05668	0.32641	 	9.96751E11	 	4.20207E-12	 	-5521.2405	30.38545	 
580.0	1.0	0.0	7.89533	7.16843	-10.46983	13.9945	17.36698	1.20356	0.83087	175.54934	168.41508	66.18144	0.32627	 	1.23848E12	 	3.3622E-12	 	-5672.88912	30.32972	 
575.0	1.0	0.0	7.89727	7.16667	-10.49186	13.96909	17.30606	1.20072	0.83284	175.86214	168.58565	66.30604	0.32614	 	1.54277E12	 	2.68323E-12	 	-5824.26034	30.27424	 
570.0	1.0	0.0	7.89921	7.16491	-10.51383	13.94367	17.24511	1.19786	0.83482	176.17444	168.75553	66.43047	0.32601	 	1.92684E12	 	2.13573E-12	 	-5975.35543	30.21902	 
565.0	1.0	0.0	7.90114	7.16315	-10.53573	13.91826	17.18414	1.19498	0.83684	176.48622	168.92473	66.55473	0.32587	 	2.41292E12	 	1.69538E-12	 	-6126.17566	30.16404	 
560.0	1.0	0.0	7.90307	7.16141	-10.55757	13.89285	17.12314	1.19208	0.83887	176.7975	169.09324	66.67882	0.32574	 	3.02978E12	 	1.34214E-12	 	-6276.72228	30.10932	 
555.0	1.0	0.0	7.90499	7.15966	-10.57933	13.86743	17.06212	1.18916	0.84093	177.10827	169.26107	66.80274	0.32561	 	3.81482E12	 	1.05955E-12	 	-6426.99654	30.05485	 
550.0	1.0	0.0	7.90691	7.15793	-10.60104	13.84202	17.00108	1.18623	0.84301	177.41853	169.42823	66.92648	0.32547	 	4.81674E12	 	8.3409E-13	 	-6576.9997	30.00063	 
545.0	1.0	0.0	7.90883	7.15619	-10.62267	13.81661	16.94001	1.18327	0.84511	177.72829	169.5947	67.05006	0.32534	 	6.09915E12	 	6.54712E-13	 	-6726.733	29.94666	 
540.0	1.0	0.0	7.91074	7.15447	-10.64424	13.79119	16.87891	1.1803	0.84724	178.03753	169.7605	67.17347	0.32521	 	7.74545E12	 	5.12402E-13	 	-6876.19769	29.89294	 
535.0	1.0	0.0	7.91264	7.15275	-10.66574	13.76578	16.81778	1.17731	0.8494	178.34627	169.92562	67.29671	0.32507	 	9.86525E12	 	3.99826E-13	 	-7025.39501	29.83946	 
530.0	1.0	0.0	7.91454	7.15103	-10.68717	13.74036	16.75663	1.17429	0.85158	178.6545	170.09007	67.41978	0.32494	 	1.26031E13	 	3.11033E-13	 	-7174.3262	29.78624	 
525.0	1.0	0.0	7.91643	7.14932	-10.70854	13.71495	16.69545	1.17126	0.85378	178.96223	170.25385	67.54268	0.32481	 	1.61503E13	 	2.41208E-13	 	-7322.99249	29.73326	 
520.0	1.0	0.0	7.91832	7.14761	-10.72984	13.68954	16.63424	1.1682	0.85602	179.26944	170.41696	67.66541	0.32468	 	2.07606E13	 	1.86467E-13	 	-7471.39513	29.68053	 
515.0	1.0	0.0	7.92021	7.14591	-10.75108	13.66412	16.57301	1.16513	0.85827	179.57615	170.5794	67.78797	0.32454	 	2.67722E13	 	1.43685E-13	 	-7619.53531	29.62804	 
510.0	1.0	0.0	7.92208	7.14422	-10.77225	13.6387	16.51174	1.16203	0.86056	179.88235	170.74117	67.91036	0.32441	 	3.46368E13	 	1.10355E-13	 	-7767.41429	29.5758	 
505.0	1.0	0.0	7.92396	7.14253	-10.79335	13.61329	16.45044	1.15892	0.86288	180.18805	170.90228	68.03258	0.32428	 	4.49603E13	 	8.44736E-14	 	-7915.03328	29.5238	 
500.0	1.0	0.0	7.92583	7.14084	-10.81438	13.58787	16.38911	1.15578	0.86522	180.49323	171.06273	68.15462	0.32415	 	5.8558E13	 	6.44413E-14	 	-8062.39348	29.47204	 
495.0	1.0	0.0	7.92769	7.13917	-10.83535	13.56246	16.32775	1.15262	0.86759	180.79791	171.22252	68.2765	0.32401	 	7.65309E13	 	4.89887E-14	 	-8209.49612	29.42053	 
490.0	1.0	0.0	7.92955	7.13749	-10.85625	13.53704	16.26636	1.14944	0.86999	181.10208	171.38165	68.39821	0.32388	 	1.00372E14	 	3.71095E-14	 	-8356.34239	29.36926	 
485.0	1.0	0.0	7.9314	7.13582	-10.87708	13.51162	16.20494	1.14624	0.87242	181.40575	171.54012	68.51974	0.32375	 	1.3211099999999998E14	 	2.80094E-14	 	-8502.93351	29.31822	 
480.0	1.0	0.0	7.93325	7.13416	-10.89785	13.48621	16.14348	1.14301	0.87488	181.70891	171.69794	68.64111	0.32362	 	1.74522E14	 	2.10629E-14	 	-8649.27067	29.26743	 
475.0	1.0	0.0	7.9351	7.1325	-10.91855	13.46079	16.08198	1.13976	0.87737	182.01156	171.8551	68.76231	0.32348	 	2.31408E14	 	1.57796E-14	 	-8795.35507	29.21688	 
470.0	1.0	0.0	7.93693	7.13085	-10.93919	13.43537	16.02046	1.1365	0.8799	182.3137	172.01161	68.88333	0.32335	 	3.08003E14	 	1.17763E-14	 	-8941.18789	29.16656	 
465.0	1.0	0.0	7.93877	7.1292	-10.95975	13.40996	15.95889	1.1332	0.88245	182.61534	172.16747	69.00419	0.32322	 	4.11542E14	 	8.75421E-15	 	-9086.77032	29.11649	 
460.0	1.0	0.0	7.9406	7.12756	-10.98026	13.38454	15.89729	1.12989	0.88504	182.91647	172.32268	69.12487	0.32309	 	5.5206499999999994E14	 	6.48171E-15	 	-9232.10354	29.06664	 
455.0	1.0	0.0	7.94242	7.12593	-11.00069	13.35912	15.83565	1.12655	0.88766	183.21709	172.47724	69.24538	0.32296	 	7.43564E14	 	4.77958E-15	 	-9377.1887	29.01703	 
450.0	1.0	0.0	7.94424	7.1243	-11.02106	13.3337	15.77398	1.12319	0.89032	183.5172	172.63116	69.36572	0.32282	 	1.00562E15	 	3.50979E-15	 	-9522.02699	28.96766	 
445.0	1.0	0.0	7.94605	7.12267	-11.04136	13.30828	15.71226	1.11981	0.89301	183.81681	172.78443	69.48589	0.32269	 	1.36577E15	 	2.56641E-15	 	-9666.61957	28.91852	 
440.0	1.0	0.0	7.94786	7.12105	-11.06159	13.28286	15.65051	1.1164	0.89574	184.11591	172.93706	69.60589	0.32256	 	1.86287E15	 	1.86847E-15	 	-9810.9676	28.86961	 
435.0	1.0	0.0	7.94966	7.11944	-11.08176	13.25745	15.58871	1.11296	0.8985	184.41451	173.08905	69.72572	0.32243	 	2.55207E15	 	1.35432E-15	 	-9955.07221	28.82092	 
430.0	1.0	0.0	7.95146	7.11783	-11.10186	13.23203	15.52687	1.10951	0.9013	184.7126	173.2404	69.84538	0.3223	 	3.51193E15	 	9.77211E-16	 	-10098.93456	28.77247	 
425.0	1.0	0.0	7.95325	7.11622	-11.1219	13.20661	15.46499	1.10603	0.90414	185.01018	173.39112	69.96487	0.32216	 	4.85497E15	 	7.01858E-16	 	-10242.55562	28.72421	 
420.0	1.0	0.0	7.95504	7.11462	-11.14186	13.18119	15.40307	1.10252	0.90701	185.30725	173.54119	70.08418	0.32203	 	6.74303E15	 	5.01717E-16	 	-10385.93678	28.67623	 
415.0	1.0	0.0	7.95682	7.11303	-11.16176	13.15577	15.3411	1.09899	0.90993	185.60382	173.69063	70.20332	0.3219	 	9.41017E15	 	3.56921E-16	 	-10529.07847	28.62834	 
410.0	1.0	0.0	7.9586	7.11144	-11.1816	13.13035	15.27908	1.09543	0.91288	185.89988	173.83944	70.3223	0.32177	 	1.31965E16	 	2.52664E-16	 	-10671.98094	28.58049	 
405.0	1.0	0.0	7.96037	7.10986	-11.20136	13.10493	15.21702	1.09185	0.91588	186.19543	173.98762	70.4411	0.32164	 	1.85988E16	 	1.77962E-16	 	-10814.64434	28.53268	 
400.0	1.0	0.0	7.96213	7.10828	-11.22107	13.0795	15.15491	1.08824	0.91892	186.49048	174.13517	70.55973	0.32151	 	2.63467E16	 	1.24702E-16	 	-10957.06888	28.48491	 
395.0	1.0	0.0	7.9639	7.10671	-11.2407	13.05408	15.09276	1.0846	0.92199	186.78502	174.28209	70.67819	0.32138	 	3.75172E16	 	8.69222E-17	 	-11099.25471	28.43717	 
390.0	1.0	0.0	7.96565	7.10514	-11.26027	13.02866	15.03055	1.08094	0.92512	187.07905	174.42839	70.79647	0.32125	 	5.37092E16	 	6.02629E-17	 	-11241.20201	28.38946	 
385.0	1.0	0.0	7.9674	7.10358	-11.27977	13.00324	14.96829	1.07726	0.92828	187.37258	174.57405	70.91459	0.32111	 	7.73099E16	 	4.15505E-17	 	-11382.91094	28.34179	 
380.0	1.0	0.0	7.96915	7.10203	-11.2992	12.97782	14.90598	1.07354	0.9315	187.6656	174.7191	71.03253	0.32098	 	1.11903E17	 	2.84876E-17	 	-11524.38164	28.29414	 
375.0	1.0	0.0	7.97089	7.10048	-11.31857	12.9524	14.84361	1.0698	0.93476	187.95812	174.86352	71.1503	0.32085	 	1.62903E17	 	1.94193E-17	 	-11665.61427	28.24652	 
370.0	1.0	0.0	7.97262	7.09893	-11.33787	12.92697	14.78119	1.06603	0.93806	188.25013	175.00733	71.2679	0.32072	 	2.38535E17	 	1.31597E-17	 	-11806.60893	28.19893	 
365.0	1.0	0.0	7.97435	7.09739	-11.3571	12.90155	14.71871	1.06223	0.94141	188.54163	175.15051	71.38533	0.32059	 	3.51373E17	 	8.86422E-18	 	-11947.36576	28.15137	 
360.0	1.0	0.0	7.97608	7.09586	-11.37627	12.87613	14.65618	1.05841	0.94482	188.83262	175.29308	71.50259	0.32046	 	5.20766E17	 	5.93404E-18	 	-12087.88486	28.10382	 
355.0	1.0	0.0	7.9778	7.09433	-11.39537	12.85071	14.59359	1.05455	0.94827	189.12311	175.43503	71.61967	0.32033	 	7.76672E17	 	3.94741E-18	 	-12228.16635	28.0563	 
350.0	1.0	0.0	7.97951	7.0928	-11.4144	12.82528	14.53093	1.05067	0.95178	189.41309	175.57637	71.73658	0.3202	 	1.16578E18	 	2.60893E-18	 	-12368.21028	28.00879	 
345.0	1.0	0.0	7.98122	7.09128	-11.43337	12.79986	14.46821	1.04675	0.95533	189.70257	175.71709	71.85332	0.32007	 	1.76137E18	 	1.71289E-18	 	-12508.01675	27.96129	 
340.0	1.0	0.0	7.98292	7.08977	-11.45227	12.77444	14.40543	1.04281	0.95894	189.99154	175.85721	71.96989	0.31994	 	2.67922E18	 	1.11698E-18	 	-12647.58581	27.91381	 
335.0	1.0	0.0	7.98462	7.08826	-11.4711	12.74901	14.34259	1.03884	0.96261	190.28	175.99671	72.08628	0.31981	 	4.10355E18	 	7.23332E-19	 	-12786.91751	27.86634	 
330.0	1.0	0.0	7.98632	7.08676	-11.48987	12.72359	14.27967	1.03484	0.96633	190.56796	176.1356	72.20251	0.31968	 	6.32968E18	 	4.65083E-19	 	-12926.0119	27.81888	 
325.0	1.0	0.0	7.988	7.08526	-11.50857	12.69816	14.21669	1.03081	0.97011	190.85541	176.27389	72.31856	0.31955	 	9.83445E18	 	2.96857E-19	 	-13064.86898	27.77142	 
320.0	1.0	0.0	7.98969	7.08377	-11.5272	12.67274	14.15364	1.02674	0.97395	191.14235	176.41157	72.43444	0.31942	 	1.53938E19	 	1.88064E-19	 	-13203.48878	27.72396	 
315.0	1.0	0.0	7.99136	7.08228	-11.54577	12.64731	14.09051	1.02265	0.97785	191.42879	176.54865	72.55014	0.31929	 	2.428E19	 	1.1823E-19	 	-13341.87129	27.6765	 
310.0	1.0	0.0	7.99303	7.0808	-11.56427	12.62189	14.02731	1.01853	0.98181	191.71472	176.68513	72.66568	0.31916	 	3.85962E19	 	7.37432E-20	 	-13480.01646	27.62904	 
305.0	1.0	0.0	7.9947	7.07933	-11.5827	12.59646	13.96404	1.01437	0.98584	192.00015	176.82101	72.78104	0.31903	 	6.18477E19	 	4.56251E-20	 	-13617.92429	27.58157	 
300.0	1.0	0.0	7.99636	7.07786	-11.60107	12.57104	13.90068	1.01018	0.98992	192.28506	176.95628	72.89623	0.3189	 	9.99253E19	 	2.79949E-20	 	-13755.5947	27.53408	 
295.0	1.0	0.0	7.99802	7.07639	-11.61937	12.54561	13.83725	1.00596	0.99408	192.56948	177.09096	73.01124	0.31877	 	1.62815E20	 	1.70316E-20	 	-13893.02762	27.48658	 
290.0	1.0	0.0	7.99967	7.07493	-11.6376	12.52019	13.77373	1.0017	0.9983	192.85338	177.22504	73.12608	0.31864	 	2.6759499999999997E20	 	1.02715E-20	 	-14030.22295	27.43907	 
285.0	1.0	0.0	8.00131	7.07348	-11.65577	12.49476	13.71012	0.99741	1.00259	193.13678	177.35853	73.24075	0.31851	 	4.4373899999999997E20	 	6.13917E-21	 	-14167.18058	27.39153	 
280.0	1.0	0.0	8.00295	7.07203	-11.67387	12.46933	13.64643	0.99309	1.00695	193.41968	177.49142	73.35525	0.31838	 	7.42589E20	 	3.63564E-21	 	-14303.90039	27.34396	 
275.0	1.0	0.0	8.00459	7.07058	-11.6919	12.44391	13.58265	0.98874	1.01139	193.70207	177.62372	73.46958	0.31825	 	1.25444E21	 	2.13274E-21	 	-14440.38221	27.29636	 
270.0	1.0	0.0	8.00622	7.06914	-11.70987	12.41848	13.51877	0.98435	1.0159	193.98395	177.75543	73.58373	0.31812	 	2.13964E21	 	1.23898E-21	 	-14576.62589	27.24873	 
265.0	1.0	0.0	8.00784	7.06771	-11.72777	12.39305	13.4548	0.97992	1.02049	194.26532	177.88655	73.6977	0.31799	 	3.68589E21	 	7.12603E-22	 	-14712.63119	27.20106	 
260.0	1.0	0.0	8.00946	7.06628	-11.7456	12.36762	13.39074	0.97546	1.02515	194.54619	178.01708	73.81151	0.31786	 	6.41467E21	 	4.0566E-22	 	-14848.39791	27.15334	 
255.0	1.0	0.0	8.01107	7.06486	-11.76337	12.3422	13.32657	0.97097	1.0299	194.82656	178.14703	73.92514	0.31773	 	1.12814E22	 	2.28498E-22	 	-14983.9258	27.10558	 
250.0	1.0	0.0	8.01268	7.06344	-11.78107	12.31677	13.26229	0.96644	1.03473	195.10642	178.27639	74.0386	0.3176	 	2.00556E22	 	1.27314E-22	 	-15119.21458	27.05776	 
245.0	1.0	0.0	8.01428	7.06203	-11.7987	12.29134	13.19791	0.96187	1.03964	195.38577	178.40516	74.15188	0.31747	 	3.6052399999999996E22	 	7.01469E-23	 	-15254.26396	27.00988	 
240.0	1.0	0.0	8.01588	7.06063	-11.81626	12.26591	13.13342	0.95727	1.04464	195.66461	178.53335	74.265	0.31734	 	6.5553299999999996E22	 	3.82065E-23	 	-15389.07358	26.96192	 
235.0	1.0	0.0	8.01747	7.05922	-11.83376	12.24048	13.06881	0.95262	1.04973	195.94295	178.66097	74.37793	0.31721	 	1.20605E23	 	2.05643E-23	 	-15523.6431	26.9139	 
230.0	1.0	0.0	8.01905	7.05783	-11.8512	12.21505	13.00409	0.94795	1.05491	196.22078	178.788	74.4907	0.31708	 	2.24594E23	 	1.09342E-23	 	-15657.9721	26.8658	 
225.0	1.0	0.0	8.02063	7.05644	-11.86856	12.18962	12.93925	0.94323	1.06019	196.49811	178.91445	74.60329	0.31695	 	4.2349699999999994E23	 	5.74111E-24	 	-15792.06017	26.81761	 
220.0	1.0	0.0	8.02221	7.05505	-11.88586	12.16419	12.87428	0.93847	1.06556	196.77493	179.04033	74.71571	0.31682	 	8.0889E23	 	2.97561E-24	 	-15925.90684	26.76933	 
215.0	1.0	0.0	8.02378	7.05367	-11.90309	12.13876	12.80918	0.93368	1.07103	197.05125	179.16563	74.82795	0.3167	 	1.56562E24	 	1.52179E-24	 	-16059.5116	26.72095	 
210.0	1.0	0.0	8.02534	7.0523	-11.92026	12.11333	12.74395	0.92885	1.0766	197.32706	179.29036	74.94002	0.31657	 	3.0719800000000003E24	 	7.67628E-25	 	-16192.87391	26.67246	 
205.0	1.0	0.0	8.0269	7.05093	-11.93736	12.0879	12.67858	0.92397	1.08228	197.60236	179.41451	75.05192	0.31644	 	6.11325E24	 	3.81749E-25	 	-16325.99319	26.62385	 
200.0	1.0	0.0	8.02845	7.04957	-11.95439	12.06247	12.61307	0.91906	1.08807	197.87716	179.53809	75.16364	0.31631	 	1.2343600000000001E25	 	1.87087E-25	 	-16458.86881	26.57512	 
195.0	1.0	0.0	8.03	7.04821	-11.97135	12.03704	12.54742	0.91411	1.09396	198.15145	179.6611	75.27519	0.31618	 	2.5300700000000003E25	 	9.03107E-26	 	-16591.50009	26.52626	 
190.0	1.0	0.0	8.03154	7.04686	-11.98825	12.01161	12.48161	0.90911	1.09998	198.42523	179.78354	75.38656	0.31605	 	5.26686E25	 	4.29197E-26	 	-16723.88633	26.47725	 
185.0	1.0	0.0	8.03308	7.04551	-12.00508	11.98618	12.41565	0.90408	1.1061	198.69851	179.90542	75.49776	0.31592	 	1.1140900000000001E26	 	2.00712E-26	 	-16856.02673	26.42808	 
180.0	1.0	0.0	8.03461	7.04417	-12.02185	11.96075	12.34952	0.899	1.11235	198.97129	180.02673	75.60879	0.31579	 	2.39591E26	 	9.23121E-27	 	-16987.92047	26.37875	 
175.0	1.0	0.0	8.03613	7.04283	-12.03855	11.93532	12.28322	0.89388	1.11872	199.24355	180.14747	75.71964	0.31567	 	5.2413100000000004E26	 	4.17321E-27	 	-17119.56668	26.32924	 
170.0	1.0	0.0	8.03765	7.0415	-12.05518	11.90988	12.21675	0.88871	1.12522	199.51531	180.26765	75.83032	0.31554	 	1.1670299999999999E27	 	1.85335E-27	 	-17250.96441	26.27955	 
165.0	1.0	0.0	8.03917	7.04017	-12.07174	11.88445	12.15011	0.8835	1.13186	199.78657	180.38727	75.94082	0.31541	 	2.64641E27	 	8.08077E-28	 	-17382.11265	26.22965	 
160.0	1.0	0.0	8.04067	7.03885	-12.08824	11.85902	12.08327	0.87825	1.13862	200.05732	180.50632	76.05115	0.31528	 	6.11564E27	 	3.45687E-28	 	-17513.01033	26.17954	 
155.0	1.0	0.0	8.04218	7.03753	-12.10467	11.83359	12.01624	0.87296	1.14553	200.32756	180.62482	76.1613	0.31515	 	1.4412E28	 	1.44997E-28	 	-17643.6563	26.12919	 
150.0	1.0	0.0	8.04368	7.03622	-12.12104	11.80815	11.94901	0.86762	1.15258	200.5973	180.74276	76.27128	0.31503	 	3.4657900000000003E28	 	5.95907E-29	 	-17774.04935	26.07861	 
145.0	1.0	0.0	8.04517	7.03492	-12.13734	11.78272	11.88158	0.86223	1.15978	200.86653	180.86014	76.38109	0.3149	 	8.511290000000001E28	 	2.39786E-29	 	-17904.18817	26.02776	 
140.0	1.0	0.0	8.04665	7.03362	-12.15357	11.75729	11.81392	0.8568	1.16713	201.13526	180.97696	76.49072	0.31477	 	2.1361500000000003E29	 	9.43978E-30	 	-18034.0714	25.97665	 
135.0	1.0	0.0	8.04813	7.03232	-12.16973	11.73185	11.74604	0.85132	1.17464	201.40347	181.09323	76.60018	0.31464	 	5.48354E29	 	3.63283E-30	 	-18163.69753	25.92523	 
130.0	1.0	0.0	8.04961	7.03104	-12.18583	11.70642	11.67793	0.8458	1.18232	201.67119	181.20894	76.70946	0.31451	 	1.44094E30	 	1.36555E-30	 	-18293.06503	25.8735	 
125.0	1.0	0.0	8.05108	7.02975	-12.20186	11.68098	11.60958	0.84023	1.19016	201.9384	181.32411	76.81856	0.31439	 	3.8794299999999996E30	 	5.00916E-31	 	-18422.1722	25.82143	 
120.0	1.0	0.0	8.05254	7.02847	-12.21782	11.65555	11.54097	0.83461	1.19817	202.2051	181.43872	76.92749	0.31426	 	1.0710999999999998E31	 	1.79149E-31	 	-18551.01728	25.76902	 
115.0	1.0	0.0	8.054	7.0272	-12.23372	11.63011	11.47211	0.82894	1.20636	202.47129	181.55278	77.03625	0.31413	 	3.03569E31	 	6.24063E-32	 	-18679.59838	25.71622	 
110.0	1.0	0.0	8.05546	7.02593	-12.24955	11.60468	11.40296	0.82322	1.21474	202.73698	181.6663	77.14483	0.314	 	8.84081E31	 	2.11526E-32	 	-18807.91348	25.66302	 
105.0	1.0	0.0	8.0569	7.02467	-12.26531	11.57924	11.33354	0.81746	1.22331	203.00217	181.77926	77.25324	0.31387	 	2.64852E32	 	6.96864E-33	 	-18935.96045	25.60939	 
100.0	1.0	0.0	8.05834	7.02341	-12.28101	11.55381	11.26382	0.81164	1.23207	203.26684	181.89168	77.36147	0.31375	 	8.17116E32	 	2.22888E-33	 	-19063.737	25.55531	 
95.0	1.0	0.0	8.05978	7.02216	-12.29664	11.52837	11.19378	0.80578	1.24104	203.53101	182.00356	77.46952	0.31362	 	2.59929E33	 	6.91284E-34	 	-19191.2407	25.50074	 
90.0	1.0	0.0	8.06121	7.02092	-12.31221	11.50294	11.12343	0.79986	1.25022	203.79468	182.11489	77.5774	0.31349	 	8.53621E33	 	2.07638E-34	 	-19318.46898	25.44565	 
85.0	1.0	0.0	8.06264	7.01968	-12.3277	11.4775	11.05273	0.79389	1.25962	204.05784	182.22568	77.68511	0.31337	 	2.89797E34	 	6.03195E-35	 	-19445.41906	25.39002	 
80.0	1.0	0.0	8.06406	7.01844	-12.34313	11.45206	10.98168	0.78787	1.26924	204.32049	182.33593	77.79263	0.31324	 	1.0184799999999999E35	 	1.69235E-35	 	-19572.08802	25.33379	 
75.0	1.0	0.0	8.06547	7.01721	-12.35849	11.42663	10.91027	0.7818	1.2791	204.58264	182.44564	77.89999	0.31311	 	3.7110199999999994E35	 	4.57888E-36	 	-19698.47273	25.27694	 
70.0	1.0	0.0	8.06688	7.01599	-12.37379	11.40119	10.83846	0.77568	1.28919	204.84428	182.55481	78.00717	0.31298	 	1.4041E36	 	1.19282E-36	 	-19824.56984	25.21942	 
65.0	1.0	0.0	8.06828	7.01477	-12.38902	11.37575	10.76625	0.7695	1.29954	205.10542	182.66344	78.11417	0.31286	 	5.52575E36	 	2.98679E-37	 	-19950.3758	25.16119	 
60.0	1.0	0.0	8.06968	7.01355	-12.40418	11.35032	10.69362	0.76328	1.31014	205.36605	182.77154	78.22099	0.31273	 	2.2659199999999997E37	 	7.176E-38	 	-20075.8868	25.1022	 
55.0	1.0	0.0	8.07107	7.01234	-12.41928	11.32488	10.62054	0.75699	1.32102	205.62617	182.8791	78.32764	0.3126	 	9.70004E37	 	1.65115E-38	 	-20201.09879	25.0424	 
50.0	1.0	0.0	8.07245	7.01114	-12.43431	11.29944	10.54699	0.75066	1.33217	205.88579	182.98613	78.43412	0.31248	 	4.34356E38	 	3.63116E-39	 	-20326.00742	24.98173	 
45.0	1.0	0.0	8.07383	7.00994	-12.44927	11.274	10.47295	0.74427	1.3436	206.1449	183.09262	78.54042	0.31235	 	2.03884E39	 	7.61617E-40	 	-20450.60807	24.92013	 
40.0	1.0	0.0	8.07521	7.00875	-12.46417	11.24856	10.3984	0.73782	1.35534	206.40351	183.19859	78.64654	0.31222	 	1.00546E40	 	1.52011E-40	 	-20574.89574	24.85754	 
35.0	1.0	0.0	8.07657	7.00756	-12.479	11.22312	10.3233	0.73132	1.36738	206.66161	183.30402	78.75249	0.3121	 	5.22195E40	 	2.88016E-41	 	-20698.86515	24.79388	 
30.0	1.0	0.0	8.07794	7.00638	-12.49376	11.19768	10.24762	0.72477	1.37975	206.9192	183.40892	78.85826	0.31197	 	2.86354E41	 	5.16703E-42	 	-20822.51061	24.72909	 
25.0	1.0	0.0	8.07929	7.0052	-12.50845	 	10.17134	0.71816	1.39244	207.17629	183.5133	78.96385	0.31184	 	1.6625E42	 	8.75304E-43	 	-20945.82599	 	 
