T (C)	Fraction solid (wt)-TOTAL	Fraction liquid (wt)-LIQUID	Density (g/(cm)^3)-TOTAL	Molar volume (cm^3)-TOTAL	Volume change (%)-  	Average expansion coeff. (10e-6 1/K)-  	Thermal conductivity (W/(m*K))-TOTAL	Electrical resistivity (10e-6 Ohm*m)-TOTAL	Electrical conductivity (10e6 1/(Ohm*m))-TOTAL	Young's modulus (GPa)-TOTAL	Bulk modulus (GPa)-TOTAL	Shear modulus(GPa)-TOTAL	Poisson's ratio-TOTAL	Liquid viscosity (mPa s)-  	Total viscosity (mPa s)-  	Liquid diffusivity (10e-9 (m^2)/s)-  	Total diffusivity (10e-9 (m^2)/s)-  	Surface Tension (mN/m)-  	Enthalpy (J/mole)-TOTAL	Specific heat (J/(mole K))-TOTAL	Latent heat (J/mole)-TOTAL
1400.0	0.0	1.0	6.87515	7.93357	0.0	34.68954	30.31978	1.35199	0.73965	0.0	119.47465	0.0	0.5	6.06456	6.06456	1.34655	1.34655	1746.48819	38718.872	 	0.0
1395.0	0.0	1.0	6.87914	7.92897	-0.0579523	34.65497	30.23572	1.3517	0.73981	0.0	119.60912	0.0	0.5	6.12823	6.12823	1.32858	1.32858	1748.85212	38517.168	40.3408	0.0
1390.0	0.0	1.0	6.88312	7.92439	-0.11574	34.6206	30.15166	1.35141	0.73997	0.0	119.74359	0.0	0.5	6.19297	6.19297	1.31075	1.31075	1751.23167	38315.918	40.25	0.0
1385.0	0.0	1.0	6.88709	7.91981	-0.17337	34.58643	30.06761	1.35111	0.74013	0.0	119.87805	0.0	0.5	6.25878	6.25878	1.29307	1.29307	1753.62683	38115.119	40.1598	0.0
1380.0	0.0	1.0	6.89106	7.91526	-0.23083	34.55247	29.98355	1.35081	0.74029	0.0	120.01252	0.0	0.5	6.3257	6.3257	1.27553	1.27553	1756.03756	37914.768	40.0702	0.0
1375.0	0.0	1.0	6.89502	7.91071	-0.28813	34.51872	29.8995	1.35051	0.74046	0.0	120.14699	0.0	0.5	6.39374	6.39374	1.25814	1.25814	1758.46382	37714.861	39.9814	0.0
1370.0	0.0	1.0	6.89897	7.90618	-0.34526	34.48518	29.81544	1.35021	0.74062	0.0	120.28146	0.0	0.5	6.46294	6.46294	1.24089	1.24089	1760.90552	37515.397	39.8928	0.0
1365.0	0.0	1.0	6.90292	7.90166	-0.40224	34.45185	29.73138	1.34991	0.74079	0.0	120.41592	0.0	0.5	6.53332	6.53332	1.22379	1.22379	1763.36259	37316.373	39.8048	0.0
1360.0	0.0	1.0	6.90686	7.89715	-0.45904	34.41874	29.64733	1.3496	0.74096	0.0	120.55039	0.0	0.5	6.6049	6.6049	1.20683	1.20683	1765.83492	37117.786	39.7174	0.0
1355.0	0.0	1.0	6.91079	7.89266	-0.51569	34.38585	29.56327	1.3493	0.74113	0.0	120.68486	0.0	0.5	6.67771	6.67771	1.19002	1.19002	1768.32238	36919.633	39.6306	0.0
1350.0	0.0	1.0	6.91471	7.88818	-0.57217	34.35318	29.47922	1.34899	0.7413	0.0	120.81933	0.0	0.5	6.75178	6.75178	1.17335	1.17335	1770.82485	36721.913	39.544	0.0
1346.52	0.0	1.0	6.91744	7.88506	-0.6114	34.33057	29.42069	1.34877	0.74141	0.0	120.91295	0.0	0.5	6.80411	6.80411	1.16183	1.16183	1772.57596	36584.504	39.47128	0.0
1345.0	0.0612903	0.93871	6.93687	7.86299	-0.88963	33.56694	29.60006	1.33934	0.74663	0.00113445	121.43249	3.80008E-4	0.49266	6.82831	7.61425	1.15662	1.03724	1772.1569	35714.532	572.8173	810.089
1340.0	0.24525	0.75475	6.9958	7.79676	-1.72442	31.2757	30.15617	1.31058	0.76302	0.30278	123.03535	0.10297	0.4703	6.90903	66.34406	1.13958	0.11868	1770.83399	33107.168	521.4728	3220.589
1335.0	0.38888	0.61112	7.04284	7.74465	-2.3812	29.48472	30.60308	1.28744	0.77673	1.97659	124.38789	0.68042	0.45247	6.99144	389.70358	1.12266	0.0201409	1769.60287	31051.316	411.1704	5080.001
1330.0	0.50226	0.49774	7.08078	7.70317	-2.90404	28.07111	30.96602	1.2684	0.7884	5.64942	125.55167	1.96414	0.43814	7.07557	1122.74619	1.10586	0.00696914	1768.46672	29408.149	328.6334	6527.149
1325.0	0.59266	0.40734	7.11168	7.66975	-3.32539	26.9441	31.26027	1.25254	0.79838	11.2002	126.56922	3.92568	0.42653	7.16148	2284.50838	1.08918	0.00341438	1767.42759	28077.081	266.2136	7662.618
1320.0	0.66533	0.33467	7.13712	7.64242	-3.66983	26.03468	31.49673	1.23925	0.80694	18.13002	127.47212	6.39709	0.41705	7.2494	3823.46412	1.07261	0.0020337	1766.48709	26984.348	218.5466	8560.168
1315.0	0.72414	0.27586	7.15826	7.61984	-3.9544	25.29506	31.68424	1.22805	0.8143	25.86575	128.28399	9.17704	0.40926	7.33933	5666.04833	1.05614	0.00136804	1765.64523	26075.254	181.8188	9274.494
1310.0	0.77204	0.22796	7.17598	7.60105	-4.19133	24.69091	31.83037	1.21856	0.82064	33.9043	129.02405	12.08425	0.40283	7.43145	7741.09571	1.03977	9.98174E-4	1764.90083	25308.832	153.2844	9846.56
1305.0	0.81127	0.18873	7.19097	7.58522	-4.39086	24.19341	31.94162	1.21048	0.82612	41.86949	129.70573	14.98035	0.39748	7.52584	9991.40624	1.02348	7.70918E-4	1764.25264	24654.109	130.9446	10307.337
1300.0	0.84355	0.15645	7.20376	7.57174	-4.5607	23.78072	32.02349	1.20356	0.83087	49.50413	130.33923	17.76879	0.39301	7.62259	12374.88165	1.00729	6.20463E-4	1763.69883	24087.464	113.329	10680.442
1295.0	0.87025	0.12975	7.21477	7.56019	-4.70633	23.43741	32.08071	1.19759	0.83501	56.65276	130.93365	20.3897	0.38925	7.7218	14864.15196	0.99119	5.14913E-4	1763.23646	23590.741	99.3446	10984.03
1290.0	0.89241	0.10759	7.22434	7.55016	-4.8328	23.14912	32.11743	1.19241	0.83864	63.2437	131.49569	22.81404	0.38607	7.82363	17445.54705	0.97517	4.37323E-4	1762.86312	23149.878	88.1726	11232.16
1285.0	0.9109	0.0891034	7.23273	7.54137	-4.94353	22.90613	32.13681	1.18788	0.84184	69.24573	132.03082	25.02796	0.38337	7.92823	20111.84397	0.95922	3.78133E-4	1762.5757	22753.907	79.1942	11435.798
1280.0	0.92637	0.0736283	7.24016	7.5336	-5.04146	22.70005	32.1417	1.18389	0.84467	74.67099	132.54323	27.034	0.38106	8.03563	22865.27104	0.94337	3.31531E-4	1762.37087	22394.22	71.9374	11603.55
1275.0	0.93937	0.0606265	7.2468	7.52666	-5.12895	22.52417	32.13437	1.18035	0.84721	79.54939	133.03644	28.8417	0.37907	8.14606	25712.21335	0.92758	2.93873E-4	1762.24553	22064.018	66.0404	11742.212
1270.0	0.95034	0.0496631	7.25279	7.5204	-5.20782	22.37324	32.11676	1.17718	0.84949	83.92242	133.51328	30.4652	0.37735	8.25956	28663.42588	0.91188	2.62765E-4	1762.19622	21757.901	61.2234	11857.183
1265.0	0.95962	0.040385	7.25823	7.51471	-5.2796	22.24288	32.09046	1.17433	0.85155	87.83768	133.97614	31.9212	0.37585	8.37639	31732.68107	0.89625	2.3658E-4	1762.21971	21471.554	57.2694	11952.774
1260.0	0.96749	0.0325067	7.26322	7.50948	-5.34552	22.12956	32.05679	1.17174	0.85343	91.34265	134.42684	33.22662	0.37454	8.49655	34935.94352	0.8807	2.1419E-4	1762.31285	21201.518	54.0072	12032.443
1255.0	0.9742	0.0257967	7.26783	7.50464	-5.40656	22.03045	32.01688	1.16937	0.85516	94.48349	134.86695	34.39806	0.37338	8.62035	38291.07775	0.86522	1.94785E-4	1762.47244	20944.999	51.3038	12098.98
1250.0	0.97994	0.0200631	7.27212	7.50012	-5.46348	21.94331	31.97164	1.1672	0.85675	97.30261	135.29784	35.45087	0.37236	8.74783	41817.62596	0.84982	1.77775E-4	1762.6949	20699.735	49.0528	12154.648
1247.06	0.98285	0.0171519	7.2745	7.49761	-5.49509	21.89755	31.9424	1.16601	0.85763	98.79761	135.54681	36.00975	0.37182	8.82444	43968.9345	0.84082	1.6875E-4	1762.85257	20560.736	 	12182.321
1245.0	0.98461	0.0153931	7.2761	7.49591	-5.51659	21.86737	31.91752	1.16534	0.85812	99.74713	135.72644	36.365	0.37147	8.88504	45498.92212	0.83395	1.62855E-4	1763.03507	20464.496	47.0478	12200.671
1240.0	0.98858	0.0114188	7.27775	7.4892	-5.60119	21.69205	31.6234	1.1723	0.85302	102.68168	136.58623	37.47064	0.37016	9.03459	49392.59531	0.81745	1.49523E-4	1765.19272	20043.79469	84.14026	12241.453
1235.0	0.99203	0.00796538	7.28671	7.48167	-5.69601	21.48307	31.24833	1.18245	0.8457	105.84292	137.55524	38.67003	0.36854	9.18725	54103.38622	0.80121	1.36053E-4	1767.34226	19602.43421	88.2721	12275.756
1230.0	0.99505	0.00495422	7.2952	7.47421	-5.7901	21.27472	30.89518	1.192	0.83892	108.78411	138.47577	39.78818	0.36704	9.34329	59185.65672	0.78522	1.23957E-4	1769.48475	19177.56967	84.97291	12304.662
1225.0	0.99768	0.00231721	7.30321	7.46684	-5.88297	21.06846	30.56179	1.201	0.83264	111.52716	139.35213	40.83297	0.36565	9.50281	64675.52087	0.76947	1.13058E-4	1771.6204	18767.60846	81.99224	12329.047
1220.0	1.0	0.0	7.31077	7.45959	-5.97431	20.86537	30.24628	1.20948	0.8268	114.09139	140.18786	41.81135	0.36436	 	70611.97156	 	1.03208E-4	 	18371.17547	79.2866	12349.629
1215.0	1.0	0.0	7.31629	7.45397	-6.04524	20.72593	29.93253	1.21806	0.82098	115.43964	140.92442	42.33293	0.36347	 	76371.79947	 	9.51044E-5	 	17986.09109	77.01688	 
1210.0	1.0	0.0	7.32167	7.44849	-6.11424	20.5915	29.63319	1.22623	0.81551	116.73751	141.62674	42.83559	0.36262	 	82656.04276	 	8.75784E-5	 	17634.3124	70.35574	 
1205.0	1.0	0.0	7.32691	7.44316	-6.18144	20.46177	29.34731	1.234	0.81037	117.98845	142.29793	43.32058	0.36181	 	89516.85218	 	8.05936E-5	 	17290.45011	68.77246	 
1200.0	1.0	0.0	7.33203	7.43796	-6.24694	20.33645	29.07398	1.24139	0.80555	119.19552	142.94066	43.78905	0.36102	 	97011.97371	 	7.41154E-5	 	16954.03588	67.28285	 
1195.0	1.0	0.0	7.33703	7.4329	-6.31083	20.21529	28.8124	1.24841	0.80102	120.36148	143.55725	44.24198	0.36026	 	105205.3989	 	6.81113E-5	 	16624.63752	65.87967	 
1190.0	1.0	0.0	7.34192	7.42795	-6.37321	20.09802	28.5618	1.25507	0.79677	121.48881	144.14971	44.68031	0.35953	 	114168.0787	 	6.25505E-5	 	16301.85562	64.55638	 
1185.0	1.0	0.0	7.3467	7.42311	-6.43417	19.98442	28.32146	1.2614	0.79277	122.57979	144.71984	45.10487	0.35883	 	123978.7391	 	5.74039E-5	 	15985.32073	63.30698	 
1180.0	1.0	0.0	7.35139	7.41838	-6.49377	19.87429	28.09074	1.2674	0.78902	123.63648	145.2692	45.51642	0.35815	 	134724.7868	 	5.26441E-5	 	15674.69064	62.12602	 
1175.0	1.0	0.0	7.35597	7.41375	-6.55211	19.76742	27.86902	1.27309	0.78549	124.66078	145.7992	45.91567	0.3575	 	146503.337	 	4.8245E-5	 	15369.64799	61.00853	 
1170.0	1.0	0.0	7.36047	7.40922	-6.60923	19.66364	27.65574	1.27848	0.78218	125.65445	146.31112	46.30326	0.35686	 	159422.3564	 	4.41824E-5	 	15069.89815	59.94997	 
1165.0	1.0	0.0	7.36489	7.40478	-6.66521	19.56278	27.45038	1.28358	0.77907	126.6191	146.80611	46.67981	0.35625	 	173601.9638	 	4.0433E-5	 	14775.16727	58.94618	 
1160.0	1.0	0.0	7.36922	7.40042	-6.72011	19.46467	27.25244	1.2884	0.77615	127.55625	147.28521	47.04586	0.35566	 	189175.8836	 	3.69754E-5	 	14485.20046	57.99336	 
1155.0	1.0	0.0	7.37348	7.39615	-6.77397	19.36918	27.06149	1.29297	0.77341	128.46729	147.74937	47.40196	0.35508	 	206293.0947	 	3.3789E-5	 	14199.76026	57.08804	 
1150.0	1.0	0.0	7.37767	7.39196	-6.82685	19.27616	26.8771	1.29728	0.77084	129.35354	148.19949	47.74858	0.35453	 	225119.6807	 	3.08549E-5	 	13918.62519	56.22701	 
1145.0	1.0	0.0	7.38178	7.38784	-6.8788	19.18549	26.69889	1.30135	0.76843	130.21624	148.63637	48.08619	0.35399	 	245840.926	 	2.81549E-5	 	13641.58838	55.40736	 
1140.0	1.0	0.0	7.38583	7.38378	-6.92985	19.09704	26.52649	1.30519	0.76617	131.05654	149.06076	48.41522	0.35346	 	268663.6771	 	2.56724E-5	 	13368.45642	54.62639	 
1135.0	1.0	0.0	7.38982	7.3798	-6.98006	19.01072	26.35956	1.30881	0.76405	131.87552	149.47337	48.73609	0.35296	 	293819.0177	 	2.33914E-5	 	13099.0482	53.88164	 
1130.0	1.0	0.0	7.39374	7.37588	-7.02946	18.9264	26.19779	1.31222	0.76207	132.6742	149.87484	49.04918	0.35246	 	321565.2928	 	2.12972E-5	 	12833.19405	53.17083	 
1125.0	1.0	0.0	7.39761	7.37202	-7.07808	18.844	26.0409	1.31542	0.76021	133.45357	150.26578	49.35484	0.35198	 	352191.5303	 	1.93759E-5	 	12570.7347	52.49187	 
1120.0	1.0	0.0	7.40143	7.36823	-7.12597	18.76343	25.8886	1.31842	0.75848	134.21453	150.64676	49.65344	0.35151	 	386021.3219	 	1.76146E-5	 	12311.52053	51.84283	 
1115.0	1.0	0.0	7.40519	7.36448	-7.17314	18.68458	25.74065	1.32124	0.75686	134.95795	151.01831	49.94529	0.35106	 	423417.2186	 	1.60013E-5	 	12055.41079	51.22195	 
1110.0	1.0	0.0	7.4089	7.36079	-7.21964	18.60739	25.59681	1.32388	0.75535	135.68464	151.38094	50.23071	0.35061	 	464785.7284	 	1.45246E-5	 	11802.27296	50.62757	 
1105.0	1.0	0.0	7.41256	7.35716	-7.26549	18.53177	25.45686	1.32635	0.75395	136.3954	151.73512	50.50998	0.35018	 	510582.9802	 	1.3174E-5	 	11551.98204	50.05818	 
1100.0	1.0	0.0	7.41618	7.35357	-7.31072	18.45766	25.32059	1.32865	0.75264	137.09094	152.08129	50.7834	0.34976	 	561321.1652	 	1.19397E-5	 	11304.42009	49.51239	 
1095.0	1.0	0.0	7.41975	7.35003	-7.35535	18.38498	25.1878	1.33079	0.75143	137.77198	152.41987	51.05123	0.34935	 	617575.8758	 	1.08126E-5	 	11059.47561	48.9889	 
1090.0	1.0	0.0	7.42328	7.34653	-7.39941	18.31366	25.05832	1.33278	0.75031	138.43918	152.75125	51.31371	0.34895	 	679994.442	 	9.78419E-6	 	10817.04314	48.4865	 
1085.0	1.0	0.0	7.42677	7.34308	-7.44292	18.24365	24.93198	1.33462	0.74928	139.09318	153.0758	51.5711	0.34856	 	749305.4449	 	8.84658E-6	 	10577.02277	48.00407	 
1080.0	1.0	0.0	7.43022	7.33967	-7.48589	18.17489	24.80861	1.33632	0.74833	139.73458	153.39389	51.82362	0.34817	 	826329.5592	 	7.99244E-6	 	10339.31979	47.54059	 
1075.0	1.0	0.0	7.43363	7.3363	-7.52836	18.10732	24.68806	1.33788	0.74745	140.36395	153.70583	52.07149	0.3478	 	911991.9251	 	7.21496E-6	 	10103.84434	47.09509	 
1070.0	1.0	0.0	7.43701	7.33297	-7.57034	18.04089	24.5702	1.33931	0.74665	140.98184	154.01195	52.31493	0.34743	 	1007336.293	 	6.50784E-6	 	9870.511	46.66667	 
1065.0	1.0	0.0	7.44035	7.32968	-7.61185	17.97555	24.45489	1.34062	0.74592	141.58877	154.31253	52.55412	0.34708	 	1113541.184	 	5.86523E-6	 	9639.23861	46.25448	 
1060.0	1.0	0.0	7.44366	7.32642	-7.65291	17.91125	24.34201	1.3418	0.74527	142.18524	154.60788	52.78927	0.34672	 	1231938.393	 	5.28174E-6	 	9409.9499	45.85774	 
1055.0	1.0	0.0	7.44693	7.3232	-7.69352	17.84794	24.23144	1.34287	0.74467	142.77172	154.89824	53.02054	0.34638	 	1364034.16	 	4.75235E-6	 	9182.57126	45.47573	 
1050.0	1.0	0.0	7.45018	7.32001	-7.73372	17.78558	24.12306	1.34382	0.74414	143.34866	155.18387	53.24812	0.34604	 	1511533.468	 	4.27246E-6	 	8957.0326	45.10773	 
1045.0	1.0	0.0	7.45339	7.31685	-7.77351	17.72412	24.01678	1.34467	0.74368	143.9165	155.46502	53.47217	0.34571	 	1676367.895	 	3.8378E-6	 	8733.267	44.75312	 
1040.0	1.0	0.0	7.45658	7.31373	-7.81291	17.66354	23.9125	1.34541	0.74327	144.47564	155.7419	53.69285	0.34539	 	1860727.639	 	3.44444E-6	 	8511.21061	44.41128	 
1035.0	1.0	0.0	7.45974	7.31063	-7.85192	17.60378	23.81011	1.34605	0.74291	145.02648	156.01474	53.91031	0.34507	 	2067098.268	 	3.08875E-6	 	8290.80248	44.08162	 
1030.0	1.0	0.0	7.46287	7.30756	-7.89058	17.54482	23.70954	1.3466	0.74261	145.56938	156.28373	54.12469	0.34476	 	2298303.069	 	2.76741E-6	 	8071.98436	43.76362	 
1025.0	1.0	0.0	7.46597	7.30453	-7.92887	17.48662	23.6107	1.34704	0.74237	146.10472	156.54907	54.33613	0.34445	 	2557551.778	 	2.47735E-6	 	7854.70057	43.45676	 
1020.0	1.0	0.0	7.46905	7.30152	-7.96683	17.42913	23.51352	1.3474	0.74217	146.63282	156.81094	54.54476	0.34415	 	2848496.75	 	2.21575E-6	 	7638.89786	43.16054	 
1015.0	1.0	0.0	7.4721	7.29853	-8.00446	17.37234	23.41791	1.34767	0.74202	147.15401	157.06952	54.75071	0.34385	 	3175297.799	 	1.98002E-6	 	7424.52527	42.87452	 
1010.0	1.0	0.0	7.47514	7.29557	-8.04177	17.31621	23.32381	1.34786	0.74192	147.6686	157.32498	54.9541	0.34356	 	3542697.051	 	1.76779E-6	 	7211.53405	42.59824	 
1005.0	1.0	0.0	7.47814	7.29263	-8.07876	17.26071	23.23115	1.34796	0.74186	148.17689	157.57745	55.15504	0.34328	 	3956105.544	 	1.57689E-6	 	6999.87753	42.3313	 
1000.0	1.0	0.0	7.48113	7.28972	-8.11546	17.2058	23.13988	1.34798	0.74185	148.67916	157.82711	55.35364	0.34299	 	4421703.315	 	1.40532E-6	 	6789.51103	42.0733	 
995.0	1.0	0.0	7.4841	7.28683	-8.15187	17.15148	23.04992	1.34793	0.74188	149.17568	158.07407	55.55	0.34272	 	4946555.479	 	1.25128E-6	 	6580.3917	41.82386	 
990.0	1.0	0.0	7.48704	7.28397	-8.188	17.09769	22.96123	1.3478	0.74195	149.6667	158.31849	55.74422	0.34244	 	5538746.782	 	1.11309E-6	 	6372.47856	41.58263	 
985.0	1.0	0.0	7.48997	7.28112	-8.22385	17.04443	22.87375	1.3476	0.74206	150.15248	158.56048	55.93641	0.34217	 	6207537.707	 	9.89236E-7	 	6165.73229	41.34925	 
980.0	1.0	0.0	7.49287	7.2783	-8.25945	16.99166	22.78744	1.34733	0.74221	150.63324	158.80017	56.12665	0.3419	 	6963545.971	 	8.78333E-7	 	5960.11522	41.12341	 
975.0	1.0	0.0	7.49576	7.2755	-8.29478	16.93937	22.70223	1.34699	0.7424	151.10921	159.03767	56.31502	0.34164	 	7818957.578	 	7.7912E-7	 	5755.59126	40.90479	 
970.0	1.0	0.0	7.49863	7.27271	-8.32987	16.88752	22.6181	1.34658	0.74262	151.5806	159.27309	56.50161	0.34138	 	8787772.574	 	6.90449E-7	 	5552.12577	40.6931	 
965.0	1.0	0.0	7.50148	7.26995	-8.36471	16.8361	22.53499	1.34611	0.74288	152.04762	159.50653	56.68651	0.34113	 	9886091.528	 	6.11273E-7	 	5349.68558	40.48804	 
960.0	1.0	0.0	7.50431	7.2672	-8.39932	16.78509	22.45287	1.34558	0.74317	152.51045	159.73809	56.86977	0.34087	 	1.113244968E7	 	5.40645E-7	 	5148.23886	40.28934	 
955.0	1.0	0.0	7.50713	7.26448	-8.43371	16.73446	22.37169	1.34499	0.7435	152.9693	159.96786	57.05149	0.34062	 	1.254820761E7	 	4.77701E-7	 	4947.75507	40.09676	 
950.0	1.0	0.0	7.50993	7.26176	-8.46787	16.68419	22.29143	1.34434	0.74386	153.42432	160.19594	57.23172	0.34038	 	1.415800772E7	 	4.21662E-7	 	4748.20493	39.91003	 
945.0	1.0	0.0	7.51272	7.25907	-8.50182	16.63427	22.21204	1.34363	0.74425	153.8757	160.4224	57.41053	0.34013	 	1.599030894E7	 	3.71818E-7	 	4549.56036	39.72891	 
940.0	1.0	0.0	7.51549	7.2564	-8.53555	16.58468	22.1335	1.34286	0.74468	154.3236	160.64732	57.58799	0.33989	 	1.807801316E7	 	3.2753E-7	 	4351.7944	39.55319	 
935.0	1.0	0.0	7.51825	7.25373	-8.56909	16.5354	22.05578	1.34204	0.74514	154.76816	160.87079	57.76415	0.33966	 	2.04592008E7	 	2.88217E-7	 	4154.88118	39.38264	 
930.0	1.0	0.0	7.52099	7.25109	-8.60242	16.4864	21.97884	1.34116	0.74562	155.20954	161.09287	57.93907	0.33942	 	2.317799429E7	 	2.53356E-7	 	3958.79588	39.21706	 
925.0	1.0	0.0	7.52372	7.24846	-8.63556	16.43769	21.90265	1.34023	0.74614	155.64787	161.31363	58.11282	0.33919	 	2.628557413E7	 	2.22475E-7	 	3763.51468	39.05624	 
920.0	1.0	0.0	7.52643	7.24585	-8.66851	16.38923	21.8272	1.33925	0.74668	156.0833	161.53315	58.28543	0.33896	 	2.984137515E7	 	1.95147E-7	 	3569.0147	38.9	 
915.0	1.0	0.0	7.52913	7.24325	-8.70128	16.34101	21.75245	1.33822	0.74726	156.51595	161.75148	58.45696	0.33873	 	3.391449653E7	 	1.70991E-7	 	3375.27398	38.74814	 
910.0	1.0	0.0	7.53182	7.24066	-8.73387	16.29303	21.67839	1.33715	0.74786	156.94594	161.96868	58.62747	0.3385	 	3.858536671E7	 	1.49659E-7	 	3182.27141	38.60051	 
905.0	1.0	0.0	7.5345	7.23809	-8.76628	16.24525	21.60498	1.33602	0.74849	157.37339	162.18481	58.79698	0.33828	 	4.394771067E7	 	1.30843E-7	 	2989.98675	38.45693	 
900.0	1.0	0.0	7.53716	7.23553	-8.79853	16.19768	21.53222	1.33485	0.74915	157.79841	162.39993	58.96556	0.33806	 	5.011087711E7	 	1.14264E-7	 	2798.40052	38.31725	 
895.0	1.0	0.0	7.53981	7.23299	-8.8306	16.15029	21.46007	1.33362	0.74984	158.22112	162.61408	59.13324	0.33784	 	5.720259619E7	 	9.96712E-8	 	2607.49403	38.1813	 
890.0	1.0	0.0	7.54245	7.23046	-8.86251	16.10307	21.38852	1.33236	0.75055	158.64161	162.82732	59.30005	0.33762	 	6.537225119E7	 	8.68418E-8	 	2417.2493	38.04895	 
885.0	1.0	0.0	7.54508	7.22794	-8.89427	16.05602	21.31756	1.33105	0.75129	159.05998	163.03969	59.46605	0.3374	 	7.479476269E7	 	7.55754E-8	 	2227.64905	37.92005	 
880.0	1.0	0.0	7.5477	7.22543	-8.92586	16.00911	21.24716	1.32969	0.75205	159.47632	163.25124	59.63126	0.33719	 	8.567520761E7	 	6.56927E-8	 	2038.67626	37.79456	 
875.0	1.0	0.0	7.55031	7.22294	-8.9573	15.96233	21.1773	1.32829	0.75285	159.89074	163.46202	59.79573	0.33697	 	9.825432604E7	 	5.7034E-8	 	1850.31488	37.67228	 
870.0	1.0	0.0	7.5529	7.22045	-8.98859	15.91568	21.10798	1.32685	0.75366	160.30331	163.67206	59.95948	0.33676	 	1.128150742E8	 	4.94564E-8	 	1662.55022	37.55293	 
865.0	1.0	0.0	7.55549	7.21798	-9.01974	15.86914	21.03917	1.32537	0.75451	160.71411	163.88141	60.12254	0.33655	 	1.296904601E8	 	4.2833E-8	 	1475.36756	37.43653	 
860.0	1.0	0.0	7.55806	7.21552	-9.05074	15.8227	20.97087	1.32384	0.75538	161.12323	164.0901	60.28496	0.33635	 	1.492729056E8	 	3.70504E-8	 	1288.75267	37.32298	 
855.0	1.0	0.0	7.56063	7.21307	-9.0816	15.77635	20.90306	1.32228	0.75627	161.53074	164.29818	60.44676	0.33614	 	1.720254567E8	 	3.20082E-8	 	1102.69191	37.21215	 
850.0	1.0	0.0	7.56318	7.21064	-9.11232	15.73009	20.83572	1.32067	0.75719	161.93671	164.50566	60.60796	0.33594	 	1.984952211E8	 	2.76169E-8	 	917.17211	37.10396	 
845.0	1.0	0.0	7.56533	7.20859	-9.13809	15.70627	20.77603	1.31857	0.7584	162.29432	164.72265	60.74843	0.33579	 	2.255082622E8	 	2.42005E-8	 	756.70052	32.09432	 
840.0	1.0	0.0	7.56747	7.20655	-9.16379	15.68244	20.71633	1.31646	0.75961	162.65137	164.93873	60.88871	0.33564	 	2.564913122E8	 	2.1182E-8	 	593.16611	32.70688	 
835.0	1.0	0.0	7.56961	7.20452	-9.18944	15.65861	20.65662	1.31433	0.76084	163.00785	165.1539	61.02882	0.3355	 	2.920703001E8	 	1.85182E-8	 	429.84524	32.66417	 
830.0	1.0	0.0	7.57174	7.20249	-9.21502	15.63477	20.5969	1.3122	0.76208	163.36377	165.36818	61.16874	0.33535	 	3.329764595E8	 	1.61699E-8	 	266.73717	32.62161	 
825.0	1.0	0.0	7.57387	7.20046	-9.24055	15.61092	20.53718	1.31005	0.76333	163.71913	165.58156	61.30848	0.33521	 	3.80065149E8	 	1.41023E-8	 	103.84115	32.57921	 
820.0	1.0	0.0	7.576	7.19844	-9.26601	15.58706	20.47745	1.30789	0.76459	164.07393	165.79405	61.44803	0.33506	 	4.343382323E8	 	1.2284E-8	 	-58.84363	32.53696	 
815.0	1.0	0.0	7.57812	7.19643	-9.29141	15.5632	20.41772	1.30571	0.76587	164.42816	166.00565	61.5874	0.33492	 	4.969707294E8	 	1.06867E-8	 	-221.31799	32.49487	 
810.0	1.0	0.0	7.58023	7.19442	-9.31675	15.53932	20.35797	1.30353	0.76715	164.78183	166.21636	61.72659	0.33477	 	5.693425971E8	 	9.28542E-9	 	-383.58277	32.45296	 
805.0	1.0	0.0	7.58235	7.19241	-9.34203	15.51544	20.29822	1.30133	0.76844	165.13494	166.42619	61.8656	0.33463	 	6.530766812E8	 	8.05753E-9	 	-545.63887	32.41122	 
800.0	1.0	0.0	7.58446	7.19041	-9.36725	15.49155	20.23845	1.29912	0.76975	165.48749	166.63514	62.00443	0.33448	 	7.500841041E8	 	6.98292E-9	 	-707.48722	32.36967	 
795.0	1.0	0.0	7.58656	7.18842	-9.39241	15.46766	20.17868	1.2969	0.77107	165.83947	166.8432	62.14307	0.33434	 	8.626186242E8	 	6.04366E-9	 	-869.12878	32.32831	 
790.0	1.0	0.0	7.58867	7.18642	-9.4175	15.44375	20.1189	1.29466	0.7724	166.1909	167.05039	62.28153	0.33419	 	9.933418371E8	 	5.22375E-9	 	-1030.56457	32.28716	 
785.0	1.0	0.0	7.59076	7.18444	-9.44254	15.41984	20.05912	1.29241	0.77375	166.54176	167.25671	62.41981	0.33405	 	1.145401499E9	 	4.50896E-9	 	-1191.79562	32.24621	 
780.0	1.0	0.0	7.59286	7.18246	-9.46751	15.39592	19.99932	1.29015	0.7751	166.89207	167.46215	62.55791	0.3339	 	1.322525755E9	 	3.88663E-9	 	-1352.82305	32.20548	 
775.0	1.0	0.0	7.59495	7.18048	-9.49243	15.37199	19.93951	1.28788	0.77647	167.24182	167.66673	62.69582	0.33376	 	1.529136682E9	 	3.34552E-9	 	-1513.64798	32.16499	 
770.0	1.0	0.0	7.59703	7.17851	-9.51728	15.34805	19.8797	1.28559	0.77785	167.591	167.87044	62.83355	0.33361	 	1.770487314E9	 	2.87568E-9	 	-1674.27164	32.12473	 
765.0	1.0	0.0	7.59912	7.17654	-9.54207	15.3241	19.81987	1.28329	0.77925	167.93963	168.07329	62.9711	0.33347	 	2.052827269E9	 	2.46828E-9	 	-1834.69528	32.08473	 
760.0	1.0	0.0	7.60119	7.17458	-9.5668	15.30015	19.76004	1.28098	0.78065	168.28769	168.27527	63.10847	0.33332	 	2.38360328E9	 	2.11552E-9	 	-1994.92019	32.04498	 
755.0	1.0	0.0	7.60327	7.17262	-9.59147	15.27619	19.7002	1.27865	0.78207	168.6352	168.4764	63.24565	0.33318	 	2.771702363E9	 	1.81049E-9	 	-2154.94779	32.00552	 
750.0	1.0	0.0	7.60534	7.17067	-9.61607	15.25222	19.64034	1.27631	0.78351	168.98215	168.67668	63.38265	0.33303	 	3.2277472E9	 	1.54713E-9	 	-2314.7795	31.96634	 
745.0	1.0	0.0	7.6074	7.16872	-9.64062	15.22824	19.58048	1.27396	0.78496	169.32854	168.8761	63.51947	0.33289	 	3.764455525E9	 	1.32007E-9	 	-2474.41687	31.92747	 
740.0	1.0	0.0	7.60947	7.16678	-9.6651	15.20426	19.5206	1.27159	0.78642	169.67437	169.07468	63.65611	0.33274	 	4.397078145E9	 	1.1246E-9	 	-2633.86147	31.88892	 
735.0	1.0	0.0	7.61152	7.16484	-9.68952	15.18026	19.46072	1.26921	0.78789	170.01964	169.2724	63.79257	0.3326	 	5.143933718E9	 	9.56569E-10	 	-2793.115	31.8507	 
730.0	1.0	0.0	7.61358	7.16291	-9.71389	15.15626	19.40083	1.26681	0.78938	170.36435	169.46929	63.92884	0.33245	 	6.027062793E9	 	8.12357E-10	 	-2952.17921	31.81284	 
725.0	1.0	0.0	7.61563	7.16098	-9.73818	15.13225	19.34092	1.2644	0.79089	170.70851	169.66533	64.06493	0.33231	 	7.073029142E9	 	6.88775E-10	 	-3111.05599	31.77536	 
720.0	1.0	0.0	7.61767	7.15906	-9.76242	15.10824	19.281	1.26198	0.79241	171.05211	169.86053	64.20084	0.33216	 	8.313903312E9	 	5.83038E-10	 	-3269.7473	31.73826	 
715.0	1.0	0.0	7.61971	7.15714	-9.7866	15.08421	19.22107	1.25954	0.79394	171.39515	170.05489	64.33656	0.33202	 	9.788472053E9	 	4.92714E-10	 	-3428.2552	31.70158	 
710.0	1.0	0.0	7.62175	7.15523	-9.81071	15.06018	19.16114	1.25708	0.79549	171.73764	170.24842	64.47211	0.33188	 	1.15437E10	 	4.15681E-10	 	-3586.58186	31.66533	 
705.0	1.0	0.0	7.62378	7.15332	-9.83477	15.03614	19.10118	1.25462	0.79706	172.07956	170.44112	64.60747	0.33173	 	1.3636699999999998E10	 	3.50092E-10	 	-3744.72963	31.62955	 
700.0	1.0	0.0	7.62581	7.15142	-9.85876	15.01209	19.04122	1.25213	0.79864	172.42093	170.63299	64.74265	0.33159	 	1.6136799999999998E10	 	2.9434E-10	 	-3902.7009	31.59425	 
695.0	1.0	0.0	7.62784	7.14952	-9.88269	14.98803	18.98125	1.24964	0.80023	172.76175	170.82403	64.87765	0.33144	 	1.91284E10	 	2.4703E-10	 	-4060.49829	31.55948	 
690.0	1.0	0.0	7.62986	7.14763	-9.90655	14.96396	18.92126	1.24712	0.80184	173.10201	171.01425	65.01246	0.3313	 	2.27148E10	 	2.06953E-10	 	-4218.12448	31.52524	 
685.0	1.0	0.0	7.63188	7.14574	-9.93036	14.93989	18.86126	1.2446	0.80347	173.44171	171.20365	65.14709	0.33115	 	2.7021899999999996E10	 	1.73063E-10	 	-4375.5824	31.49158	 
680.0	1.0	0.0	7.63389	7.14385	-9.9541	14.91581	18.80125	1.24205	0.80512	173.78085	171.39222	65.28155	0.33101	 	3.2204399999999996E10	 	1.44455E-10	 	-4532.87508	31.45854	 
675.0	1.0	0.0	7.6359	7.14197	-9.97779	14.89172	18.74122	1.2395	0.80678	174.11944	171.57998	65.41581	0.33087	 	3.84519E10	 	1.2035E-10	 	-4690.00576	31.42614	 
670.0	1.0	0.0	7.6379	7.1401	-10.00141	14.86762	18.68119	1.23692	0.80846	174.45748	171.76693	65.5499	0.33072	 	4.59978E10	 	1.00076E-10	 	-4846.97788	31.39443	 
665.0	1.0	0.0	7.6399	7.13823	-10.02497	14.84352	18.62113	1.23433	0.81015	174.79495	171.95306	65.6838	0.33058	 	5.512969999999999E10	 	8.30564E-11	 	-5003.79508	31.36344	 
660.0	1.0	0.0	7.6419	7.13637	-10.04846	14.8194	18.56107	1.23173	0.81187	175.13188	172.13839	65.81753	0.33043	 	6.620299999999999E10	 	6.87956E-11	 	-5160.45095	31.33118	 
655.0	1.0	0.0	7.64389	7.13451	-10.0719	14.79528	18.50099	1.22911	0.8136	175.46825	172.32291	65.95106	0.33029	 	7.96573E10	 	5.68695E-11	 	-5316.88837	31.28748	 
650.0	1.0	0.0	7.64587	7.13265	-10.09527	14.77115	18.4409	1.22647	0.81535	175.80406	172.50662	66.08442	0.33015	 	9.603819999999998E10	 	4.69154E-11	 	-5473.03152	31.22863	 
645.0	1.0	0.0	7.64786	7.1308	-10.11858	14.74701	18.38079	1.22381	0.81712	176.13932	172.68953	66.2176	0.33	 	1.16024E11	 	3.86237E-11	 	-5628.88161	31.17002	 
640.0	1.0	0.0	7.64984	7.12896	-10.14183	14.72287	18.32067	1.22114	0.8189	176.47402	172.87164	66.35059	0.32986	 	1.40459E11	 	3.17307E-11	 	-5784.43981	31.11164	 
635.0	1.0	0.0	7.65181	7.12712	-10.16502	14.69872	18.26053	1.21846	0.82071	176.80817	173.05295	66.4834	0.32972	 	1.70398E11	 	2.60123E-11	 	-5939.70731	31.0535	 
630.0	1.0	0.0	7.65378	7.12529	-10.18814	14.67455	18.20038	1.21575	0.82254	177.14177	173.23347	66.61603	0.32957	 	2.07162E11	 	2.12783E-11	 	-6094.68529	30.99559	 
625.0	1.0	0.0	7.65575	7.12346	-10.2112	14.65038	18.14021	1.21303	0.82438	177.47481	173.41319	66.74847	0.32943	 	2.52406E11	 	1.73674E-11	 	-6249.37539	30.93802	 
620.0	1.0	0.0	7.65771	7.12163	-10.2342	14.62621	18.08003	1.2103	0.82624	177.80729	173.59213	66.88073	0.32929	 	3.08213E11	 	1.41436E-11	 	-6403.78	30.88092	 
615.0	1.0	0.0	7.65967	7.11981	-10.25714	14.60202	18.01983	1.20754	0.82813	178.13923	173.77027	67.01282	0.32914	 	3.77205E11	 	1.1492E-11	 	-6557.89968	30.82394	 
610.0	1.0	0.0	7.66162	7.118	-10.28002	14.57783	17.95962	1.20477	0.83004	178.47061	173.94763	67.14471	0.329	 	4.62699E11	 	9.31586E-12	 	-6711.73558	30.76718	 
605.0	1.0	0.0	7.66357	7.11619	-10.30283	14.55363	17.89938	1.20198	0.83196	178.80143	174.1242	67.27643	0.32886	 	5.68891E11	 	7.53401E-12	 	-6865.28885	30.71065	 
600.0	1.0	0.0	7.66551	7.11438	-10.32558	14.52942	17.83914	1.19917	0.83391	179.1317	174.3	67.40796	0.32871	 	7.01112E11	 	6.07838E-12	 	-7018.56064	30.65436	 
595.0	1.0	0.0	7.66745	7.11258	-10.34827	14.5052	17.77887	1.19635	0.83588	179.46142	174.47501	67.53931	0.32857	 	8.66147E11	 	4.89204E-12	 	-7171.5521	30.59829	 
590.0	1.0	0.0	7.66939	7.11079	-10.3709	14.48097	17.71859	1.1935	0.83787	179.79059	174.64925	67.67048	0.32843	 	1.07265E12	 	3.92748E-12	 	-7324.26437	30.54245	 
585.0	1.0	0.0	7.67132	7.109	-10.39346	14.45674	17.65828	1.19064	0.83988	180.1192	174.82271	67.80147	0.32828	 	1.33171E12	 	3.14515E-12	 	-7476.6986	30.48685	 
580.0	1.0	0.0	7.67325	7.10721	-10.41596	14.4325	17.59796	1.18776	0.84192	180.44727	174.9954	67.93227	0.32814	 	1.65752E12	 	2.51219E-12	 	-7628.85595	30.43147	 
575.0	1.0	0.0	7.67517	7.10543	-10.4384	14.40825	17.53763	1.18486	0.84398	180.77477	175.16732	68.06289	0.328	 	2.06838E12	 	2.00137E-12	 	-7780.73753	30.37632	 
570.0	1.0	0.0	7.67709	7.10366	-10.46078	14.38399	17.47727	1.18195	0.84606	181.10173	175.33847	68.19333	0.32786	 	2.58788E12	 	1.59019E-12	 	-7932.34449	30.32139	 
565.0	1.0	0.0	7.679	7.10189	-10.48309	14.35973	17.41689	1.17901	0.84817	181.42813	175.50886	68.32359	0.32771	 	3.24651E12	 	1.26006E-12	 	-8083.67797	30.26669	 
560.0	1.0	0.0	7.68091	7.10012	-10.50534	14.33545	17.3565	1.17605	0.8503	181.75398	175.67848	68.45366	0.32757	 	4.08387E12	 	9.95722E-13	 	-8234.73909	30.21223	 
555.0	1.0	0.0	7.68281	7.09836	-10.52753	14.31117	17.29608	1.17308	0.85246	182.07928	175.84734	68.58355	0.32743	 	5.15146E12	 	7.84631E-13	 	-8385.529	30.15798	 
550.0	1.0	0.0	7.68471	7.0966	-10.54966	14.28688	17.23564	1.17009	0.85464	182.40403	176.01544	68.71326	0.32728	 	6.51649E12	 	6.16526E-13	 	-8536.04881	30.10396	 
545.0	1.0	0.0	7.68661	7.09485	-10.57172	14.26258	17.17518	1.16707	0.85685	182.72823	176.18278	68.84279	0.32714	 	8.26696E12	 	4.8303E-13	 	-8686.29964	30.05017	 
540.0	1.0	0.0	7.6885	7.09311	-10.59372	14.23828	17.11471	1.16404	0.85908	183.05187	176.34937	68.97213	0.327	 	1.05184E13	 	3.7732E-13	 	-8836.28264	29.9966	 
535.0	1.0	0.0	7.69039	7.09137	-10.61566	14.21396	17.0542	1.16098	0.86134	183.37496	176.5152	69.10129	0.32686	 	1.34228E13	 	2.93856E-13	 	-8985.9989	29.94325	 
530.0	1.0	0.0	7.69227	7.08963	-10.63753	14.18964	16.99368	1.15791	0.86362	183.6975	176.68029	69.23027	0.32671	 	1.71814E13	 	2.28152E-13	 	-9135.44954	29.89013	 
525.0	1.0	0.0	7.69415	7.0879	-10.65935	14.16531	16.93314	1.15482	0.86594	184.01949	176.84462	69.35906	0.32657	 	2.20606E13	 	1.76585E-13	 	-9284.63566	29.83723	 
520.0	1.0	0.0	7.69602	7.08618	-10.6811	14.14098	16.87257	1.1517	0.86828	184.34093	177.00821	69.48767	0.32643	 	2.84148E13	 	1.36238E-13	 	-9433.55841	29.78455	 
515.0	1.0	0.0	7.69789	7.08446	-10.70278	14.11663	16.81198	1.14857	0.87065	184.66182	177.17105	69.6161	0.32629	 	3.6717E13	 	1.04768E-13	 	-9582.21885	29.73209	 
510.0	1.0	0.0	7.69976	7.08274	-10.72441	14.09228	16.75136	1.14541	0.87305	184.98216	177.33315	69.74435	0.32614	 	4.76004E13	 	8.0301E-14	 	-9730.61812	29.67985	 
505.0	1.0	0.0	7.70162	7.08103	-10.74597	14.06791	16.69072	1.14223	0.87548	185.30194	177.49452	69.87241	0.326	 	6.1916E13	 	6.13405E-14	 	-9878.75728	29.62783	 
500.0	1.0	0.0	7.70347	7.07932	-10.76747	14.04354	16.63005	1.13903	0.87794	185.62118	177.65514	70.00029	0.32586	 	8.08113E13	 	4.66959E-14	 	-10026.63745	29.57603	 
495.0	1.0	0.0	7.70532	7.07762	-10.7889	14.01917	16.56936	1.13581	0.88043	185.93986	177.81502	70.12799	0.32572	 	1.05839E14	 	3.5423E-14	 	-10174.25972	29.52445	 
490.0	1.0	0.0	7.70717	7.07593	-10.81028	13.99478	16.50865	1.13257	0.88295	186.258	177.97418	70.25551	0.32558	 	1.3910999999999998E14	 	2.67756E-14	 	-10321.62516	29.47309	 
485.0	1.0	0.0	7.70901	7.07424	-10.83158	13.97039	16.4479	1.1293	0.8855	186.57558	178.1326	70.38284	0.32543	 	1.83499E14	 	2.01655E-14	 	-10468.73488	29.42194	 
480.0	1.0	0.0	7.71085	7.07255	-10.85283	13.94599	16.38713	1.12602	0.88809	186.89262	178.29029	70.50999	0.32529	 	2.42944E14	 	1.51308E-14	 	-10615.58993	29.37101	 
475.0	1.0	0.0	7.71268	7.07087	-10.87401	13.92158	16.32633	1.12271	0.89071	187.2091	178.44725	70.63695	0.32515	 	3.22856E14	 	1.13101E-14	 	-10762.19139	29.32029	 
470.0	1.0	0.0	7.71451	7.0692	-10.89513	13.89716	16.26551	1.11937	0.89336	187.52503	178.60348	70.76373	0.32501	 	4.30698E14	 	8.42151E-15	 	-10908.54035	29.26979	 
465.0	1.0	0.0	7.71633	7.06753	-10.91619	13.87273	16.20465	1.11602	0.89604	187.84042	178.75899	70.89033	0.32487	 	5.7681E14	 	6.24595E-15	 	-11054.63786	29.2195	 
460.0	1.0	0.0	7.71815	7.06586	-10.93718	13.8483	16.14377	1.11264	0.89876	188.15525	178.91378	71.01675	0.32472	 	7.75573E14	 	4.61378E-15	 	-11200.48497	29.16942	 
455.0	1.0	0.0	7.71997	7.0642	-10.95811	13.82386	16.08285	1.10924	0.90152	188.46954	179.06785	71.14298	0.32458	 	1.04708E15	 	3.39413E-15	 	-11346.08275	29.11956	 
450.0	1.0	0.0	7.72178	7.06254	-10.97898	13.79941	16.02191	1.10581	0.90431	188.78327	179.2212	71.26903	0.32444	 	1.41951E15	 	2.48644E-15	 	-11491.43225	29.0699	 
445.0	1.0	0.0	7.72358	7.06089	-10.99979	13.77495	15.96093	1.10236	0.90715	189.09646	179.37384	71.3949	0.3243	 	1.93258E15	 	1.8137E-15	 	-11636.53452	29.02045	 
440.0	1.0	0.0	7.72538	7.05925	-11.02053	13.75048	15.89992	1.09888	0.91001	189.40909	179.52576	71.52058	0.32416	 	2.6425E15	 	1.3172E-15	 	-11781.39058	28.97121	 
435.0	1.0	0.0	7.72718	7.05761	-11.0412	13.72601	15.83888	1.09539	0.91292	189.72118	179.67697	71.64608	0.32402	 	3.6292E15	 	9.5236E-16	 	-11926.00148	28.92218	 
430.0	1.0	0.0	7.72897	7.05597	-11.06182	13.70153	15.7778	1.09186	0.91587	190.03272	179.82746	71.7714	0.32387	 	5.00688E15	 	6.85437E-16	 	-12070.36823	28.87335	 
425.0	1.0	0.0	7.73075	7.05434	-11.08237	13.67704	15.71669	1.08831	0.91885	190.34371	179.97725	71.89653	0.32373	 	6.93946E15	 	4.91032E-16	 	-12214.49174	28.8247	 
420.0	1.0	0.0	7.73254	7.05272	-11.10285	13.65254	15.65554	1.08474	0.92188	190.65415	180.12634	72.02148	0.32359	 	9.66337E15	 	3.50094E-16	 	-12358.37322	28.7763	 
415.0	1.0	0.0	7.73431	7.0511	-11.12328	13.62804	15.59436	1.08114	0.92495	190.96404	180.27471	72.14625	0.32345	 	1.35214E16	 	2.48398E-16	 	-12502.01309	28.72797	 
410.0	1.0	0.0	7.73608	7.04948	-11.14364	13.60352	15.53315	1.07751	0.92806	191.27338	180.42239	72.27083	0.32331	 	1.9013E16	 	1.75369E-16	 	-12645.41151	28.67968	 
405.0	1.0	0.0	7.73785	7.04787	-11.16393	13.579	15.47189	1.07386	0.93122	191.58217	180.56936	72.39523	0.32317	 	2.68696E16	 	1.23183E-16	 	-12788.56862	28.63142	 
400.0	1.0	0.0	7.73961	7.04627	-11.18417	13.55447	15.4106	1.07018	0.93442	191.89042	180.71564	72.51945	0.32303	 	3.81685E16	 	8.60783E-17	 	-12931.48456	28.58319	 
395.0	1.0	0.0	7.74137	7.04467	-11.20434	13.52993	15.34926	1.06648	0.93766	192.19811	180.86122	72.64348	0.32289	 	5.45041E16	 	5.98317E-17	 	-13074.15948	28.53498	 
390.0	1.0	0.0	7.74313	7.04307	-11.22444	13.50539	15.28789	1.06275	0.94096	192.50526	181.0061	72.76733	0.32275	 	7.82504E16	 	4.1363E-17	 	-13216.59351	28.4868	 
385.0	1.0	0.0	7.74487	7.04148	-11.24448	13.48083	15.22647	1.05899	0.9443	192.81186	181.15029	72.89099	0.3226	 	1.12962E17	 	2.84368E-17	 	-13358.78676	28.43865	 
380.0	1.0	0.0	7.74662	7.0399	-11.26446	13.45627	15.16502	1.0552	0.94768	193.11791	181.29379	73.01448	0.32246	 	1.63989E17	 	1.94394E-17	 	-13500.73935	28.39052	 
375.0	1.0	0.0	7.74836	7.03832	-11.28438	13.4317	15.10352	1.05139	0.95112	193.42342	181.4366	73.13777	0.32232	 	2.39441E17	 	1.32118E-17	 	-13642.45136	28.3424	 
370.0	1.0	0.0	7.75009	7.03674	-11.30423	13.40712	15.04197	1.04755	0.95461	193.72837	181.57873	73.26089	0.32218	 	3.51672E17	 	8.9261E-18	 	-13783.92293	28.29431	 
365.0	1.0	0.0	7.75182	7.03517	-11.32402	13.38254	14.98038	1.04368	0.95815	194.03278	181.72016	73.38382	0.32204	 	5.19627E17	 	5.99401E-18	 	-13925.1541	28.24623	 
360.0	1.0	0.0	7.75354	7.03361	-11.34374	13.35794	14.91875	1.03978	0.96174	194.33664	181.86091	73.50656	0.3219	 	7.72547E17	 	4.00008E-18	 	-14066.14496	28.19817	 
355.0	1.0	0.0	7.75526	7.03205	-11.3634	13.33334	14.85706	1.03585	0.96539	194.63995	182.00098	73.62912	0.32176	 	1.15584E18	 	2.65247E-18	 	-14206.8956	28.15013	 
350.0	1.0	0.0	7.75698	7.03049	-11.38299	13.30873	14.79533	1.03189	0.96909	194.94272	182.14037	73.7515	0.32162	 	1.74053E18	 	1.74742E-18	 	-14347.40604	28.10209	 
345.0	1.0	0.0	7.75869	7.02894	-11.40252	13.28411	14.73355	1.0279	0.97285	195.24493	182.27908	73.8737	0.32148	 	2.6384E18	 	1.14351E-18	 	-14487.67634	28.05406	 
340.0	1.0	0.0	7.76039	7.0274	-11.42199	13.25949	14.67171	1.02389	0.97667	195.5466	182.41712	73.99571	0.32134	 	4.02666E18	 	7.43205E-19	 	-14627.70653	28.00604	 
335.0	1.0	0.0	7.7621	7.02586	-11.4414	13.23485	14.60983	1.01984	0.98055	195.84772	182.55448	74.11753	0.3212	 	6.18827E18	 	4.79654E-19	 	-14767.49663	27.95802	 
330.0	1.0	0.0	7.76379	7.02432	-11.46074	13.21021	14.54789	1.01576	0.98448	196.1483	182.69116	74.23917	0.32106	 	9.57827E18	 	3.07344E-19	 	-14907.04665	27.91	 
325.0	1.0	0.0	7.76548	7.02279	-11.48001	13.18556	14.48589	1.01165	0.98848	196.44833	182.82718	74.36063	0.32092	 	1.4934E19	 	1.95488E-19	 	-15046.35659	27.86199	 
320.0	1.0	0.0	7.76717	7.02127	-11.49922	13.1609	14.42384	1.00751	0.99255	196.74781	182.96252	74.48191	0.32078	 	2.34595E19	 	1.23405E-19	 	-15185.42643	27.81397	 
315.0	1.0	0.0	7.76885	7.01975	-11.51837	13.13624	14.36173	1.00334	0.99667	197.04674	183.0972	74.603	0.32064	 	3.7136E19	 	7.73E-20	 	-15324.25612	27.76594	 
310.0	1.0	0.0	7.77052	7.01824	-11.53745	13.11156	14.29956	0.99913	1.00087	197.34513	183.23121	74.7239	0.3205	 	5.92506E19	 	4.80368E-20	 	-15462.84564	27.7179	 
305.0	1.0	0.0	7.77219	7.01673	-11.55647	13.08688	14.23733	0.9949	1.00513	197.64296	183.36455	74.84462	0.32036	 	9.53015E19	 	2.96093E-20	 	-15601.19491	27.66985	 
300.0	1.0	0.0	7.77386	7.01522	-11.57543	13.06219	14.17503	0.99063	1.00946	197.94026	183.49724	74.96516	0.32022	 	1.54564E20	 	1.80987E-20	 	-15739.30386	27.62179	 
295.0	1.0	0.0	7.77552	7.01373	-11.59432	13.03749	14.11267	0.98632	1.01387	198.237	183.62926	75.08551	0.32007	 	2.5281999999999997E20	 	1.09683E-20	 	-15877.17241	27.57371	 
290.0	1.0	0.0	7.77718	7.01223	-11.61314	13.01279	14.05025	0.98199	1.01834	198.5332	183.76062	75.20568	0.31993	 	4.17168E20	 	6.5887E-21	 	-16014.80043	27.5256	 
285.0	1.0	0.0	7.77883	7.01074	-11.63191	12.98807	13.98775	0.97762	1.02289	198.82885	183.89133	75.32566	0.31979	 	6.94556E20	 	3.92221E-21	 	-16152.1878	27.47747	 
280.0	1.0	0.0	7.78048	7.00926	-11.6506	12.96335	13.92519	0.97321	1.02752	199.12396	184.02138	75.44546	0.31966	 	1.1670900000000001E21	 	2.31326E-21	 	-16289.33436	27.42931	 
275.0	1.0	0.0	7.78212	7.00778	-11.66924	12.93862	13.86255	0.96877	1.03223	199.41852	184.15077	75.56507	0.31952	 	1.9797800000000001E21	 	1.35136E-21	 	-16426.23996	27.38112	 
270.0	1.0	0.0	7.78375	7.00631	-11.68781	12.91388	13.79984	0.9643	1.03702	199.71253	184.27952	75.6845	0.31938	 	3.39119E21	 	7.81725E-22	 	-16562.9044	27.33289	 
265.0	1.0	0.0	7.78538	7.00484	-11.70631	12.88914	13.73705	0.95979	1.0419	200.00599	184.40761	75.80374	0.31924	 	5.86721E21	 	4.4767E-22	 	-16699.32748	27.28462	 
260.0	1.0	0.0	7.78701	7.00338	-11.72475	12.86438	13.67419	0.95524	1.04685	200.29891	184.53505	75.9228	0.3191	 	1.0256E22	 	2.53723E-22	 	-16835.50897	27.2363	 
255.0	1.0	0.0	7.78863	7.00192	-11.74313	12.83962	13.61124	0.95066	1.0519	200.59129	184.66185	76.04168	0.31896	 	1.8118099999999998E22	 	1.42276E-22	 	-16971.4486	27.18792	 
250.0	1.0	0.0	7.79025	7.00047	-11.76144	12.81485	13.54821	0.94604	1.05704	200.88311	184.788	76.16037	0.31882	 	3.2357499999999998E22	 	7.89111E-23	 	-17107.1461	27.1395	 
245.0	1.0	0.0	7.79186	6.99902	-11.77969	12.79007	13.48509	0.94139	1.06226	201.17439	184.9135	76.27887	0.31868	 	5.843819999999999E22	 	4.32758E-23	 	-17242.60117	27.09101	 
240.0	1.0	0.0	7.79347	6.99758	-11.79787	12.76529	13.42189	0.93669	1.06759	201.46513	185.03837	76.39719	0.31854	 	1.06763E23	 	2.3459E-23	 	-17377.81347	27.04246	 
235.0	1.0	0.0	7.79507	6.99614	-11.81598	12.74049	13.35859	0.93196	1.07301	201.75532	185.16259	76.51533	0.3184	 	1.9737699999999998E23	 	1.25656E-23	 	-17512.78264	26.99383	 
230.0	1.0	0.0	7.79666	6.99471	-11.83404	12.71569	13.2952	0.92719	1.07853	202.04496	185.28617	76.63328	0.31826	 	3.6938299999999995E23	 	6.64825E-24	 	-17647.50829	26.94513	 
225.0	1.0	0.0	7.79825	6.99328	-11.85203	12.69088	13.23171	0.92238	1.08415	202.33406	185.40912	76.75104	0.31812	 	7.00035E23	 	3.47318E-24	 	-17781.98999	26.89634	 
220.0	1.0	0.0	7.79984	6.99186	-11.86995	12.66606	13.16812	0.91753	1.08988	202.62261	185.53143	76.86862	0.31798	 	1.34398E24	 	1.7909E-24	 	-17916.2273	26.84746	 
215.0	1.0	0.0	7.80142	6.99044	-11.88781	12.64124	13.10443	0.91264	1.09572	202.91061	185.6531	76.98602	0.31784	 	2.61499E24	 	9.11109E-25	 	-18050.21971	26.79848	 
210.0	1.0	0.0	7.803	6.98903	-11.9056	12.6164	13.04063	0.90771	1.10167	203.19807	185.77414	77.10322	0.3177	 	5.15857E24	 	4.5713E-25	 	-18183.96672	26.7494	 
205.0	1.0	0.0	7.80457	6.98762	-11.92333	12.59156	12.97673	0.90274	1.10773	203.48498	185.89456	77.22025	0.31756	 	1.03219E25	 	2.26095E-25	 	-18317.46776	26.70021	 
200.0	1.0	0.0	7.80613	6.98622	-11.941	12.56671	12.91271	0.89773	1.11392	203.77135	186.01434	77.33709	0.31742	 	2.09583E25	 	1.10187E-25	 	-18450.7222	26.65089	 
195.0	1.0	0.0	7.80769	6.98483	-11.95859	12.54185	12.84857	0.89268	1.12022	204.05718	186.13349	77.45374	0.31728	 	4.32039E25	 	5.28869E-26	 	-18583.72942	26.60144	 
190.0	1.0	0.0	7.80925	6.98343	-11.97613	12.51699	12.78431	0.88759	1.12665	204.34245	186.25202	77.57021	0.31715	 	9.04636E25	 	2.49882E-26	 	-18716.48872	26.55186	 
185.0	1.0	0.0	7.8108	6.98205	-11.9936	12.49211	12.71992	0.88245	1.13321	204.62718	186.36992	77.68649	0.31701	 	1.925E26	 	1.16162E-26	 	-18848.99937	26.50213	 
180.0	1.0	0.0	7.81234	6.98067	-12.011	12.46723	12.65541	0.87727	1.1399	204.91137	186.4872	77.80259	0.31687	 	4.16508E26	 	5.31014E-27	 	-18981.26056	26.45224	 
175.0	1.0	0.0	7.81388	6.97929	-12.02834	12.44234	12.59076	0.87204	1.14673	205.19501	186.60386	77.9185	0.31673	 	9.168440000000001E26	 	2.38569E-27	 	-19113.27146	26.40218	 
170.0	1.0	0.0	7.81542	6.97792	-12.04562	12.41744	12.52597	0.86677	1.1537	205.47811	186.7199	78.03422	0.31659	 	2.05448E27	 	1.05278E-27	 	-19245.03119	26.35195	 
165.0	1.0	0.0	7.81695	6.97656	-12.06283	12.39254	12.46104	0.86146	1.16082	205.76066	186.83532	78.14976	0.31645	 	4.68925E27	 	4.56043E-28	 	-19376.53877	26.30152	 
160.0	1.0	0.0	7.81847	6.9752	-12.07997	12.36762	12.39595	0.8561	1.16809	206.04266	186.95012	78.26511	0.31631	 	1.0908900000000001E28	 	1.93796E-28	 	-19507.7932	26.25088	 
155.0	1.0	0.0	7.81999	6.97384	-12.09705	12.3427	12.33072	0.85069	1.17551	206.32412	187.0643	78.38028	0.31617	 	2.58834E28	 	8.07348E-29	 	-19638.79339	26.20004	 
150.0	1.0	0.0	7.82151	6.97249	-12.11407	12.31777	12.26532	0.84524	1.18309	206.60503	187.17788	78.49526	0.31604	 	6.268030000000001E28	 	3.29496E-29	 	-19769.5382	26.14896	 
145.0	1.0	0.0	7.82301	6.97115	-12.13101	12.29283	12.19975	0.83974	1.19084	206.8854	187.29084	78.61006	0.3159	 	1.55034E29	 	1.31642E-29	 	-19900.02639	26.09764	 
140.0	1.0	0.0	7.82452	6.96981	-12.1479	12.26789	12.13402	0.8342	1.19876	207.16523	187.40319	78.72467	0.31576	 	3.9195900000000006E29	 	5.14463E-30	 	-20030.25667	26.04606	 
135.0	1.0	0.0	7.82602	6.96847	-12.16472	12.24293	12.0681	0.8286	1.20685	207.44451	187.51493	78.83909	0.31562	 	1.0137299999999999E30	 	1.96509E-30	 	-20160.22764	25.99419	 
130.0	1.0	0.0	7.82751	6.96714	-12.18147	12.21797	12.002	0.82296	1.21512	207.72324	187.62606	78.95333	0.31548	 	2.68438E30	 	7.33009E-31	 	-20289.93783	25.94204	 
125.0	1.0	0.0	7.829	6.96582	-12.19816	12.193	11.9357	0.81727	1.22359	208.00143	187.73658	79.06738	0.31534	 	7.28427E30	 	2.66776E-31	 	-20419.38569	25.88957	 
120.0	1.0	0.0	7.83048	6.9645	-12.21478	12.16802	11.8692	0.81153	1.23224	208.27908	187.8465	79.18125	0.3152	 	2.0274799999999999E31	 	9.46431E-32	 	-20548.56953	25.83677	 
115.0	1.0	0.0	7.83196	6.96319	-12.23134	12.14304	11.80249	0.80573	1.2411	208.55618	187.95582	79.29493	0.31507	 	5.79401E31	 	3.2697E-32	 	-20677.4876	25.78361	 
110.0	1.0	0.0	7.83343	6.96188	-12.24783	12.11804	11.73556	0.79989	1.25017	208.83273	188.06454	79.40842	0.31493	 	1.70178E32	 	1.09888E-32	 	-20806.138	25.73008	 
105.0	1.0	0.0	7.83489	6.96058	-12.26426	12.09304	11.6684	0.794	1.25945	209.10874	188.17265	79.52173	0.31479	 	5.14284E32	 	3.58878E-33	 	-20934.51872	25.67614	 
100.0	1.0	0.0	7.83636	6.95928	-12.28062	12.06803	11.601	0.78805	1.26895	209.38421	188.28017	79.63485	0.31465	 	1.60094E33	 	1.13762E-33	 	-21062.62765	25.62178	 
95.0	1.0	0.0	7.83781	6.95798	-12.29691	12.04301	11.53336	0.78205	1.27869	209.65913	188.38709	79.74778	0.31451	 	5.13973E33	 	3.496E-34	 	-21190.4625	25.56697	 
90.0	1.0	0.0	7.83926	6.9567	-12.31314	12.01798	11.46546	0.776	1.28866	209.93351	188.49341	79.86053	0.31438	 	1.7039500000000002E34	 	1.0402E-34	 	-21318.02086	25.51167	 
85.0	1.0	0.0	7.84071	6.95541	-12.32931	11.99295	11.39728	0.76989	1.29888	210.20734	188.59913	79.97309	0.31424	 	5.84125E34	 	2.99258E-35	 	-21445.30016	25.45586	 
80.0	1.0	0.0	7.84215	6.95414	-12.34541	11.96791	11.32883	0.76373	1.30936	210.48063	188.70427	80.08546	0.3141	 	2.0735099999999997E35	 	8.31266E-36	 	-21572.29766	25.3995	 
75.0	1.0	0.0	7.84358	6.95287	-12.36144	11.94286	11.26007	0.75752	1.32011	210.75337	188.80881	80.19765	0.31396	 	7.63325E35	 	2.22609E-36	 	-21699.01044	25.34256	 
70.0	1.0	0.0	7.84501	6.9516	-12.37741	11.9178	11.19101	0.75124	1.33113	211.02557	188.91276	80.30965	0.31382	 	2.9188199999999995E36	 	5.73803E-37	 	-21825.4354	25.28499	 
65.0	1.0	0.0	7.84644	6.95034	-12.39331	11.89273	11.12162	0.74492	1.34243	211.29723	189.01613	80.42146	0.31369	 	1.1612699999999998E37	 	1.42123E-37	 	-21951.5692	25.22676	 
60.0	1.0	0.0	7.84785	6.94908	-12.40915	11.86766	11.05189	0.73853	1.35404	211.56834	189.1189	80.53309	0.31355	 	4.815669999999999E37	 	3.37652E-38	 	-22077.40832	25.16782	 
55.0	1.0	0.0	7.84927	6.94783	-12.42492	11.84258	10.98181	0.73209	1.36595	211.8389	189.22109	80.64453	0.31341	 	2.0854899999999997E38	 	7.67984E-39	 	-22202.94897	25.10813	 
50.0	1.0	0.0	7.85068	6.94658	-12.44062	11.81749	10.91134	0.72559	1.37819	212.10892	189.3227	80.75578	0.31327	 	9.45052E38	 	1.66892E-39	 	-22328.18711	25.04763	 
45.0	1.0	0.0	7.85208	6.94534	-12.45626	11.79239	10.84049	0.71903	1.39076	212.3784	189.42372	80.86685	0.31314	 	4.49088E39	 	3.4577E-40	 	-22453.11844	24.98627	 
40.0	1.0	0.0	7.85348	6.94411	-12.47183	11.76728	10.76922	0.71242	1.40367	212.64733	189.52416	80.97773	0.313	 	2.24296E40	 	6.81424E-41	 	-22577.73834	24.92398	 
35.0	1.0	0.0	7.85487	6.94288	-12.48734	11.74217	10.69751	0.70574	1.41695	212.91572	189.62402	81.08842	0.31286	 	1.18026E41	 	1.27429E-41	 	-22702.04186	24.86071	 
30.0	1.0	0.0	7.85625	6.94165	-12.50278	11.71704	10.62534	0.69901	1.4306	213.18357	189.7233	81.19892	0.31272	 	6.5603300000000005E41	 	2.25537E-42	 	-22826.02373	24.79637	 
25.0	1.0	0.0	7.85763	6.94043	-12.51816	 	10.55268	0.69221	1.44465	213.45087	189.822	81.30924	0.31259	 	3.8623999999999997E42	 	3.76759E-43	 	-22949.67827	 	 
