T (C)	Fraction solid (wt)-TOTAL	Fraction liquid (wt)-LIQUID	Density (g/(cm)^3)-TOTAL	Molar volume (cm^3)-TOTAL	Volume change (%)-  	Average expansion coeff. (10e-6 1/K)-  	Thermal conductivity (W/(m*K))-TOTAL	Electrical resistivity (10e-6 Ohm*m)-TOTAL	Electrical conductivity (10e6 1/(Ohm*m))-TOTAL	Young's modulus (GPa)-TOTAL	Bulk modulus (GPa)-TOTAL	Shear modulus(GPa)-TOTAL	Poisson's ratio-TOTAL	Liquid viscosity (mPa s)-  	Total viscosity (mPa s)-  	Liquid diffusivity (10e-9 (m^2)/s)-  	Total diffusivity (10e-9 (m^2)/s)-  	Surface Tension (mN/m)-  	Enthalpy (J/mole)-TOTAL	Specific heat (J/(mole K))-TOTAL	Latent heat (J/mole)-TOTAL
1400.0	0.0	1.0	7.43865	8.06024	0.0	34.42784	30.68105	1.33607	0.74846	0.0	122.73165	0.0	0.5	7.1602	7.1602	1.1405	1.1405	1837.39029	42411.242	 	0.0
1395.0	0.0	1.0	7.44287	8.05566	-0.0567818	34.39571	30.5974	1.33572	0.74866	0.0	122.86923	0.0	0.5	7.23782	7.23782	1.1249	1.1249	1841.72919	42212.048	39.8388	0.0
1390.0	0.0	1.0	7.44709	8.0511	-0.1134	34.3638	30.51374	1.33537	0.74886	0.0	123.00682	0.0	0.5	7.31676	7.31676	1.10943	1.10943	1846.10633	42013.289	39.7518	0.0
1385.0	0.0	1.0	7.45131	8.04655	-0.16987	34.33209	30.43008	1.33502	0.74905	0.0	123.1444	0.0	0.5	7.39705	7.39705	1.09409	1.09409	1850.52134	41814.961	39.6656	0.0
1380.0	0.0	1.0	7.45551	8.04201	-0.22617	34.3006	30.34643	1.33466	0.74925	0.0	123.28198	0.0	0.5	7.47871	7.47871	1.07888	1.07888	1854.97388	41617.062	39.5798	0.0
1375.0	0.0	1.0	7.45971	8.03748	-0.28232	34.26932	30.26277	1.3343	0.74946	0.0	123.41956	0.0	0.5	7.56178	7.56178	1.0638	1.0638	1859.46352	41419.59	39.4944	0.0
1370.0	0.0	1.0	7.4639	8.03297	-0.3383	34.23826	30.17911	1.33394	0.74966	0.0	123.55715	0.0	0.5	7.64628	7.64628	1.04885	1.04885	1863.98986	41222.541	39.4098	0.0
1365.0	0.0	1.0	7.46808	8.02847	-0.39413	34.20742	30.09546	1.33358	0.74986	0.0	123.69473	0.0	0.5	7.73225	7.73225	1.03403	1.03403	1868.55244	41025.914	39.3254	0.0
1360.0	0.0	1.0	7.47226	8.02398	-0.4498	34.1768	30.0118	1.33321	0.75007	0.0	123.83231	0.0	0.5	7.81973	7.81973	1.01934	1.01934	1873.15078	40829.705	39.2418	0.0
1355.0	0.0	1.0	7.47643	8.01951	-0.50531	34.1464	29.92814	1.33285	0.75027	0.0	123.9699	0.0	0.5	7.90874	7.90874	1.00479	1.00479	1877.78438	40633.911	39.1588	0.0
1350.0	0.0	1.0	7.48059	8.01505	-0.56066	34.11624	29.84449	1.33248	0.75048	0.0	124.10748	0.0	0.5	7.99932	7.99932	0.99036	0.99036	1882.45273	40438.531	39.076	0.0
1345.0	0.0	1.0	7.48474	8.0106	-0.61585	34.08631	29.76083	1.33211	0.75069	0.0	124.24506	0.0	0.5	8.09151	8.09151	0.97606	0.97606	1887.15526	40243.562	38.9938	0.0
1341.41	0.0	1.0	7.48772	8.00742	-0.65535	34.06497	29.70081	1.33184	0.75084	0.0	124.34378	0.0	0.5	8.15866	8.15866	0.96588	0.96588	1890.55009	40103.924	38.92348	0.0
1340.0	0.03556	0.96444	7.49975	7.99459	-0.81448	33.64089	29.80645	1.32596	0.75417	1.58961E-4	125.47971	5.31419E-5	0.49563	8.18168	8.60075	0.96232	0.91543	1890.82212	39509.953	420.51044	539.048
1335.0	0.15157	0.84843	7.53954	7.95246	-1.3372	32.25035	30.15515	1.30657	0.76537	0.0538261	129.18427	0.0181693	0.48124	8.26492	18.78428	0.94967	0.41785	1891.83895	37564.57	389.0766	2290.274
1330.0	0.24891	0.75109	7.57365	7.91658	-1.78232	31.07546	30.44747	1.29	0.77519	0.40001	132.31975	0.13615	0.46897	8.35028	78.03971	0.93704	0.10026	1892.9086	35910.34	330.846	3750.754
1325.0	0.33128	0.66872	7.60306	7.88597	-2.16212	30.08286	30.6934	1.27567	0.7839	1.27823	134.99816	0.43821	0.45846	8.4377	232.30193	0.92444	0.0335777	1894.03123	34489.924	284.0832	4977.819
1320.0	0.40152	0.59848	7.62869	7.85949	-2.49065	29.23327	30.90078	1.26315	0.79167	2.80277	137.3048	0.96688	0.4494	8.52727	512.44785	0.91187	0.0151738	1895.21426	33258.864	246.212	6015.927
1315.0	0.46185	0.53815	7.65118	7.83639	-2.77725	28.50084	31.07526	1.25211	0.79865	4.97561	139.30759	1.72582	0.44152	8.61903	934.07966	0.89933	0.0082984	1896.45621	32182.369	215.299	6899.865
1310.0	0.514	0.486	7.67107	7.81601	-3.03004	27.86285	31.22127	1.24233	0.80494	7.7286	141.05836	2.69358	0.43463	8.71316	1502.17837	0.88681	0.00514384	1897.76234	31232.981	189.8776	7657.09
1305.0	0.55936	0.44064	7.68877	7.79796	-3.25403	27.30556	31.34278	1.23361	0.81063	10.96113	142.60073	3.83637	0.42858	8.80951	2215.94045	0.87435	0.00347598	1899.13212	30388.855	168.8252	8309.445
1300.0	0.59902	0.40098	7.70458	7.78192	-3.45304	26.81846	31.4426	1.22579	0.8158	14.56158	143.96903	5.11564	0.42324	8.90809	3071.53433	0.86193	0.00249978	1900.56422	29632.479	151.2752	8874.44
1295.0	0.63388	0.36612	7.71886	7.76743	-3.63276	26.38535	31.52336	1.21877	0.8205	18.42675	145.1901	6.49517	0.4185	9.0092	4064.8065	0.84955	0.00188293	1902.0637	28949.711	136.5536	9366.213
1290.0	0.66466	0.33534	7.73177	7.75436	-3.79487	26.0018	31.58736	1.21242	0.8248	22.46267	146.28692	7.94147	0.41427	9.11268	5192.05461	0.83722	0.00146943	1903.62687	28329.056	124.131	9796.257
1285.0	0.69195	0.30805	7.74354	7.74245	-3.94272	25.65831	31.63661	1.20666	0.82873	26.5902	147.27704	9.42599	0.41047	9.2187	6450.50616	0.82495	0.00117897	1905.25617	27761.108	113.5896	10173.977
1280.0	0.71626	0.28374	7.75431	7.73158	-4.07755	25.35157	31.67281	1.20141	0.83235	30.7472	148.17697	10.92602	0.40706	9.3273	7839.85697	0.81273	9.66923E-4	1906.94797	27238.124	104.5968	10507.112
1275.0	0.73798	0.26202	7.76421	7.72155	-4.202	25.07397	31.69747	1.19662	0.83569	34.88527	148.99824	12.42371	0.40398	9.43844	9361.25386	0.80057	8.07171E-4	1908.70492	26753.692	96.8864	10802.073
1270.0	0.75746	0.24254	7.77334	7.71232	-4.31649	24.82462	31.71181	1.19221	0.83878	38.96291	149.75207	13.90355	0.40119	9.55219	11016.92992	0.78848	6.83651E-4	1910.52212	26302.475	90.2434	11064.195
1265.0	0.77498	0.22502	7.78183	7.70369	-4.42356	24.59601	31.71694	1.18816	0.84164	42.95261	150.44603	15.35514	0.39864	9.66872	12810.97149	0.77646	5.86008E-4	1912.40493	25880.005	84.494	11297.943
1260.0	0.79082	0.20918	7.78973	7.69567	-4.52308	24.38882	31.71402	1.1844	0.84431	46.83715	151.08945	16.77171	0.39631	9.78804	14750.89745	0.7645	5.07286E-4	1914.34614	25482.526	79.4958	11507.072
1255.0	0.80515	0.19485	7.79712	7.68813	-4.61655	24.1987	31.70379	1.18092	0.8468	50.59901	151.68736	18.14649	0.39418	9.91029	16843.10375	0.7526	4.42823E-4	1916.34856	25106.861	75.133	11694.755
1250.0	0.81817	0.18183	7.80406	7.68106	-4.70428	24.02484	31.68707	1.17768	0.84913	54.23117	152.2459	19.47649	0.39222	10.03545	19097.7444	0.74079	3.89267E-4	1918.40815	24750.315	71.3092	11863.686
1245.0	0.83002	0.16998	7.81059	7.67438	-4.78716	23.8647	31.66449	1.17465	0.85132	57.72849	152.76917	20.75948	0.39041	10.16361	21525.53299	0.72904	3.44229E-4	1920.52532	24410.589	67.9452	12016.162
1240.0	0.84084	0.15916	7.81677	7.66804	-4.86589	23.71622	31.63671	1.17181	0.85338	61.08901	153.26122	21.99444	0.38874	10.29493	24138.82558	0.71737	3.05951E-4	1922.70025	24085.714	64.975	12154.149
1235.0	0.85075	0.14925	7.82262	7.66201	-4.94067	23.57898	31.60419	1.16914	0.85533	64.31454	153.72558	23.1817	0.38718	10.4293	26952.56911	0.70579	2.73106E-4	1924.92936	23774.0	62.3428	12279.337
1230.0	0.85984	0.14016	7.82819	7.65625	-5.01206	23.45127	31.56749	1.16662	0.85718	67.40833	154.16541	24.32223	0.38574	10.5669	29983.12921	0.69429	2.44688E-4	1927.21248	23473.987	60.0026	12393.182
1225.0	0.86819	0.13181	7.83349	7.65076	-5.08028	23.33258	31.52688	1.16423	0.85893	70.3683	154.58272	25.415	0.38438	10.70792	33246.16698	0.68287	2.19938E-4	1929.54807	23184.41	57.9154	12496.948
1220.0	0.87589	0.12411	7.83855	7.64548	-5.14568	23.22187	31.48286	1.16197	0.86061	73.20746	154.98064	26.46461	0.38312	10.85224	36765.10122	0.67154	1.98223E-4	1931.93337	22904.171	56.0478	12591.729
1215.0	0.883	0.117	7.84341	7.64041	-5.20865	23.11799	31.43565	1.15982	0.8622	75.92239	155.36008	27.46962	0.38193	11.00015	40557.90362	0.66029	1.79084E-4	1934.37025	22632.314	54.3714	12678.481
1210.0	0.88957	0.11043	7.84807	7.63552	-5.26931	23.02068	31.3856	1.15777	0.86373	78.5223	155.72331	28.43325	0.38082	11.15157	44650.5673	0.64914	1.62123E-4	1936.855	22368.0	52.8628	12758.041
1205.0	0.89567	0.10433	7.85256	7.63079	-5.32799	22.92893	31.33289	1.1558	0.8652	81.00909	156.0714	29.35609	0.37977	11.30679	49067.42885	0.63807	1.47032E-4	1939.38878	22110.496	51.5008	12831.14
1200.0	0.90133	0.0986739	7.85688	7.62622	-5.3847	22.84276	31.27787	1.15392	0.86661	83.39357	156.40628	30.24196	0.37877	11.46563	53840.56107	0.6271	1.33544E-4	1941.96683	21859.154	50.2684	12898.422
1197.58	0.90391	0.0960909	7.85892	7.62405	-5.4116	22.80265	31.25035	1.15304	0.86727	84.50934	156.56405	30.65684	0.37831	11.54403	56288.7086	0.62182	1.27526E-4	1943.22787	21739.611	 	12928.904
1195.0	0.90654	0.0934632	7.86125	7.62156	-5.44253	22.75224	31.20609	1.15265	0.86757	85.68601	156.72024	31.09512	0.3778	11.64274	59033.72022	0.61546	1.21383E-4	1944.84409	21607.124	50.406	12966.737
1190.87	0.91056	0.0894432	7.86487	7.61765	-5.49099	22.67455	31.13541	1.15202	0.86804	87.52219	156.96458	31.77956	0.37702	11.80305	63672.24921	0.6054	1.12224E-4	1947.45133	21398.081	 	13024.404
1190.0	0.91141	0.0885913	7.86262	7.61535	-5.51958	22.59811	31.00406	1.15621	0.8649	87.9396	156.7832	31.94048	0.37662	11.83038	64695.60068	0.60364	1.10383E-4	1948.36756	21259.33781	69.55724	13037.426
1180.0	0.92044	0.0795593	7.8885	7.59892	-5.72335	22.12217	30.25238	1.17684	0.84973	92.87213	156.4465	33.82022	0.37303	12.12783	81393.82976	0.58481	8.71376E-5	1958.87695	20377.77131	88.15665	13187.315
1175.0	0.92449	0.0755131	7.89994	7.59114	-5.81987	21.89885	29.91087	1.18618	0.84304	84.11011	156.27665	30.66579	0.3714	12.28308	91108.2057	0.57543	7.75787E-5	1964.1354	19958.20483	83.9133	13253.346
1170.0	0.92827	0.071725	7.91052	7.58363	-5.91313	21.68444	29.5889	1.19495	0.83686	88.65919	156.11049	32.36044	0.36987	12.44343	101869.2213	0.56605	6.91441E-5	1969.39374	19551.09825	81.42132	13314.582
1165.0	0.93196	0.0680441	7.92039	7.57625	-6.0046	21.4741	29.28728	1.20307	0.83121	92.69625	155.95777	33.87015	0.36841	12.61544	113859.0448	0.5564	6.16486E-5	1974.6575	19153.24555	79.57054	13373.851
1160.0	0.9361	0.0639042	7.9298	7.56865	-6.09889	21.25247	29.01456	1.21016	0.82634	96.20351	155.85196	35.1901	0.36691	12.82987	127554.5175	0.5452	5.48381E-5	1979.9334	18753.36125	79.97686	13442.083
1155.0	0.9399	0.0600956	7.93851	7.56133	-6.18975	21.04041	28.755	1.21682	0.82181	99.19825	155.74898	36.32274	0.36551	13.05088	142701.8758	0.5341	4.88462E-5	1985.21229	18365.84866	77.50252	13504.534
1140.0	0.95019	0.0498081	7.96117	7.54067	-6.44603	20.44851	28.04006	1.23474	0.80989	106.45957	155.4815	39.09026	0.36171	13.716	198908.1174	0.50286	3.46755E-5	2001.06325	17251.64535	74.28022	13679.986
1135.0	0.95314	0.0468611	7.96767	7.53426	-6.52562	20.26767	27.82188	1.24002	0.80644	108.42423	155.40352	39.84447	0.36059	13.95416	221776.0801	0.49253	3.099E-5	2006.34102	16901.15196	70.09868	13728.747
1130.0	0.95584	0.0441572	7.97373	7.52806	-6.60249	20.09456	27.61261	1.24498	0.80323	110.21003	155.33115	40.53207	0.35954	14.20468	247052.6082	0.48212	2.77205E-5	2011.61239	16561.06021	68.01835	13772.258
1125.0	0.95834	0.0416566	7.97938	7.52207	-6.67687	19.92848	27.41138	1.24965	0.80022	111.85561	155.26517	41.16729	0.35855	14.46629	275014.7755	0.47172	2.48133E-5	2016.8744	16229.96961	66.21812	13811.676
1120.0	0.96067	0.0393323	7.98469	7.51624	-6.7492	19.76803	27.21754	1.25405	0.79742	113.38915	155.20602	41.76054	0.35761	14.73894	305965.5876	0.46134	2.22235E-5	2022.13349	15906.8807	64.61778	13847.771
1115.0	0.96284	0.0371607	7.98967	7.51057	-6.81952	19.61312	27.03052	1.2582	0.79479	114.83076	155.1541	42.31922	0.35672	15.02164	340243.5743	0.45103	1.99128E-5	2027.38358	15591.0144	63.17326	13881.104
1110.0	0.96488	0.0351244	7.99436	7.50505	-6.88803	19.46314	26.84984	1.2621	0.79233	116.19629	155.10954	42.8492	0.35587	15.3149	378220.3602	0.4408	1.78489E-5	2032.62579	15281.73123	61.85663	13912.108
1100.0	0.97572	0.0242816	8.00382	7.48981	-7.07708	18.97473	26.52835	1.26816	0.78854	123.03316	155.30074	45.46416	0.35308	15.94944	481080.0883	0.4202	1.39312E-5	2041.88992	14510.03466	77.16966	14139.236
1095.0	0.97747	0.0225323	8.00738	7.48453	-7.14261	18.83029	26.36345	1.27144	0.78651	124.38499	155.28653	45.98922	0.35233	16.30025	534497.8432	0.40966	1.24932E-5	2047.00892	14211.53872	59.69919	14171.084
1090.0	0.97907	0.020927	8.01073	7.4794	-7.20626	18.69115	26.20341	1.27454	0.7846	125.68	155.27742	46.49243	0.35162	16.66078	593617.4226	0.39933	1.12079E-5	2052.12731	13919.43563	58.42062	14200.071
1085.0	0.98055	0.0194483	8.0139	7.4744	-7.26825	18.55673	26.04794	1.27744	0.78282	126.93035	155.27357	46.97835	0.35095	17.03103	659080.6558	0.38922	1.00576E-5	2057.24756	13633.22184	57.24276	14226.544
1080.0	0.98192	0.0180832	8.01691	7.46953	-7.32866	18.4267	25.89677	1.28017	0.78115	128.14695	155.27511	47.45106	0.35031	17.41107	731608.4904	0.37932	9.02722E-6	2062.36613	13352.45388	56.15359	14250.797
1075.0	0.98318	0.0168164	8.01977	7.46478	-7.38762	18.30068	25.74964	1.28272	0.77959	129.33898	155.28214	47.91403	0.3497	17.80148	812007.71	0.36963	8.10335E-6	2067.48144	13076.73803	55.14317	14273.084
1070.0	0.98436	0.0156403	8.02251	7.46014	-7.44522	18.17842	25.60633	1.28512	0.77814	130.51188	155.29461	48.36931	0.34912	18.20251	901172.7507	0.36015	7.2745E-6	2072.59233	12805.72275	54.20306	14293.619
1065.0	0.98546	0.014544	8.02514	7.45559	-7.50161	18.05942	25.46661	1.28736	0.77678	131.67135	155.31252	48.81908	0.34856	18.61458	1000113.843	0.35086	6.53043E-6	2077.70251	12539.09637	53.32528	14312.589
1060.0	0.98648	0.0135189	8.02767	7.45114	-7.55685	17.94349	25.33028	1.28945	0.77552	132.82001	155.33582	49.26437	0.34803	19.0379	1109960.2	0.34178	5.86217E-6	2082.80884	12276.5736	52.50455	14330.157
1055.0	0.98744	0.0125595	8.03011	7.44677	-7.61102	17.83038	25.19714	1.2914	0.77435	133.95858	155.36447	49.70546	0.34752	19.47322	1231978.265	0.33289	5.26176E-6	2087.91026	12017.89926	51.73487	14346.464
1050.0	0.98834	0.0116591	8.03248	7.44249	-7.66418	17.71992	25.06702	1.29322	0.77326	135.08492	155.39831	50.14162	0.34703	19.92	1367582.605	0.3242	4.72218E-6	2093.00769	11762.8409	51.01167	14361.632
1045.0	0.98919	0.0108114	8.03478	7.43828	-7.71639	17.61195	24.93975	1.29491	0.77226	136.19653	155.4373	50.57192	0.34656	20.37983	1518371.325	0.31568	4.23715E-6	2098.09666	11511.18646	50.33089	14375.771
1040.0	0.98999	0.0100129	8.03702	7.43414	-7.76772	17.50618	24.81518	1.29647	0.77132	137.2897	155.48132	50.99505	0.34611	20.85254	1686138.971	0.30736	3.80109E-6	2103.17936	11262.74201	49.68889	14388.975
1035.0	0.99074	0.00925937	8.03922	7.43007	-7.81823	17.40247	24.68412	1.29839	0.77018	138.35928	155.53025	51.4091	0.34567	21.33848	1872900.758	0.29921	3.40902E-6	2108.25477	11017.32943	49.08252	14401.329
1030.0	0.99145	0.0085453	8.04137	7.42606	-7.86794	17.30078	24.56421	1.29974	0.76938	139.39912	155.58396	51.8118	0.34524	21.83852	2080919.658	0.29124	3.05651E-6	2113.31901	10774.78316	48.50925	14412.908
1025.0	0.9927	0.00730279	8.04355	7.4221	-7.91709	17.20018	24.4501	1.3008	0.76876	140.50465	155.64678	52.24154	0.34476	22.33467	2316777.049	0.28368	2.73481E-6	2118.38895	10526.362	49.68423	14432.371
1020.0	0.99447	0.0055269	8.04576	7.4182	-7.96553	17.10127	24.34161	1.30156	0.76831	141.70075	155.71825	52.70767	0.34421	22.8244	2584647.479	0.27653	2.44194E-6	2123.45665	10272.04678	50.86304	14459.653
1015.0	0.99607	0.00393194	8.04793	7.41437	-8.01304	17.00497	24.23504	1.30223	0.76791	143.11566	155.79236	53.25432	0.3437	23.32948	2883112.033	0.26949	2.18068E-6	2128.51555	10022.57022	49.89531	14483.947
1010.0	0.99751	0.00249281	8.05006	7.41061	-8.05969	16.911	24.12974	1.30284	0.76755	144.90553	155.86937	53.93983	0.34321	23.85115	3215958.511	0.26258	1.94739E-6	2133.56107	9777.42872	49.0283	14505.683
1005.0	0.99881	0.00118763	8.05216	7.40691	-8.10558	16.819	24.02588	1.30337	0.76724	146.50464	155.94945	54.5538	0.34275	24.38908	3587481.242	0.25578	1.73892E-6	2138.59394	9536.19712	48.24632	14525.218
1000.0	1.0	0.0	8.05423	7.40327	-8.15076	16.72887	23.92367	1.30382	0.76698	147.62392	156.03265	54.98855	0.34232	 	4002497.647	 	1.55251E-6	 	9298.51454	47.53652	14542.844
995.0	1.0	0.0	8.05766	7.40012	-8.1898	16.66188	23.81629	1.30456	0.76654	147.93286	156.06396	55.11587	0.34202	 	4490199.446	 	1.37845E-6	 	9369.67265	-14.23162	 
990.0	1.0	0.0	8.06105	7.397	-8.22849	16.59559	23.71072	1.3052	0.76617	148.24087	156.09946	55.24269	0.34172	 	5042002.799	 	1.22275E-6	 	9171.19637	39.69526	 
985.0	1.0	0.0	8.06442	7.39391	-8.26683	16.52999	23.60689	1.30575	0.76584	148.54807	156.13903	55.36904	0.34144	 	5666928.564	 	1.08361E-6	 	8974.02651	39.43397	 
980.0	1.0	0.0	8.06777	7.39085	-8.30484	16.46503	23.50472	1.30621	0.76557	148.85458	156.18255	55.495	0.34115	 	6375349.676	 	9.59369E-7	 	8778.11348	39.18261	 
975.0	1.0	0.0	8.07108	7.38781	-8.34253	16.40067	23.40413	1.30659	0.76535	149.16053	156.22992	55.62059	0.34087	 	7179206.023	 	8.48549E-7	 	8583.40996	38.9407	 
970.0	1.0	0.0	8.07438	7.3848	-8.37991	16.33687	23.30507	1.30689	0.76517	149.466	156.28102	55.74588	0.3406	 	8092255.442	 	7.49792E-7	 	8389.87088	38.70782	 
965.0	1.0	0.0	8.07765	7.38181	-8.41699	16.27362	23.20746	1.30711	0.76505	149.7711	156.33576	55.87091	0.34033	 	9130367.13	 	6.61869E-7	 	8197.45321	38.48354	 
960.0	1.0	0.0	8.08089	7.37884	-8.45378	16.21086	23.11125	1.30725	0.76496	150.07592	156.39402	55.9957	0.34007	 	1.03118652E7	 	5.83667E-7	 	8006.11588	38.26747	 
955.0	1.0	0.0	8.08412	7.3759	-8.49028	16.14858	23.01638	1.30732	0.76493	150.38052	156.45572	56.1203	0.33981	 	1.165793098E7	 	5.14182E-7	 	7815.81976	38.05922	 
950.0	1.0	0.0	8.08732	7.37298	-8.52652	16.08674	22.92279	1.30731	0.76493	150.685	156.52076	56.24475	0.33955	 	1.319307545E7	 	4.52502E-7	 	7626.52743	37.85847	 
945.0	1.0	0.0	8.0905	7.37008	-8.5625	16.02531	22.83044	1.30723	0.76498	150.98942	156.58904	56.36906	0.33929	 	1.494569324E7	 	3.97806E-7	 	7438.2032	37.66485	 
940.0	1.0	0.0	8.09366	7.3672	-8.59822	15.96427	22.73928	1.30709	0.76506	151.29384	156.66048	56.49328	0.33904	 	1.694871507E7	 	3.49353E-7	 	7250.81297	37.47805	 
935.0	1.0	0.0	8.0968	7.36434	-8.63369	15.90359	22.64927	1.30687	0.76519	151.59833	156.73499	56.61743	0.3388	 	1.924037485E7	 	3.06474E-7	 	7064.32416	37.29776	 
930.0	1.0	0.0	8.09993	7.3615	-8.66893	15.84324	22.56035	1.30659	0.76535	151.90293	156.81249	56.74154	0.33855	 	2.186511415E7	 	2.68568E-7	 	6878.70564	37.1237	 
925.0	1.0	0.0	8.10303	7.35868	-8.70393	15.7832	22.4725	1.30625	0.76555	152.2077	156.89291	56.86562	0.33831	 	2.487464942E7	 	2.35094E-7	 	6693.92765	36.9556	 
920.0	1.0	0.0	8.10612	7.35588	-8.73871	15.72345	22.38567	1.30584	0.76579	152.51269	156.97615	56.9897	0.33807	 	2.832923234E7	 	2.05564E-7	 	6509.96174	36.79318	 
915.0	1.0	0.0	8.10919	7.35309	-8.77327	15.66396	22.29984	1.30538	0.76606	152.81793	157.06216	57.1138	0.33784	 	3.229914103E7	 	1.79542E-7	 	6326.78071	36.63621	 
910.0	1.0	0.0	8.11225	7.35032	-8.80762	15.60471	22.21496	1.30485	0.76637	153.12347	157.15085	57.23794	0.3376	 	3.686644528E7	 	1.56637E-7	 	6144.35853	36.48444	 
905.0	1.0	0.0	8.11529	7.34757	-8.84176	15.54568	22.131	1.30426	0.76672	153.42935	157.24216	57.36214	0.33737	 	4.21270997E7	 	1.36498E-7	 	5962.67031	36.33764	 
900.0	1.0	0.0	8.11831	7.34484	-8.8757	15.48685	22.04794	1.30362	0.76709	153.73558	157.33603	57.48641	0.33715	 	4.819342872E7	 	1.1881E-7	 	5781.69221	36.19562	 
895.0	1.0	0.0	8.12132	7.34212	-8.90945	15.4282	21.96574	1.30292	0.7675	154.04222	157.43238	57.61076	0.33692	 	5.519707974E7	 	1.03293E-7	 	5601.40142	36.05816	 
890.0	1.0	0.0	8.12431	7.33941	-8.94301	15.36971	21.88438	1.30217	0.76795	154.34927	157.53115	57.73521	0.3367	 	6.329253779E7	 	8.96953E-8	 	5421.7761	35.92506	 
885.0	1.0	0.0	8.12729	7.33672	-8.97638	15.31135	21.80384	1.30136	0.76843	154.65678	157.63228	57.85977	0.33648	 	7.266131309E7	 	7.77944E-8	 	5242.79533	35.79615	 
880.0	1.0	0.0	8.13025	7.33405	-9.00957	15.25312	21.72408	1.3005	0.76893	154.96475	157.73572	57.98445	0.33626	 	8.351693746E7	 	6.73904E-8	 	5064.4389	35.67128	 
875.0	1.0	0.0	8.1332	7.33139	-9.04258	15.195	21.64509	1.29959	0.76948	155.27322	157.84141	58.10927	0.33605	 	9.611093651E7	 	5.83059E-8	 	4886.68758	35.55027	 
870.0	1.0	0.0	8.13614	7.32874	-9.07542	15.13696	21.56685	1.29862	0.77005	155.58219	157.94928	58.23423	0.33583	 	1.107399653E8	 	5.03832E-8	 	4709.5233	35.43285	 
865.0	1.0	0.0	8.13907	7.3261	-9.10809	15.07899	21.48933	1.29761	0.77065	155.8917	158.05929	58.35934	0.33562	 	1.277543629E8	 	4.34821E-8	 	4532.92847	35.31897	 
860.0	1.0	0.0	8.14198	7.32348	-9.1406	15.02108	21.41252	1.29654	0.77128	156.20174	158.17139	58.48461	0.33541	 	1.475684136E8	 	3.74784E-8	 	4356.88622	35.20845	 
855.0	1.0	0.0	8.14488	7.32088	-9.17295	14.96321	21.3364	1.29542	0.77195	156.51233	158.28553	58.61005	0.3352	 	1.706726605E8	 	3.22619E-8	 	4181.3804	35.10116	 
850.0	1.0	0.0	8.14776	7.31828	-9.20514	14.90537	21.26094	1.29426	0.77264	156.82349	158.40165	58.73566	0.33499	 	1.976487274E8	 	2.77351E-8	 	4006.39549	34.99698	 
845.0	1.0	0.0	8.14998	7.31629	-9.22983	14.88163	21.19886	1.29227	0.77383	157.14251	158.58826	58.86137	0.33485	 	2.245395084E8	 	2.43049E-8	 	3859.13846	29.45141	 
840.0	1.0	0.0	8.15219	7.31431	-9.25446	14.85788	21.13678	1.29027	0.77503	157.461	158.77407	58.9869	0.33471	 	2.553813556E8	 	2.12741E-8	 	3709.06964	30.01376	 
835.0	1.0	0.0	8.1544	7.31233	-9.27903	14.83413	21.07468	1.28826	0.77624	157.77896	158.95909	59.11225	0.33457	 	2.90797066E8	 	1.85992E-8	 	3559.19554	29.97482	 
830.0	1.0	0.0	8.1566	7.31035	-9.30354	14.81037	21.01257	1.28624	0.77746	158.09639	159.14331	59.23743	0.33443	 	3.315141909E8	 	1.62412E-8	 	3409.51544	29.93602	 
825.0	1.0	0.0	8.1588	7.30838	-9.32799	14.78661	20.95044	1.28421	0.77869	158.41328	159.32674	59.36244	0.33429	 	3.783837538E8	 	1.4165E-8	 	3260.02857	29.89737	 
820.0	1.0	0.0	8.161	7.30642	-9.35237	14.76285	20.88831	1.28216	0.77993	158.72963	159.50938	59.48726	0.33415	 	4.324025085E8	 	1.2339E-8	 	3110.73419	29.85888	 
815.0	1.0	0.0	8.16319	7.30446	-9.37669	14.73908	20.82616	1.28011	0.78119	159.04545	159.69124	59.61191	0.33401	 	4.947394432E8	 	1.07349E-8	 	2961.63147	29.82054	 
810.0	1.0	0.0	8.16537	7.3025	-9.40095	14.71532	20.764	1.27804	0.78245	159.36074	159.8723	59.73638	0.33387	 	5.667673855E8	 	9.32761E-9	 	2812.7196	29.78238	 
805.0	1.0	0.0	8.16756	7.30055	-9.42515	14.69154	20.70183	1.27596	0.78372	159.67549	160.05259	59.86068	0.33373	 	6.501007426E8	 	8.09441E-9	 	2663.99769	29.74438	 
800.0	1.0	0.0	8.16973	7.2986	-9.44929	14.66777	20.63965	1.27387	0.78501	159.98971	160.23209	59.9848	0.33359	 	7.466406353E8	 	7.01513E-9	 	2515.46488	29.70656	 
795.0	1.0	0.0	8.17191	7.29666	-9.47337	14.64399	20.57745	1.27176	0.78631	160.3034	160.41081	60.10874	0.33344	 	8.586289503E8	 	6.07174E-9	 	2367.12021	29.66893	 
790.0	1.0	0.0	8.17407	7.29473	-9.49738	14.6202	20.51524	1.26965	0.78762	160.61655	160.58876	60.23251	0.3333	 	9.887131721E8	 	5.24821E-9	 	2218.96272	29.6315	 
785.0	1.0	0.0	8.17624	7.2928	-9.52133	14.59641	20.45302	1.26752	0.78894	160.92916	160.76593	60.3561	0.33316	 	1.140024259E9	 	4.53023E-9	 	2070.9914	29.59426	 
780.0	1.0	0.0	8.1784	7.29087	-9.54522	14.57262	20.39078	1.26538	0.79027	161.24125	160.94233	60.47951	0.33302	 	1.316270331E9	 	3.9051E-9	 	1923.20522	29.55724	 
775.0	1.0	0.0	8.18055	7.28895	-9.56905	14.54883	20.32854	1.26323	0.79162	161.55279	161.11796	60.60274	0.33288	 	1.521849557E9	 	3.36154E-9	 	1775.60304	29.52043	 
770.0	1.0	0.0	8.1827	7.28703	-9.59282	14.52503	20.26627	1.26107	0.79298	161.86381	161.29281	60.7258	0.33274	 	1.761986381E9	 	2.88955E-9	 	1628.18374	29.48386	 
765.0	1.0	0.0	8.18485	7.28512	-9.61652	14.50123	20.204	1.25889	0.79435	162.17428	161.46691	60.84868	0.3326	 	2.042896186E9	 	2.48028E-9	 	1480.94612	29.44752	 
760.0	1.0	0.0	8.18699	7.28322	-9.64017	14.47742	20.14171	1.2567	0.79573	162.48423	161.64024	60.97138	0.33246	 	2.371984638E9	 	2.12588E-9	 	1333.88893	29.41144	 
755.0	1.0	0.0	8.18913	7.28132	-9.66375	14.45361	20.0794	1.2545	0.79713	162.79364	161.8128	61.0939	0.33232	 	2.75808942E9	 	1.81943E-9	 	1187.01086	29.37561	 
750.0	1.0	0.0	8.19126	7.27942	-9.68727	14.4298	20.01709	1.25229	0.79854	163.10251	161.98461	61.21625	0.33218	 	3.211773851E9	 	1.55482E-9	 	1040.31053	29.34007	 
745.0	1.0	0.0	8.19339	7.27753	-9.71073	14.40598	19.95475	1.25006	0.79996	163.41085	162.15565	61.33842	0.33204	 	3.745684122E9	 	1.32668E-9	 	893.78651	29.3048	 
740.0	1.0	0.0	8.19551	7.27565	-9.73412	14.38216	19.89241	1.24782	0.8014	163.71866	162.32594	61.46041	0.3319	 	4.37498467E9	 	1.13027E-9	 	747.43728	29.26985	 
735.0	1.0	0.0	8.19763	7.27376	-9.75745	14.35834	19.83004	1.24557	0.80285	164.02593	162.49548	61.58222	0.33176	 	5.11788971E9	 	9.61437E-10	 	601.26126	29.2352	 
730.0	1.0	0.0	8.19975	7.27189	-9.78073	14.33451	19.76767	1.2433	0.80431	164.33267	162.66427	61.70386	0.33162	 	5.99631328E9	 	8.16523E-10	 	455.25678	29.2009	 
725.0	1.0	0.0	8.20186	7.27002	-9.80394	14.31068	19.70527	1.24102	0.80579	164.63887	162.8323	61.82532	0.33148	 	7.036665648E9	 	6.92334E-10	 	309.42211	29.16693	 
720.0	1.0	0.0	8.20396	7.26815	-9.82709	14.28684	19.64286	1.23873	0.80728	164.94454	162.99959	61.9466	0.33134	 	8.270830776E9	 	5.86074E-10	 	163.75539	29.13334	 
715.0	1.0	0.0	8.20606	7.26629	-9.85017	14.26301	19.58044	1.23642	0.80879	165.24967	163.16613	62.0677	0.33121	 	9.737368215E9	 	4.953E-10	 	18.25468	29.10014	 
710.0	1.0	0.0	8.20816	7.26444	-9.8732	14.23916	19.518	1.2341	0.81031	165.55426	163.33192	62.18862	0.33107	 	1.1483E10	 	4.1788E-10	 	-127.08206	29.06735	 
705.0	1.0	0.0	8.21025	7.26258	-9.89616	14.21532	19.45554	1.23177	0.81184	165.85833	163.49698	62.30936	0.33093	 	1.3564399999999998E10	 	3.51958E-10	 	-272.25699	29.03498	 
700.0	1.0	0.0	8.21234	7.26074	-9.91906	14.19147	19.39307	1.22942	0.81339	166.16186	163.66129	62.42993	0.33079	 	1.6050499999999998E10	 	2.95922E-10	 	-417.27236	29.00308	 
695.0	1.0	0.0	8.21442	7.2589	-9.9419	14.16762	19.33058	1.22705	0.81496	166.46485	163.82487	62.55032	0.33065	 	1.90254E10	 	2.48368E-10	 	-562.1306	28.97165	 
690.0	1.0	0.0	8.2165	7.25706	-9.96467	14.14376	19.26807	1.22468	0.81654	166.76731	163.98771	62.67052	0.33051	 	2.25915E10	 	2.08083E-10	 	-706.83425	28.94073	 
685.0	1.0	0.0	8.21857	7.25523	-9.98739	14.1199	19.20554	1.22229	0.81814	167.06923	164.14981	62.79055	0.33037	 	2.6874099999999996E10	 	1.74015E-10	 	-851.38596	28.91034	 
680.0	1.0	0.0	8.22064	7.25341	-10.01004	14.09604	19.143	1.21988	0.81975	167.37062	164.31119	62.9104	0.33023	 	3.2026899999999996E10	 	1.45256E-10	 	-995.7886	28.88053	 
675.0	1.0	0.0	8.22271	7.25158	-10.03263	14.07217	19.08044	1.21746	0.82138	167.67147	164.47183	63.03007	0.33009	 	3.82383E10	 	1.21022E-10	 	-1140.04517	28.85131	 
670.0	1.0	0.0	8.22476	7.24977	-10.05516	14.0483	19.01786	1.21502	0.82303	167.97179	164.63174	63.14957	0.32995	 	4.57402E10	 	1.0064E-10	 	-1284.15884	28.82273	 
665.0	1.0	0.0	8.22682	7.24796	-10.07762	14.02442	18.95526	1.21257	0.82469	168.27157	164.79093	63.26888	0.32981	 	5.481859999999999E10	 	8.35279E-11	 	-1428.13298	28.79483	 
660.0	1.0	0.0	8.22887	7.24615	-10.10003	14.00055	18.89265	1.21011	0.82637	168.57082	164.9494	63.38802	0.32967	 	6.582629999999999E10	 	6.91892E-11	 	-1571.96181	28.76577	 
655.0	1.0	0.0	8.23092	7.24435	-10.12237	13.97666	18.83001	1.20763	0.82807	168.86953	165.10714	63.50697	0.32954	 	7.92005E10	 	5.71975E-11	 	-1715.59319	28.72628	 
650.0	1.0	0.0	8.23296	7.24256	-10.14465	13.95278	18.76736	1.20513	0.82978	169.16771	165.26416	63.62575	0.3294	 	9.548299999999998E10	 	4.71881E-11	 	-1858.95792	28.67295	 
645.0	1.0	0.0	8.23499	7.24077	-10.16687	13.92889	18.70468	1.20262	0.83152	169.46535	165.42046	63.74434	0.32926	 	1.15348E11	 	3.885E-11	 	-2002.05715	28.61985	 
640.0	1.0	0.0	8.23702	7.23898	-10.18902	13.905	18.64199	1.2001	0.83327	169.76246	165.57604	63.86276	0.32912	 	1.39634E11	 	3.19182E-11	 	-2144.89201	28.56697	 
635.0	1.0	0.0	8.23905	7.2372	-10.21111	13.8811	18.57927	1.19755	0.83504	170.05903	165.73091	63.981	0.32898	 	1.69389E11	 	2.61673E-11	 	-2287.46361	28.51432	 
630.0	1.0	0.0	8.24107	7.23542	-10.23314	13.8572	18.51654	1.195	0.83682	170.35506	165.88506	64.09905	0.32884	 	2.05926E11	 	2.1406E-11	 	-2429.77309	28.4619	 
625.0	1.0	0.0	8.24309	7.23365	-10.25511	13.8333	18.45378	1.19242	0.83863	170.65056	166.03851	64.21693	0.3287	 	2.50887E11	 	1.74726E-11	 	-2571.82179	28.40974	 
620.0	1.0	0.0	8.2451	7.23189	-10.27702	13.80939	18.391	1.18983	0.84046	170.94553	166.19124	64.33463	0.32857	 	3.06343E11	 	1.42299E-11	 	-2713.61139	28.35792	 
615.0	1.0	0.0	8.24711	7.23013	-10.29886	13.78548	18.3282	1.18722	0.8423	171.23996	166.34327	64.45215	0.32843	 	3.74898E11	 	1.15627E-11	 	-2855.14273	28.30627	 
610.0	1.0	0.0	8.24911	7.22837	-10.32065	13.76156	18.26538	1.1846	0.84417	171.53385	166.49459	64.56948	0.32829	 	4.59846E11	 	9.37366E-12	 	-2996.4169	28.25483	 
605.0	1.0	0.0	8.25111	7.22662	-10.34236	13.73764	18.20253	1.18196	0.84605	171.82721	166.6452	64.68664	0.32815	 	5.65355E11	 	7.58114E-12	 	-3137.43502	28.20362	 
600.0	1.0	0.0	8.25311	7.22487	-10.36402	13.71372	18.13967	1.1793	0.84796	172.12003	166.79512	64.80362	0.32801	 	6.96718E11	 	6.11672E-12	 	-3278.1982	28.15263	 
595.0	1.0	0.0	8.25509	7.22313	-10.38562	13.6898	18.07678	1.17663	0.84988	172.41232	166.94433	64.92042	0.32787	 	8.60673E11	 	4.92315E-12	 	-3418.70753	28.10187	 
590.0	1.0	0.0	8.25708	7.2214	-10.40715	13.66587	18.01386	1.17394	0.85183	172.70407	167.09285	65.03703	0.32774	 	1.06582E12	 	3.95267E-12	 	-3558.96411	28.05132	 
585.0	1.0	0.0	8.25906	7.21967	-10.42862	13.64194	17.95092	1.17123	0.8538	172.99529	167.24066	65.15347	0.3276	 	1.32315E12	 	3.16549E-12	 	-3698.96905	28.00099	 
580.0	1.0	0.0	8.26103	7.21794	-10.45003	13.618	17.88796	1.16851	0.85579	173.28597	167.38779	65.26972	0.32746	 	1.64678E12	 	2.52857E-12	 	-3838.72345	27.95088	 
575.0	1.0	0.0	8.263	7.21622	-10.47137	13.59406	17.82498	1.16576	0.85781	173.57611	167.53422	65.3858	0.32732	 	2.05487E12	 	2.01453E-12	 	-3978.22839	27.90099	 
570.0	1.0	0.0	8.26497	7.21451	-10.49266	13.57012	17.76196	1.163	0.85984	173.86572	167.67995	65.50169	0.32718	 	2.57083E12	 	1.60073E-12	 	-4117.48498	27.85132	 
565.0	1.0	0.0	8.26693	7.2128	-10.51388	13.54617	17.69892	1.16022	0.8619	174.1548	167.825	65.61741	0.32705	 	3.22494E12	 	1.26849E-12	 	-4256.49429	27.80186	 
560.0	1.0	0.0	8.26888	7.21109	-10.53504	13.52222	17.63586	1.15742	0.86399	174.44333	167.96936	65.73294	0.32691	 	4.05651E12	 	1.00244E-12	 	-4395.25741	27.75262	 
555.0	1.0	0.0	8.27083	7.20939	-10.55613	13.49826	17.57277	1.15461	0.86609	174.73133	168.11304	65.84829	0.32677	 	5.11666E12	 	7.89968E-13	 	-4533.77543	27.7036	 
550.0	1.0	0.0	8.27278	7.20769	-10.57717	13.47431	17.50965	1.15177	0.86823	175.0188	168.25602	65.96346	0.32663	 	6.47209E12	 	6.20756E-13	 	-4672.04944	27.6548	 
545.0	1.0	0.0	8.27472	7.206	-10.59814	13.45034	17.4465	1.14892	0.87038	175.30573	168.39833	66.07845	0.3265	 	8.21015E12	 	4.86372E-13	 	-4810.08051	27.60621	 
540.0	1.0	0.0	8.27665	7.20432	-10.61905	13.42638	17.38333	1.14605	0.87256	175.59212	168.53996	66.19326	0.32636	 	1.04455E13	 	3.79953E-13	 	-4947.86971	27.55784	 
535.0	1.0	0.0	8.27858	7.20264	-10.63989	13.40241	17.32013	1.14316	0.87477	175.87797	168.6809	66.30788	0.32622	 	1.3329E13	 	2.95924E-13	 	-5085.41813	27.50968	 
530.0	1.0	0.0	8.28051	7.20096	-10.66068	13.37844	17.2569	1.14025	0.877	176.16329	168.82117	66.42233	0.32608	 	1.70603E13	 	2.29772E-13	 	-5222.72682	27.46174	 
525.0	1.0	0.0	8.28243	7.19929	-10.6814	13.35446	17.19363	1.13732	0.87926	176.44808	168.96076	66.53659	0.32595	 	2.19037E13	 	1.7785E-13	 	-5359.79685	27.41401	 
520.0	1.0	0.0	8.28435	7.19763	-10.70206	13.33048	17.13034	1.13437	0.88155	176.73233	169.09968	66.65067	0.32581	 	2.8211E13	 	1.37222E-13	 	-5496.6293	27.36649	 
515.0	1.0	0.0	8.28626	7.19597	-10.72265	13.3065	17.06702	1.1314	0.88386	177.01604	169.23793	66.76457	0.32567	 	3.64513E13	 	1.05532E-13	 	-5633.22526	27.31919	 
510.0	1.0	0.0	8.28816	7.19431	-10.74319	13.28251	17.00367	1.12841	0.8862	177.29921	169.3755	66.87829	0.32554	 	4.72529E13	 	8.08916E-14	 	-5769.58597	27.27214	 
505.0	1.0	0.0	8.29007	7.19266	-10.76366	13.25852	16.94028	1.1254	0.88857	177.58185	169.51241	66.99183	0.3254	 	6.146E13	 	6.17956E-14	 	-5905.71239	27.22529	 
500.0	1.0	0.0	8.29196	7.19102	-10.78407	13.23453	16.87686	1.12238	0.89097	177.86395	169.64864	67.10518	0.32526	 	8.02109E13	 	4.70454E-14	 	-6041.60558	27.17864	 
495.0	1.0	0.0	8.29385	7.18938	-10.80441	13.21053	16.81341	1.11933	0.8934	178.14552	169.78422	67.21835	0.32513	 	1.05046E14	 	3.56906E-14	 	-6177.26655	27.1322	 
490.0	1.0	0.0	8.29574	7.18774	-10.8247	13.18653	16.74993	1.11625	0.89585	178.42655	169.91912	67.33134	0.32499	 	1.3805799999999998E14	 	2.69796E-14	 	-6312.69634	27.08596	 
485.0	1.0	0.0	8.29762	7.18611	-10.84492	13.16252	16.68641	1.11316	0.89834	178.70704	170.05337	67.44415	0.32485	 	1.82099E14	 	2.03205E-14	 	-6447.89599	27.03993	 
480.0	1.0	0.0	8.2995	7.18449	-10.86508	13.13851	16.62285	1.11005	0.90086	178.987	170.18695	67.55678	0.32472	 	2.41074E14	 	1.52482E-14	 	-6582.86649	26.9941	 
475.0	1.0	0.0	8.30137	7.18287	-10.88517	13.1145	16.55926	1.10691	0.90341	179.26642	170.31988	67.66922	0.32458	 	3.20348E14	 	1.13986E-14	 	-6717.60888	26.94848	 
470.0	1.0	0.0	8.30324	7.18125	-10.9052	13.09048	16.49564	1.10376	0.906	179.5453	170.45215	67.78148	0.32444	 	4.27322E14	 	8.48805E-15	 	-6852.12416	26.90306	 
465.0	1.0	0.0	8.3051	7.17964	-10.92517	13.06646	16.43197	1.10058	0.90861	179.82364	170.58376	67.89356	0.32431	 	5.72247E14	 	6.29575E-15	 	-6986.41334	26.85784	 
460.0	1.0	0.0	8.30695	7.17804	-10.94508	13.04244	16.36827	1.09738	0.91126	180.10145	170.71472	68.00545	0.32417	 	7.69382E14	 	4.65091E-15	 	-7120.47742	26.81282	 
455.0	1.0	0.0	8.30881	7.17644	-10.96493	13.01841	16.30453	1.09415	0.91395	180.37872	170.84502	68.11717	0.32403	 	1.03864E15	 	3.4217E-15	 	-7254.31741	26.768	 
450.0	1.0	0.0	8.31065	7.17485	-10.98471	12.99438	16.24075	1.09091	0.91667	180.65546	170.97468	68.2287	0.3239	 	1.40797E15	 	2.50682E-15	 	-7387.93428	26.72337	 
445.0	1.0	0.0	8.31249	7.17326	-11.00443	12.97035	16.17693	1.08764	0.91942	180.93166	171.10368	68.34004	0.32376	 	1.91672E15	 	1.82871E-15	 	-7521.32904	26.67895	 
440.0	1.0	0.0	8.31433	7.17167	-11.02409	12.94631	16.11307	1.08435	0.92221	181.20732	171.23204	68.45121	0.32362	 	2.62061E15	 	1.32821E-15	 	-7654.50265	26.63472	 
435.0	1.0	0.0	8.31616	7.17009	-11.04368	12.92227	16.04917	1.08103	0.92504	181.48244	171.35974	68.56219	0.32349	 	3.59886E15	 	9.60389E-16	 	-7787.4561	26.59069	 
430.0	1.0	0.0	8.31799	7.16852	-11.06321	12.89822	15.98522	1.07769	0.92791	181.75703	171.48681	68.67298	0.32335	 	4.96463E15	 	6.9127E-16	 	-7920.19035	26.54685	 
425.0	1.0	0.0	8.31981	7.16695	-11.08268	12.87418	15.92123	1.07433	0.93081	182.03108	171.61323	68.7836	0.32322	 	6.88034E15	 	4.95251E-16	 	-8052.70623	26.50318	 
420.0	1.0	0.0	8.32163	7.16538	-11.10208	12.85012	15.8572	1.07094	0.93376	182.30459	171.73901	68.89403	0.32308	 	9.58027E15	 	3.53131E-16	 	-8185.00493	26.45974	 
415.0	1.0	0.0	8.32344	7.16383	-11.12143	12.82607	15.79312	1.06753	0.93674	182.57757	171.86415	69.00427	0.32294	 	1.3404E16	 	2.50573E-16	 	-8317.08681	26.41638	 
410.0	1.0	0.0	8.32524	7.16227	-11.14071	12.80201	15.72899	1.0641	0.93976	182.85001	171.98865	69.11434	0.32281	 	1.88463E16	 	1.76919E-16	 	-8448.95207	26.37305	 
405.0	1.0	0.0	8.32704	7.16072	-11.15992	12.77794	15.66482	1.06064	0.94283	183.12191	172.11252	69.22422	0.32267	 	2.66319E16	 	1.24283E-16	 	-8580.60086	26.32976	 
400.0	1.0	0.0	8.32884	7.15918	-11.17908	12.75388	15.60059	1.05715	0.94594	183.39327	172.23575	69.33391	0.32254	 	3.78274E16	 	8.68544E-17	 	-8712.03335	26.2865	 
395.0	1.0	0.0	8.33063	7.15764	-11.19817	12.72981	15.53632	1.05364	0.94909	183.6641	172.35834	69.44342	0.3224	 	5.40124E16	 	6.03764E-17	 	-8843.24969	26.24327	 
390.0	1.0	0.0	8.33242	7.15611	-11.2172	12.70573	15.472	1.0501	0.95229	183.93439	172.4803	69.55275	0.32227	 	7.75376E16	 	4.17433E-17	 	-8974.25001	26.20006	 
385.0	1.0	0.0	8.3342	7.15458	-11.23616	12.68166	15.40762	1.04654	0.95553	184.20414	172.60164	69.6619	0.32213	 	1.11922E17	 	2.87009E-17	 	-9105.03446	26.15689	 
380.0	1.0	0.0	8.33597	7.15305	-11.25507	12.65757	15.3432	1.04295	0.95882	184.47335	172.72234	69.77086	0.32199	 	1.62466E17	 	1.96217E-17	 	-9235.60316	26.11374	 
375.0	1.0	0.0	8.33774	7.15154	-11.27391	12.63349	15.27871	1.03933	0.96216	184.74203	172.84241	69.87963	0.32186	 	2.37194E17	 	1.3337E-17	 	-9365.95623	26.07061	 
370.0	1.0	0.0	8.33951	7.15002	-11.29268	12.6094	15.21418	1.03569	0.96554	185.01017	172.96186	69.98822	0.32172	 	3.48339E17	 	9.0115E-18	 	-9496.09377	26.02751	 
365.0	1.0	0.0	8.34127	7.14851	-11.3114	12.58531	15.14958	1.03202	0.96897	185.27777	173.08069	70.09663	0.32159	 	5.14653E17	 	6.05194E-18	 	-9626.0159	25.98443	 
360.0	1.0	0.0	8.34302	7.14701	-11.33005	12.56121	15.08493	1.02832	0.97246	185.54483	173.19889	70.20485	0.32145	 	7.65077E17	 	4.03914E-18	 	-9755.7227	25.94136	 
355.0	1.0	0.0	8.34477	7.14551	-11.34864	12.53711	15.02022	1.0246	0.97599	185.81135	173.31647	70.31289	0.32132	 	1.14455E18	 	2.67864E-18	 	-9885.21423	25.89831	 
350.0	1.0	0.0	8.34651	7.14402	-11.36716	12.51301	14.95544	1.02084	0.97958	186.07734	173.43342	70.42074	0.32118	 	1.72336E18	 	1.76484E-18	 	-10014.49059	25.85527	 
345.0	1.0	0.0	8.34825	7.14253	-11.38562	12.4889	14.89061	1.01706	0.98322	186.34279	173.54976	70.52841	0.32105	 	2.61209E18	 	1.15503E-18	 	-10143.55182	25.81225	 
340.0	1.0	0.0	8.34999	7.14105	-11.40402	12.46479	14.82571	1.01325	0.98692	186.6077	173.66549	70.63589	0.32091	 	3.9861E18	 	7.50767E-19	 	-10272.39798	25.76923	 
335.0	1.0	0.0	8.35171	7.13957	-11.42236	12.44068	14.76075	1.00941	0.99068	186.87207	173.78059	70.74319	0.32078	 	6.12529E18	 	4.84586E-19	 	-10401.02909	25.72622	 
330.0	1.0	0.0	8.35344	7.1381	-11.44063	12.41656	14.69572	1.00554	0.99449	187.13591	173.89508	70.85031	0.32064	 	9.47977E18	 	3.10538E-19	 	-10529.44518	25.68322	 
325.0	1.0	0.0	8.35516	7.13663	-11.45884	12.39244	14.63062	1.00164	0.99836	187.39921	174.00896	70.95724	0.32051	 	1.47788E19	 	1.97541E-19	 	-10657.64626	25.64022	 
320.0	1.0	0.0	8.35687	7.13517	-11.47699	12.36831	14.56545	0.99772	1.00229	187.66196	174.12223	71.06398	0.32037	 	2.32131E19	 	1.24715E-19	 	-10785.63233	25.59721	 
315.0	1.0	0.0	8.35858	7.13371	-11.49507	12.34419	14.50021	0.99376	1.00628	187.92419	174.23489	71.17054	0.32024	 	3.67419E19	 	7.81293E-20	 	-10913.40336	25.55421	 
310.0	1.0	0.0	8.36028	7.13226	-11.51309	12.32005	14.43489	0.98977	1.01034	188.18587	174.34693	71.27691	0.3201	 	5.8615E19	 	4.85577E-20	 	-11040.95933	25.51119	 
305.0	1.0	0.0	8.36197	7.13081	-11.53105	12.29592	14.3695	0.98575	1.01446	188.44701	174.45837	71.3831	0.31997	 	9.4268E19	 	2.99339E-20	 	-11168.30019	25.46817	 
300.0	1.0	0.0	8.36367	7.12937	-11.54894	12.27178	14.30403	0.98169	1.01865	188.70762	174.56921	71.4891	0.31983	 	1.52869E20	 	1.82993E-20	 	-11295.42587	25.42514	 
295.0	1.0	0.0	8.36535	7.12793	-11.56677	12.24764	14.23848	0.97761	1.0229	188.96768	174.67944	71.59491	0.3197	 	2.5001899999999997E20	 	1.10912E-20	 	-11422.3363	25.38209	 
290.0	1.0	0.0	8.36703	7.1265	-11.58454	12.22349	14.17285	0.97349	1.02723	189.22721	174.78907	71.70054	0.31957	 	4.12494E20	 	6.66335E-21	 	-11549.03138	25.33902	 
285.0	1.0	0.0	8.36871	7.12507	-11.60225	12.19934	14.10714	0.96934	1.03163	189.4862	174.89809	71.80599	0.31943	 	6.86688E20	 	3.96715E-21	 	-11675.51098	25.29592	 
280.0	1.0	0.0	8.37038	7.12365	-11.61989	12.17518	14.04134	0.96516	1.03609	189.74465	175.00652	71.91124	0.3193	 	1.1537300000000001E21	 	2.34006E-21	 	-11801.77499	25.2528	 
275.0	1.0	0.0	8.37205	7.12223	-11.63746	12.15103	13.97545	0.96095	1.04064	190.00257	175.11435	72.01632	0.31916	 	1.95684E21	 	1.36719E-21	 	-11927.82324	25.20965	 
270.0	1.0	0.0	8.37371	7.12082	-11.65498	12.12687	13.90947	0.9567	1.04526	190.25994	175.22158	72.1212	0.31903	 	3.35146E21	 	7.90991E-22	 	-12053.65556	25.16646	 
265.0	1.0	0.0	8.37536	7.11941	-11.67243	12.1027	13.8434	0.95242	1.04996	190.51678	175.32821	72.2259	0.3189	 	5.79769E21	 	4.53038E-22	 	-12179.27176	25.12324	 
260.0	1.0	0.0	8.37701	7.11801	-11.68982	12.07853	13.77723	0.9481	1.05474	190.77307	175.43425	72.33041	0.31876	 	1.01331E22	 	2.568E-22	 	-12304.67161	25.07997	 
255.0	1.0	0.0	8.37865	7.11661	-11.70715	12.05436	13.71096	0.94375	1.05961	191.02883	175.53969	72.43474	0.31863	 	1.7898499999999998E22	 	1.44021E-22	 	-12429.85488	25.03665	 
250.0	1.0	0.0	8.38029	7.11522	-11.72441	12.03019	13.6446	0.93936	1.06456	191.28405	175.64455	72.53888	0.31849	 	3.1960699999999998E22	 	7.98909E-23	 	-12554.82129	24.99328	 
245.0	1.0	0.0	8.38192	7.11384	-11.74161	12.00601	13.57812	0.93494	1.06959	191.53873	175.74881	72.64284	0.31836	 	5.77131E22	 	4.38195E-23	 	-12679.57055	24.94985	 
240.0	1.0	0.0	8.38355	7.11246	-11.75874	11.98182	13.51154	0.93048	1.07472	191.79287	175.85249	72.7466	0.31823	 	1.0542299999999999E23	 	2.37572E-23	 	-12804.10235	24.90636	 
235.0	1.0	0.0	8.38517	7.11108	-11.77581	11.95764	13.44485	0.92598	1.07994	192.04647	175.95557	72.85018	0.31809	 	1.9486999999999998E23	 	1.27272E-23	 	-12928.41633	24.8628	 
230.0	1.0	0.0	8.38679	7.10971	-11.79282	11.93345	13.37805	0.92145	1.08525	192.29953	176.05807	72.95358	0.31796	 	3.64634E23	 	6.73484E-24	 	-13052.51213	24.81916	 
225.0	1.0	0.0	8.3884	7.10834	-11.80977	11.90925	13.31113	0.91688	1.09066	192.55206	176.15999	73.05678	0.31782	 	6.90926E23	 	3.51897E-24	 	-13176.38931	24.77544	 
220.0	1.0	0.0	8.39001	7.10698	-11.82665	11.88505	13.24409	0.91227	1.09617	192.80404	176.26132	73.1598	0.31769	 	1.3262800000000002E24	 	1.81481E-24	 	-13300.04744	24.73163	 
215.0	1.0	0.0	8.39161	7.10563	-11.84347	11.86085	13.17692	0.90762	1.10178	193.05549	176.36207	73.26263	0.31756	 	2.58012E24	 	9.23421E-25	 	-13423.48605	24.68772	 
210.0	1.0	0.0	8.3932	7.10428	-11.86022	11.83665	13.10962	0.90294	1.1075	193.30639	176.46223	73.36528	0.31742	 	5.08894E24	 	4.63385E-25	 	-13546.70462	24.64371	 
205.0	1.0	0.0	8.39479	7.10293	-11.87691	11.81244	13.0422	0.89821	1.11332	193.55676	176.56182	73.46774	0.31729	 	1.01808E25	 	2.29228E-25	 	-13669.70261	24.5996	 
200.0	1.0	0.0	8.39638	7.10159	-11.89354	11.78823	12.97464	0.89345	1.11926	193.80658	176.66083	73.57001	0.31716	 	2.06683E25	 	1.11733E-25	 	-13792.47939	24.55536	 
195.0	1.0	0.0	8.39796	7.10026	-11.91011	11.76401	12.90693	0.88864	1.12531	194.05587	176.75926	73.67209	0.31702	 	4.25985E25	 	5.36386E-26	 	-13915.03436	24.51099	 
190.0	1.0	0.0	8.39953	7.09893	-11.92661	11.73979	12.83908	0.8838	1.13148	194.30462	176.85712	73.77399	0.31689	 	8.91796E25	 	2.5348E-26	 	-14037.36683	24.46649	 
185.0	1.0	0.0	8.4011	7.0976	-11.94305	11.71557	12.77108	0.87891	1.13777	194.55283	176.9544	73.87569	0.31676	 	1.8973200000000003E26	 	1.17857E-26	 	-14159.47606	24.42185	 
180.0	1.0	0.0	8.40266	7.09628	-11.95942	11.69134	12.70293	0.87399	1.14418	194.80049	177.05111	73.97721	0.31662	 	4.104410000000001E26	 	5.38862E-27	 	-14281.36128	24.37704	 
175.0	1.0	0.0	8.40422	7.09497	-11.97573	11.66711	12.63462	0.86902	1.15073	195.04762	177.14724	74.07855	0.31649	 	9.033150000000001E26	 	2.42142E-27	 	-14403.02165	24.33207	 
170.0	1.0	0.0	8.40577	7.09366	-11.99198	11.64288	12.56614	0.864	1.1574	195.29421	177.24281	74.17969	0.31636	 	2.02376E27	 	1.06876E-27	 	-14524.4563	24.28693	 
165.0	1.0	0.0	8.40732	7.09235	-12.00816	11.61864	12.49748	0.85895	1.16422	195.54026	177.3378	74.28064	0.31623	 	4.6182E27	 	4.6306E-28	 	-14645.66427	24.24159	 
160.0	1.0	0.0	8.40886	7.09105	-12.02428	11.5944	12.42866	0.85385	1.17117	195.78577	177.43223	74.38141	0.31609	 	1.07414E28	 	1.96819E-28	 	-14766.64456	24.19606	 
155.0	1.0	0.0	8.41039	7.08976	-12.04034	11.57016	12.35964	0.8487	1.17827	196.03074	177.52609	74.48199	0.31596	 	2.5480500000000002E28	 	8.20115E-29	 	-14887.39609	24.15031	 
150.0	1.0	0.0	8.41192	7.08847	-12.05633	11.54591	12.29044	0.84352	1.18552	196.27517	177.61939	74.58238	0.31583	 	6.1691000000000004E28	 	3.3478E-29	 	-15007.91772	24.10433	 
145.0	1.0	0.0	8.41344	7.08719	-12.07226	11.52166	12.22104	0.83828	1.19292	196.51906	177.71212	74.68259	0.3157	 	1.5255300000000002E29	 	1.33782E-29	 	-15128.20823	24.0581	 
140.0	1.0	0.0	8.41496	7.08591	-12.08813	11.4974	12.15144	0.833	1.20048	196.76241	177.80429	74.7826	0.31556	 	3.8559800000000005E29	 	5.22949E-30	 	-15248.26633	24.01162	 
135.0	1.0	0.0	8.41648	7.08463	-12.10393	11.47314	12.08163	0.82768	1.2082	197.00521	177.89589	74.88243	0.31543	 	9.97051E29	 	1.99797E-30	 	-15368.09063	23.96486	 
130.0	1.0	0.0	8.41798	7.08336	-12.11967	11.44888	12.01159	0.8223	1.2161	197.24748	177.98694	74.98206	0.3153	 	2.63957E30	 	7.45453E-31	 	-15487.67965	23.91781	 
125.0	1.0	0.0	8.41949	7.0821	-12.13535	11.42461	11.94133	0.81688	1.22416	197.48921	178.07743	75.08151	0.31517	 	7.16091E30	 	2.71372E-31	 	-15607.03186	23.87044	 
120.0	1.0	0.0	8.42098	7.08084	-12.15096	11.40034	11.87083	0.81142	1.23241	197.7304	178.16735	75.18077	0.31503	 	1.9926399999999998E31	 	9.62978E-32	 	-15726.14558	23.82274	 
115.0	1.0	0.0	8.42247	7.07959	-12.16651	11.37607	11.80008	0.8059	1.24085	197.97105	178.25673	75.27984	0.3149	 	5.692979999999999E31	 	3.32772E-32	 	-15845.01905	23.77469	 
110.0	1.0	0.0	8.42396	7.07834	-12.18199	11.35179	11.72908	0.80033	1.24948	198.21115	178.34554	75.37872	0.31477	 	1.67166E32	 	1.11868E-32	 	-15963.65037	23.72626	 
105.0	1.0	0.0	8.42544	7.0771	-12.19741	11.32751	11.65781	0.79472	1.25831	198.45072	178.4338	75.47741	0.31464	 	5.05045E32	 	3.65444E-33	 	-16082.03756	23.67744	 
100.0	1.0	0.0	8.42691	7.07586	-12.21277	11.30323	11.58627	0.78905	1.26734	198.68975	178.52151	75.57592	0.3145	 	1.57173E33	 	1.15875E-33	 	-16200.17847	23.62818	 
95.0	1.0	0.0	8.42838	7.07463	-12.22806	11.27894	11.51443	0.78334	1.27659	198.92823	178.60867	75.67423	0.31437	 	5.04453E33	 	3.56197E-34	 	-16318.07084	23.57847	 
90.0	1.0	0.0	8.42984	7.0734	-12.24329	11.25465	11.4423	0.77757	1.28606	199.16618	178.69527	75.77235	0.31424	 	1.67189E34	 	1.06014E-34	 	-16435.71226	23.52828	 
85.0	1.0	0.0	8.4313	7.07218	-12.25846	11.23035	11.36985	0.77175	1.29576	199.40358	178.78133	75.87029	0.31411	 	5.72962E34	 	3.05088E-35	 	-16553.10014	23.47758	 
80.0	1.0	0.0	8.43275	7.07096	-12.27356	11.20605	11.29707	0.76588	1.30569	199.64044	178.86684	75.96803	0.31398	 	2.0332499999999997E35	 	8.47726E-36	 	-16670.23175	23.42632	 
75.0	1.0	0.0	8.4342	7.06975	-12.2886	11.18175	11.22395	0.75995	1.31587	199.87677	178.9518	76.06559	0.31384	 	7.48263E35	 	2.2709E-36	 	-16787.10417	23.37448	 
70.0	1.0	0.0	8.43564	7.06854	-12.30357	11.15745	11.15047	0.75397	1.3263	200.11255	179.03621	76.16295	0.31371	 	2.86028E36	 	5.85547E-37	 	-16903.71427	23.32202	 
65.0	1.0	0.0	8.43707	7.06734	-12.31848	11.13314	11.07662	0.74794	1.337	200.34779	179.12008	76.26013	0.31358	 	1.1375899999999999E37	 	1.45081E-37	 	-17020.05874	23.26889	 
60.0	1.0	0.0	8.4385	7.06614	-12.33333	11.10882	11.00238	0.74186	1.34797	200.58249	179.20341	76.35711	0.31345	 	4.71583E37	 	3.44801E-38	 	-17136.13402	23.21506	 
55.0	1.0	0.0	8.43992	7.06495	-12.34811	11.0845	10.92772	0.73571	1.35922	200.81665	179.28619	76.45391	0.31332	 	2.04151E38	 	7.84526E-39	 	-17251.93634	23.16046	 
50.0	1.0	0.0	8.44134	7.06377	-12.36283	11.06019	10.85264	0.72952	1.37077	201.05026	179.36843	76.55052	0.31319	 	9.24779E38	 	1.7055E-39	 	-17367.46164	23.10506	 
45.0	1.0	0.0	8.44275	7.06258	-12.37748	11.03586	10.7771	0.72326	1.38262	201.28334	179.45014	76.64693	0.31306	 	4.3928500000000005E39	 	3.53486E-40	 	-17482.70559	23.04879	 
40.0	1.0	0.0	8.44416	7.06141	-12.39207	11.01153	10.7011	0.71695	1.39479	201.51588	179.5313	76.74315	0.31292	 	2.19313E40	 	6.96906E-41	 	-17597.66356	22.99159	 
35.0	1.0	0.0	8.44556	7.06024	-12.4066	10.9872	10.62459	0.71059	1.40729	201.74787	179.61193	76.83919	0.31279	 	1.15357E41	 	1.30378E-41	 	-17712.33061	22.93341	 
30.0	1.0	0.0	8.44695	7.05907	-12.42106	10.96287	10.54756	0.70416	1.42013	201.97932	179.69202	76.93503	0.31266	 	6.4092600000000005E41	 	2.30854E-42	 	-17826.70142	22.87416	 
25.0	1.0	0.0	8.44834	7.05791	-12.43546	 	10.46998	0.69768	1.43333	202.21023	179.77157	77.03069	0.31253	 	3.77181E42	 	3.85808E-43	 	-17940.7703	 	 
