T (C)	Fraction solid (wt)-TOTAL	Fraction liquid (wt)-LIQUID	Density (g/(cm)^3)-TOTAL	Molar volume (cm^3)-TOTAL	Volume change (%)-  	Average expansion coeff. (10e-6 1/K)-  	Thermal conductivity (W/(m*K))-TOTAL	Electrical resistivity (10e-6 Ohm*m)-TOTAL	Electrical conductivity (10e6 1/(Ohm*m))-TOTAL	Young's modulus (GPa)-TOTAL	Bulk modulus (GPa)-TOTAL	Shear modulus(GPa)-TOTAL	Poisson's ratio-TOTAL	Liquid viscosity (mPa s)-  	Total viscosity (mPa s)-  	Liquid diffusivity (10e-9 (m^2)/s)-  	Total diffusivity (10e-9 (m^2)/s)-  	Surface Tension (mN/m)-  	Enthalpy (J/mole)-TOTAL	Specific heat (J/(mole K))-TOTAL	Latent heat (J/mole)-TOTAL
1400.0	0.0	1.0	7.40722	7.57996	0.0	29.44402	32.6063	1.25719	0.79543	0.0	128.70223	0.0	0.5	6.75433	6.75433	1.20904	1.20904	1749.20679	58238.259	 	0.0
1395.0	0.0	1.0	7.41141	7.57568	-0.0564169	29.39754	32.53323	1.25624	0.79602	0.0	128.8598	0.0	0.5	6.8264	6.8264	1.1927	1.1927	1750.79569	58029.51	41.7498	0.0
1390.0	0.0	1.0	7.41558	7.57142	-0.11267	29.35117	32.46016	1.2553	0.79662	0.0	129.01737	0.0	0.5	6.89967	6.89967	1.17649	1.17649	1752.37796	57821.27	41.648	0.0
1389.8	0.0	1.0	7.41574	7.57125	-0.11487	29.34936	32.4573	1.25526	0.79665	0.0	129.02353	0.0	0.5	6.90256	6.90256	1.17586	1.17586	1752.43971	57813.134	41.59935	0.0010
1385.0	0.24697	0.75303	7.48265	7.50358	-1.00756	26.99933	33.12117	1.22655	0.8153	0.32853	126.08539	0.11207	0.4657	6.92097	160.88001	1.16935	0.0503047	1747.66554	53610.172	874.81153	4003.366
1380.0	0.41962	0.58038	7.5313	7.45515	-1.64652	25.33617	33.57841	1.2062	0.82905	2.82315	124.10306	0.97943	0.44122	6.93818	1351.61996	1.16293	0.00596959	1742.73013	50623.609	597.3126	6782.7
1375.0	0.53996	0.46004	7.56662	7.4204	-2.10495	24.16062	33.88481	1.19167	0.83916	7.92211	122.81647	2.78192	0.42386	6.95378	3916.37933	1.15681	0.00205399	1737.84346	48498.476	425.0266	8701.105
1370.0	0.62722	0.37278	7.59336	7.39439	-2.44812	23.29666	34.09102	1.18087	0.84683	14.69162	121.9856	5.20578	0.41109	6.96795	7566.56809	1.15096	0.0010599	1733.01363	46916.234	316.4484	10077.117
1365.0	0.69253	0.30747	7.61435	7.37416	-2.715	22.63907	34.2279	1.17257	0.85283	22.17121	121.46358	7.91038	0.4014	6.98087	11948.73797	1.14533	6.69142E-4	1728.24692	45692.017	244.8434	11095.599
1360.0	0.74272	0.25728	7.63129	7.35798	-2.92848	22.12607	34.31543	1.16601	0.85762	29.71185	121.15982	10.65806	0.39387	6.99264	16805.21148	1.13991	4.74317E-4	1723.54558	44712.985	195.8064	11869.386
1355.0	0.78212	0.21788	7.64535	7.34466	-3.10418	21.71544	34.36711	1.16069	0.86155	36.95197	121.01312	13.31238	0.38788	7.00322	21981.89256	1.13471	3.61506E-4	1718.91255	43907.289	161.1392	12470.327
1350.0	0.81364	0.18636	7.65725	7.33347	-3.25183	21.38082	34.39212	1.15629	0.86484	43.7153	120.98315	15.80414	0.38303	7.01272	27397.38799	1.12969	2.89159E-4	1714.34789	43227.514	135.955	12945.83
1345.0	0.83926	0.16074	7.66753	7.32388	-3.37837	21.10345	34.39703	1.15256	0.86763	49.94144	121.04124	18.10728	0.37904	7.02107	33020.50631	1.12487	2.39178E-4	1709.85127	42641.393	117.2242	13328.165
1340.0	0.86037	0.13963	7.67657	7.31551	-3.48879	20.86978	34.38643	1.14935	0.87005	55.62212	121.16697	20.21572	0.37571	7.02822	38843.73894	1.12025	2.02694E-4	1705.42332	42126.375	103.0036	13639.876
1335.0	0.87798	0.12202	7.68463	7.30811	-3.58637	20.67099	34.36386	1.14654	0.87219	60.78922	121.34574	22.13897	0.3729	7.03413	44884.21686	1.11584	1.74872E-4	1701.06078	41666.331	92.0088	13897.091
1330.0	0.89283	0.10717	7.69191	7.30147	-3.67404	20.49907	34.33166	1.14405	0.87409	65.48062	121.56599	23.88938	0.3705	7.03879	51163.64917	1.11164	1.52932E-4	1696.76605	41249.489	83.3684	14111.578
1325.0	0.90546	0.0945398	7.69856	7.29545	-3.75338	20.34975	34.29191	1.1418	0.87581	69.74712	121.8198	25.48454	0.36842	7.04211	57718.61025	1.10765	1.35141E-4	1692.53424	40867.101	76.4776	14292.083
1321.57	0.91302	0.0869837	7.70281	7.29164	-3.8037	20.25851	34.26083	1.14039	0.87689	72.43222	122.01082	26.48998	0.36716	7.04373	62378.49903	1.10502	1.24777E-4	1689.65806	40621.947	 	14398.989
1320.0	0.92909	0.0709145	7.70967	7.28521	-3.88846	20.0384	34.29693	1.13807	0.87868	78.23314	122.05235	28.66879	0.36443	7.06846	68380.55179	1.10007	1.13713E-4	1687.53324	40280.641	117.292	14677.128
1315.0	0.96542	0.0345834	7.72588	7.27002	-4.08893	19.53516	34.35403	1.13261	0.88292	92.80646	122.26327	34.16543	0.35819	7.14274	85428.33708	1.08521	9.07353E-5	1681.10835	39458.33	164.4622	15298.491
1310.0	0.9836	0.0164016	7.73532	7.2611	-4.2066	19.26885	34.33998	1.1295	0.88534	101.08728	122.58413	37.30199	0.35499	7.21299	98504.70194	1.07126	7.84426E-5	1675.13069	38953.684	100.9292	15602.653
1305.0	0.99379	0.00620799	7.74179	7.25491	-4.2882	19.10581	34.29455	1.12743	0.88697	106.19229	122.9547	39.23988	0.35312	7.27947	109815.627	1.05812	7.01408E-5	1669.53586	38587.737	73.1894	15768.576
1300.0	1.0	0.0	7.7468	7.25009	-4.35187	18.99405	34.2336	1.12586	0.88821	109.59623	123.35048	40.53362	0.35192	 	120448.0195	 	6.37466E-5	 	38290.708	59.4058	15866.039
1295.0	1.0	0.0	7.74953	7.24756	-4.38517	18.97083	34.14929	1.12505	0.88885	110.09463	123.78626	40.72246	0.35177	 	128846.1452	 	5.94022E-5	 	38090.78774	39.98405	 
1290.0	1.0	0.0	7.7522	7.24507	-4.41811	18.94845	34.06489	1.12424	0.88949	110.59055	124.2177	40.91045	0.35162	 	137884.2806	 	5.53315E-5	 	37900.74203	38.00914	 
1285.0	1.0	0.0	7.75487	7.24257	-4.45101	18.92605	33.98049	1.12343	0.89013	111.08572	124.64744	41.09821	0.35147	 	147620.628	 	5.15168E-5	 	37711.01806	37.94479	 
1280.0	1.0	0.0	7.75753	7.24008	-4.48384	18.90365	33.89609	1.12261	0.89078	111.58016	125.07548	41.28573	0.35132	 	158113.928	 	4.79435E-5	 	37521.61548	37.88052	 
1275.0	1.0	0.0	7.76019	7.2376	-4.51662	18.88123	33.81168	1.12179	0.89143	112.07385	125.50184	41.47302	0.35117	 	169428.2574	 	4.45978E-5	 	37332.53393	37.81631	 
1270.0	1.0	0.0	7.76285	7.23512	-4.54935	18.85881	33.72728	1.12097	0.89209	112.56681	125.92651	41.66008	0.35102	 	181633.5493	 	4.14666E-5	 	37143.7731	37.75217	 
1265.0	1.0	0.0	7.76551	7.23264	-4.58201	18.83637	33.64287	1.12014	0.89275	113.05902	126.34951	41.84691	0.35086	 	194806.1671	 	3.85374E-5	 	36955.33264	37.68809	 
1260.0	1.0	0.0	7.76817	7.23017	-4.61462	18.81392	33.55846	1.11931	0.89341	113.55049	126.77083	42.0335	0.35071	 	209029.5382	 	3.57984E-5	 	36767.21224	37.62408	 
1255.0	1.0	0.0	7.77082	7.2277	-4.64718	18.79147	33.47405	1.11847	0.89408	114.04123	127.19048	42.21986	0.35056	 	224394.8551	 	3.32384E-5	 	36579.41157	37.56013	 
1250.0	1.0	0.0	7.77347	7.22524	-4.67967	18.769	33.38963	1.11763	0.89475	114.53123	127.60848	42.40599	0.35041	 	241001.85	 	3.08467E-5	 	36391.93033	37.49625	 
1245.0	1.0	0.0	7.77612	7.22278	-4.71212	18.74652	33.30522	1.11678	0.89543	115.02048	128.02481	42.59189	0.35026	 	258959.6519	 	2.86134E-5	 	36204.76817	37.43243	 
1240.0	1.0	0.0	7.77876	7.22033	-4.7445	18.72403	33.2208	1.11593	0.89611	115.509	128.43949	42.77755	0.35011	 	278387.7358	 	2.65289E-5	 	36017.92231	37.36917	 
1235.0	1.0	0.0	7.7814	7.21788	-4.77683	18.70153	33.13638	1.11508	0.8968	115.99678	128.85253	42.96298	0.34996	 	299416.9736	 	2.45841E-5	 	35831.39097	37.30627	 
1230.0	1.0	0.0	7.78404	7.21543	-4.8091	18.67902	33.05196	1.11422	0.89749	116.48382	129.26392	43.14818	0.34981	 	322190.7993	 	2.27707E-5	 	35645.17365	37.24346	 
1225.0	1.0	0.0	7.78667	7.21299	-4.84131	18.6565	32.96754	1.11336	0.89818	116.97012	129.67368	43.33315	0.34966	 	346866.5006	 	2.10804E-5	 	35459.26986	37.18076	 
1220.0	1.0	0.0	7.7893	7.21055	-4.87347	18.63397	32.88311	1.11249	0.89888	117.45568	130.08181	43.51788	0.34951	 	373616.6529	 	1.95058E-5	 	35273.67911	37.11815	 
1215.0	1.0	0.0	7.79193	7.20812	-4.90557	18.61143	32.79868	1.11162	0.89959	117.9405	130.48831	43.70238	0.34936	 	402630.7101	 	1.80396E-5	 	35088.40088	37.05564	 
1210.0	1.0	0.0	7.79456	7.20569	-4.93761	18.58888	32.71425	1.11074	0.9003	118.42459	130.89318	43.88665	0.34921	 	434116.7735	 	1.6675E-5	 	34903.43469	36.99324	 
1205.0	1.0	0.0	7.79718	7.20326	-4.96959	18.56632	32.62982	1.10986	0.90101	118.90793	131.29645	44.07069	0.34906	 	468303.5568	 	1.54056E-5	 	34718.78005	36.93093	 
1200.0	1.0	0.0	7.7998	7.20084	-5.00152	18.54375	32.54539	1.10898	0.90173	119.39054	131.6981	44.25449	0.34891	 	505442.5723	 	1.42253E-5	 	34534.43645	36.86872	 
1195.0	1.0	0.0	7.80242	7.19843	-5.03339	18.52117	32.46095	1.10809	0.90245	119.87241	132.09814	44.43806	0.34876	 	545810.5643	 	1.31285E-5	 	34350.40341	36.80661	 
1190.0	1.0	0.0	7.80504	7.19602	-5.0652	18.49857	32.37652	1.1072	0.90318	120.35355	132.49659	44.6214	0.34861	 	589712.2185	 	1.21098E-5	 	34166.68041	36.7446	 
1185.0	1.0	0.0	7.80765	7.19361	-5.09696	18.47597	32.29208	1.1063	0.90392	120.83394	132.89344	44.8045	0.34846	 	637483.1818	 	1.1164E-5	 	33983.26698	36.68269	 
1180.0	1.0	0.0	7.81026	7.19121	-5.12866	18.45336	32.20764	1.1054	0.90465	121.3136	133.28869	44.98737	0.34831	 	689493.4296	 	1.02865E-5	 	33800.16261	36.62087	 
1175.0	1.0	0.0	7.81286	7.18881	-5.1603	18.43074	32.12319	1.10449	0.9054	121.79252	133.68236	45.17001	0.34816	 	746151.023	 	9.47269E-6	 	33617.36682	36.55916	 
1170.0	1.0	0.0	7.81547	7.18641	-5.19188	18.40811	32.03875	1.10358	0.90615	122.2707	134.07445	45.35242	0.34801	 	807906.3032	 	8.71841E-6	 	33434.87911	36.49754	 
1165.0	1.0	0.0	7.81807	7.18402	-5.22341	18.38547	31.9543	1.10266	0.9069	122.74815	134.46496	45.53459	0.34786	 	875256.5791	 	8.01965E-6	 	33252.69899	36.43602	 
1160.0	1.0	0.0	7.82066	7.18164	-5.25488	18.36282	31.86985	1.10174	0.90766	123.22486	134.8539	45.71653	0.34771	 	948751.3666	 	7.37269E-6	 	33070.82597	36.3746	 
1155.0	1.0	0.0	7.82326	7.17926	-5.28629	18.34017	31.7854	1.10081	0.90842	123.70083	135.24128	45.89824	0.34756	 	1028998.251	 	6.77401E-6	 	32889.25955	36.31328	 
1150.0	1.0	0.0	7.82585	7.17688	-5.31764	18.3175	31.70095	1.09988	0.90919	124.17606	135.62709	46.07971	0.34741	 	1116669.449	 	6.22032E-6	 	32707.99925	36.25206	 
1145.0	1.0	0.0	7.82843	7.17451	-5.34894	18.29482	31.61649	1.09894	0.90997	124.65056	136.01134	46.26095	0.34725	 	1212509.162	 	5.70852E-6	 	32527.04456	36.19094	 
1140.0	1.0	0.0	7.83102	7.17214	-5.38017	18.27213	31.53203	1.098	0.91075	125.12432	136.39405	46.44196	0.3471	 	1317341.817	 	5.23572E-6	 	32346.39502	36.12991	 
1135.0	1.0	0.0	7.8336	7.16978	-5.41135	18.24944	31.44757	1.09705	0.91153	125.59735	136.7752	46.62273	0.34695	 	1432081.311	 	4.79919E-6	 	32166.05013	36.06898	 
1130.0	1.0	0.0	7.83618	7.16742	-5.44247	18.22673	31.36311	1.0961	0.91232	126.06963	137.15481	46.80327	0.3468	 	1557741.393	 	4.39638E-6	 	31986.00939	36.00815	 
1125.0	1.0	0.0	7.83875	7.16506	-5.47354	18.20402	31.27865	1.09515	0.91312	126.54119	137.53288	46.98358	0.34665	 	1695447.323	 	4.02491E-6	 	31806.27232	35.94741	 
1121.65	1.0	0.0	7.84047	7.16349	-5.49429	18.18881	31.22213	1.0945	0.91366	126.85626	137.78496	47.10408	0.34655	 	1794915.401	 	3.79277E-6	 	31686.19557	 	 
1120.0	1.0	0.0	7.84137	7.16267	-5.50512	18.17931	31.19567	1.09413	0.91397	127.01945	137.91542	47.1665	0.3465	 	1847719.894	 	3.68001E-6	 	31623.98356	36.45775	 
1115.0	1.0	0.0	7.84408	7.16019	-5.53779	18.15066	31.11563	1.09301	0.91491	127.51174	138.30828	47.35483	0.34634	 	2017667.013	 	3.35795E-6	 	31436.34891	37.52693	 
1110.0	1.0	0.0	7.84679	7.15773	-5.57035	18.12212	31.03548	1.09188	0.91585	128.00281	138.69917	47.54275	0.34619	 	2204537.052	 	3.06224E-6	 	31249.20903	37.42798	 
1105.0	1.0	0.0	7.84949	7.15527	-5.60281	18.09369	30.95522	1.09076	0.91679	128.49267	139.0881	47.73025	0.34603	 	2410143.817	 	2.79087E-6	 	31062.56091	37.32962	 
1100.0	1.0	0.0	7.85218	7.15281	-5.63515	18.06537	30.87484	1.08963	0.91774	128.98132	139.47507	47.91735	0.34587	 	2636509.213	 	2.542E-6	 	30876.40155	37.23187	 
1095.0	1.0	0.0	7.85486	7.15037	-5.66739	18.03715	30.79435	1.0885	0.91869	129.46878	139.86011	48.10404	0.34572	 	2885888.744	 	2.31388E-6	 	30690.72798	37.13472	 
1090.0	1.0	0.0	7.85754	7.14794	-5.69953	18.00904	30.71375	1.08737	0.91965	129.95503	140.24321	48.29032	0.34556	 	3160800.36	 	2.10491E-6	 	30505.53717	37.03816	 
1085.0	1.0	0.0	7.86021	7.14551	-5.73156	17.98103	30.63304	1.08623	0.92061	130.4401	140.6244	48.47619	0.3454	 	3464056.757	 	1.91359E-6	 	30320.82611	36.94221	 
1080.0	1.0	0.0	7.86287	7.14309	-5.76348	17.95312	30.55222	1.0851	0.92158	130.92397	141.00367	48.66167	0.34525	 	3798802.483	 	1.73854E-6	 	30136.5916	36.8469	 
1075.0	1.0	0.0	7.86553	7.14067	-5.79531	17.92531	30.4713	1.08396	0.92254	131.40667	141.38104	48.84674	0.34509	 	4168555.391	 	1.57848E-6	 	29952.83047	36.75223	 
1070.0	1.0	0.0	7.86818	7.13827	-5.82703	17.89759	30.39028	1.08282	0.92352	131.88819	141.75653	49.03141	0.34494	 	4577253.829	 	1.43221E-6	 	29769.53965	36.65816	 
1065.0	1.0	0.0	7.87082	7.13587	-5.85866	17.86997	30.30915	1.08168	0.92449	132.36854	142.13013	49.21568	0.34478	 	5029310.812	 	1.29862E-6	 	29586.71607	36.56472	 
1060.0	1.0	0.0	7.87346	7.13348	-5.89018	17.84244	30.22793	1.08053	0.92547	132.84772	142.50186	49.39956	0.34462	 	5529673.66	 	1.1767E-6	 	29404.35669	36.47188	 
1055.0	1.0	0.0	7.87609	7.1311	-5.9216	17.81501	30.1466	1.07938	0.92646	133.32575	142.87174	49.58304	0.34447	 	6083894.442	 	1.0655E-6	 	29222.45844	36.37965	 
1050.0	1.0	0.0	7.87871	7.12873	-5.95293	17.78766	30.06518	1.07823	0.92745	133.80261	143.23977	49.76613	0.34431	 	6698207.692	 	9.64134E-7	 	29041.01828	36.28803	 
1045.0	1.0	0.0	7.88133	7.12636	-5.98416	17.7604	29.98367	1.07708	0.92844	134.27833	143.60595	49.94884	0.34416	 	7379619.858	 	8.71801E-7	 	28860.03312	36.19703	 
1040.0	1.0	0.0	7.88394	7.124	-6.01529	17.73323	29.90206	1.07592	0.92944	134.75291	143.97032	50.13115	0.344	 	8136011.685	 	7.87752E-7	 	28679.49992	36.10664	 
1035.0	1.0	0.0	7.88654	7.12165	-6.04633	17.70615	29.82035	1.07476	0.93044	135.22635	144.33286	50.31307	0.34385	 	8976253.563	 	7.11294E-7	 	28499.41562	36.01686	 
1030.0	1.0	0.0	7.88914	7.1193	-6.07727	17.67914	29.73856	1.0736	0.93145	135.69865	144.6936	50.49462	0.34369	 	9910338.517	 	6.4179E-7	 	28319.77714	35.9277	 
1025.0	1.0	0.0	7.89173	7.11696	-6.10812	17.65222	29.65668	1.07243	0.93246	136.16983	145.05254	50.67578	0.34354	 	1.094953358E7	 	5.7865E-7	 	28140.58145	35.83914	 
1020.0	1.0	0.0	7.89432	7.11463	-6.13888	17.62538	29.57471	1.07126	0.93348	136.63989	145.40969	50.85656	0.34339	 	1.210655148E7	 	5.21333E-7	 	27961.82548	35.75119	 
1015.0	1.0	0.0	7.8969	7.11231	-6.16954	17.59861	29.49265	1.07009	0.9345	137.10884	145.76507	51.03696	0.34323	 	1.339574931E7	 	4.69338E-7	 	27783.50616	35.66386	 
1010.0	1.0	0.0	7.89947	7.10999	-6.20011	17.57192	29.41051	1.06891	0.93553	137.57667	146.11868	51.21699	0.34308	 	1.483335584E7	 	4.22206E-7	 	27605.62048	35.57714	 
1005.0	1.0	0.0	7.90204	7.10768	-6.23059	17.54531	29.32829	1.06773	0.93657	138.04341	146.47054	51.39664	0.34292	 	1.643772801E7	 	3.79513E-7	 	27428.16538	35.49102	 
1000.0	1.0	0.0	7.9046	7.10538	-6.26098	17.51877	29.24599	1.06655	0.93761	138.50904	146.82066	51.57592	0.34277	 	1.822965131E7	 	3.40869E-7	 	27251.13781	35.40551	 
995.0	1.0	0.0	7.90716	7.10308	-6.29128	17.4923	29.16361	1.06536	0.93865	138.97359	147.16903	51.75483	0.34261	 	2.023267988E7	 	3.05917E-7	 	27074.53476	35.32061	 
990.0	1.0	0.0	7.90971	7.10079	-6.32149	17.4659	29.08115	1.06417	0.9397	139.43705	147.51569	51.93338	0.34246	 	2.247352884E7	 	2.74328E-7	 	26898.3532	35.23631	 
985.0	1.0	0.0	7.91225	7.09851	-6.35162	17.43956	28.99861	1.06297	0.94076	139.89943	147.86063	52.11156	0.34231	 	2.498252752E7	 	2.458E-7	 	26722.59012	35.15262	 
980.0	1.0	0.0	7.91479	7.09623	-6.38166	17.41329	28.916	1.06177	0.94182	140.36075	148.20387	52.28938	0.34215	 	2.7794137E7	 	2.20058E-7	 	26547.24252	35.06952	 
975.0	1.0	0.0	7.91732	7.09396	-6.41161	17.38709	28.83331	1.06057	0.94289	140.82099	148.54541	52.46683	0.342	 	3.09475502E7	 	1.96846E-7	 	26372.3074	34.98702	 
970.0	1.0	0.0	7.91985	7.0917	-6.44147	17.36095	28.75056	1.05936	0.94397	141.28018	148.88527	52.64393	0.34185	 	3.448738403E7	 	1.75934E-7	 	26197.78178	34.90512	 
965.0	1.0	0.0	7.92237	7.08944	-6.47125	17.33487	28.66773	1.05815	0.94505	141.73831	149.22346	52.82068	0.34169	 	3.846447477E7	 	1.57109E-7	 	26023.6627	34.82382	 
960.0	1.0	0.0	7.92489	7.08719	-6.50094	17.30886	28.58483	1.05693	0.94614	142.19539	149.55999	52.99706	0.34154	 	4.293680439E7	 	1.40176E-7	 	25849.94719	34.7431	 
955.0	1.0	0.0	7.9274	7.08494	-6.53055	17.2829	28.50187	1.05571	0.94723	142.65143	149.89486	53.1731	0.34139	 	4.797056399E7	 	1.24958E-7	 	25676.63232	34.66297	 
950.0	1.0	0.0	7.9299	7.08271	-6.56008	17.25699	28.41884	1.05448	0.94833	143.10644	150.22808	53.34879	0.34123	 	5.364139038E7	 	1.11293E-7	 	25503.71517	34.58343	 
945.0	1.0	0.0	7.9324	7.08047	-6.58952	17.23114	28.33575	1.05325	0.94944	143.56042	150.55968	53.52413	0.34108	 	6.00358073E7	 	9.90324E-8	 	25331.1928	34.50447	 
940.0	1.0	0.0	7.9349	7.07825	-6.61888	17.20535	28.25259	1.05202	0.95056	144.01337	150.88965	53.69912	0.34093	 	6.725287632E7	 	8.80421E-8	 	25159.06233	34.42609	 
935.0	1.0	0.0	7.93739	7.07603	-6.64816	17.17961	28.16938	1.05077	0.95168	144.46531	151.21801	53.87377	0.34078	 	7.540613817E7	 	7.81989E-8	 	24987.32088	34.34829	 
930.0	1.0	0.0	7.93987	7.07382	-6.67736	17.15392	28.0861	1.04953	0.95281	144.91624	151.54476	54.04808	0.34062	 	8.462586766E7	 	6.9391E-8	 	24815.9656	34.27106	 
925.0	1.0	0.0	7.94235	7.07161	-6.70648	17.12827	28.00276	1.04828	0.95395	145.36616	151.86992	54.22206	0.34047	 	9.506167546E7	 	6.15166E-8	 	24644.99363	34.19439	 
920.0	1.0	0.0	7.94482	7.06941	-6.73552	17.10268	27.91937	1.04702	0.95509	145.81508	152.19349	54.39569	0.34032	 	1.068855785E8	 	5.44832E-8	 	24474.40218	34.11829	 
915.0	1.0	0.0	7.94729	7.06721	-6.76448	17.07713	27.83592	1.04576	0.95624	146.26301	152.51549	54.56899	0.34017	 	1.202955509E8	 	4.82068E-8	 	24304.18841	34.04275	 
910.0	1.0	0.0	7.94975	7.06502	-6.79336	17.05162	27.75242	1.04449	0.9574	146.70995	152.83593	54.74196	0.34001	 	1.355196959E8	 	4.26112E-8	 	24134.34957	33.96777	 
905.0	1.0	0.0	7.95221	7.06284	-6.82216	17.02616	27.66886	1.04322	0.95857	147.15592	153.1548	54.9146	0.33986	 	1.528211089E8	 	3.76274E-8	 	23964.88288	33.89334	 
900.0	1.0	0.0	7.95466	7.06066	-6.85088	17.00074	27.58526	1.04194	0.95975	147.6009	153.47213	55.08691	0.33971	 	1.725035839E8	 	3.31927E-8	 	23795.78563	33.81945	 
895.0	1.0	0.0	7.95711	7.05849	-6.87953	16.97536	27.5016	1.04066	0.96093	148.04492	153.78792	55.2589	0.33956	 	1.94918295E8	 	2.92505E-8	 	23627.05509	33.74611	 
890.0	1.0	0.0	7.95955	7.05633	-6.90809	16.95002	27.41789	1.03936	0.96213	148.48797	154.10218	55.43056	0.33941	 	2.204716551E8	 	2.57496E-8	 	23458.68857	33.6733	 
885.0	1.0	0.0	7.96199	7.05417	-6.93659	16.92472	27.33413	1.03807	0.96333	148.93007	154.41493	55.6019	0.33925	 	2.496345311E8	 	2.26437E-8	 	23290.68343	33.60103	 
880.0	1.0	0.0	7.96442	7.05201	-6.965	16.89946	27.25033	1.03676	0.96454	149.37121	154.72616	55.77292	0.3391	 	2.829530953E8	 	1.98911E-8	 	23123.03697	33.52929	 
875.0	1.0	0.0	7.96684	7.04986	-6.99334	16.87423	27.16649	1.03546	0.96576	149.8114	155.03589	55.94362	0.33895	 	3.210616288E8	 	1.74541E-8	 	22955.7466	33.45807	 
870.0	1.0	0.0	7.96927	7.04772	-7.02161	16.84903	27.08259	1.03414	0.96699	150.25066	155.34412	56.11401	0.3388	 	3.64697581E8	 	1.52988E-8	 	22788.80978	33.38736	 
865.0	1.0	0.0	7.97168	7.04558	-7.0498	16.82386	26.99866	1.03282	0.96823	150.68898	155.65088	56.28409	0.33865	 	4.147194255E8	 	1.33947E-8	 	22622.22394	33.31717	 
860.0	1.0	0.0	7.9741	7.04345	-7.07792	16.79873	26.91468	1.03149	0.96947	151.12637	155.95615	56.45385	0.33849	 	4.721276921E8	 	1.17143E-8	 	22455.98658	33.24747	 
855.0	1.0	0.0	7.9765	7.04133	-7.10596	16.77363	26.83067	1.03015	0.97073	151.56283	156.25996	56.6233	0.33834	 	5.380899533E8	 	1.02329E-8	 	22290.09519	33.17828	 
850.0	1.0	0.0	7.97891	7.03921	-7.13393	16.74855	26.74661	1.02881	0.972	151.99838	156.56231	56.79245	0.33819	 	6.139703485E8	 	8.92847E-9	 	22124.5473	33.10958	 
845.0	1.0	0.0	7.98128	7.03711	-7.16156	16.7247	26.66175	1.02749	0.97325	152.42885	156.86011	56.95968	0.33804	 	7.010534952E8	 	7.78459E-9	 	21964.215	32.06646	 
840.0	1.0	0.0	7.98365	7.03502	-7.18914	16.70083	26.57689	1.02616	0.97451	152.85858	157.15661	57.12668	0.33789	 	8.014425653E8	 	6.77904E-9	 	21800.88284	32.66643	 
835.0	1.0	0.0	7.98602	7.03294	-7.21665	16.67695	26.49202	1.02482	0.97578	153.28758	157.4518	57.29343	0.33774	 	9.173142476E8	 	5.89613E-9	 	21637.82516	32.61154	 
830.0	1.0	0.0	7.98838	7.03086	-7.2441	16.65305	26.40715	1.02348	0.97706	153.71583	157.74569	57.45995	0.33759	 	1.051224549E9	 	5.12184E-9	 	21475.04149	32.55673	 
825.0	1.0	0.0	7.99074	7.02878	-7.27149	16.62914	26.32228	1.02213	0.97835	154.14334	158.03829	57.62622	0.33744	 	1.206178913E9	 	4.44362E-9	 	21312.53135	32.50203	 
820.0	1.0	0.0	7.9931	7.02671	-7.29882	16.60521	26.2374	1.02076	0.97966	154.57011	158.3296	57.79226	0.33729	 	1.385716046E9	 	3.85028E-9	 	21150.29426	32.44742	 
815.0	1.0	0.0	7.99545	7.02464	-7.32609	16.58127	26.15252	1.01939	0.98098	154.99615	158.61963	57.95806	0.33714	 	1.594008258E9	 	3.33185E-9	 	20988.32973	32.3929	 
810.0	1.0	0.0	7.9978	7.02258	-7.3533	16.55732	26.06764	1.01801	0.98231	155.42144	158.90836	58.12361	0.33699	 	1.83598177E9	 	2.87943E-9	 	20826.63729	32.33849	 
805.0	1.0	0.0	8.00014	7.02052	-7.38045	16.53335	25.98275	1.01662	0.98365	155.84599	159.19582	58.28893	0.33684	 	2.117461148E9	 	2.48514E-9	 	20665.21646	32.28417	 
800.0	1.0	0.0	8.00248	7.01847	-7.40754	16.50936	25.89786	1.01523	0.985	156.2698	159.482	58.45401	0.33669	 	2.445342983E9	 	2.14194E-9	 	20504.06675	32.22994	 
795.0	1.0	0.0	8.00482	7.01642	-7.43456	16.48536	25.81296	1.01382	0.98637	156.69288	159.76691	58.61884	0.33654	 	2.827805041E9	 	1.84361E-9	 	20343.18768	32.17581	 
790.0	1.0	0.0	8.00715	7.01438	-7.46153	16.46135	25.72806	1.0124	0.98775	157.11521	160.05055	58.78344	0.33639	 	3.27455853E9	 	1.58463E-9	 	20182.57877	32.12178	 
785.0	1.0	0.0	8.00948	7.01234	-7.48843	16.43732	25.64316	1.01098	0.98914	157.5368	160.33293	58.9478	0.33624	 	3.797152817E9	 	1.36012E-9	 	20022.23955	32.06784	 
780.0	1.0	0.0	8.0118	7.0103	-7.51527	16.41328	25.55825	1.00954	0.99055	157.95766	160.61404	59.11192	0.33609	 	4.409344118E9	 	1.16574E-9	 	19862.16951	32.01401	 
775.0	1.0	0.0	8.01413	7.00827	-7.54205	16.38922	25.47334	1.0081	0.99197	158.37778	160.8939	59.27579	0.33594	 	5.127542277E9	 	9.97702E-10	 	19702.36818	31.96027	 
770.0	1.0	0.0	8.01644	7.00625	-7.56877	16.36515	25.38842	1.00665	0.9934	158.79715	161.1725	59.43943	0.33579	 	5.971353059E9	 	8.5263E-10	 	19542.83509	31.90662	 
765.0	1.0	0.0	8.01875	7.00423	-7.59543	16.34106	25.30351	1.00518	0.99484	159.21579	161.44985	59.60283	0.33564	 	6.964237461E9	 	7.27567E-10	 	19383.56973	31.85307	 
760.0	1.0	0.0	8.02106	7.00221	-7.62203	16.31695	25.21858	1.00371	0.9963	159.63369	161.72595	59.76598	0.33549	 	8.134314624E9	 	6.19911E-10	 	19224.57163	31.79962	 
755.0	1.0	0.0	8.02337	7.0002	-7.64856	16.29284	25.13366	1.00223	0.99778	160.05085	162.00081	59.9289	0.33534	 	9.515341272E9	 	5.27374E-10	 	19065.8403	31.74627	 
750.0	1.0	0.0	8.02567	6.99819	-7.67503	16.26871	25.04872	1.00074	0.99926	160.46727	162.27443	60.09158	0.33519	 	1.11479E10	 	4.47953E-10	 	18907.37524	31.69301	 
745.0	1.0	0.0	8.02796	6.99619	-7.70144	16.24456	24.96379	0.99923	1.00077	160.88296	162.54681	60.25401	0.33504	 	1.3080899999999998E10	 	3.79892E-10	 	18749.17599	31.63985	 
740.0	1.0	0.0	8.03026	6.99419	-7.72779	16.2204	24.87885	0.99772	1.00228	161.2979	162.81795	60.41621	0.33489	 	1.5373299999999998E10	 	3.21657E-10	 	18591.24203	31.58679	 
735.0	1.0	0.0	8.03255	6.9922	-7.75408	16.19622	24.7939	0.9962	1.00382	161.71211	163.08787	60.57816	0.33474	 	1.80964E10	 	2.71906E-10	 	18433.57289	31.53383	 
730.0	1.0	0.0	8.03483	6.99021	-7.78031	16.17203	24.70896	0.99467	1.00536	162.12558	163.35656	60.73988	0.33459	 	2.13366E10	 	2.29471E-10	 	18276.16806	31.48096	 
725.0	1.0	0.0	8.03711	6.98823	-7.80647	16.14783	24.624	0.99312	1.00692	162.53831	163.62403	60.90135	0.33444	 	2.5198399999999996E10	 	1.93335E-10	 	18119.02708	31.4282	 
720.0	1.0	0.0	8.03939	6.98625	-7.83257	16.12361	24.53905	0.99157	1.0085	162.9503	163.89028	61.06258	0.33429	 	2.9809099999999996E10	 	1.62612E-10	 	17962.14941	31.37553	 
715.0	1.0	0.0	8.04166	6.98428	-7.85861	16.09937	24.45408	0.99001	1.0101	163.36155	164.15532	61.22358	0.33414	 	3.53234E10	 	1.36536E-10	 	17805.53457	31.32297	 
710.0	1.0	0.0	8.04393	6.98231	-7.88459	16.07512	24.36912	0.98843	1.01171	163.77207	164.41914	61.38433	0.33399	 	4.19302E10	 	1.1444E-10	 	17649.18207	31.2705	 
705.0	1.0	0.0	8.04619	6.98034	-7.9105	16.05086	24.28415	0.98684	1.01333	164.18185	164.68175	61.54484	0.33384	 	4.985999999999999E10	 	9.57503E-11	 	17493.09141	31.21813	 
700.0	1.0	0.0	8.04845	6.97838	-7.93635	16.02658	24.19917	0.98525	1.01497	164.59089	164.94316	61.70511	0.33369	 	5.939499999999999E10	 	7.9968E-11	 	17337.26207	31.16587	 
695.0	1.0	0.0	8.0507	6.97643	-7.96214	16.00228	24.11419	0.98364	1.01663	164.99919	165.20336	61.86514	0.33354	 	7.08816E10	 	6.66647E-11	 	17181.69354	31.11371	 
690.0	1.0	0.0	8.05296	6.97448	-7.98787	15.97797	24.02921	0.98202	1.01831	165.40676	165.46237	62.02493	0.33339	 	8.47449E10	 	5.54711E-11	 	17026.38534	31.06164	 
685.0	1.0	0.0	8.0552	6.97253	-8.01354	15.95365	23.94422	0.98039	1.02	165.81358	165.72017	62.18448	0.33324	 	1.01509E11	 	4.60698E-11	 	16871.33693	31.00968	 
680.0	1.0	0.0	8.05745	6.97059	-8.03914	15.92931	23.85923	0.97875	1.02171	166.21967	165.97679	62.34378	0.33309	 	1.21819E11	 	3.81884E-11	 	16716.54781	30.95782	 
675.0	1.0	0.0	8.05968	6.96866	-8.06468	15.90496	23.77423	0.97709	1.02344	166.62503	166.23222	62.50285	0.33294	 	1.46475E11	 	3.15936E-11	 	16562.01744	30.90607	 
670.0	1.0	0.0	8.06192	6.96673	-8.09016	15.88059	23.68923	0.97543	1.02519	167.02964	166.48646	62.66167	0.33279	 	1.76466E11	 	2.60859E-11	 	16407.74531	30.85443	 
665.0	1.0	0.0	8.06415	6.9648	-8.11558	15.85621	23.60422	0.97375	1.02695	167.43352	166.73952	62.82026	0.33264	 	2.1302E11	 	2.14951E-11	 	16253.7309	30.80288	 
660.0	1.0	0.0	8.06637	6.96288	-8.14093	15.83181	23.5192	0.97206	1.02874	167.83667	166.9914	62.9786	0.33249	 	2.57665E11	 	1.7676E-11	 	16099.97396	30.75139	 
655.0	1.0	0.0	8.06859	6.96096	-8.16622	15.8074	23.43419	0.97036	1.03054	168.23907	167.24211	63.1367	0.33234	 	3.12306E11	 	1.45052E-11	 	15946.4756	30.69967	 
650.0	1.0	0.0	8.07081	6.95905	-8.19145	15.78298	23.34916	0.96865	1.03236	168.64074	167.49164	63.29456	0.33219	 	3.79325E11	 	1.18781E-11	 	15793.23748	30.64762	 
645.0	1.0	0.0	8.07302	6.95714	-8.21661	15.75854	23.26414	0.96693	1.03421	169.04167	167.74	63.45218	0.33204	 	4.61701E11	 	9.70598E-12	 	15640.25915	30.59567	 
640.0	1.0	0.0	8.07523	6.95524	-8.24171	15.73408	23.1791	0.96519	1.03607	169.44187	167.9872	63.60955	0.33189	 	5.63178E11	 	7.91377E-12	 	15487.54016	30.5438	 
635.0	1.0	0.0	8.07744	6.95334	-8.26675	15.70961	23.09406	0.96344	1.03795	169.84133	168.23323	63.76669	0.33174	 	6.88462E11	 	6.4382E-12	 	15335.08005	30.49202	 
630.0	1.0	0.0	8.07964	6.95145	-8.29172	15.68513	23.00902	0.96167	1.03985	170.24005	168.47811	63.92358	0.33159	 	8.43491E11	 	5.22596E-12	 	15182.87837	30.44034	 
625.0	1.0	0.0	8.08183	6.94956	-8.31664	15.66063	22.92397	0.9599	1.04178	170.63803	168.72183	64.08023	0.33144	 	1.03577E12	 	4.23226E-12	 	15030.93463	30.38875	 
620.0	1.0	0.0	8.08402	6.94768	-8.34148	15.63611	22.83892	0.95811	1.04372	171.03528	168.96439	64.23664	0.33129	 	1.27481E12	 	3.41953E-12	 	14879.24832	30.33726	 
615.0	1.0	0.0	8.08621	6.9458	-8.36627	15.61158	22.75386	0.95631	1.04569	171.43179	169.20581	64.39281	0.33114	 	1.57268E12	 	2.75634E-12	 	14727.81901	30.28586	 
610.0	1.0	0.0	8.08839	6.94392	-8.39099	15.58704	22.66879	0.95449	1.04768	171.82757	169.44608	64.54874	0.33099	 	1.94478E12	 	2.21642E-12	 	14576.64629	30.23455	 
605.0	1.0	0.0	8.09057	6.94205	-8.41565	15.56248	22.58372	0.95266	1.04969	172.22261	169.6852	64.70443	0.33084	 	2.41073E12	 	1.7779E-12	 	14425.7297	30.18332	 
600.0	1.0	0.0	8.09274	6.94019	-8.44025	15.53791	22.49864	0.95082	1.05172	172.61692	169.92319	64.85987	0.33069	 	2.99569E12	 	1.42259E-12	 	14275.06881	30.13218	 
595.0	1.0	0.0	8.09491	6.93833	-8.46478	15.51332	22.41356	0.94896	1.05378	173.01048	170.16003	65.01507	0.33054	 	3.73191E12	 	1.1354E-12	 	14124.66318	30.08112	 
590.0	1.0	0.0	8.09708	6.93648	-8.48925	15.48871	22.32847	0.94709	1.05586	173.40332	170.39574	65.17003	0.33039	 	4.66092E12	 	9.03861E-13	 	13974.51239	30.03016	 
585.0	1.0	0.0	8.09924	6.93463	-8.51365	15.4641	22.24337	0.94521	1.05797	173.79541	170.63033	65.32475	0.33024	 	5.83628E12	 	7.17651E-13	 	13824.616	29.97928	 
580.0	1.0	0.0	8.10139	6.93278	-8.53799	15.43947	22.15827	0.94331	1.06009	174.18678	170.86378	65.47922	0.33009	 	7.32734E12	 	5.68285E-13	 	13674.97358	29.92849	 
575.0	1.0	0.0	8.10354	6.93094	-8.56227	15.41482	22.07317	0.9414	1.06225	174.5774	171.09611	65.63346	0.32994	 	9.22404E12	 	4.48785E-13	 	13525.58471	29.87777	 
570.0	1.0	0.0	8.10569	6.9291	-8.58648	15.39016	21.98805	0.93947	1.06443	174.96729	171.32731	65.78745	0.32979	 	1.16434E13	 	3.53435E-13	 	13376.44897	29.82715	 
565.0	1.0	0.0	8.10783	6.92727	-8.61063	15.36548	21.90294	0.93753	1.06663	175.35644	171.5574	65.9412	0.32964	 	1.47384E13	 	2.77562E-13	 	13227.56592	29.77661	 
560.0	1.0	0.0	8.10997	6.92545	-8.63472	15.34079	21.81781	0.93557	1.06886	175.74486	171.78637	66.0947	0.32949	 	1.87088E13	 	2.17353E-13	 	13078.93516	29.72615	 
555.0	1.0	0.0	8.1121	6.92363	-8.65874	15.31608	21.73268	0.9336	1.07112	176.13255	172.01423	66.24797	0.32934	 	2.38173E13	 	1.69708E-13	 	12930.55628	29.67578	 
550.0	1.0	0.0	8.11423	6.92181	-8.6827	15.29136	21.64754	0.93162	1.0734	176.51949	172.24098	66.40099	0.32919	 	3.04098E13	 	1.32115E-13	 	12782.42885	29.62549	 
545.0	1.0	0.0	8.11635	6.92	-8.70659	15.26663	21.5624	0.92961	1.07572	176.90571	172.46662	66.55377	0.32904	 	3.89431E13	 	1.02539E-13	 	12634.55246	29.57528	 
540.0	1.0	0.0	8.11847	6.91819	-8.73042	15.24188	21.47724	0.92759	1.07806	177.29118	172.69116	66.7063	0.32889	 	5.0023E13	 	7.93391E-14	 	12486.92672	29.52515	 
535.0	1.0	0.0	8.12059	6.91639	-8.75419	15.21711	21.39209	0.92556	1.08043	177.67593	172.91459	66.8586	0.32874	 	6.44547E13	 	6.11962E-14	 	12339.55121	29.4751	 
530.0	1.0	0.0	8.1227	6.9146	-8.77789	15.19233	21.30692	0.92351	1.08282	178.05993	173.13693	67.01065	0.32859	 	8.33124E13	 	4.70515E-14	 	12192.42554	29.42513	 
525.0	1.0	0.0	8.1248	6.9128	-8.80152	15.16754	21.22175	0.92144	1.08525	178.44321	173.35818	67.16246	0.32844	 	1.08034E14	 	3.60587E-14	 	12045.54931	29.37525	 
520.0	1.0	0.0	8.1269	6.91102	-8.8251	15.14273	21.13657	0.91936	1.08771	178.82574	173.57833	67.31402	0.32829	 	1.4055199999999998E14	 	2.75427E-14	 	11898.92212	29.32544	 
515.0	1.0	0.0	8.129	6.90924	-8.8486	15.11791	21.05139	0.91726	1.0902	179.20754	173.79739	67.46535	0.32815	 	1.83468E14	 	2.0967E-14	 	11752.54358	29.27571	 
510.0	1.0	0.0	8.13109	6.90746	-8.87205	15.09307	20.96619	0.91515	1.09272	179.58861	174.01537	67.61643	0.328	 	2.40304E14	 	1.59063E-14	 	11606.41331	29.22605	 
505.0	1.0	0.0	8.13318	6.90569	-8.89543	15.06822	20.88099	0.91302	1.09527	179.96894	174.23227	67.76726	0.32785	 	3.15842E14	 	1.20249E-14	 	11460.53091	29.17648	 
500.0	1.0	0.0	8.13526	6.90392	-8.91874	15.04335	20.79578	0.91087	1.09786	180.34854	174.44808	67.91786	0.3277	 	4.16594E14	 	9.0581E-15	 	11314.89603	29.12698	 
495.0	1.0	0.0	8.13734	6.90216	-8.94199	15.01847	20.71057	0.9087	1.10047	180.72741	174.66282	68.06821	0.32755	 	5.5146999999999994E14	 	6.79846E-15	 	11169.50827	29.07755	 
490.0	1.0	0.0	8.13941	6.9004	-8.96518	14.99357	20.62535	0.90651	1.10313	181.10554	174.87648	68.21832	0.3274	 	7.32702E14	 	5.08358E-15	 	11024.36725	29.0282	 
485.0	1.0	0.0	8.14148	6.89865	-8.9883	14.96866	20.54011	0.90431	1.10581	181.48293	175.08907	68.36818	0.32725	 	9.77147E14	 	3.78688E-15	 	10879.47263	28.97892	 
480.0	1.0	0.0	8.14354	6.8969	-9.01135	14.94373	20.45488	0.90209	1.10853	181.85959	175.30059	68.5178	0.3271	 	1.30814E15	 	2.81006E-15	 	10734.82402	28.92972	 
475.0	1.0	0.0	8.1456	6.89516	-9.03434	14.91879	20.36963	0.89985	1.11129	182.23552	175.51105	68.66718	0.32695	 	1.75808E15	 	2.077E-15	 	10590.42107	28.88059	 
470.0	1.0	0.0	8.14765	6.89342	-9.05727	14.89384	20.28437	0.8976	1.11409	182.61071	175.72044	68.81631	0.3268	 	2.37221E15	 	1.52901E-15	 	10446.26342	28.83153	 
465.0	1.0	0.0	8.1497	6.89169	-9.08013	14.86886	20.19911	0.89532	1.11692	182.98516	175.92878	68.9652	0.32665	 	3.21388E15	 	1.12099E-15	 	10302.35074	28.78254	 
460.0	1.0	0.0	8.15174	6.88996	-9.10292	14.84388	20.11384	0.89303	1.11979	183.35889	176.13605	69.11385	0.3265	 	4.37225E15	 	8.18417E-16	 	10158.68267	28.73361	 
455.0	1.0	0.0	8.15378	6.88824	-9.12565	14.81888	20.02856	0.89071	1.1227	183.73188	176.34227	69.26226	0.32635	 	5.97332E15	 	5.94965E-16	 	10015.25887	28.68476	 
450.0	1.0	0.0	8.15582	6.88652	-9.14832	14.79386	19.94327	0.88838	1.12565	184.10413	176.54744	69.41042	0.3262	 	8.19598E15	 	4.3064E-16	 	9872.07899	28.63598	 
445.0	1.0	0.0	8.15784	6.88481	-9.17092	14.76884	19.85797	0.88603	1.12864	184.47565	176.75157	69.55833	0.32605	 	1.12953E16	 	3.10315E-16	 	9729.14273	28.58725	 
440.0	1.0	0.0	8.15987	6.8831	-9.19345	14.74379	19.77267	0.88365	1.13167	184.84644	176.95464	69.70601	0.3259	 	1.56369E16	 	2.22596E-16	 	9586.44975	28.5386	 
435.0	1.0	0.0	8.16189	6.88139	-9.21592	14.71873	19.68735	0.88126	1.13474	185.21649	177.15667	69.85344	0.32575	 	2.17468E16	 	1.58934E-16	 	9443.99972	28.49	 
430.0	1.0	0.0	8.1639	6.8797	-9.23832	14.69366	19.60203	0.87885	1.13785	185.58581	177.35766	70.00062	0.3256	 	3.03864E16	 	1.12942E-16	 	9301.79235	28.44148	 
425.0	1.0	0.0	8.16591	6.878	-9.26066	14.66857	19.51669	0.87641	1.14102	185.95439	177.55762	70.14756	0.32545	 	4.26622E16	 	7.98715E-17	 	9159.82733	28.393	 
420.0	1.0	0.0	8.16792	6.87631	-9.28293	14.64347	19.43135	0.87396	1.14422	186.32225	177.75653	70.29426	0.3253	 	6.01913E16	 	5.62057E-17	 	9018.10434	28.3446	 
415.0	1.0	0.0	8.16992	6.87463	-9.30514	14.61835	19.346	0.87148	1.14747	186.68936	177.95442	70.44071	0.32515	 	8.53486E16	 	3.93526E-17	 	8876.62312	28.29624	 
410.0	1.0	0.0	8.17191	6.87295	-9.32728	14.59322	19.26063	0.86898	1.15077	187.05575	178.15128	70.58692	0.325	 	1.21641E17	 	2.74109E-17	 	8735.38341	28.24794	 
405.0	1.0	0.0	8.1739	6.87128	-9.34936	14.56807	19.17526	0.86646	1.15412	187.4214	178.34711	70.73288	0.32485	 	1.74273E17	 	1.89925E-17	 	8594.38494	28.19969	 
400.0	1.0	0.0	8.17589	6.86961	-9.37137	14.54291	19.08988	0.86392	1.15751	187.78631	178.54191	70.87861	0.3247	 	2.51016E17	 	1.30887E-17	 	8453.62746	28.1515	 
395.0	1.0	0.0	8.17787	6.86795	-9.39331	14.51773	19.00448	0.86136	1.16096	188.1505	178.73569	71.02408	0.32455	 	3.63534E17	 	8.97047E-18	 	8313.11075	28.10334	 
390.0	1.0	0.0	8.17984	6.86629	-9.41519	14.49254	18.91908	0.85877	1.16445	188.51395	178.92846	71.16931	0.3244	 	5.29437E17	 	6.11342E-18	 	8172.83455	28.05524	 
385.0	1.0	0.0	8.18181	6.86464	-9.437	14.46733	18.83366	0.85616	1.168	188.87667	179.12021	71.3143	0.32426	 	7.75467E17	 	4.14236E-18	 	8032.79864	28.00718	 
380.0	1.0	0.0	8.18378	6.86299	-9.45875	14.44211	18.74823	0.85353	1.17161	189.23865	179.31094	71.45904	0.32411	 	1.14249E18	 	2.79029E-18	 	7893.00283	27.95916	 
375.0	1.0	0.0	8.18574	6.86134	-9.48043	14.41688	18.6628	0.85087	1.17526	189.5999	179.50067	71.60354	0.32396	 	1.6933E18	 	1.86822E-18	 	7753.44689	27.91119	 
370.0	1.0	0.0	8.18769	6.85971	-9.50204	14.39163	18.57735	0.84819	1.17898	189.96042	179.68938	71.74779	0.32381	 	2.52508E18	 	1.24315E-18	 	7614.13061	27.86326	 
365.0	1.0	0.0	8.18964	6.85807	-9.52359	14.36636	18.49189	0.84549	1.18275	190.3202	179.87709	71.8918	0.32366	 	3.78909E18	 	8.22006E-19	 	7475.05383	27.81536	 
360.0	1.0	0.0	8.19159	6.85644	-9.54507	14.34108	18.40641	0.84276	1.18658	190.67925	180.0638	72.03557	0.32351	 	5.7224E18	 	5.40026E-19	 	7336.21636	27.76749	 
355.0	1.0	0.0	8.19353	6.85482	-9.56648	14.31579	18.32093	0.84001	1.19047	191.03757	180.24951	72.17908	0.32336	 	8.69907E18	 	3.52434E-19	 	7197.61802	27.71967	 
350.0	1.0	0.0	8.19546	6.8532	-9.58783	14.29048	18.23543	0.83723	1.19442	191.39515	180.43422	72.32236	0.32321	 	1.33133E19	 	2.28451E-19	 	7059.25867	27.67187	 
345.0	1.0	0.0	8.19739	6.85159	-9.60911	14.26516	18.14992	0.83442	1.19844	191.752	180.61793	72.46539	0.32306	 	2.05158E19	 	1.47059E-19	 	6921.13816	27.6241	 
340.0	1.0	0.0	8.19932	6.84998	-9.63033	14.23982	18.0644	0.83159	1.20252	192.10812	180.80065	72.60817	0.32291	 	3.18386E19	 	9.39938E-20	 	6783.25634	27.57636	 
335.0	1.0	0.0	8.20124	6.84838	-9.65148	14.21447	17.97886	0.82873	1.20666	192.46351	180.98238	72.75071	0.32276	 	4.9769E19	 	5.96402E-20	 	6645.61312	27.52865	 
330.0	1.0	0.0	8.20315	6.84678	-9.67256	14.1891	17.89331	0.82585	1.21088	192.81816	181.16313	72.893	0.32261	 	7.83753E19	 	3.75606E-20	 	6508.20835	27.48095	 
325.0	1.0	0.0	8.20506	6.84519	-9.69358	14.16372	17.80775	0.82294	1.21516	193.17208	181.34289	73.03505	0.32246	 	1.2436499999999998E20	 	2.34747E-20	 	6371.04197	27.43328	 
320.0	1.0	0.0	8.20696	6.8436	-9.71452	14.13832	17.72217	0.82	1.21951	193.52527	181.52167	73.17685	0.32231	 	1.98882E20	 	1.45565E-20	 	6234.11387	27.38562	 
315.0	1.0	0.0	8.20886	6.84202	-9.73541	14.11291	17.63658	0.81703	1.22394	193.87773	181.69946	73.31841	0.32216	 	3.20598E20	 	8.95393E-21	 	6097.424	27.33797	 
310.0	1.0	0.0	8.21076	6.84044	-9.75622	14.08748	17.55098	0.81404	1.22844	194.22945	181.87628	73.45972	0.32201	 	5.2105299999999997E20	 	5.46242E-21	 	5960.9723	27.29034	 
305.0	1.0	0.0	8.21264	6.83887	-9.77697	14.06204	17.46536	0.81102	1.23302	194.58044	182.05213	73.60079	0.32186	 	8.539879999999999E20	 	3.30427E-21	 	5824.75873	27.24271	 
300.0	1.0	0.0	8.21453	6.8373	-9.79765	14.03658	17.37972	0.80796	1.23768	194.9307	182.227	73.74161	0.32171	 	1.41177E21	 	1.98148E-21	 	5688.78327	27.19509	 
295.0	1.0	0.0	8.2164	6.83574	-9.81827	14.01111	17.29407	0.80488	1.24242	195.28022	182.40091	73.88218	0.32157	 	2.3546200000000001E21	 	1.17769E-21	 	5553.04592	27.14747	 
290.0	1.0	0.0	8.21828	6.83418	-9.83881	13.98563	17.2084	0.80177	1.24724	195.62901	182.57384	74.02251	0.32142	 	3.96297E21	 	6.93569E-22	 	5417.54669	27.09985	 
285.0	1.0	0.0	8.22014	6.83263	-9.85929	13.96013	17.12272	0.79863	1.25215	195.97707	182.74582	74.1626	0.32127	 	6.73244E21	 	4.04637E-22	 	5282.28561	27.05221	 
280.0	1.0	0.0	8.22201	6.83108	-9.87971	13.93461	17.03702	0.79545	1.25714	196.3244	182.91682	74.30243	0.32112	 	1.1547399999999999E22	 	2.338E-22	 	5147.26273	27.00458	 
275.0	1.0	0.0	8.22386	6.82954	-9.90005	13.90908	16.9513	0.79225	1.26223	196.671	183.08687	74.44203	0.32097	 	2.00019E22	 	1.33756E-22	 	5012.47813	26.95692	 
270.0	1.0	0.0	8.22571	6.828	-9.92033	13.88354	16.86556	0.78901	1.2674	197.01686	183.25597	74.58137	0.32082	 	3.49986E22	 	7.57453E-23	 	4877.9319	26.90925	 
265.0	1.0	0.0	8.22756	6.82647	-9.94054	13.85798	16.77981	0.78575	1.27268	197.36199	183.42411	74.72047	0.32067	 	6.18793E22	 	4.24468E-23	 	4743.62416	26.86155	 
260.0	1.0	0.0	8.2294	6.82494	-9.96068	13.8324	16.69404	0.78245	1.27804	197.70639	183.59129	74.85932	0.32052	 	1.1058099999999999E23	 	2.35318E-23	 	4609.55503	26.81383	 
255.0	1.0	0.0	8.23124	6.82342	-9.98076	13.80682	16.60825	0.77911	1.28351	198.05006	183.75753	74.99793	0.32037	 	1.9979899999999998E23	 	1.29018E-23	 	4475.72468	26.76607	 
250.0	1.0	0.0	8.23307	6.8219	-10.00077	13.78121	16.52244	0.77574	1.28909	198.39299	183.92281	75.13629	0.32022	 	3.65102E23	 	6.99357E-24	 	4342.1333	26.71827	 
245.0	1.0	0.0	8.23489	6.82039	-10.02071	13.75559	16.43661	0.77234	1.29476	198.73519	184.08716	75.27441	0.32007	 	6.749759999999999E23	 	3.74674E-24	 	4208.78111	26.67044	 
240.0	1.0	0.0	8.23671	6.81888	-10.04058	13.72996	16.35076	0.7689	1.30055	199.07666	184.25056	75.41227	0.31992	 	1.26288E24	 	1.98321E-24	 	4075.66836	26.62255	 
235.0	1.0	0.0	8.23852	6.81738	-10.06039	13.70431	16.26489	0.76543	1.30645	199.4174	184.41302	75.5499	0.31977	 	2.39217E24	 	1.03678E-24	 	3942.7953	26.57461	 
230.0	1.0	0.0	8.24033	6.81589	-10.08012	13.67865	16.179	0.76192	1.31247	199.75741	184.57454	75.68727	0.31962	 	4.58919E24	 	5.35116E-25	 	3810.16224	26.52661	 
225.0	1.0	0.0	8.24213	6.8144	-10.09979	13.65298	16.09309	0.75838	1.3186	200.09668	184.73513	75.8244	0.31947	 	8.91988E24	 	2.72576E-25	 	3677.76953	26.47854	 
220.0	1.0	0.0	8.24393	6.81291	-10.1194	13.62728	16.00715	0.7548	1.32486	200.43523	184.89478	75.96128	0.31932	 	1.7572500000000002E25	 	1.36972E-25	 	3545.61752	26.4304	 
215.0	1.0	0.0	8.24572	6.81143	-10.13893	13.60158	15.92119	0.75118	1.33124	200.77304	185.0535	76.09791	0.31918	 	3.5102900000000003E25	 	6.7873E-26	 	3413.70663	26.38218	 
210.0	1.0	0.0	8.24751	6.80995	-10.15839	13.57586	15.83521	0.74752	1.33775	201.11012	185.21129	76.2343	0.31903	 	7.113300000000001E25	 	3.31511E-26	 	3282.0373	26.33387	 
205.0	1.0	0.0	8.24929	6.80848	-10.17779	13.55012	15.74921	0.74383	1.3444	201.44646	185.36816	76.37044	0.31888	 	1.4629000000000002E26	 	1.59528E-26	 	3150.60999	26.28546	 
200.0	1.0	0.0	8.25107	6.80702	-10.19712	13.52437	15.66317	0.74009	1.35119	201.78208	185.52411	76.50634	0.31873	 	3.0547400000000002E26	 	7.55981E-27	 	3019.42526	26.23695	 
195.0	1.0	0.0	8.25284	6.80556	-10.21638	13.49861	15.57712	0.73632	1.35811	202.11696	185.67913	76.64198	0.31858	 	6.47987E26	 	3.52619E-27	 	2888.48365	26.18832	 
190.0	1.0	0.0	8.2546	6.8041	-10.23558	13.47283	15.49103	0.7325	1.36519	202.45112	185.83323	76.77738	0.31843	 	1.3970399999999998E27	 	1.61808E-27	 	2757.78579	26.13957	 
185.0	1.0	0.0	8.25636	6.80265	-10.2547	13.44703	15.40492	0.72864	1.37242	202.78454	185.98642	76.91254	0.31828	 	3.06291E27	 	7.30062E-28	 	2627.33233	26.09069	 
180.0	1.0	0.0	8.25811	6.80121	-10.27376	13.42122	15.31878	0.72474	1.3798	203.11723	186.13869	77.04744	0.31813	 	6.832559999999999E27	 	3.23702E-28	 	2497.124	26.04167	 
175.0	1.0	0.0	8.25986	6.79977	-10.29274	13.3954	15.23261	0.7208	1.38735	203.44919	186.29005	77.1821	0.31798	 	1.5517E28	 	1.40962E-28	 	2367.16155	25.99249	 
170.0	1.0	0.0	8.2616	6.79834	-10.31166	13.36956	15.14642	0.71681	1.39506	203.78041	186.4405	77.31651	0.31783	 	3.5898000000000002E28	 	6.02514E-29	 	2237.44582	25.94315	 
165.0	1.0	0.0	8.26334	6.79691	-10.33051	13.34371	15.06019	0.71278	1.40295	204.11091	186.59005	77.45067	0.31768	 	8.46538E28	 	2.52617E-29	 	2107.97769	25.89363	 
160.0	1.0	0.0	8.26507	6.79548	-10.3493	13.31784	14.97393	0.70871	1.41101	204.44067	186.73868	77.58459	0.31753	 	2.03622E29	 	1.03825E-29	 	1978.75811	25.84392	 
155.0	1.0	0.0	8.2668	6.79407	-10.36801	13.29196	14.88763	0.70459	1.41927	204.7697	186.88642	77.71825	0.31738	 	4.99925E29	 	4.18002E-30	 	1849.78809	25.794	 
150.0	1.0	0.0	8.26852	6.79265	-10.38665	13.26606	14.80131	0.70042	1.42771	205.098	187.03325	77.85167	0.31724	 	1.25373E30	 	1.64732E-30	 	1721.06875	25.74387	 
145.0	1.0	0.0	8.27023	6.79124	-10.40523	13.24015	14.71494	0.69621	1.43635	205.42557	187.17919	77.98484	0.31709	 	3.21405E30	 	6.3499E-31	 	1592.60123	25.6935	 
140.0	1.0	0.0	8.27194	6.78984	-10.42374	13.21422	14.62855	0.69195	1.4452	205.75241	187.32422	78.11777	0.31694	 	8.429399999999999E30	 	2.3922E-31	 	1464.38678	25.64289	 
135.0	1.0	0.0	8.27364	6.78844	-10.44217	13.18828	14.54211	0.68764	1.45426	206.07852	187.46837	78.25044	0.31679	 	2.2635999999999997E31	 	8.80048E-32	 	1336.42674	25.59201	 
130.0	1.0	0.0	8.27534	6.78705	-10.46054	13.16232	14.45564	0.68327	1.46354	206.4039	187.61162	78.38287	0.31664	 	6.22939E31	 	3.1587E-32	 	1208.72252	25.54084	 
125.0	1.0	0.0	8.27703	6.78566	-10.47884	13.13635	14.36912	0.67886	1.47305	206.72854	187.75399	78.51505	0.31649	 	1.75846E32	 	1.1051E-32	 	1081.27566	25.48937	 
120.0	1.0	0.0	8.27872	6.78428	-10.49707	13.11036	14.28257	0.6744	1.4828	207.05246	187.89546	78.64698	0.31634	 	5.09663E32	 	3.76497E-33	 	954.08777	25.43758	 
115.0	1.0	0.0	8.2804	6.78291	-10.51524	13.08436	14.19597	0.66989	1.49279	207.37564	188.03605	78.77867	0.31619	 	1.51824E33	 	1.2478E-33	 	827.16059	25.38544	 
110.0	1.0	0.0	8.28207	6.78153	-10.53333	13.05835	14.10933	0.66532	1.50304	207.69809	188.17576	78.9101	0.31604	 	4.6534E33	 	4.0187E-34	 	700.49596	25.33293	 
105.0	1.0	0.0	8.28374	6.78017	-10.55135	13.03232	14.02264	0.66069	1.51356	208.01981	188.31459	79.04129	0.31589	 	1.46914E34	 	1.25628E-34	 	574.09586	25.28002	 
100.0	1.0	0.0	8.28541	6.77881	-10.56931	13.00627	13.93591	0.65602	1.52435	208.3408	188.45253	79.17223	0.31574	 	4.78341E34	 	3.80744E-35	 	447.96241	25.22669	 
95.0	1.0	0.0	8.28706	6.77745	-10.58719	12.98021	13.84912	0.65128	1.53543	208.66106	188.58961	79.30292	0.3156	 	1.6081899999999998E35	 	1.11731E-35	 	322.09783	25.17292	 
90.0	1.0	0.0	8.28871	6.7761	-10.60501	12.95414	13.76228	0.64649	1.54682	208.98059	188.7258	79.43336	0.31545	 	5.5903299999999996E35	 	3.17056E-36	 	196.50453	25.11866	 
85.0	1.0	0.0	8.29036	6.77476	-10.62275	12.92805	13.67539	0.64164	1.55851	209.29939	188.86113	79.56355	0.3153	 	2.0120799999999999E36	 	8.68772E-37	 	71.18508	25.06389	 
80.0	1.0	0.0	8.292	6.77342	-10.64043	12.90195	13.58845	0.63673	1.57052	209.61745	188.99558	79.69349	0.31515	 	7.50939E36	 	2.29531E-37	 	-53.85779	25.00858	 
75.0	1.0	0.0	8.29363	6.77208	-10.65803	12.87583	13.50145	0.63176	1.58288	209.93479	189.12917	79.82319	0.315	 	2.9106599999999997E37	 	5.83797E-38	 	-178.62117	24.95268	 
70.0	1.0	0.0	8.29526	6.77075	-10.67557	12.8497	13.41438	0.62673	1.59559	210.25139	189.26189	79.95263	0.31485	 	1.17361E38	 	1.42707E-38	 	-303.10193	24.89615	 
65.0	1.0	0.0	8.29688	6.76943	-10.69304	12.82355	13.32726	0.62163	1.60866	210.56727	189.39375	80.08183	0.3147	 	4.931349999999999E38	 	3.3468E-39	 	-427.29674	24.83896	 
60.0	1.0	0.0	8.2985	6.76811	-10.71043	12.79739	13.24006	0.61648	1.62212	210.88241	189.52475	80.21078	0.31455	 	2.1633200000000002E39	 	7.51634E-40	 	-551.20203	24.78106	 
55.0	1.0	0.0	8.30011	6.7668	-10.72776	12.77121	13.15281	0.61125	1.63599	211.19682	189.65489	80.33948	0.3144	 	9.927590000000001E39	 	1.6133E-40	 	-674.814	24.72239	 
50.0	1.0	0.0	8.30172	6.76549	-10.74502	12.74502	13.06547	0.60596	1.65027	211.51051	189.78417	80.46793	0.31425	 	4.77578E40	 	3.30253E-41	 	-798.12856	24.66291	 
45.0	1.0	0.0	8.30332	6.76419	-10.76221	12.71881	12.97807	0.6006	1.66499	211.82346	189.91259	80.59613	0.3141	 	2.41372E41	 	6.43326E-42	 	-921.14134	24.60256	 
40.0	1.0	0.0	8.30491	6.76289	-10.77932	12.69259	12.89059	0.59518	1.68017	212.13568	190.04017	80.72408	0.31396	 	1.2847E42	 	1.1897E-42	 	-1043.84769	24.54127	 
35.0	1.0	0.0	8.3065	6.7616	-10.79637	12.66636	12.80302	0.58968	1.69584	212.44717	190.16689	80.85178	0.31381	 	7.21901E42	 	2.08339E-43	 	-1166.24256	24.47898	 
30.0	1.0	0.0	8.30808	6.76031	-10.81335	12.6401	12.71537	0.58411	1.71201	212.75793	190.29276	80.97923	0.31366	 	4.29422E43	 	3.44556E-44	 	-1288.32061	24.41561	 
25.0	1.0	0.0	8.30965	6.75903	-10.83025	 	12.62763	0.57847	1.72871	213.06796	190.41779	81.10643	0.31351	 	2.71184E44	 	5.36608E-45	 	-1410.07604	 	 
