T (C)	Fraction solid (wt)-TOTAL	Fraction liquid (wt)-LIQUID	Density (g/(cm)^3)-TOTAL	Molar volume (cm^3)-TOTAL	Volume change (%)-  	Average expansion coeff. (10e-6 1/K)-  	Thermal conductivity (W/(m*K))-TOTAL	Electrical resistivity (10e-6 Ohm*m)-TOTAL	Electrical conductivity (10e6 1/(Ohm*m))-TOTAL	Young's modulus (GPa)-TOTAL	Bulk modulus (GPa)-TOTAL	Shear modulus(GPa)-TOTAL	Poisson's ratio-TOTAL	Liquid viscosity (mPa s)-  	Total viscosity (mPa s)-  	Liquid diffusivity (10e-9 (m^2)/s)-  	Total diffusivity (10e-9 (m^2)/s)-  	Surface Tension (mN/m)-  	Enthalpy (J/mole)-TOTAL	Specific heat (J/(mole K))-TOTAL	Latent heat (J/mole)-TOTAL
1400.0	0.0	1.0	7.20986	7.65439	0.0	27.04089	30.44775	1.34631	0.74277	0.0	123.02342	0.0	0.5	7.35147	7.35147	1.11083	1.11083	1621.93347	60722.151	 	0.0
1395.0	0.0	1.0	7.21377	7.65024	-0.0542735	26.9928	30.39067	1.34481	0.7436	0.0	123.20495	0.0	0.5	7.42882	7.42882	1.09598	1.09598	1622.17327	60513.306	41.769	0.0
1390.0	0.0	1.0	7.21768	7.64609	-0.10839	26.94478	30.33358	1.3433	0.74443	0.0	123.38648	0.0	0.5	7.50746	7.50746	1.08125	1.08125	1622.39653	60304.951	41.671	0.0
1385.0	0.0	1.0	7.22158	7.64196	-0.16235	26.89684	30.27647	1.34179	0.74527	0.0	123.56801	0.0	0.5	7.58741	7.58741	1.06664	1.06664	1622.60311	60097.082	41.5738	0.0
1380.0	0.0	1.0	7.22548	7.63785	-0.21615	26.84898	30.21935	1.34027	0.74612	0.0	123.74954	0.0	0.5	7.6687	7.6687	1.05215	1.05215	1622.79288	59889.697	41.477	0.0
1375.0	0.0	1.0	7.22936	7.63374	-0.26979	26.8012	30.16221	1.33875	0.74697	0.0	123.93107	0.0	0.5	7.75137	7.75137	1.03778	1.03778	1622.96571	59682.794	41.3806	0.0
1370.0	0.0	1.0	7.23324	7.62965	-0.32328	26.75349	30.10505	1.33722	0.74782	0.0	124.1126	0.0	0.5	7.83544	7.83544	1.02353	1.02353	1623.12145	59476.37	41.2848	0.0
1365.0	0.0	1.0	7.23711	7.62556	-0.3766	26.70587	30.04788	1.33569	0.74868	0.0	124.29413	0.0	0.5	7.92094	7.92094	1.0094	1.0094	1623.25999	59270.424	41.1892	0.0
1360.0	0.0	1.0	7.24098	7.62149	-0.42977	26.65832	29.99069	1.33415	0.74954	0.0	124.47567	0.0	0.5	8.0079	8.0079	0.99539	0.99539	1623.38119	59064.952	41.0944	0.0
1357.18	0.0	1.0	7.24316	7.6192	-0.45974	26.6315	29.95837	1.33328	0.75003	0.0	124.57823	0.0	0.5	8.0577	8.0577	0.98753	0.98753	1623.44195	58949.074	41.01949	0.0
1355.0	0.0706205	0.92938	7.25588	7.60583	-0.63436	26.18859	30.2029	1.32072	0.75716	0.00215578	123.36885	7.23626E-4	0.48957	8.07952	10.16557	0.98355	0.78172	1619.5869	57862.122	499.73656	997.832
1350.0	0.21266	0.78734	7.28195	7.5786	-0.99014	25.29253	30.69472	1.29557	0.77186	0.18052	120.91274	0.0614687	0.46838	8.12884	125.24946	0.97458	0.0632513	1610.88955	55655.35	441.3544	3000.075
1345.0	0.3262	0.6738	7.30351	7.55626	-1.28209	24.56886	31.0856	1.27534	0.78411	1.01447	118.97302	0.34951	0.45126	8.17765	689.0387	0.96578	0.011462	1602.42396	53857.55	359.56	4593.814
1340.0	0.41828	0.58172	7.32167	7.53759	-1.5259	23.97533	31.39828	1.25874	0.79445	2.779	117.43408	0.96679	0.43724	8.22594	1966.14116	0.95714	0.00400449	1594.18266	52368.593	297.7914	5879.176
1335.0	0.4939	0.5061	7.33719	7.52165	-1.73413	23.47789	31.64842	1.24492	0.80327	5.46621	116.20867	1.91715	0.42561	8.27378	4066.25973	0.94866	0.00193027	1586.15946	51116.39	250.4406	6928.249
1330.0	0.55673	0.44327	7.35065	7.50798	-1.91283	23.06047	31.8483	1.23326	0.81086	8.91842	115.23576	3.14946	0.41587	8.32115	6999.23455	0.94032	0.00111792	1578.34172	50048.167	213.6446	7793.803
1325.0	0.60947	0.39053	7.36249	7.49602	-2.06898	22.70413	32.00695	1.22332	0.81745	12.93141	114.46542	4.59336	0.40762	8.36806	10727.06779	0.93214	7.27149E-4	1570.72125	49124.702	184.693	8515.058
1320.0	0.65414	0.34586	7.37302	7.48547	-2.2068	22.39746	32.13178	1.21475	0.82321	17.31228	113.86022	6.18041	0.40058	8.41449	15200.34886	0.92409	5.11552E-4	1563.28701	48316.441	161.6522	9121.565
1315.0	0.69229	0.30771	7.38249	7.47604	-2.33011	22.1301	32.22855	1.2073	0.82829	21.89792	113.39024	7.85146	0.39451	8.4604	20371.90823	0.91619	3.80493E-4	1556.0294	47600.829	143.1224	9635.88
1310.0	0.72513	0.27487	7.39109	7.46752	-2.44131	21.89559	32.30197	1.20077	0.8328	26.55972	113.03277	9.55899	0.38925	8.50571	26205.17566	0.90844	2.94864E-4	1548.93787	46960.45	128.0758	10075.414
1305.0	0.75359	0.24641	7.39898	7.45976	-2.54273	21.68752	32.3559	1.19498	0.83683	31.20755	112.76877	11.26907	0.38466	8.55042	32682.12865	0.90084	2.35681E-4	1542.00324	46381.713	115.7474	10453.758
1300.0	0.77842	0.22158	7.40628	7.45265	-2.6356	21.50271	32.39346	1.18981	0.84047	35.77211	112.58411	12.95513	0.38062	8.59444	39793.73701	0.89339	1.92949E-4	1535.21457	45853.901	105.5624	10781.625
1295.82	0.79672	0.20328	7.41196	7.44713	-2.70778	21.36292	32.41383	1.18591	0.84323	39.47356	112.48334	14.32679	0.37761	8.63059	46206.90089	0.88728	1.65728E-4	1529.64316	45446.938	 	11021.942
1295.0	0.81054	0.18946	7.41565	7.44349	-2.75533	21.23806	32.45542	1.18377	0.84476	42.48301	112.35293	15.44615	0.3752	8.65697	50158.634	0.88411	1.52591E-4	1527.43358	45189.717	132.8368	11246.31
1290.0	0.87871	0.12129	7.43393	7.42541	-2.99148	20.63032	32.64202	1.17325	0.85233	60.05121	111.68383	22.0251	0.36324	8.80663	74831.576	0.86632	1.01954E-4	1514.83496	43906.981	256.5472	12329.993
1285.0	0.91824	0.0817624	7.44555	7.41393	-3.14152	20.27097	32.71545	1.16687	0.85699	72.66925	111.40419	26.79063	0.35624	8.94482	95984.33891	0.85021	7.92311E-5	1503.88801	43096.907	162.0148	12941.457
1280.0	0.94326	0.0567357	7.45385	7.40569	-3.24908	20.03421	32.73106	1.16257	0.86016	81.77419	111.33992	30.24733	0.35176	9.074	114790.4389	0.83541	6.60381E-5	1494.19567	42521.05	115.1714	13319.144
1275.0	0.96014	0.0398553	7.46033	7.39925	-3.33325	19.86484	32.71412	1.15943	0.86249	88.5123	111.40551	32.81422	0.34869	9.19587	132269.4991	0.82169	5.71268E-5	1485.49367	42074.463	89.3174	13568.0
1270.0	0.97209	0.0279122	7.46573	7.39388	-3.40336	19.73596	32.67752	1.15698	0.86432	93.64621	111.55461	34.77455	0.34648	9.31174	149148.5239	0.80884	5.04982E-5	1477.59497	41705.107	73.8712	13740.061
1265.0	0.98086	0.0191409	7.47044	7.3892	-3.46459	19.63259	32.62832	1.15497	0.86582	97.66965	111.75991	36.31342	0.34481	9.42269	165938.7253	0.79673	4.52416E-5	1470.36681	41384.791	64.0632	13863.517
1260.0	0.9875	0.0125041	7.47469	7.38496	-3.51992	19.54609	32.57062	1.15325	0.86711	100.90588	112.00482	37.55268	0.34352	9.52944	183014.5317	0.78524	4.0887E-5	1463.71103	41097.162	57.5258	13954.719
1255.0	0.99264	0.00735565	7.47862	7.38104	-3.57112	19.4713	32.50697	1.15174	0.86825	103.57072	112.27831	38.57404	0.34249	9.63264	200664.6583	0.7743	3.71691E-5	1457.54945	40832.197	52.993	14023.688
1250.0	0.99672	0.00328198	7.48234	7.37735	-3.61935	19.40491	32.439	1.15038	0.86928	105.81164	112.57285	39.43348	0.34165	9.73268	219126.1543	0.76383	3.39262E-5	1451.82327	40583.481	49.7432	14076.836
1245.0	1.0	0.0	7.48588	7.37383	-3.6654	19.34459	32.36781	1.14913	0.87023	107.73146	112.88357	40.17012	0.34094	 	238603.8092	 	3.10545E-5	 	40346.749	47.3464	14118.428
1240.0	1.0	0.0	7.48867	7.37108	-3.70125	19.31485	32.29388	1.14796	0.87111	108.18581	113.26668	40.34346	0.34081	 	256457.3323	 	2.87974E-5	 	40162.41711	36.86638	 
1235.0	1.0	0.0	7.49143	7.36836	-3.73685	19.28568	32.22005	1.14679	0.872	108.63926	113.64845	40.5165	0.34068	 	275778.6932	 	2.66913E-5	 	39975.75162	37.3331	 
1230.0	1.0	0.0	7.4942	7.36564	-3.77235	19.25652	32.14621	1.14561	0.87289	109.09212	114.02898	40.68934	0.34055	 	296699.0539	 	2.47271E-5	 	39789.43506	37.26331	 
1225.0	1.0	0.0	7.49696	7.36293	-3.80778	19.22738	32.07236	1.14443	0.87379	109.54438	114.40828	40.862	0.34042	 	319362.2491	 	2.28959E-5	 	39603.4667	37.19367	 
1220.0	1.0	0.0	7.49971	7.36022	-3.84312	19.19825	31.99848	1.14325	0.8747	109.99606	114.78634	41.03446	0.34029	 	343926.0632	 	2.11897E-5	 	39417.84582	37.12418	 
1215.0	1.0	0.0	7.50246	7.35753	-3.87837	19.16915	31.92459	1.14206	0.87561	110.44714	115.16317	41.20675	0.34016	 	370563.6801	 	1.96007E-5	 	39232.57173	37.05482	 
1210.0	1.0	0.0	7.50521	7.35483	-3.91355	19.14006	31.85069	1.14086	0.87653	110.89763	115.53877	41.37884	0.34003	 	399465.2926	 	1.81214E-5	 	39047.64367	36.98561	 
1205.0	1.0	0.0	7.50795	7.35215	-3.94864	19.11098	31.77677	1.13966	0.87746	111.34754	115.91314	41.55075	0.3399	 	430839.8921	 	1.67452E-5	 	38863.06096	36.91654	 
1200.0	1.0	0.0	7.51069	7.34947	-3.98364	19.08192	31.70283	1.13845	0.87839	111.79685	116.2863	41.72247	0.33977	 	464917.2577	 	1.54653E-5	 	38678.82291	36.84761	 
1195.0	1.0	0.0	7.51342	7.34679	-4.01856	19.05288	31.62888	1.13724	0.87932	112.24557	116.65823	41.89401	0.33964	 	501950.1705	 	1.42757E-5	 	38494.92878	36.77883	 
1193.92	1.0	0.0	7.51401	7.34622	-4.0261	19.0466	31.61288	1.13698	0.87952	112.34254	116.73852	41.93108	0.33961	 	510374.7742	 	1.40297E-5	 	38455.20188	 	 
1190.0	1.0	0.0	7.51622	7.34406	-4.05427	19.02109	31.55595	1.13599	0.88029	112.7096	117.04065	42.07149	0.3395	 	542671.6228	 	1.31595E-5	 	38306.68531	37.64869	 
1185.0	1.0	0.0	7.51903	7.34132	-4.0901	18.98865	31.48325	1.13472	0.88127	113.17696	117.42473	42.25031	0.33936	 	587129.4937	 	1.21215E-5	 	38117.64493	37.80808	 
1180.0	1.0	0.0	7.52183	7.33859	-4.1258	18.95631	31.41049	1.13345	0.88226	113.64323	117.80721	42.42875	0.33922	 	635553.1512	 	1.11595E-5	 	37929.11748	37.70549	 
1175.0	1.0	0.0	7.52462	7.33586	-4.16138	18.92409	31.33768	1.13217	0.88326	114.10841	118.18809	42.60681	0.33909	 	688325.1883	 	1.02685E-5	 	37741.09852	37.60379	 
1170.0	1.0	0.0	7.5274	7.33315	-4.19684	18.89197	31.2648	1.13089	0.88426	114.57252	118.5674	42.7845	0.33895	 	745867.8935	 	9.44357E-6	 	37553.58367	37.50297	 
1165.0	1.0	0.0	7.53018	7.33044	-4.23219	18.85996	31.19188	1.12961	0.88526	115.03555	118.94512	42.96182	0.33881	 	808647.5827	 	8.68024E-6	 	37366.56862	37.40301	 
1160.0	1.0	0.0	7.53295	7.32775	-4.26741	18.82806	31.1189	1.12832	0.88627	115.49752	119.32129	43.13877	0.33867	 	877179.5783	 	7.97425E-6	 	37180.04907	37.30391	 
1155.0	1.0	0.0	7.53572	7.32506	-4.30252	18.79625	31.04586	1.12703	0.88729	115.95844	119.6959	43.31535	0.33854	 	952033.7222	 	7.32164E-6	 	36994.02081	37.20565	 
1150.0	1.0	0.0	7.53847	7.32238	-4.33751	18.76455	30.97277	1.12574	0.88831	116.41831	120.06897	43.49157	0.3384	 	1033840.443	 	6.71868E-6	 	36808.47967	37.10823	 
1145.0	1.0	0.0	7.54122	7.31971	-4.37239	18.73295	30.89963	1.12444	0.88933	116.87714	120.44051	43.66743	0.33826	 	1123297.767	 	6.16189E-6	 	36623.42153	37.01163	 
1140.0	1.0	0.0	7.54396	7.31705	-4.40715	18.70144	30.82644	1.12313	0.89037	117.33495	120.81052	43.84294	0.33813	 	1221178.955	 	5.64801E-6	 	36438.84231	36.91584	 
1135.0	1.0	0.0	7.5467	7.3144	-4.4418	18.67002	30.7532	1.12182	0.89141	117.79173	121.17902	44.0181	0.33799	 	1328341.221	 	5.17399E-6	 	36254.738	36.82086	 
1130.0	1.0	0.0	7.54943	7.31176	-4.47633	18.6387	30.67991	1.12051	0.89245	118.24751	121.54601	44.1929	0.33786	 	1445735.507	 	4.73698E-6	 	36071.10462	36.72668	 
1125.0	1.0	0.0	7.55215	7.30912	-4.51076	18.60747	30.60656	1.11919	0.8935	118.70228	121.91151	44.36736	0.33772	 	1574417.29	 	4.33432E-6	 	35887.93826	36.63327	 
1120.0	1.0	0.0	7.55486	7.30649	-4.54507	18.57633	30.53318	1.11787	0.89456	119.15606	122.27552	44.54148	0.33759	 	1715558.999	 	3.9635E-6	 	35705.23507	36.54064	 
1115.0	1.0	0.0	7.55757	7.30388	-4.57928	18.54527	30.45974	1.11655	0.89562	119.60885	122.63806	44.71526	0.33745	 	1870463.87	 	3.62221E-6	 	35522.99122	36.44877	 
1110.0	1.0	0.0	7.56027	7.30127	-4.61337	18.5143	30.38626	1.11521	0.89669	120.06066	122.99913	44.8887	0.33732	 	2040581.34	 	3.30828E-6	 	35341.20295	36.35765	 
1105.0	1.0	0.0	7.56297	7.29866	-4.64736	18.48341	30.31273	1.11388	0.89776	120.5115	123.35874	45.06181	0.33718	 	2227524.812	 	3.01968E-6	 	35159.86657	36.26728	 
1100.0	1.0	0.0	7.56566	7.29607	-4.68124	18.4526	30.23915	1.11254	0.89885	120.96139	123.71691	45.23458	0.33705	 	2433091.183	 	2.75452E-6	 	34978.97842	36.17763	 
1095.0	1.0	0.0	7.56834	7.29349	-4.71502	18.42187	30.16554	1.11119	0.89994	121.41031	124.07364	45.40703	0.33691	 	2659283.483	 	2.51105E-6	 	34798.53489	36.08871	 
1090.0	1.0	0.0	7.57101	7.29091	-4.74869	18.39122	30.09187	1.10984	0.90103	121.8583	124.42893	45.57916	0.33678	 	2908335.661	 	2.28763E-6	 	34618.53244	36.00049	 
1085.0	1.0	0.0	7.57368	7.28834	-4.78225	18.36064	30.01817	1.10848	0.90213	122.30534	124.78281	45.75096	0.33664	 	3182741.421	 	2.08273E-6	 	34438.96758	35.91297	 
1080.0	1.0	0.0	7.57635	7.28578	-4.81572	18.33014	29.94442	1.10712	0.90324	122.75146	125.13528	45.92244	0.33651	 	3485286.229	 	1.89493E-6	 	34259.83505	35.82651	 
1075.0	1.0	0.0	7.579	7.28322	-4.84907	18.29972	29.87064	1.10576	0.90436	123.19665	125.48635	46.09361	0.33637	 	3819083.831	 	1.72292E-6	 	34081.13015	35.74098	 
1070.0	1.0	0.0	7.58165	7.28068	-4.88233	18.26936	29.79681	1.10439	0.90548	123.64093	125.83602	46.26447	0.33624	 	4187617.328	 	1.56547E-6	 	33902.84899	35.65623	 
1065.0	1.0	0.0	7.5843	7.27814	-4.91549	18.23907	29.72294	1.10301	0.90661	124.08431	126.18431	46.43502	0.33611	 	4594786.344	 	1.42143E-6	 	33724.98808	35.57218	 
1060.0	1.0	0.0	7.58693	7.27561	-4.94854	18.20886	29.64903	1.10163	0.90775	124.52679	126.53122	46.60526	0.33597	 	5044959.721	 	1.28976E-6	 	33547.54398	35.48882	 
1055.0	1.0	0.0	7.58956	7.27309	-4.98149	18.1787	29.57508	1.10024	0.90889	124.96838	126.87677	46.7752	0.33584	 	5543035.821	 	1.16946E-6	 	33370.51331	35.40613	 
1050.0	1.0	0.0	7.59219	7.27057	-5.01435	18.14862	29.5011	1.09885	0.91005	125.40908	127.22096	46.94483	0.33571	 	6094511.435	 	1.05964E-6	 	33193.89272	35.32412	 
1045.0	1.0	0.0	7.59481	7.26807	-5.04711	18.11859	29.42707	1.09745	0.91121	125.84891	127.56381	47.11417	0.33557	 	6705559.137	 	9.59437E-7	 	33017.67891	35.24276	 
1040.0	1.0	0.0	7.59742	7.26557	-5.07976	18.08863	29.35301	1.09604	0.91237	126.28788	127.90531	47.28321	0.33544	 	7383116.009	 	8.68083E-7	 	32841.86863	35.16206	 
1035.0	1.0	0.0	7.60003	7.26307	-5.11232	18.05873	29.27892	1.09463	0.91355	126.72598	128.24548	47.45196	0.33531	 	8134984.979	 	7.84852E-7	 	32666.45867	35.08199	 
1030.0	1.0	0.0	7.60263	7.26059	-5.14479	18.02889	29.20478	1.09322	0.91473	127.16323	128.58432	47.62042	0.33518	 	8969949.88	 	7.09073E-7	 	32491.44586	35.00256	 
1025.0	1.0	0.0	7.60522	7.25811	-5.17716	17.99911	29.13062	1.0918	0.91592	127.59964	128.92186	47.7886	0.33504	 	9897906.109	 	6.4013E-7	 	32316.82711	34.92375	 
1020.0	1.0	0.0	7.60781	7.25564	-5.20943	17.96938	29.05641	1.09037	0.91712	128.0352	129.25808	47.95649	0.33491	 	1.093001187E7	 	5.77451E-7	 	32142.59931	34.84556	 
1015.0	1.0	0.0	7.6104	7.25318	-5.24161	17.93972	28.98218	1.08893	0.91833	128.46994	129.59301	48.12409	0.33478	 	1.207885938E7	 	5.20508E-7	 	31968.75947	34.76797	 
1010.0	1.0	0.0	7.61298	7.25072	-5.27369	17.9101	28.90791	1.08749	0.91955	128.90385	129.92664	48.29142	0.33465	 	1.33586703E7	 	4.68814E-7	 	31795.30459	34.69098	 
1005.0	1.0	0.0	7.61555	7.24827	-5.30568	17.88054	28.8336	1.08605	0.92077	129.33694	130.25899	48.45847	0.33451	 	1.478552162E7	 	4.21922E-7	 	31622.23174	34.61457	 
1000.0	1.0	0.0	7.61811	7.24583	-5.33757	17.85103	28.75927	1.0846	0.922	129.76922	130.59007	48.62525	0.33438	 	1.637760422E7	 	3.79416E-7	 	31449.53802	34.53874	 
995.0	1.0	0.0	7.62067	7.2434	-5.36937	17.82157	28.6849	1.08314	0.92324	130.2007	130.91988	48.79176	0.33425	 	1.815551616E7	 	3.40917E-7	 	31277.2206	34.46349	 
990.0	1.0	0.0	7.62323	7.24097	-5.40108	17.79215	28.6105	1.08167	0.92449	130.63138	131.24843	48.95799	0.33412	 	2.014260377E7	 	3.06074E-7	 	31105.27666	34.38879	 
985.0	1.0	0.0	7.62578	7.23855	-5.4327	17.76279	28.53607	1.0802	0.92575	131.06126	131.57573	49.12396	0.33399	 	2.236535398E7	 	2.74564E-7	 	30933.70346	34.31464	 
980.0	1.0	0.0	7.62832	7.23614	-5.46423	17.73348	28.46161	1.07872	0.92702	131.49037	131.90178	49.28967	0.33385	 	2.485383998E7	 	2.46091E-7	 	30762.49828	34.24104	 
975.0	1.0	0.0	7.63086	7.23373	-5.49566	17.70421	28.38711	1.07724	0.9283	131.91869	132.2266	49.45511	0.33372	 	2.764224139E7	 	2.20384E-7	 	30591.65845	34.16797	 
970.0	1.0	0.0	7.63339	7.23133	-5.52701	17.67498	28.31259	1.07575	0.92959	132.34624	132.55019	49.6203	0.33359	 	3.076944143E7	 	1.97193E-7	 	30421.18134	34.09542	 
965.0	1.0	0.0	7.63591	7.22894	-5.55826	17.6458	28.23804	1.07425	0.93088	132.77303	132.87255	49.78522	0.33346	 	3.427971163E7	 	1.76288E-7	 	30251.06437	34.02339	 
960.0	1.0	0.0	7.63844	7.22655	-5.58943	17.61667	28.16346	1.07274	0.93219	133.19905	133.1937	49.9499	0.33333	 	3.822351285E7	 	1.57461E-7	 	30081.30501	33.95187	 
955.0	1.0	0.0	7.64095	7.22418	-5.6205	17.58757	28.08885	1.07123	0.9335	133.62432	133.51364	50.11431	0.3332	 	4.265841376E7	 	1.40518E-7	 	29911.90075	33.88085	 
950.0	1.0	0.0	7.64346	7.2218	-5.65149	17.55852	28.01422	1.06971	0.93483	134.04884	133.83238	50.27848	0.33306	 	4.765015085E7	 	1.25286E-7	 	29742.84914	33.81032	 
945.0	1.0	0.0	7.64596	7.21944	-5.68239	17.52951	27.93955	1.06819	0.93617	134.47262	134.14992	50.4424	0.33293	 	5.327387068E7	 	1.11602E-7	 	29574.14777	33.74027	 
940.0	1.0	0.0	7.64846	7.21708	-5.7132	17.50053	27.86486	1.06665	0.93751	134.89565	134.46628	50.60607	0.3328	 	5.961555573E7	 	9.93211E-8	 	29405.79426	33.6707	 
935.0	1.0	0.0	7.65096	7.21473	-5.74392	17.47159	27.79014	1.06511	0.93887	135.31796	134.78145	50.7695	0.33267	 	6.677369148E7	 	8.83084E-8	 	29237.78631	33.60159	 
930.0	1.0	0.0	7.65344	7.21238	-5.77456	17.44269	27.7154	1.06357	0.94023	135.73954	135.09545	50.93268	0.33254	 	7.486119446E7	 	7.84422E-8	 	29070.12161	33.53294	 
925.0	1.0	0.0	7.65593	7.21005	-5.80511	17.41383	27.64062	1.06201	0.94161	136.16039	135.40829	51.09562	0.33241	 	8.40076696E7	 	6.96112E-8	 	28902.79792	33.46474	 
920.0	1.0	0.0	7.6584	7.20771	-5.83557	17.38501	27.56583	1.06045	0.943	136.58053	135.71995	51.25832	0.33228	 	9.436202103E7	 	6.17141E-8	 	28735.81303	33.39698	 
915.0	1.0	0.0	7.66087	7.20539	-5.86595	17.35621	27.491	1.05888	0.94439	136.99995	136.03047	51.42079	0.33215	 	1.060955176E8	 	5.46589E-8	 	28569.16479	33.32965	 
910.0	1.0	0.0	7.66334	7.20307	-5.89624	17.32746	27.41615	1.0573	0.9458	137.41867	136.33983	51.58302	0.33201	 	1.194053583E8	 	4.83618E-8	 	28402.85105	33.26275	 
905.0	1.0	0.0	7.6658	7.20076	-5.92645	17.29873	27.34128	1.05572	0.94722	137.83668	136.64805	51.74502	0.33188	 	1.345188558E8	 	4.27469E-8	 	28236.86973	33.19626	 
900.0	1.0	0.0	7.66826	7.19845	-5.95657	17.27004	27.26638	1.05413	0.94865	138.25399	136.95513	51.90678	0.33175	 	1.5169831E8	 	3.7745E-8	 	28071.2188	33.13019	 
895.0	1.0	0.0	7.67071	7.19615	-5.9866	17.24138	27.19145	1.05252	0.9501	138.67061	137.26108	52.06832	0.33162	 	1.712467224E8	 	3.32938E-8	 	27905.89624	33.06451	 
890.0	1.0	0.0	7.67315	7.19386	-6.01655	17.21275	27.1165	1.05092	0.95155	139.08655	137.5659	52.22962	0.33149	 	1.935145549E8	 	2.93365E-8	 	27740.90007	32.99923	 
885.0	1.0	0.0	7.67559	7.19157	-6.04642	17.18415	27.04153	1.0493	0.95302	139.50179	137.86961	52.3907	0.33136	 	2.189075549E8	 	2.58221E-8	 	27576.22837	32.93434	 
880.0	1.0	0.0	7.67802	7.1893	-6.0762	17.15559	26.96653	1.04768	0.95449	139.91635	138.17219	52.55155	0.33123	 	2.478960947E8	 	2.2704E-8	 	27411.87923	32.86983	 
875.0	1.0	0.0	7.68045	7.18702	-6.1059	17.12705	26.89151	1.04604	0.95598	140.33024	138.47367	52.71218	0.3311	 	2.810260415E8	 	1.99406E-8	 	27247.8508	32.80569	 
870.0	1.0	0.0	7.68287	7.18476	-6.13551	17.09854	26.81647	1.0444	0.95749	140.74345	138.77404	52.87259	0.33097	 	3.189316742E8	 	1.74941E-8	 	27084.14126	32.74191	 
865.0	1.0	0.0	7.68529	7.18249	-6.16504	17.07005	26.7414	1.04275	0.959	141.15599	139.07332	53.03277	0.33084	 	3.623508641E8	 	1.53305E-8	 	26920.74879	32.67849	 
860.0	1.0	0.0	7.6877	7.18024	-6.19449	17.0416	26.66631	1.0411	0.96053	141.56787	139.37149	53.19273	0.33071	 	4.121430369E8	 	1.34192E-8	 	26757.67167	32.61542	 
855.0	1.0	0.0	7.69011	7.17799	-6.22386	17.01317	26.5912	1.03943	0.96207	141.97908	139.66859	53.35248	0.33058	 	4.693104728E8	 	1.17326E-8	 	26594.90817	32.5527	 
850.0	1.0	0.0	7.69251	7.17575	-6.25314	16.98477	26.51606	1.03776	0.96362	142.38963	139.96459	53.51201	0.33045	 	5.35023442E8	 	1.02459E-8	 	26432.4566	32.49031	 
845.0	1.0	0.0	7.69491	7.17352	-6.28229	16.95663	26.44082	1.03608	0.96518	142.79798	140.25826	53.67072	0.33032	 	6.106073203E8	 	8.93768E-9	 	26273.975	31.69632	 
840.0	1.0	0.0	7.69729	7.1713	-6.31136	16.9285	26.36556	1.03439	0.96676	143.20575	140.55091	53.82925	0.33019	 	6.976968446E8	 	7.78706E-9	 	26112.54516	32.28597	 
835.0	1.0	0.0	7.69968	7.16908	-6.34035	16.9004	26.29028	1.03269	0.96835	143.61294	140.84255	53.98759	0.33005	 	7.981675116E8	 	6.77628E-9	 	25951.40358	32.22832	 
830.0	1.0	0.0	7.70205	7.16686	-6.36926	16.8723	26.21498	1.03098	0.96995	144.01954	141.13316	54.14575	0.32992	 	9.1422054E8	 	5.88939E-9	 	25790.54954	32.17081	 
825.0	1.0	0.0	7.70443	7.16466	-6.39809	16.84422	26.13967	1.02927	0.97157	144.42556	141.42277	54.30371	0.32979	 	1.048442887E9	 	5.11215E-9	 	25629.98231	32.11345	 
820.0	1.0	0.0	7.70679	7.16246	-6.42684	16.81615	26.06433	1.02754	0.9732	144.831	141.71136	54.46149	0.32966	 	1.203878955E9	 	4.43184E-9	 	25469.70116	32.05623	 
815.0	1.0	0.0	7.70916	7.16026	-6.45552	16.7881	25.98898	1.02581	0.97484	145.23586	141.99895	54.61908	0.32953	 	1.384116391E9	 	3.8371E-9	 	25309.70541	31.99915	 
810.0	1.0	0.0	7.71151	7.15807	-6.48411	16.76006	25.91361	1.02406	0.9765	145.64013	142.28553	54.77648	0.3294	 	1.593388894E9	 	3.31783E-9	 	25149.99429	31.94222	 
805.0	1.0	0.0	7.71387	7.15589	-6.51263	16.73203	25.83822	1.02231	0.97818	146.04383	142.5711	54.93369	0.32927	 	1.836699584E9	 	2.86502E-9	 	24990.56712	31.88543	 
800.0	1.0	0.0	7.71621	7.15371	-6.54107	16.70402	25.76282	1.02055	0.97987	146.44694	142.85568	55.09072	0.32914	 	2.119969264E9	 	2.47069E-9	 	24831.42318	31.82879	 
795.0	1.0	0.0	7.71856	7.15154	-6.56943	16.67602	25.68739	1.01878	0.98157	146.84947	143.13925	55.24756	0.32901	 	2.450214879E9	 	2.12772E-9	 	24672.56175	31.77229	 
790.0	1.0	0.0	7.72089	7.14938	-6.59771	16.64804	25.61195	1.01699	0.98329	147.25142	143.42184	55.40421	0.32888	 	2.835764623E9	 	1.82983E-9	 	24513.98211	31.71593	 
785.0	1.0	0.0	7.72322	7.14722	-6.62591	16.62007	25.53648	1.0152	0.98503	147.65279	143.70342	55.56067	0.32875	 	3.28651766E9	 	1.57144E-9	 	24355.68357	31.65971	 
780.0	1.0	0.0	7.72555	7.14507	-6.65404	16.59211	25.461	1.0134	0.98678	148.05358	143.98402	55.71694	0.32862	 	3.814258177E9	 	1.34762E-9	 	24197.6654	31.60363	 
775.0	1.0	0.0	7.72787	7.14292	-6.68209	16.56417	25.3855	1.01159	0.98854	148.45379	144.26363	55.87303	0.32849	 	4.433035739E9	 	1.15401E-9	 	24039.9269	31.5477	 
770.0	1.0	0.0	7.73019	7.14078	-6.71005	16.53624	25.30999	1.00977	0.99033	148.85342	144.54225	56.02893	0.32836	 	5.159626717E9	 	9.86768E-10	 	23882.46736	31.49191	 
765.0	1.0	0.0	7.7325	7.13864	-6.73795	16.50832	25.23445	1.00793	0.99213	149.25247	144.81989	56.18464	0.32823	 	6.014094952E9	 	8.42513E-10	 	23725.28607	31.43626	 
760.0	1.0	0.0	7.73481	7.13651	-6.76576	16.48042	25.15889	1.00609	0.99394	149.65094	145.09654	56.34016	0.3281	 	7.020474143E9	 	7.18263E-10	 	23568.38234	31.38075	 
755.0	1.0	0.0	7.73711	7.13439	-6.79349	16.45254	25.08332	1.00424	0.99578	150.04883	145.37222	56.49549	0.32797	 	8.207599786E9	 	6.11402E-10	 	23411.75545	31.32538	 
750.0	1.0	0.0	7.73941	7.13227	-6.82115	16.42466	25.00772	1.00238	0.99763	150.44614	145.64692	56.65064	0.32784	 	9.610125169E9	 	5.19633E-10	 	23255.40472	31.27015	 
745.0	1.0	0.0	7.7417	7.13016	-6.84873	16.3968	24.93211	1.0005	0.9995	150.84287	145.92064	56.8056	0.32771	 	1.12698E10	 	4.40944E-10	 	23099.32943	31.21506	 
740.0	1.0	0.0	7.74398	7.12806	-6.87623	16.36896	24.85648	0.99862	1.00138	151.23902	146.1934	56.96037	0.32758	 	1.3236799999999998E10	 	3.73574E-10	 	22943.52888	31.16011	 
735.0	1.0	0.0	7.74627	7.12596	-6.90365	16.34113	24.78083	0.99673	1.00329	151.63459	146.46518	57.11495	0.32745	 	1.5571999999999998E10	 	3.15985E-10	 	22788.00239	31.1053	 
730.0	1.0	0.0	7.74854	7.12387	-6.93099	16.31331	24.70515	0.99482	1.00521	152.02959	146.736	57.26935	0.32732	 	1.83489E10	 	2.66835E-10	 	22632.74925	31.05063	 
725.0	1.0	0.0	7.75081	7.12178	-6.95826	16.28551	24.62946	0.9929	1.00715	152.424	147.00585	57.42355	0.32719	 	2.16566E10	 	2.24954E-10	 	22477.76878	30.99609	 
720.0	1.0	0.0	7.75308	7.1197	-6.98545	16.25772	24.55376	0.99098	1.00911	152.81783	147.27474	57.57757	0.32706	 	2.5603099999999996E10	 	1.89325E-10	 	22323.06028	30.9417	 
715.0	1.0	0.0	7.75534	7.11762	-7.01256	16.22994	24.47803	0.98904	1.01108	153.21109	147.54267	57.73141	0.32693	 	3.0320299999999996E10	 	1.59066E-10	 	22168.62306	30.88744	 
710.0	1.0	0.0	7.75759	7.11555	-7.0396	16.20218	24.40228	0.98709	1.01308	153.60377	147.80964	57.88505	0.3268	 	3.59683E10	 	1.3341E-10	 	22014.45643	30.83333	 
705.0	1.0	0.0	7.75984	7.11349	-7.06655	16.17443	24.32651	0.98513	1.0151	153.99587	148.07565	58.0385	0.32667	 	4.27429E10	 	1.11693E-10	 	21860.55972	30.77934	 
700.0	1.0	0.0	7.76209	7.11143	-7.09343	16.1467	24.25072	0.98315	1.01714	154.38739	148.34071	58.19177	0.32654	 	5.088379999999999E10	 	9.33441E-11	 	21706.93223	30.7255	 
695.0	1.0	0.0	7.76433	7.10938	-7.12024	16.11898	24.17491	0.98117	1.01919	154.77833	148.60482	58.34485	0.32641	 	6.068439999999999E10	 	7.78669E-11	 	21553.57328	30.67179	 
690.0	1.0	0.0	7.76656	7.10733	-7.14696	16.09127	24.09909	0.97917	1.02127	155.16869	148.86798	58.49774	0.32628	 	7.2505E10	 	6.48354E-11	 	21400.48219	30.61822	 
685.0	1.0	0.0	7.76879	7.1053	-7.17361	16.06358	24.02324	0.97717	1.02337	155.55848	149.1302	58.65045	0.32615	 	8.67893E10	 	5.38833E-11	 	21247.65828	30.56478	 
680.0	1.0	0.0	7.77102	7.10326	-7.20018	16.0359	23.94737	0.97515	1.02549	155.94769	149.39147	58.80296	0.32602	 	1.04084E11	 	4.46955E-11	 	21095.10089	30.51148	 
675.0	1.0	0.0	7.77324	7.10123	-7.22667	16.00824	23.87148	0.97311	1.02763	156.33632	149.65179	58.95529	0.32589	 	1.25064E11	 	3.70024E-11	 	20942.80933	30.45831	 
670.0	1.0	0.0	7.77545	7.09921	-7.25309	15.98059	23.79557	0.97107	1.02979	156.72437	149.91118	59.10743	0.32576	 	1.50567E11	 	3.0573E-11	 	20790.78293	30.40528	 
665.0	1.0	0.0	7.77766	7.0972	-7.27943	15.95295	23.71965	0.96901	1.03198	157.11185	150.16963	59.25938	0.32563	 	1.81628E11	 	2.52102E-11	 	20639.02103	30.35238	 
660.0	1.0	0.0	7.77986	7.09519	-7.30569	15.92533	23.6437	0.96695	1.03418	157.49875	150.42714	59.41115	0.3255	 	2.19539E11	 	2.07457E-11	 	20487.52295	30.29962	 
655.0	1.0	0.0	7.78206	7.09318	-7.33188	15.89772	23.56773	0.96486	1.03641	157.88507	150.68372	59.56272	0.32537	 	2.65904E11	 	1.70365E-11	 	20336.28804	30.24698	 
650.0	1.0	0.0	7.78425	7.09118	-7.35798	15.87012	23.49174	0.96277	1.03867	158.27081	150.93937	59.71411	0.32524	 	3.22731E11	 	1.3961E-11	 	20185.31564	30.19448	 
645.0	1.0	0.0	7.78644	7.08919	-7.38401	15.84254	23.41573	0.96067	1.04095	158.65598	151.19409	59.86531	0.32511	 	3.9253E11	 	1.14164E-11	 	20034.60508	30.14211	 
640.0	1.0	0.0	7.78863	7.0872	-7.40997	15.81498	23.3397	0.95855	1.04325	159.04057	151.44789	60.01632	0.32498	 	4.78449E11	 	9.31521E-12	 	19884.1557	30.08988	 
635.0	1.0	0.0	7.7908	7.08522	-7.43585	15.78742	23.26364	0.95641	1.04557	159.42459	151.70075	60.16715	0.32485	 	5.84448E11	 	7.584E-12	 	19733.96686	30.03777	 
630.0	1.0	0.0	7.79298	7.08325	-7.46165	15.75988	23.18757	0.95427	1.04792	159.80802	151.9527	60.31778	0.32472	 	7.15513E11	 	6.16068E-12	 	19584.03791	29.98579	 
625.0	1.0	0.0	7.79514	7.08128	-7.48737	15.73236	23.11148	0.95211	1.0503	160.19089	152.20373	60.46823	0.32459	 	8.77947E11	 	4.99307E-12	 	19434.36818	29.93395	 
620.0	1.0	0.0	7.7973	7.07932	-7.51302	15.70485	23.03536	0.94994	1.0527	160.57317	152.45383	60.61849	0.32446	 	1.07973E12	 	4.03736E-12	 	19284.95706	29.88222	 
615.0	1.0	0.0	7.79946	7.07736	-7.53859	15.67735	22.95922	0.94775	1.05513	160.95488	152.70303	60.76856	0.32433	 	1.33098E12	 	3.25689E-12	 	19135.80387	29.83064	 
610.0	1.0	0.0	7.80161	7.07541	-7.56409	15.64987	22.88307	0.94555	1.05758	161.33601	152.9513	60.91844	0.3242	 	1.64458E12	 	2.62099E-12	 	18986.90799	29.77918	 
605.0	1.0	0.0	7.80376	7.07346	-7.58951	15.6224	22.80689	0.94334	1.06006	161.71657	153.19867	61.06814	0.32407	 	2.03698E12	 	2.10411E-12	 	18838.2688	29.72784	 
600.0	1.0	0.0	7.8059	7.07152	-7.61485	15.59494	22.73069	0.94111	1.06257	162.09655	153.44513	61.21765	0.32394	 	2.5292E12	 	1.68497E-12	 	18689.88564	29.67663	 
595.0	1.0	0.0	7.80803	7.06959	-7.64012	15.5675	22.65446	0.93887	1.06511	162.47596	153.69068	61.36697	0.32381	 	3.1482E12	 	1.34592E-12	 	18541.7579	29.62555	 
590.0	1.0	0.0	7.81016	7.06766	-7.66531	15.54007	22.57822	0.93662	1.06767	162.85479	153.93532	61.5161	0.32368	 	3.92865E12	 	1.07233E-12	 	18393.88494	29.57459	 
585.0	1.0	0.0	7.81229	7.06574	-7.69042	15.51266	22.50195	0.93435	1.07026	163.23304	154.17906	61.66504	0.32355	 	4.91524E12	 	8.52129E-13	 	18246.26617	29.52376	 
580.0	1.0	0.0	7.81441	7.06382	-7.71546	15.48526	22.42566	0.93207	1.07289	163.61072	154.4219	61.8138	0.32342	 	6.16575E12	 	6.75346E-13	 	18098.90093	29.47305	 
575.0	1.0	0.0	7.81652	7.06191	-7.74042	15.45787	22.34935	0.92977	1.07554	163.98782	154.66385	61.96236	0.32329	 	7.75512E12	 	5.33791E-13	 	17951.78863	29.42246	 
570.0	1.0	0.0	7.81863	7.06	-7.76531	15.4305	22.27302	0.92745	1.07822	164.36435	154.90489	62.11074	0.32316	 	9.78075E12	 	4.20745E-13	 	17804.92865	29.372	 
565.0	1.0	0.0	7.82074	7.05811	-7.79012	15.40314	22.19666	0.92512	1.08094	164.7403	155.14504	62.25893	0.32303	 	1.23697E13	 	3.30712E-13	 	17658.3204	29.32165	 
560.0	1.0	0.0	7.82283	7.05621	-7.81486	15.3758	22.12028	0.92278	1.08368	165.11568	155.3843	62.40693	0.3229	 	1.5688E13	 	2.59204E-13	 	17511.96326	29.27143	 
555.0	1.0	0.0	7.82493	7.05432	-7.83951	15.34847	22.04388	0.92042	1.08646	165.49049	155.62266	62.55475	0.32277	 	1.99538E13	 	2.02568E-13	 	17365.85664	29.22132	 
550.0	1.0	0.0	7.82701	7.05244	-7.8641	15.32115	21.96746	0.91805	1.08927	165.86471	155.86014	62.70237	0.32264	 	2.54537E13	 	1.57839E-13	 	17219.99996	29.17134	 
545.0	1.0	0.0	7.8291	7.05057	-7.8886	15.29385	21.89101	0.91566	1.09211	166.23837	156.09673	62.84981	0.3225	 	3.25663E13	 	1.22617E-13	 	17074.39262	29.12147	 
540.0	1.0	0.0	7.83117	7.0487	-7.91304	15.26656	21.81454	0.91325	1.09499	166.61145	156.33244	62.99706	0.32237	 	4.17929E13	 	9.49631E-14	 	16929.03402	29.07172	 
535.0	1.0	0.0	7.83325	7.04683	-7.93739	15.23928	21.73804	0.91083	1.0979	166.98395	156.56726	63.14412	0.32224	 	5.37993E13	 	7.33165E-14	 	16783.92361	29.02208	 
530.0	1.0	0.0	7.83531	7.04497	-7.96167	15.21202	21.66153	0.90839	1.10085	167.35588	156.80121	63.29099	0.32211	 	6.94731E13	 	5.64243E-14	 	16639.06079	28.97256	 
525.0	1.0	0.0	7.83737	7.04312	-7.98588	15.18478	21.58499	0.90594	1.10383	167.72724	157.03427	63.43767	0.32198	 	9.00012E13	 	4.32836E-14	 	16494.44501	28.92316	 
520.0	1.0	0.0	7.83943	7.04127	-8.01001	15.15754	21.50842	0.90347	1.10685	168.09802	157.26646	63.58417	0.32185	 	1.16976E14	 	3.30937E-14	 	16350.0757	28.87386	 
515.0	1.0	0.0	7.84148	7.03943	-8.03406	15.13032	21.43183	0.90098	1.1099	168.46823	157.49778	63.73048	0.32172	 	1.52542E14	 	2.52177E-14	 	16205.9523	28.82468	 
510.0	1.0	0.0	7.84353	7.0376	-8.05804	15.10312	21.35522	0.89848	1.11299	168.83786	157.72822	63.8766	0.32159	 	1.99598E14	 	1.91503E-14	 	16062.07427	28.77561	 
505.0	1.0	0.0	7.84556	7.03577	-8.08194	15.07593	21.27858	0.89596	1.11613	169.20692	157.95779	64.02253	0.32146	 	2.6207199999999997E14	 	1.4492E-14	 	15918.44106	28.72664	 
500.0	1.0	0.0	7.8476	7.03394	-8.10577	15.04875	21.20192	0.89342	1.1193	169.57541	158.18649	64.16827	0.32133	 	3.45316E14	 	1.09278E-14	 	15775.05212	28.67779	 
495.0	1.0	0.0	7.84963	7.03213	-8.12953	15.02159	21.12523	0.89086	1.12251	169.94332	158.41433	64.31382	0.3212	 	4.56638E14	 	8.21033E-15	 	15631.90692	28.62904	 
490.0	1.0	0.0	7.85165	7.03031	-8.15321	14.99444	21.04852	0.88829	1.12576	170.31066	158.6413	64.45919	0.32107	 	6.06063E14	 	6.14581E-15	 	15489.00493	28.5804	 
485.0	1.0	0.0	7.85367	7.02851	-8.17681	14.9673	20.97178	0.8857	1.12905	170.67743	158.86741	64.60436	0.32094	 	8.07392E14	 	4.58308E-15	 	15346.34564	28.53186	 
480.0	1.0	0.0	7.85568	7.02671	-8.20034	14.94018	20.89502	0.88309	1.13239	171.04362	159.09266	64.74935	0.32081	 	1.07971E15	 	3.40457E-15	 	15203.92852	28.48342	 
475.0	1.0	0.0	7.85769	7.02491	-8.22379	14.91307	20.81823	0.88046	1.13577	171.40924	159.31706	64.89415	0.32068	 	1.44948E15	 	2.5192E-15	 	15061.75308	28.43509	 
470.0	1.0	0.0	7.85969	7.02312	-8.24717	14.88598	20.74142	0.87782	1.13919	171.77429	159.54059	65.03876	0.32055	 	1.95363E15	 	1.85661E-15	 	14919.81882	28.38685	 
465.0	1.0	0.0	7.86169	7.02134	-8.27047	14.8589	20.66458	0.87515	1.14266	172.13876	159.76327	65.18318	0.32042	 	2.6438E15	 	1.36271E-15	 	14778.12523	28.33872	 
460.0	1.0	0.0	7.86368	7.01956	-8.2937	14.83183	20.58771	0.87247	1.14617	172.50266	159.9851	65.32742	0.32029	 	3.59257E15	 	9.96034E-16	 	14636.67185	28.29068	 
455.0	1.0	0.0	7.86567	7.01779	-8.31686	14.80478	20.51082	0.86977	1.14973	172.86598	160.20608	65.47146	0.32016	 	4.90243E15	 	7.2493E-16	 	14495.45819	28.24273	 
450.0	1.0	0.0	7.86765	7.01602	-8.33994	14.77774	20.4339	0.86705	1.15334	173.22874	160.4262	65.61532	0.32003	 	6.7187E15	 	5.25327E-16	 	14354.48378	28.19488	 
445.0	1.0	0.0	7.86962	7.01426	-8.36294	14.75072	20.35695	0.86431	1.157	173.59092	160.64549	65.75898	0.3199	 	9.24835E15	 	3.78999E-16	 	14213.74817	28.14712	 
440.0	1.0	0.0	7.87159	7.0125	-8.38588	14.72371	20.27998	0.86155	1.1607	173.95253	160.86392	65.90246	0.31977	 	1.27876E16	 	2.72194E-16	 	14073.2509	28.09945	 
435.0	1.0	0.0	7.87356	7.01075	-8.40873	14.69671	20.20298	0.85877	1.16446	174.31356	161.08151	66.04575	0.31964	 	1.7762400000000002E16	 	1.94585E-16	 	13932.99155	28.05187	 
430.0	1.0	0.0	7.87552	7.00901	-8.43151	14.66973	20.12595	0.85597	1.16827	174.67403	161.29827	66.18885	0.31951	 	2.47881E16	 	1.38449E-16	 	13792.96967	28.00438	 
425.0	1.0	0.0	7.87747	7.00727	-8.45422	14.64276	20.0489	0.85315	1.17213	175.03392	161.51418	66.33177	0.31938	 	3.4758300000000004E16	 	9.80339E-17	 	13653.18486	27.95696	 
420.0	1.0	0.0	7.87942	7.00554	-8.47686	14.6158	19.97181	0.85031	1.17605	175.39324	161.72926	66.47449	0.31925	 	4.8977E16	 	6.90751E-17	 	13513.63669	27.90963	 
415.0	1.0	0.0	7.88136	7.00381	-8.49942	14.58886	19.8947	0.84745	1.18002	175.75199	161.9435	66.61703	0.31912	 	6.9357000000000008E16	 	4.84261E-17	 	13374.32477	27.86238	 
410.0	1.0	0.0	7.8833	7.00209	-8.5219	14.56193	19.81756	0.84456	1.18404	176.11016	162.1569	66.75937	0.31899	 	9.87187E16	 	3.37756E-17	 	13235.2487	27.81521	 
405.0	1.0	0.0	7.88523	7.00038	-8.54431	14.53502	19.74038	0.84166	1.18813	176.46776	162.36948	66.90153	0.31886	 	1.41244E17	 	2.34338E-17	 	13096.40812	27.76812	 
400.0	1.0	0.0	7.88716	6.99867	-8.56665	14.50812	19.66318	0.83873	1.19227	176.82479	162.58122	67.0435	0.31873	 	2.03166E17	 	1.61714E-17	 	12957.80266	27.72109	 
395.0	1.0	0.0	7.88908	6.99696	-8.58891	14.48124	19.58595	0.83579	1.19648	177.18125	162.79214	67.18528	0.3186	 	2.93829E17	 	1.10985E-17	 	12819.43196	27.67414	 
390.0	1.0	0.0	7.89099	6.99526	-8.6111	14.45436	19.50869	0.83282	1.20074	177.53714	163.00223	67.32687	0.31847	 	4.27322E17	 	7.57431E-18	 	12681.2957	27.62725	 
385.0	1.0	0.0	7.8929	6.99357	-8.63322	14.42751	19.4314	0.82983	1.20507	177.89245	163.2115	67.46827	0.31834	 	6.25011E17	 	5.13954E-18	 	12543.39353	27.58043	 
380.0	1.0	0.0	7.89481	6.99188	-8.65526	14.40066	19.35408	0.82681	1.20947	178.2472	163.41994	67.60948	0.31821	 	9.19492E17	 	3.46698E-18	 	12405.72516	27.53367	 
375.0	1.0	0.0	7.89671	6.9902	-8.67723	14.37383	19.27673	0.82377	1.21392	178.60137	163.62757	67.75051	0.31808	 	1.3608E18	 	2.3247E-18	 	12268.29028	27.48698	 
370.0	1.0	0.0	7.8986	6.98853	-8.69912	14.34702	19.19935	0.82071	1.21845	178.95497	163.83437	67.89134	0.31795	 	2.02623E18	 	1.54921E-18	 	12131.08861	27.44033	 
365.0	1.0	0.0	7.90049	6.98686	-8.72094	14.32022	19.12193	0.81763	1.22305	179.308	164.04036	68.03199	0.31782	 	3.03593E18	 	1.02593E-18	 	11994.11989	27.39374	 
360.0	1.0	0.0	7.90237	6.98519	-8.74269	14.29343	19.04448	0.81452	1.22771	179.66046	164.24553	68.17244	0.31769	 	4.57793E18	 	6.75032E-19	 	11857.38386	27.34721	 
355.0	1.0	0.0	7.90425	6.98353	-8.76436	14.26665	18.967	0.81139	1.23245	180.01234	164.44989	68.31271	0.31756	 	6.94842E18	 	4.41229E-19	 	11720.88028	27.30072	 
350.0	1.0	0.0	7.90612	6.98188	-8.78596	14.23989	18.88949	0.80824	1.23726	180.36366	164.65344	68.45279	0.31743	 	1.06172E19	 	2.86463E-19	 	11584.60896	27.25426	 
345.0	1.0	0.0	7.90799	6.98023	-8.80749	14.21315	18.81194	0.80506	1.24215	180.7144	164.85618	68.59268	0.3173	 	1.63348E19	 	1.847E-19	 	11448.56968	27.20786	 
340.0	1.0	0.0	7.90985	6.97859	-8.82894	14.18642	18.73436	0.80185	1.24711	181.06457	165.05811	68.73238	0.31717	 	2.53086E19	 	1.18246E-19	 	11312.76227	27.16148	 
335.0	1.0	0.0	7.9117	6.97695	-8.85032	14.1597	18.65674	0.79862	1.25216	181.41418	165.25923	68.87189	0.31704	 	3.94957E19	 	7.51532E-20	 	11177.18657	27.11514	 
330.0	1.0	0.0	7.91355	6.97532	-8.87163	14.13299	18.57909	0.79537	1.25728	181.76321	165.45956	69.01121	0.31691	 	6.20921E19	 	4.74106E-20	 	11041.84244	27.06882	 
325.0	1.0	0.0	7.9154	6.9737	-8.89286	14.1063	18.50141	0.79208	1.26249	182.11167	165.65907	69.15034	0.31678	 	9.83575E19	 	2.96817E-20	 	10906.72977	27.02254	 
320.0	1.0	0.0	7.91723	6.97208	-8.91402	14.07963	18.42369	0.78878	1.26779	182.45956	165.85779	69.28929	0.31665	 	1.57017E20	 	1.84376E-20	 	10771.84845	26.97626	 
315.0	1.0	0.0	7.91907	6.97046	-8.93511	14.05296	18.34593	0.78544	1.27317	182.80688	166.05571	69.42804	0.31652	 	2.5266199999999997E20	 	1.13615E-20	 	10637.19842	26.93001	 
310.0	1.0	0.0	7.9209	6.96885	-8.95612	14.02631	18.26813	0.78208	1.27864	183.15363	166.25283	69.5666	0.31639	 	4.0989699999999997E20	 	6.94372E-21	 	10502.77963	26.88376	 
305.0	1.0	0.0	7.92272	6.96725	-8.97706	13.99968	18.1903	0.77869	1.2842	183.4998	166.44915	69.70498	0.31626	 	6.705709999999999E20	 	4.20806E-21	 	10368.59207	26.83751	 
300.0	1.0	0.0	7.92453	6.96565	-8.99793	13.97306	18.11243	0.77528	1.28986	183.84541	166.64469	69.84316	0.31613	 	1.10648E21	 	2.52819E-21	 	10234.63572	26.79127	 
295.0	1.0	0.0	7.92635	6.96406	-9.01872	13.94645	18.03452	0.77184	1.29561	184.19045	166.83943	69.98116	0.316	 	1.84193E21	 	1.50549E-21	 	10100.91064	26.74502	 
290.0	1.0	0.0	7.92815	6.96248	-9.03945	13.91986	17.95657	0.76836	1.30147	184.53492	167.03338	70.11897	0.31587	 	3.09408E21	 	8.8834E-22	 	9967.41688	26.69875	 
285.0	1.0	0.0	7.92995	6.9609	-9.0601	13.89328	17.87858	0.76486	1.30742	184.87881	167.22654	70.25658	0.31574	 	5.24597E21	 	5.19292E-22	 	9834.15452	26.65247	 
280.0	1.0	0.0	7.93175	6.95932	-9.08067	13.86671	17.80055	0.76133	1.31348	185.22214	167.41891	70.39401	0.31561	 	8.97977E21	 	3.00652E-22	 	9701.12371	26.60616	 
275.0	1.0	0.0	7.93354	6.95775	-9.10118	13.84016	17.72248	0.75778	1.31965	185.5649	167.6105	70.53125	0.31548	 	1.5522499999999998E22	 	1.72355E-22	 	9568.32457	26.55983	 
270.0	1.0	0.0	7.93532	6.95619	-9.12161	13.81362	17.64437	0.75419	1.32593	185.90708	167.80131	70.6683	0.31535	 	2.71042E22	 	9.78068E-23	 	9435.75733	26.51345	 
265.0	1.0	0.0	7.9371	6.95463	-9.14197	13.7871	17.56622	0.75057	1.33232	186.2487	167.99133	70.80515	0.31522	 	4.782E22	 	5.49263E-23	 	9303.42218	26.46703	 
260.0	1.0	0.0	7.93887	6.95308	-9.16226	13.76059	17.48802	0.74692	1.33883	186.58974	168.18058	70.94182	0.31509	 	8.52722E22	 	3.05161E-23	 	9171.31942	26.42055	 
255.0	1.0	0.0	7.94064	6.95153	-9.18247	13.73409	17.40978	0.74324	1.34546	186.93022	168.36904	71.0783	0.31496	 	1.53731E23	 	1.67681E-23	 	9039.44932	26.37402	 
250.0	1.0	0.0	7.9424	6.94999	-9.20261	13.70761	17.33149	0.73953	1.35221	187.27013	168.55673	71.21459	0.31483	 	2.8029E23	 	9.10973E-24	 	8907.81224	26.32741	 
245.0	1.0	0.0	7.94415	6.94845	-9.22268	13.68114	17.25315	0.73579	1.35909	187.60947	168.74365	71.35069	0.3147	 	5.1699599999999994E23	 	4.89164E-24	 	8776.40858	26.28073	 
240.0	1.0	0.0	7.94591	6.94692	-9.24268	13.65469	17.17477	0.73201	1.36609	187.94823	168.92979	71.4866	0.31457	 	9.65049E23	 	2.59527E-24	 	8645.23877	26.23396	 
235.0	1.0	0.0	7.94765	6.9454	-9.2626	13.62825	17.09635	0.72821	1.37324	188.28643	169.11516	71.62232	0.31444	 	1.82367E24	 	1.35998E-24	 	8514.30328	26.1871	 
230.0	1.0	0.0	7.94939	6.94388	-9.28246	13.60182	17.01787	0.72437	1.38052	188.62406	169.29976	71.75785	0.31431	 	3.49007E24	 	7.03639E-25	 	8383.60264	26.14013	 
225.0	1.0	0.0	7.95112	6.94236	-9.30224	13.57541	16.93934	0.72049	1.38794	188.96112	169.4836	71.89319	0.31418	 	6.76679E24	 	3.59306E-25	 	8253.13746	26.09304	 
220.0	1.0	0.0	7.95285	6.94085	-9.32195	13.54901	16.86076	0.71659	1.39551	189.29761	169.66666	72.02834	0.31405	 	1.3297200000000001E25	 	1.81011E-25	 	8122.90836	26.04582	 
215.0	1.0	0.0	7.95457	6.93935	-9.34158	13.52263	16.78214	0.71264	1.40323	189.63353	169.84896	72.1633	0.31392	 	2.64942E25	 	8.99269E-26	 	7992.91603	25.99847	 
210.0	1.0	0.0	7.95629	6.93785	-9.36115	13.49626	16.70345	0.70867	1.4111	189.96888	170.0305	72.29807	0.31379	 	5.354710000000001E25	 	4.40386E-26	 	7863.16126	25.95095	 
205.0	1.0	0.0	7.958	6.93636	-9.38064	13.4699	16.62472	0.70465	1.41914	190.30366	170.21128	72.43265	0.31366	 	1.0982800000000001E26	 	2.1249E-26	 	7733.64485	25.90328	 
200.0	1.0	0.0	7.95971	6.93487	-9.40006	13.44356	16.54593	0.70061	1.42734	190.63788	170.3913	72.56704	0.31353	 	2.2870800000000004E26	 	1.00973E-26	 	7604.3677	25.85543	 
195.0	1.0	0.0	7.96141	6.93339	-9.41941	13.41723	16.46708	0.69652	1.43571	190.97152	170.57056	72.70124	0.3134	 	4.8379000000000005E26	 	4.72296E-27	 	7475.33077	25.80739	 
190.0	1.0	0.0	7.9631	6.93192	-9.43869	13.39091	16.38817	0.6924	1.44425	191.3046	170.74906	72.83525	0.31327	 	1.04006E27	 	2.17346E-27	 	7346.5351	25.75913	 
185.0	1.0	0.0	7.96479	6.93045	-9.4579	13.36461	16.30921	0.68824	1.45298	191.6371	170.92681	72.96907	0.31314	 	2.2735899999999998E27	 	9.83516E-28	 	7217.98181	25.71066	 
180.0	1.0	0.0	7.96648	6.92898	-9.47703	13.33833	16.23018	0.68405	1.46189	191.96904	171.1038	73.1027	0.31301	 	5.05666E27	 	4.37386E-28	 	7089.6721	25.66194	 
175.0	1.0	0.0	7.96815	6.92752	-9.4961	13.31205	16.15109	0.67981	1.471	192.30041	171.28005	73.23614	0.31288	 	1.1448800000000001E28	 	1.91051E-28	 	6961.60726	25.61297	 
170.0	1.0	0.0	7.96983	6.92607	-9.51509	13.28579	16.07194	0.67554	1.48031	192.63121	171.45554	73.36939	0.31275	 	2.64038E28	 	8.19164E-29	 	6833.78868	25.56372	 
165.0	1.0	0.0	7.97149	6.92462	-9.53401	13.25955	15.99272	0.67122	1.48982	192.96144	171.63029	73.50245	0.31262	 	6.20662E28	 	3.44552E-29	 	6706.21782	25.51417	 
160.0	1.0	0.0	7.97315	6.92318	-9.55286	13.23332	15.91344	0.66687	1.49955	193.2911	171.80428	73.63532	0.31249	 	1.4880300000000002E29	 	1.42073E-29	 	6578.89629	25.4643	 
155.0	1.0	0.0	7.97481	6.92174	-9.57164	13.2071	15.83409	0.66247	1.50949	193.6202	171.97754	73.768	0.31236	 	3.64117E29	 	5.73908E-30	 	6451.82578	25.4141	 
150.0	1.0	0.0	7.97646	6.92031	-9.59034	13.18089	15.75466	0.65804	1.51967	193.94872	172.15005	73.90049	0.31223	 	9.10023E29	 	2.26949E-30	 	6325.0081	25.36354	 
145.0	1.0	0.0	7.9781	6.91888	-9.60898	13.1547	15.67517	0.65356	1.53008	194.27668	172.32182	74.03278	0.3121	 	2.3247599999999998E30	 	8.77892E-31	 	6198.4452	25.31258	 
140.0	1.0	0.0	7.97974	6.91746	-9.62754	13.12853	15.5956	0.64904	1.54074	194.60407	172.49284	74.16489	0.31197	 	6.07522E30	 	3.31919E-31	 	6072.13913	25.26121	 
135.0	1.0	0.0	7.98138	6.91605	-9.64604	13.10237	15.51595	0.64448	1.55165	194.93089	172.66313	74.29681	0.31184	 	1.62543E31	 	1.22557E-31	 	5946.0921	25.20941	 
130.0	1.0	0.0	7.983	6.91464	-9.66446	13.07622	15.43622	0.63987	1.56282	195.25714	172.83268	74.42853	0.31171	 	4.45631E31	 	4.41548E-32	 	5820.30649	25.15712	 
125.0	1.0	0.0	7.98463	6.91323	-9.68281	13.05008	15.35641	0.63522	1.57426	195.58282	173.0015	74.56007	0.31158	 	1.2531E32	 	1.55078E-32	 	5694.7848	25.10434	 
120.0	1.0	0.0	7.98624	6.91183	-9.70109	13.02396	15.27652	0.63052	1.58599	195.90794	173.16958	74.69141	0.31145	 	3.61754E32	 	5.30434E-33	 	5569.5297	25.05102	 
115.0	1.0	0.0	7.98785	6.91044	-9.7193	12.99786	15.19654	0.62578	1.59801	196.23249	173.33693	74.82257	0.31132	 	1.07326E33	 	1.76515E-33	 	5444.54408	24.99713	 
110.0	1.0	0.0	7.98946	6.90905	-9.73744	12.97177	15.11647	0.62099	1.61033	196.55647	173.50355	74.95353	0.31119	 	3.27584E33	 	5.70864E-34	 	5319.83096	24.94262	 
105.0	1.0	0.0	7.99106	6.90767	-9.75551	12.94569	15.03631	0.61615	1.62297	196.87988	173.66944	75.08431	0.31106	 	1.02981E34	 	1.79223E-34	 	5195.3936	24.88747	 
100.0	1.0	0.0	7.99265	6.90629	-9.7735	12.91962	14.95605	0.61127	1.63594	197.20272	173.8346	75.21489	0.31093	 	3.33826E34	 	5.45569E-35	 	5071.23547	24.83162	 
95.0	1.0	0.0	7.99424	6.90492	-9.79143	12.89357	14.8757	0.60634	1.64925	197.525	173.99903	75.34528	0.3108	 	1.1172699999999999E35	 	1.60825E-35	 	4947.36029	24.77504	 
90.0	1.0	0.0	7.99582	6.90355	-9.80929	12.86754	14.79524	0.60135	1.66291	197.84671	174.16274	75.47548	0.31067	 	3.86583E35	 	4.5849E-36	 	4823.77197	24.71766	 
85.0	1.0	0.0	7.9974	6.90219	-9.82707	12.84151	14.71468	0.59632	1.67695	198.16785	174.32573	75.60549	0.31054	 	1.38478E36	 	1.26233E-36	 	4700.47474	24.65945	 
80.0	1.0	0.0	7.99897	6.90083	-9.84479	12.8155	14.63401	0.59124	1.69137	198.48842	174.48799	75.73531	0.31041	 	5.1429E36	 	3.35149E-37	 	4577.47307	24.60033	 
75.0	1.0	0.0	8.00054	6.89948	-9.86243	12.78951	14.55322	0.5861	1.70619	198.80842	174.64954	75.86494	0.31028	 	1.98337E37	 	8.56741E-38	 	4454.77179	24.54026	 
70.0	1.0	0.0	8.0021	6.89814	-9.88001	12.76353	14.47232	0.58091	1.72142	199.12786	174.81037	75.99437	0.31015	 	7.955759999999999E37	 	2.10518E-38	 	4332.37599	24.47916	 
65.0	1.0	0.0	8.00365	6.8968	-9.89751	12.73756	14.39129	0.57567	1.7371	199.44673	174.97048	76.12362	0.31002	 	3.32507E38	 	4.96359E-39	 	4210.29114	24.41697	 
60.0	1.0	0.0	8.0052	6.89546	-9.91495	12.71161	14.31014	0.57038	1.75323	199.76503	175.12987	76.25267	0.30989	 	1.4506500000000002E39	 	1.12089E-39	 	4088.52307	24.35361	 
55.0	1.0	0.0	8.00675	6.89413	-9.93231	12.68567	14.22886	0.56503	1.76983	200.08276	175.28855	76.38154	0.30976	 	6.61944E39	 	2.41957E-40	 	3967.07805	24.289	 
50.0	1.0	0.0	8.00828	6.89281	-9.9496	12.65974	14.14744	0.55962	1.78693	200.39993	175.44652	76.51021	0.30963	 	3.16578E40	 	4.98207E-41	 	3845.96274	24.22306	 
45.0	1.0	0.0	8.00982	6.89149	-9.96683	12.63383	14.06587	0.55416	1.80455	200.71653	175.60377	76.63869	0.3095	 	1.59039E41	 	9.76373E-42	 	3725.18429	24.15569	 
40.0	1.0	0.0	8.01134	6.89018	-9.98398	12.60793	13.98416	0.54863	1.82271	201.03256	175.76032	76.76698	0.30937	 	8.412240000000001E41	 	1.81689E-42	 	3604.75035	24.08679	 
35.0	1.0	0.0	8.01286	6.88887	-10.00107	12.58205	13.90229	0.54305	1.84144	201.34803	175.91616	76.89508	0.30924	 	4.69673E42	 	3.20223E-43	 	3484.66911	24.01625	 
30.0	1.0	0.0	8.01438	6.88757	-10.01808	12.55618	13.82026	0.53741	1.86077	201.66293	176.07129	77.02299	0.30911	 	2.77535E43	 	5.33122E-44	 	3364.94936	23.94395	 
25.0	1.0	0.0	8.01589	6.88627	-10.03502	 	13.73806	0.53171	1.88072	201.97726	176.22572	77.15071	0.30898	 	1.7406700000000002E44	 	8.35997E-45	 	3245.60055	 	 
