T (C)	Fraction solid (wt)-TOTAL	Fraction liquid (wt)-LIQUID	Density (g/(cm)^3)-TOTAL	Molar volume (cm^3)-TOTAL	Volume change (%)-  	Average expansion coeff. (10e-6 1/K)-  	Thermal conductivity (W/(m*K))-TOTAL	Electrical resistivity (10e-6 Ohm*m)-TOTAL	Electrical conductivity (10e6 1/(Ohm*m))-TOTAL	Young's modulus (GPa)-TOTAL	Bulk modulus (GPa)-TOTAL	Shear modulus(GPa)-TOTAL	Poisson's ratio-TOTAL	Liquid viscosity (mPa s)-  	Total viscosity (mPa s)-  	Liquid diffusivity (10e-9 (m^2)/s)-  	Total diffusivity (10e-9 (m^2)/s)-  	Surface Tension (mN/m)-  	Enthalpy (J/mole)-TOTAL	Specific heat (J/(mole K))-TOTAL	Latent heat (J/mole)-TOTAL
1400.0	0.0	1.0	7.35296	7.84625	0.0	27.47277	29.19229	1.40421	0.71214	0.0	122.37508	0.0	0.5	8.21298	8.21298	0.99431	0.99431	1740.37898	58147.459	 	0.0
1395.0	0.0	1.0	7.35685	7.84211	-0.052837	27.42991	29.12092	1.40345	0.71253	0.0	122.55299	0.0	0.5	8.30004	8.30004	0.98094	0.98094	1741.72296	57942.133	41.0652	0.0
1390.0	0.0	1.0	7.36073	7.83798	-0.10552	27.38715	29.04954	1.40268	0.71292	0.0	122.73091	0.0	0.5	8.38855	8.38855	0.96768	0.96768	1743.0569	57737.276	40.9714	0.0
1385.0	0.0	1.0	7.3646	7.83385	-0.15805	27.34449	28.97816	1.40191	0.71331	0.0	122.90882	0.0	0.5	8.47855	8.47855	0.95453	0.95453	1744.38062	57532.885	40.8782	0.0
1380.0	0.0	1.0	7.36846	7.82974	-0.21043	27.30194	28.90677	1.40113	0.71371	0.0	123.08673	0.0	0.5	8.57007	8.57007	0.94149	0.94149	1745.69395	57328.959	40.7852	0.0
1375.0	0.0	1.0	7.37232	7.82565	-0.26266	27.25949	28.83538	1.40035	0.71411	0.0	123.26465	0.0	0.5	8.66314	8.66314	0.92856	0.92856	1746.9967	57125.494	40.693	0.0
1370.0	0.0	1.0	7.37617	7.82156	-0.31474	27.21714	28.76399	1.39957	0.71451	0.0	123.44256	0.0	0.5	8.7578	8.7578	0.91573	0.91573	1748.28869	56922.489	40.601	0.0
1365.0	0.0	1.0	7.38002	7.81749	-0.36666	27.1749	28.69259	1.39878	0.71491	0.0	123.62048	0.0	0.5	8.85408	8.85408	0.90302	0.90302	1749.56972	56719.939	40.51	0.0
1360.0	0.0	1.0	7.38385	7.81342	-0.41843	27.13277	28.62119	1.39799	0.71531	0.0	123.79839	0.0	0.5	8.95201	8.95201	0.89041	0.89041	1750.83962	56517.844	40.419	0.0
1355.0	0.0	1.0	7.38768	7.80937	-0.47004	27.09074	28.54979	1.3972	0.71572	0.0	123.9763	0.0	0.5	9.05165	9.05165	0.87792	0.87792	1752.0982	56316.2	40.3288	0.0
1350.0	0.0	1.0	7.39151	7.80534	-0.52151	27.04883	28.47838	1.3964	0.71613	0.0	124.15422	0.0	0.5	9.15301	9.15301	0.86553	0.86553	1753.34526	56115.004	40.2392	0.0
1345.0	0.0	1.0	7.39532	7.80131	-0.57282	27.00702	28.40696	1.3956	0.71654	0.0	124.33213	0.0	0.5	9.25615	9.25615	0.85325	0.85325	1754.58063	55914.256	40.1496	0.0
1340.0	0.0	1.0	7.39913	7.7973	-0.62398	26.96533	28.33555	1.39479	0.71695	0.0	124.51004	0.0	0.5	9.36109	9.36109	0.84108	0.84108	1755.80411	55713.951	40.061	0.0
1338.88	0.0	1.0	7.39998	7.7964	-0.63537	26.95605	28.31961	1.39461	0.71705	0.0	124.54974	0.0	0.5	9.38476	9.38476	0.83837	0.83837	1756.07543	55669.327	40.00323	0.0
1335.0	0.0720805	0.92792	7.41476	7.78091	-0.83284	26.47658	28.55082	1.37998	0.72465	0.00265019	124.37712	8.8957E-4	0.48959	9.47471	11.60484	0.82841	0.67635	1754.54698	54584.169	279.35662	929.919
1330.0	0.15439	0.84561	7.432	7.76283	-1.06327	25.92273	28.81172	1.36324	0.73355	0.0564151	124.20122	0.01909	0.4776	9.59139	38.11045	0.81579	0.20531	1752.61263	53327.213	251.3912	1987.45
1325.0	0.22615	0.77385	7.44743	7.74681	-1.26743	25.43962	29.03569	1.3485	0.74156	0.26246	124.07953	0.0894497	0.46708	9.7093	142.26456	0.80337	0.0548286	1750.7076	52210.36	223.3706	2905.317
1320.0	0.28912	0.71088	7.46135	7.73233	-1.45192	25.00916	29.22819	1.33543	0.74882	0.70796	124.00117	0.24282	0.45777	9.82838	382.07966	0.79115	0.0203512	1748.8338	51210.546	199.9628	3706.578
1315.0	0.34467	0.65533	7.47399	7.71924	-1.61886	24.62585	29.39376	1.32374	0.75544	1.44296	123.96199	0.49775	0.44949	9.94877	807.38063	0.77913	0.00960063	1746.98843	50309.205	180.2682	4409.799
1310.0	0.39397	0.60603	7.48553	7.70733	-1.77055	24.28358	29.53604	1.31321	0.76149	2.48365	123.9569	0.86112	0.44209	10.0706	1458.04869	0.76728	0.00529952	1745.16962	49491.266	163.5878	5030.048
1305.0	0.4379	0.5621	7.49613	7.69641	-1.90981	23.9747	29.65792	1.30369	0.76705	3.82113	123.9809	1.33098	0.43545	10.19377	2365.11668	0.75561	0.00325673	1743.37706	48744.404	149.3724	5579.647
1300.0	0.47724	0.52276	7.50594	7.68631	-2.03848	23.6942	29.76175	1.29502	0.77219	5.43129	124.03037	1.89976	0.42946	10.31845	3553.61468	0.74412	0.00216066	1741.60966	48058.465	137.1878	6068.749
1295.0	0.51262	0.48738	7.51504	7.67699	-2.15732	23.44021	29.84964	1.28711	0.77694	7.2813	124.10303	2.55656	0.42404	10.44474	5044.53205	0.73279	0.00151724	1739.86477	47425.03	126.687	6505.77
1290.0	0.54456	0.45544	7.52354	7.66823	-2.26889	23.20553	29.92322	1.27985	0.78134	9.33583	124.19438	3.28933	0.41911	10.57264	6857.06767	0.72161	0.00111263	1738.14429	46837.075	117.591	6897.732
1285.0	0.57349	0.42651	7.53151	7.66009	-2.37261	22.99214	29.98418	1.27316	0.78545	11.55845	124.30439	4.08537	0.41461	10.70221	9009.7381	0.7106	8.4408E-4	1736.44299	46288.703	109.6744	7250.53
1283.53	0.5814	0.4186	7.53375	7.65781	-2.40169	22.93332	29.99955	1.27131	0.78659	12.23149	124.34099	4.32703	0.41338	10.74081	9704.6584	0.70737	7.82898E-4	1735.94162	46135.191	 	7346.503
1280.0	0.62246	0.37754	7.54459	7.64678	-2.54229	22.58201	30.13426	1.26275	0.79192	16.11507	124.39034	5.72834	0.40661	10.82992	13315.19413	0.69996	5.69315E-4	1732.55893	45427.24	172.2926	7916.836
1275.0	0.67332	0.32668	7.55837	7.63285	-2.71987	22.1451	30.29251	1.25211	0.79865	22.2381	124.46214	7.9527	0.39815	10.95921	19437.64231	0.68948	3.88737E-4	1727.8692	44531.447	179.1586	8617.887
1270.0	0.71603	0.28397	7.57038	7.62072	-2.87442	21.77337	30.41392	1.24309	0.80445	28.71358	124.54868	10.32142	0.39097	11.09202	26560.50419	0.67902	2.83569E-4	1723.318	43753.597	155.57	9201.407
1265.0	0.75213	0.24787	7.58097	7.61008	-3.01003	21.45531	30.50488	1.23537	0.80948	35.29887	124.65137	12.7447	0.38485	11.22836	34600.24371	0.6686	2.16973E-4	1718.9157	43071.008	136.5178	9690.075
1260.0	0.78279	0.21721	7.59039	7.60062	-3.13056	21.17998	30.5704	1.22871	0.81386	41.80536	124.76916	15.15141	0.37959	11.36828	43487.89231	0.65823	1.72069E-4	1714.67415	42465.978	121.006	10101.592
1255.0	0.809	0.191	7.59884	7.59218	-3.23815	20.94148	30.61481	1.22293	0.81771	48.10399	124.90249	17.49171	0.37505	11.51192	53184.58226	0.6479	1.40238E-4	1710.5988	41924.565	108.2826	10449.9
1251.97	0.82278	0.17722	7.60351	7.58753	-3.29743	20.81386	30.63202	1.21982	0.81979	51.71727	124.99341	18.83854	0.37265	11.60054	59368.79779	0.64167	1.25381E-4	1708.21181	41626.087	 	10631.663
1250.0	0.83401	0.16599	7.60725	7.58386	-3.34422	20.70561	30.64404	1.21776	0.82118	54.8125	125.12066	19.99401	0.37072	11.61309	64399.71213	0.64015	1.15437E-4	1705.01966	41398.665	105.18	10783.097
1245.0	0.86001	0.13999	7.61625	7.57507	-3.45627	20.44965	30.66332	1.213	0.8244	62.56711	125.43741	22.89761	0.36624	11.64576	78065.0748	0.63626	9.49171E-5	1697.02665	40856.577	108.4176	11132.886
1240.0	0.88173	0.11827	7.62434	7.56723	-3.55612	20.22881	30.66559	1.20892	0.82719	69.73633	125.75073	25.59238	0.36244	11.67903	92572.08728	0.63236	7.9779E-5	1689.22598	40373.954	96.5246	11423.612
1235.0	0.89999	0.10001	7.63166	7.56016	-3.6462	20.03611	30.65427	1.20537	0.82962	76.28967	126.06178	28.06384	0.35922	11.71273	107913.7833	0.62845	6.8211E-5	1681.62976	39939.591	86.8726	11666.484
1230.0	0.91538	0.084618	7.63836	7.55374	-3.72807	19.86713	30.63201	1.20224	0.83178	82.23907	126.37195	30.3139	0.35646	11.74677	124126.772	0.62455	5.91049E-5	1674.24357	39544.727	78.9728	11870.258
1225.0	0.92842	0.071581	7.64454	7.54784	-3.80333	19.71714	30.60074	1.19947	0.8337	87.61005	126.68141	32.35022	0.35409	11.78097	141259.3297	0.62067	5.17636E-5	1667.07783	39182.451	72.4552	12041.844
1220.0	0.93949	0.0605056	7.65048	7.54236	-3.87318	19.58274	30.56294	1.19695	0.83546	92.45308	126.99372	34.19062	0.35202	11.8154	159383.2764	0.6168	4.57243E-5	1668.38919	38842.57892	67.97442	12186.742
1215.0	0.94893	0.051071	7.6551	7.5374	-3.93628	19.46823	30.52623	1.19437	0.83726	96.7663	127.24654	35.83373	0.35021	11.84998	178911.4038	0.61294	4.05971E-5	1669.69417	38522.34949	64.04589	12309.371
1210.0	0.95698	0.043018	7.65962	7.53271	-3.99613	19.36293	30.48306	1.19204	0.83889	100.63487	127.51592	37.30977	0.34864	11.88469	199653.9657	0.60909	3.62572E-5	1670.99497	38221.41746	60.18641	12413.312
1205.0	0.96387	0.0361318	7.66406	7.52824	-4.05309	19.26584	30.4332	1.18997	0.84036	104.10223	127.7992	38.63454	0.34727	11.91974	221729.5049	0.60526	3.25373E-5	1672.29046	37936.8421	56.91507	12501.496
1200.0	0.96977	0.0302341	7.66843	7.52396	-4.1076	19.17566	30.37977	1.18803	0.84173	107.2099	128.09384	39.82331	0.34607	11.95521	245271.5979	0.60142	2.93148E-5	1673.58401	37666.18976	54.13047	12576.353
1195.0	0.97472	0.0252789	7.67267	7.51989	-4.15955	19.09285	30.32212	1.18625	0.84299	109.94984	128.39931	40.87249	0.34503	11.99308	270319.5089	0.59748	2.65082E-5	1674.86858	37408.39971	51.55801	12638.941
1190.0	0.97905	0.0209488	7.67687	7.51593	-4.20991	19.01437	30.2615	1.18458	0.84418	112.44612	128.71098	41.82925	0.34411	12.03143	297242.8625	0.59355	2.4025E-5	1676.15628	37159.83018	49.71391	12692.892
1185.0	0.98275	0.0172454	7.68099	7.51213	-4.25836	18.94131	30.19824	1.18301	0.8453	114.68006	129.02696	42.68618	0.34329	12.07007	326110.8533	0.58963	2.18235E-5	1677.44505	36920.39144	47.88775	12738.291
1180.0	0.99043	0.00956605	7.68695	7.50664	-4.32837	18.79836	30.14633	1.18098	0.84676	118.70042	129.38422	44.23226	0.34179	12.15093	363997.0094	0.5837	1.9485E-5	1678.69811	36618.43369	60.39155	12846.784
1175.0	0.99597	0.0040271	7.69213	7.50182	-4.38975	18.68202	30.08553	1.17929	0.84797	121.84223	129.7352	45.44143	0.34065	12.23793	402740.0981	0.57755	1.75499E-5	1679.9557	36348.35414	54.01591	12923.968
1170.0	1.0	0.0	7.69672	7.49751	-4.44475	18.58535	30.01907	1.17782	0.84902	125.04827	130.08005	46.66745	0.33978	 	442959.8567	 	1.59013E-5	 	36101.03897	49.46303	12978.948
1165.0	1.0	0.0	7.69938	7.49492	-4.47769	18.55961	29.94612	1.1766	0.8499	125.47194	130.38098	46.83157	0.33961	 	479399.9355	 	1.46417E-5	 	35924.82112	35.24357	 
1160.0	1.0	0.0	7.70203	7.49235	-4.51055	18.53396	29.8731	1.17538	0.85079	125.89474	130.68085	46.99538	0.33944	 	519110.1769	 	1.34747E-5	 	35750.67653	34.82892	 
1155.0	1.0	0.0	7.70467	7.48978	-4.5433	18.50839	29.80001	1.17415	0.85168	126.31668	130.97967	47.15889	0.33927	 	562408.3189	 	1.23939E-5	 	35576.97234	34.74084	 
1150.0	1.0	0.0	7.70731	7.48721	-4.57597	18.4829	29.72685	1.17292	0.85257	126.73777	131.27742	47.32211	0.3391	 	609645.2793	 	1.13936E-5	 	35403.70447	34.65357	 
1145.0	1.0	0.0	7.70994	7.48466	-4.60854	18.45749	29.65362	1.17168	0.85347	127.15801	131.57412	47.48503	0.33893	 	661208.9371	 	1.04682E-5	 	35230.86886	34.56712	 
1140.0	1.0	0.0	7.71256	7.48211	-4.64102	18.43215	29.58032	1.17045	0.85438	127.5774	131.86976	47.64766	0.33876	 	717528.2367	 	9.61249E-6	 	35058.46143	34.48149	 
1135.0	1.0	0.0	7.71518	7.47957	-4.67341	18.40688	29.50696	1.1692	0.85528	127.99595	132.16435	47.80999	0.33859	 	779077.809	 	8.82175E-6	 	34886.47763	34.39676	 
1130.0	1.0	0.0	7.7178	7.47703	-4.70571	18.38169	29.43354	1.16796	0.85619	128.41366	132.45788	47.97204	0.33842	 	846383.3209	 	8.0914E-6	 	34714.91439	34.31265	 
1125.0	1.0	0.0	7.72041	7.47451	-4.73792	18.35658	29.36005	1.16671	0.85711	128.83054	132.75035	48.13379	0.33825	 	920027.1342	 	7.4172E-6	 	34543.76719	34.22944	 
1120.0	1.0	0.0	7.72301	7.47198	-4.77005	18.33153	29.2865	1.16546	0.85803	129.2466	133.04178	48.29526	0.33809	 	1000655.016	 	6.79517E-6	 	34373.03202	34.14703	 
1115.0	1.0	0.0	7.72561	7.46947	-4.80208	18.30654	29.21289	1.1642	0.85896	129.66183	133.33214	48.45645	0.33792	 	1088983.408	 	6.2216E-6	 	34202.70486	34.06543	 
1110.0	1.0	0.0	7.72821	7.46696	-4.83403	18.28163	29.13923	1.16294	0.85989	130.07625	133.62146	48.61736	0.33776	 	1185807.833	 	5.69301E-6	 	34032.78177	33.98462	 
1105.0	1.0	0.0	7.73079	7.46446	-4.86589	18.25678	29.0655	1.16168	0.86083	130.48986	133.90973	48.77798	0.33759	 	1292012.045	 	5.20615E-6	 	33863.25876	33.9046	 
1100.0	1.0	0.0	7.73338	7.46197	-4.89767	18.232	28.99172	1.16041	0.86177	130.90266	134.19694	48.93833	0.33742	 	1408578.59	 	4.75799E-6	 	33694.13194	33.82536	 
1095.0	1.0	0.0	7.73596	7.45948	-4.92936	18.20727	28.91788	1.15913	0.86271	131.31466	134.48311	49.0984	0.33726	 	1536600.624	 	4.3457E-6	 	33525.39739	33.74691	 
1090.0	1.0	0.0	7.73853	7.457	-4.96097	18.18261	28.84398	1.15786	0.86367	131.72587	134.76823	49.2582	0.3371	 	1677295.216	 	3.96662E-6	 	33357.05124	33.66923	 
1085.0	1.0	0.0	7.7411	7.45453	-4.9925	18.15801	28.77004	1.15657	0.86462	132.13629	135.0523	49.41773	0.33693	 	1832018.205	 	3.6183E-6	 	33189.08967	33.59231	 
1080.0	1.0	0.0	7.74366	7.45206	-5.02394	18.13346	28.69604	1.15529	0.86559	132.54593	135.33533	49.57699	0.33677	 	2002281.371	 	3.29843E-6	 	33021.5084	33.51625	 
1075.0	1.0	0.0	7.74622	7.4496	-5.0553	18.10898	28.62199	1.154	0.86655	132.95478	135.61731	49.73599	0.33661	 	2189771.361	 	3.00487E-6	 	32854.30332	33.44102	 
1070.0	1.0	0.0	7.74877	7.44715	-5.08658	18.08454	28.54789	1.1527	0.86753	133.36287	135.89825	49.89472	0.33644	 	2396371.458	 	2.73563E-6	 	32687.47056	33.36655	 
1065.0	1.0	0.0	7.75132	7.4447	-5.11777	18.06017	28.47374	1.1514	0.86851	133.77019	136.17815	50.05319	0.33628	 	2624185.89	 	2.48884E-6	 	32521.00639	33.29283	 
1060.0	1.0	0.0	7.75386	7.44226	-5.14889	18.03584	28.39954	1.1501	0.86949	134.17675	136.45702	50.2114	0.33612	 	2875567.603	 	2.26278E-6	 	32354.90708	33.21986	 
1055.0	1.0	0.0	7.7564	7.43982	-5.17993	18.01157	28.3253	1.14878	0.87049	134.58255	136.73484	50.36935	0.33596	 	3153149.844	 	2.05584E-6	 	32189.169	33.14762	 
1050.0	1.0	0.0	7.75893	7.4374	-5.21088	17.98735	28.25101	1.14747	0.87148	134.9876	137.01163	50.52705	0.3358	 	3459881.301	 	1.86653E-6	 	32023.78852	33.0761	 
1045.0	1.0	0.0	7.76146	7.43497	-5.24176	17.96317	28.17668	1.14615	0.87249	135.3919	137.28738	50.68449	0.33563	 	3799067.093	 	1.69346E-6	 	31858.76205	33.00529	 
1040.0	1.0	0.0	7.76398	7.43256	-5.27256	17.93905	28.10231	1.14482	0.8735	135.79547	137.5621	50.84168	0.33547	 	4174414.096	 	1.53534E-6	 	31694.08608	32.93519	 
1035.0	1.0	0.0	7.7665	7.43015	-5.30329	17.91496	28.02789	1.14349	0.87451	136.1983	137.83579	50.99863	0.33531	 	4590083.575	 	1.39099E-6	 	31529.7571	32.86579	 
1030.0	1.0	0.0	7.76902	7.42774	-5.33393	17.89093	27.95343	1.14216	0.87554	136.60041	138.10845	51.15533	0.33515	 	5050750.468	 	1.25929E-6	 	31365.77169	32.79708	 
1025.0	1.0	0.0	7.77153	7.42534	-5.3645	17.86694	27.87893	1.14081	0.87657	137.00179	138.38009	51.31178	0.33499	 	5561670.782	 	1.13922E-6	 	31202.12645	32.72905	 
1020.0	1.0	0.0	7.77403	7.42295	-5.395	17.84299	27.80439	1.13947	0.8776	137.40245	138.6507	51.468	0.33483	 	6128759.205	 	1.02982E-6	 	31038.81803	32.66168	 
1015.0	1.0	0.0	7.77653	7.42056	-5.42541	17.81909	27.72982	1.13811	0.87865	137.8024	138.92029	51.62397	0.33467	 	6758676.563	 	9.30232E-7	 	30875.84313	32.59498	 
1010.0	1.0	0.0	7.77903	7.41818	-5.45575	17.79522	27.65521	1.13675	0.8797	138.20164	139.18885	51.77971	0.33452	 	7458930.182	 	8.39629E-7	 	30713.1985	32.52893	 
1005.0	1.0	0.0	7.78152	7.41581	-5.48602	17.7714	27.58056	1.13539	0.88076	138.60017	139.4564	51.93521	0.33436	 	8237989.804	 	7.57264E-7	 	30550.88095	32.46351	 
1000.0	1.0	0.0	7.784	7.41344	-5.51621	17.74761	27.50587	1.13402	0.88182	138.99801	139.72293	52.09047	0.3342	 	9105417.171	 	6.82443E-7	 	30388.88731	32.39873	 
995.0	1.0	0.0	7.78649	7.41108	-5.54633	17.72387	27.43115	1.13264	0.88289	139.39516	139.98844	52.24551	0.33404	 	1.007201783E7	 	6.14527E-7	 	30227.2145	32.33456	 
990.0	1.0	0.0	7.78896	7.40872	-5.57638	17.70016	27.3564	1.13126	0.88397	139.79162	140.25294	52.40031	0.33388	 	1.115001318E7	 	5.52925E-7	 	30065.85946	32.27101	 
985.0	1.0	0.0	7.79144	7.40637	-5.60635	17.67648	27.28162	1.12987	0.88506	140.1874	140.51643	52.55489	0.33372	 	1.235323778E7	 	4.97094E-7	 	29904.81919	32.20805	 
980.0	1.0	0.0	7.79391	7.40402	-5.63625	17.65284	27.2068	1.12847	0.88615	140.5825	140.77892	52.70924	0.33357	 	1.369736616E7	 	4.46532E-7	 	29744.09075	32.14569	 
975.0	1.0	0.0	7.79637	7.40168	-5.66608	17.62924	27.13196	1.12707	0.88725	140.97692	141.04039	52.86337	0.33341	 	1.520017441E7	 	4.00779E-7	 	29583.67122	32.0839	 
970.0	1.0	0.0	7.79883	7.39935	-5.69583	17.60566	27.05708	1.12566	0.88836	141.37068	141.30087	53.01728	0.33325	 	1.688184067E7	 	3.5941E-7	 	29423.55778	32.02269	 
965.0	1.0	0.0	7.80129	7.39702	-5.72551	17.58212	26.98217	1.12425	0.88948	141.76377	141.56034	53.17097	0.33309	 	1.87652892E7	 	3.22036E-7	 	29263.74761	31.96203	 
960.0	1.0	0.0	7.80374	7.39469	-5.75513	17.55861	26.90724	1.12283	0.89061	142.15621	141.81882	53.32443	0.33294	 	2.087659037E7	 	2.88299E-7	 	29104.23798	31.90193	 
955.0	1.0	0.0	7.80618	7.39237	-5.78467	17.53513	26.83228	1.1214	0.89174	142.54798	142.07629	53.47769	0.33278	 	2.324541934E7	 	2.5787E-7	 	28945.02617	31.84236	 
950.0	1.0	0.0	7.80863	7.39006	-5.81414	17.51168	26.75729	1.11996	0.89289	142.93911	142.33278	53.63072	0.33262	 	2.590558715E7	 	2.30448E-7	 	28786.10955	31.78332	 
945.0	1.0	0.0	7.81106	7.38776	-5.84354	17.48826	26.68227	1.11852	0.89404	143.32959	142.58827	53.78355	0.33247	 	2.889565748E7	 	2.05757E-7	 	28627.4855	31.72481	 
940.0	1.0	0.0	7.8135	7.38545	-5.87287	17.46487	26.60723	1.11707	0.8952	143.71942	142.84277	53.93616	0.33231	 	3.225965056E7	 	1.83545E-7	 	28469.15149	31.6668	 
935.0	1.0	0.0	7.81593	7.38316	-5.90213	17.44151	26.53217	1.11561	0.89637	144.10862	143.09629	54.08856	0.33215	 	3.604787502E7	 	1.63579E-7	 	28311.10501	31.6093	 
930.0	1.0	0.0	7.81835	7.38087	-5.93132	17.41817	26.45708	1.11415	0.89754	144.49718	143.34882	54.24076	0.332	 	4.031787541E7	 	1.45649E-7	 	28153.34359	31.55228	 
925.0	1.0	0.0	7.82077	7.37858	-5.96044	17.39485	26.38197	1.11268	0.89873	144.88511	143.60038	54.39274	0.33184	 	4.513554675E7	 	1.29562E-7	 	27995.86483	31.49575	 
920.0	1.0	0.0	7.82319	7.3763	-5.98949	17.37157	26.30683	1.1112	0.89993	145.27241	143.85095	54.54453	0.33169	 	5.057641603E7	 	1.15142E-7	 	27838.66637	31.43969	 
915.0	1.0	0.0	7.8256	7.37403	-6.01848	17.3483	26.23167	1.10971	0.90113	145.65909	144.10054	54.6961	0.33153	 	5.672715334E7	 	1.02227E-7	 	27681.74589	31.3841	 
910.0	1.0	0.0	7.82801	7.37176	-6.04739	17.32507	26.15649	1.10822	0.90235	146.04514	144.34917	54.84748	0.33138	 	6.368730634E7	 	9.06721E-8	 	27525.10112	31.32895	 
905.0	1.0	0.0	7.83042	7.3695	-6.07624	17.30185	26.08129	1.10672	0.90357	146.43058	144.59682	54.99866	0.33122	 	7.157134468E7	 	8.0343E-8	 	27368.72981	31.27426	 
900.0	1.0	0.0	7.83282	7.36724	-6.10502	17.27866	26.00607	1.10521	0.90481	146.81541	144.8435	55.14963	0.33106	 	8.051104064E7	 	7.11189E-8	 	27212.6298	31.22	 
895.0	1.0	0.0	7.83521	7.36499	-6.13373	17.25548	25.93083	1.10369	0.90605	147.19963	145.08922	55.30041	0.33091	 	9.065824415E7	 	6.28895E-8	 	27056.79892	31.16617	 
890.0	1.0	0.0	7.8376	7.36274	-6.16237	17.23233	25.85557	1.10217	0.9073	147.58324	145.33397	55.45099	0.33075	 	1.021881405E8	 	5.55548E-8	 	26901.23509	31.11277	 
885.0	1.0	0.0	7.83999	7.3605	-6.19095	17.2092	25.78029	1.10063	0.90857	147.96624	145.57777	55.60137	0.3306	 	1.153030674E8	 	4.90242E-8	 	26745.93625	31.05977	 
880.0	1.0	0.0	7.84238	7.35826	-6.21946	17.1861	25.705	1.09909	0.90984	148.34864	145.8206	55.75156	0.33044	 	1.30236975E8	 	4.32154E-8	 	26590.90035	31.00718	 
875.0	1.0	0.0	7.84475	7.35603	-6.24791	17.16301	25.62968	1.09754	0.91113	148.73045	146.06248	55.90155	0.33029	 	1.472606998E8	 	3.80538E-8	 	26436.12541	30.95499	 
870.0	1.0	0.0	7.84713	7.3538	-6.27628	17.13994	25.55435	1.09598	0.91242	149.11165	146.30341	56.05136	0.33013	 	1.66688118E8	 	3.34723E-8	 	26281.60952	30.90318	 
865.0	1.0	0.0	7.8495	7.35158	-6.30459	17.11688	25.479	1.09442	0.91373	149.49227	146.54339	56.20097	0.32998	 	1.888834458E8	 	2.94098E-8	 	26127.35076	30.85175	 
860.0	1.0	0.0	7.85187	7.34936	-6.33284	17.09385	25.40363	1.09284	0.91504	149.87229	146.78242	56.35039	0.32982	 	2.142697866E8	 	2.58115E-8	 	25973.34726	30.8007	 
855.0	1.0	0.0	7.85423	7.34715	-6.36102	17.07084	25.32825	1.09126	0.91637	150.25173	147.02051	56.49962	0.32967	 	2.433392828E8	 	2.26277E-8	 	25819.5972	30.75001	 
850.0	1.0	0.0	7.85659	7.34495	-6.38913	17.04784	25.25285	1.08967	0.91771	150.63058	147.25766	56.64866	0.32952	 	2.766650588E8	 	1.98139E-8	 	25666.09879	30.69968	 
845.0	1.0	0.0	7.85894	7.34275	-6.41716	17.02493	25.17713	1.08808	0.91905	151.00787	147.49362	56.79711	0.32936	 	3.148918172E8	 	1.73311E-8	 	25516.77304	29.86515	 
840.0	1.0	0.0	7.86129	7.34055	-6.44512	17.00204	25.1014	1.08648	0.9204	151.38459	147.72863	56.94538	0.32921	 	3.588172998E8	 	1.51414E-8	 	25364.64358	30.42589	 
835.0	1.0	0.0	7.86364	7.33836	-6.47303	16.97916	25.02566	1.08487	0.92177	151.76074	147.96269	57.09347	0.32906	 	4.093522144E8	 	1.32126E-8	 	25212.75977	30.37676	 
830.0	1.0	0.0	7.86598	7.33618	-6.50086	16.95629	24.9499	1.08326	0.92314	152.13634	148.19581	57.24138	0.3289	 	4.675624708E8	 	1.15155E-8	 	25061.12109	30.32774	 
825.0	1.0	0.0	7.86832	7.334	-6.52864	16.93343	24.87413	1.08163	0.92453	152.51137	148.42799	57.38912	0.32875	 	5.346972643E8	 	1.0024E-8	 	24909.72696	30.27883	 
820.0	1.0	0.0	7.87065	7.33183	-6.55634	16.91058	24.79835	1.08	0.92593	152.88585	148.65922	57.53667	0.32859	 	6.122225339E8	 	8.71479E-9	 	24758.57683	30.23003	 
815.0	1.0	0.0	7.87298	7.32966	-6.58399	16.88775	24.72255	1.07835	0.92734	153.25976	148.88952	57.68405	0.32844	 	7.018608822E8	 	7.56701E-9	 	24607.67014	30.18134	 
810.0	1.0	0.0	7.8753	7.32749	-6.61157	16.86493	24.64674	1.0767	0.92876	153.6331	149.11888	57.83125	0.32829	 	8.056392713E8	 	6.56198E-9	 	24457.00635	30.13276	 
805.0	1.0	0.0	7.87762	7.32534	-6.63909	16.84212	24.57092	1.07504	0.9302	154.00589	149.34731	57.97827	0.32813	 	9.259460912E8	 	5.68303E-9	 	24306.58487	30.0843	 
800.0	1.0	0.0	7.87994	7.32318	-6.66654	16.81933	24.49508	1.07337	0.93165	154.37811	149.57481	58.12511	0.32798	 	1.065599545E9	 	4.91533E-9	 	24156.40518	30.03594	 
795.0	1.0	0.0	7.88225	7.32103	-6.69393	16.79654	24.41923	1.07168	0.93311	154.74977	149.80138	58.27178	0.32783	 	1.227929715E9	 	4.24566E-9	 	24006.46668	29.9877	 
790.0	1.0	0.0	7.88456	7.31889	-6.72125	16.77377	24.34336	1.06999	0.93459	155.12087	150.02703	58.41826	0.32767	 	1.416877191E9	 	3.66226E-9	 	23856.76881	29.93957	 
785.0	1.0	0.0	7.88687	7.31675	-6.74851	16.75101	24.26748	1.06829	0.93608	155.49141	150.25175	58.56457	0.32752	 	1.637111793E9	 	3.15468E-9	 	23707.31101	29.89156	 
780.0	1.0	0.0	7.88917	7.31462	-6.77571	16.72826	24.19159	1.06658	0.93758	155.86138	150.47556	58.71069	0.32737	 	1.894175695E9	 	2.71367E-9	 	23558.09272	29.84366	 
775.0	1.0	0.0	7.89147	7.31249	-6.80284	16.70553	24.11568	1.06485	0.9391	156.2308	150.69844	58.85664	0.32721	 	2.194656236E9	 	2.33101E-9	 	23409.11333	29.79588	 
770.0	1.0	0.0	7.89376	7.31036	-6.82991	16.68281	24.03975	1.06312	0.94063	156.59965	150.92042	59.0024	0.32706	 	2.546394915E9	 	1.99944E-9	 	23260.37228	29.74821	 
765.0	1.0	0.0	7.89605	7.30824	-6.85692	16.6601	23.96381	1.06138	0.94217	156.96794	151.14148	59.14799	0.32691	 	2.958740534E9	 	1.71254E-9	 	23111.86899	29.70066	 
760.0	1.0	0.0	7.89833	7.30613	-6.88386	16.6374	23.88786	1.05963	0.94373	157.33566	151.36163	59.2934	0.32676	 	3.442856343E9	 	1.46464E-9	 	22963.60288	29.65322	 
755.0	1.0	0.0	7.90061	7.30402	-6.91074	16.61471	23.81189	1.05786	0.9453	157.70282	151.58087	59.43863	0.3266	 	4.012093293E9	 	1.25075E-9	 	22815.57334	29.60591	 
750.0	1.0	0.0	7.90289	7.30192	-6.93755	16.59204	23.7359	1.05609	0.94689	158.06943	151.79921	59.58368	0.32645	 	4.682444411E9	 	1.06648E-9	 	22667.77979	29.55871	 
745.0	1.0	0.0	7.90516	7.29982	-6.9643	16.56938	23.6599	1.0543	0.9485	158.43546	152.01665	59.72855	0.3263	 	5.473098844E9	 	9.07957E-10	 	22520.22162	29.51163	 
740.0	1.0	0.0	7.90743	7.29772	-6.99099	16.54673	23.58389	1.05251	0.95011	158.80094	152.23319	59.87324	0.32614	 	6.407118622E9	 	7.71787E-10	 	22372.89823	29.46468	 
735.0	1.0	0.0	7.90969	7.29563	-7.01761	16.52409	23.50785	1.0507	0.95175	159.16585	152.44883	60.01775	0.32599	 	7.512266747E9	 	6.54999E-10	 	22225.80901	29.41784	 
730.0	1.0	0.0	7.91195	7.29355	-7.04418	16.50146	23.43181	1.04888	0.9534	159.53021	152.66357	60.16208	0.32584	 	8.82202225E9	 	5.54989E-10	 	22078.95334	29.37114	 
725.0	1.0	0.0	7.91421	7.29147	-7.07067	16.47885	23.35574	1.04705	0.95506	159.894	152.87742	60.30623	0.32568	 	1.03768E10	 	4.69481E-10	 	21932.33057	29.32455	 
720.0	1.0	0.0	7.91646	7.2894	-7.09711	16.45625	23.27966	1.04521	0.95674	160.25722	153.09039	60.4502	0.32553	 	1.2225599999999998E10	 	3.96489E-10	 	21785.94011	29.27809	 
715.0	1.0	0.0	7.91871	7.28733	-7.12348	16.43366	23.20356	1.04336	0.95844	160.61989	153.30246	60.59399	0.32538	 	1.4427699999999998E10	 	3.34281E-10	 	21639.78129	29.23176	 
710.0	1.0	0.0	7.92095	7.28526	-7.14979	16.41109	23.12745	1.0415	0.96016	160.98199	153.51365	60.7376	0.32523	 	1.7055199999999998E10	 	2.81352E-10	 	21493.85347	29.18556	 
705.0	1.0	0.0	7.92319	7.2832	-7.17603	16.38852	23.05132	1.03962	0.96189	161.34353	153.72395	60.88103	0.32507	 	2.01956E10	 	2.36393E-10	 	21348.15599	29.1395	 
700.0	1.0	0.0	7.92543	7.28115	-7.20222	16.36597	22.97517	1.03774	0.96364	161.7045	153.93338	61.02428	0.32492	 	2.3955899999999996E10	 	1.98268E-10	 	21202.68817	29.09356	 
695.0	1.0	0.0	7.92766	7.2791	-7.22834	16.34343	22.89901	1.03584	0.9654	162.06492	154.14193	61.16735	0.32477	 	2.8466499999999996E10	 	1.65995E-10	 	21057.44936	29.04776	 
690.0	1.0	0.0	7.92989	7.27706	-7.25439	16.32091	22.82283	1.03393	0.96718	162.42477	154.3496	61.31024	0.32461	 	3.3886999999999996E10	 	1.38723E-10	 	20912.43884	29.0021	 
685.0	1.0	0.0	7.93211	7.27502	-7.28039	16.29839	22.74663	1.03201	0.96899	162.78406	154.55639	61.45294	0.32446	 	4.04132E10	 	1.15717E-10	 	20767.6559	28.95659	 
680.0	1.0	0.0	7.93433	7.27298	-7.30632	16.27589	22.67041	1.03007	0.97081	163.14278	154.76232	61.59547	0.32431	 	4.828529999999999E10	 	9.63458E-11	 	20623.09986	28.91121	 
675.0	1.0	0.0	7.93654	7.27095	-7.33218	16.2534	22.59418	1.02813	0.97264	163.50094	154.96737	61.73782	0.32416	 	5.779919999999999E10	 	8.00648E-11	 	20478.76994	28.86598	 
670.0	1.0	0.0	7.93875	7.26893	-7.35799	16.23092	22.51792	1.02617	0.9745	163.85854	155.17156	61.87998	0.324	 	6.93198E10	 	6.64064E-11	 	20334.66542	28.8209	 
665.0	1.0	0.0	7.94096	7.26691	-7.38373	16.20845	22.44165	1.0242	0.97637	164.21558	155.37489	62.02197	0.32385	 	8.32979E10	 	5.49699E-11	 	20190.78553	28.77598	 
660.0	1.0	0.0	7.94316	7.26489	-7.40941	16.186	22.36536	1.02221	0.97827	164.57205	155.57735	62.16377	0.3237	 	1.00292E11	 	4.54122E-11	 	20047.13044	28.73102	 
655.0	1.0	0.0	7.94536	7.26288	-7.43503	16.16356	22.28905	1.02022	0.98018	164.92796	155.77895	62.30539	0.32354	 	1.20995E11	 	3.74403E-11	 	19903.70508	28.68507	 
650.0	1.0	0.0	7.94756	7.26088	-7.46058	16.14113	22.21273	1.01821	0.98212	165.28331	155.9797	62.44683	0.32339	 	1.46268E11	 	3.08042E-11	 	19760.51608	28.6378	 
645.0	1.0	0.0	7.94975	7.25888	-7.48608	16.11871	22.13638	1.01619	0.98407	165.6381	156.17959	62.58809	0.32324	 	1.77186E11	 	2.52913E-11	 	19617.56294	28.59063	 
640.0	1.0	0.0	7.95193	7.25688	-7.51151	16.09631	22.06001	1.01415	0.98605	165.99232	156.37862	62.72917	0.32309	 	2.15091E11	 	2.07208E-11	 	19474.84512	28.54356	 
635.0	1.0	0.0	7.95411	7.25489	-7.53687	16.07391	21.98363	1.0121	0.98804	166.34598	156.57681	62.87007	0.32293	 	2.61662E11	 	1.69396E-11	 	19332.36211	28.4966	 
630.0	1.0	0.0	7.95629	7.25291	-7.56218	16.05153	21.90722	1.01004	0.99006	166.69907	156.77415	63.01078	0.32278	 	3.19009E11	 	1.38179E-11	 	19190.11339	28.44974	 
625.0	1.0	0.0	7.95846	7.25093	-7.58742	16.02917	21.8308	1.00796	0.9921	167.0516	156.97064	63.15131	0.32263	 	3.89783E11	 	1.12464E-11	 	19048.09843	28.40299	 
620.0	1.0	0.0	7.96063	7.24895	-7.6126	16.00681	21.75435	1.00588	0.99416	167.40357	157.16628	63.29166	0.32248	 	4.77329E11	 	9.13258E-12	 	18906.31669	28.35635	 
615.0	1.0	0.0	7.9628	7.24698	-7.63772	15.98447	21.67789	1.00377	0.99624	167.75497	157.36109	63.43183	0.32232	 	5.85872E11	 	7.39895E-12	 	18764.76768	28.3098	 
610.0	1.0	0.0	7.96496	7.24501	-7.66278	15.96213	21.6014	1.00166	0.99835	168.10581	157.55505	63.57182	0.32217	 	7.20769E11	 	5.98033E-12	 	18623.45089	28.26336	 
605.0	1.0	0.0	7.96712	7.24305	-7.68777	15.93981	21.52489	0.99953	1.00047	168.45609	157.74818	63.71163	0.32202	 	8.88819E11	 	4.82216E-12	 	18482.36583	28.21701	 
600.0	1.0	0.0	7.96927	7.2411	-7.7127	15.91751	21.44836	0.99738	1.00263	168.8058	157.94047	63.85125	0.32187	 	1.09869E12	 	3.87884E-12	 	18341.51198	28.17077	 
595.0	1.0	0.0	7.97142	7.23914	-7.73757	15.89521	21.37181	0.99522	1.0048	169.15495	158.13192	63.99069	0.32172	 	1.36143E12	 	3.11234E-12	 	18200.88888	28.12462	 
590.0	1.0	0.0	7.97356	7.2372	-7.76238	15.87293	21.29524	0.99305	1.007	169.50354	158.32255	64.12995	0.32156	 	1.69119E12	 	2.49103E-12	 	18060.49602	28.07857	 
585.0	1.0	0.0	7.9757	7.23526	-7.78713	15.85066	21.21864	0.99086	1.00923	169.85156	158.51234	64.26902	0.32141	 	2.10615E12	 	1.98866E-12	 	17920.33292	28.03262	 
580.0	1.0	0.0	7.97784	7.23332	-7.81181	15.8284	21.14202	0.98866	1.01147	170.19902	158.70131	64.40792	0.32126	 	2.62969E12	 	1.58346E-12	 	17780.39908	27.98677	 
575.0	1.0	0.0	7.97997	7.23139	-7.83644	15.80616	21.06538	0.98644	1.01375	170.54592	158.88946	64.54663	0.32111	 	3.29196E12	 	1.25749E-12	 	17640.69405	27.94101	 
570.0	1.0	0.0	7.98209	7.22946	-7.861	15.78392	20.98872	0.9842	1.01605	170.89225	159.07678	64.68516	0.32095	 	4.13202E12	 	9.9593E-13	 	17501.21733	27.89534	 
565.0	1.0	0.0	7.98422	7.22754	-7.8855	15.7617	20.91203	0.98195	1.01838	171.23801	159.26328	64.8235	0.3208	 	5.20054E12	 	7.86611E-13	 	17361.96848	27.84977	 
560.0	1.0	0.0	7.98634	7.22562	-7.90993	15.73949	20.83532	0.97969	1.02073	171.58321	159.44896	64.96166	0.32065	 	6.56345E12	 	6.19552E-13	 	17222.94699	27.8043	 
555.0	1.0	0.0	7.98845	7.22371	-7.93431	15.71729	20.75859	0.97741	1.02311	171.92785	159.63383	65.09964	0.3205	 	8.30687E12	 	4.86585E-13	 	17084.15245	27.75891	 
550.0	1.0	0.0	7.99056	7.2218	-7.95863	15.69511	20.68183	0.97512	1.02552	172.27192	159.81788	65.23744	0.32035	 	1.05435E13	 	3.81049E-13	 	16945.58437	27.71362	 
545.0	1.0	0.0	7.99267	7.2199	-7.98288	15.67294	20.60505	0.9728	1.02796	172.61543	160.00112	65.37505	0.32019	 	1.34214E13	 	2.97523E-13	 	16807.24231	27.66841	 
540.0	1.0	0.0	7.99477	7.218	-8.00707	15.65078	20.52824	0.97048	1.03042	172.95838	160.18355	65.51248	0.32004	 	1.71357E13	 	2.3161E-13	 	16669.12583	27.6233	 
535.0	1.0	0.0	7.99687	7.21611	-8.0312	15.62863	20.45141	0.96813	1.03292	173.30076	160.36517	65.64973	0.31989	 	2.1944E13	 	1.79747E-13	 	16531.23447	27.57827	 
530.0	1.0	0.0	7.99896	7.21422	-8.05527	15.60649	20.37455	0.96577	1.03544	173.64257	160.54598	65.78679	0.31974	 	2.81883E13	 	1.39064E-13	 	16393.5678	27.53333	 
525.0	1.0	0.0	8.00105	7.21233	-8.07928	15.58437	20.29767	0.9634	1.038	173.98383	160.72599	65.92367	0.31959	 	3.63232E13	 	1.07247E-13	 	16256.12541	27.48848	 
520.0	1.0	0.0	8.00313	7.21046	-8.10322	15.56226	20.22076	0.961	1.04058	174.32451	160.9052	66.06036	0.31943	 	4.69556E13	 	8.24431E-14	 	16118.90685	27.44371	 
515.0	1.0	0.0	8.00521	7.20858	-8.12711	15.54016	20.14382	0.95859	1.0432	174.66463	161.08361	66.19687	0.31928	 	6.08984E13	 	6.31669E-14	 	15981.9117	27.39903	 
510.0	1.0	0.0	8.00729	7.20671	-8.15093	15.51807	20.06686	0.95616	1.04585	175.00419	161.26122	66.3332	0.31913	 	7.9244E13	 	4.82353E-14	 	15845.13956	27.35443	 
505.0	1.0	0.0	8.00936	7.20485	-8.1747	15.49599	19.98987	0.95372	1.04853	175.34318	161.43803	66.46934	0.31898	 	1.03466E14	 	3.67074E-14	 	15708.59001	27.30991	 
500.0	1.0	0.0	8.01143	7.20299	-8.1984	15.47393	19.91285	0.95125	1.05124	175.68161	161.61405	66.6053	0.31883	 	1.3555799999999998E14	 	2.78372E-14	 	15572.26265	27.26547	 
495.0	1.0	0.0	8.01349	7.20113	-8.22204	15.45188	19.8358	0.94877	1.05399	176.01947	161.78928	66.74108	0.31867	 	1.78229E14	 	2.10355E-14	 	15436.1571	27.22111	 
490.0	1.0	0.0	8.01555	7.19928	-8.24562	15.42984	19.75873	0.94627	1.05678	176.35677	161.96372	66.87667	0.31852	 	2.35176E14	 	1.58381E-14	 	15300.27295	27.17683	 
485.0	1.0	0.0	8.01761	7.19744	-8.26914	15.40782	19.68162	0.94376	1.05959	176.6935	162.13737	67.01208	0.31837	 	3.11454E14	 	1.18809E-14	 	15164.60983	27.13262	 
480.0	1.0	0.0	8.01966	7.1956	-8.2926	15.3858	19.60449	0.94122	1.06245	177.02967	162.31023	67.1473	0.31822	 	4.14013E14	 	8.87879E-15	 	15029.16736	27.08849	 
475.0	1.0	0.0	8.02171	7.19376	-8.31599	15.3638	19.52732	0.93867	1.06534	177.36527	162.48231	67.28234	0.31807	 	5.5244299999999994E14	 	6.60979E-15	 	14893.94517	27.04444	 
470.0	1.0	0.0	8.02375	7.19193	-8.33933	15.34181	19.45013	0.9361	1.06827	177.7003	162.65361	67.41719	0.31792	 	7.40026E14	 	4.90136E-15	 	14758.94292	27.00045	 
465.0	1.0	0.0	8.02579	7.1901	-8.36261	15.31984	19.37291	0.9335	1.07123	178.03478	162.82412	67.55186	0.31776	 	9.95235E14	 	3.61998E-15	 	14624.16023	26.95654	 
460.0	1.0	0.0	8.02782	7.18828	-8.38582	15.29787	19.29565	0.93089	1.07424	178.36868	162.99386	67.68634	0.31761	 	1.34388E15	 	2.66268E-15	 	14489.59676	26.91269	 
455.0	1.0	0.0	8.02985	7.18646	-8.40898	15.27592	19.21836	0.92826	1.07728	178.70202	163.16282	67.82064	0.31746	 	1.82215E15	 	1.95039E-15	 	14355.25218	26.86892	 
450.0	1.0	0.0	8.03188	7.18465	-8.43207	15.25398	19.14104	0.92561	1.08037	179.03479	163.33101	67.95475	0.31731	 	2.48107E15	 	1.42258E-15	 	14221.12617	26.8252	 
445.0	1.0	0.0	8.0339	7.18285	-8.4551	15.23205	19.06369	0.92294	1.08349	179.367	163.49843	68.08868	0.31716	 	3.39281E15	 	1.0331E-15	 	14087.21839	26.78156	 
440.0	1.0	0.0	8.03591	7.18104	-8.47808	15.21013	18.9863	0.92025	1.08666	179.69864	163.66507	68.22242	0.31701	 	4.66E15	 	7.46933E-16	 	13953.52856	26.73797	 
435.0	1.0	0.0	8.03793	7.17925	-8.50099	15.18823	18.90888	0.91754	1.08987	180.02972	163.83095	68.35598	0.31685	 	6.42923E15	 	5.37592E-16	 	13820.05634	26.69444	 
430.0	1.0	0.0	8.03993	7.17745	-8.52384	15.16634	18.83143	0.91481	1.09312	180.36023	163.99606	68.48935	0.3167	 	8.91086E15	 	3.85137E-16	 	13686.80148	26.65097	 
425.0	1.0	0.0	8.04194	7.17566	-8.54663	15.14446	18.75394	0.91206	1.09642	180.69018	164.1604	68.62254	0.31655	 	1.24083E16	 	2.74615E-16	 	13553.76368	26.60756	 
420.0	1.0	0.0	8.04394	7.17388	-8.56937	15.12259	18.67641	0.90928	1.09977	181.01956	164.32399	68.75554	0.3164	 	1.7361100000000002E16	 	1.94867E-16	 	13420.94267	26.5642	 
415.0	1.0	0.0	8.04593	7.1721	-8.59204	15.10074	18.59885	0.90649	1.10316	181.34837	164.48681	68.88836	0.31625	 	2.44096E16	 	1.37597E-16	 	13288.33823	26.52089	 
410.0	1.0	0.0	8.04792	7.17033	-8.61465	15.07889	18.52125	0.90367	1.10659	181.67662	164.64887	69.02099	0.3161	 	3.4491600000000004E16	 	9.66696E-17	 	13155.9502	26.47761	 
405.0	1.0	0.0	8.04991	7.16856	-8.6372	15.05706	18.44362	0.90084	1.11008	182.0043	164.81017	69.15343	0.31595	 	4.89867E16	 	6.75669E-17	 	13023.77842	26.43436	 
400.0	1.0	0.0	8.05189	7.16679	-8.65969	15.03525	18.36594	0.89798	1.11362	182.33141	164.97072	69.28569	0.31579	 	6.9937100000000008E16	 	4.69776E-17	 	12891.82275	26.39114	 
395.0	1.0	0.0	8.05387	7.16503	-8.68212	15.01344	18.28823	0.89509	1.1172	182.65796	165.13052	69.41776	0.31564	 	1.00381E17	 	3.2487E-17	 	12760.08305	26.34794	 
390.0	1.0	0.0	8.05584	7.16328	-8.70449	14.99165	18.21048	0.89219	1.12084	182.98394	165.28956	69.54965	0.31549	 	1.44864E17	 	2.23428E-17	 	12628.55919	26.30477	 
385.0	1.0	0.0	8.05781	7.16153	-8.72681	14.96987	18.13269	0.88926	1.12453	183.30936	165.44785	69.68135	0.31534	 	2.10228E17	 	1.52799E-17	 	12497.25108	26.26162	 
380.0	1.0	0.0	8.05978	7.15978	-8.74906	14.9481	18.05486	0.88631	1.12828	183.63421	165.6054	69.81286	0.31519	 	3.0683E17	 	1.03897E-17	 	12366.15861	26.21849	 
375.0	1.0	0.0	8.06174	7.15804	-8.77125	14.92634	17.97698	0.88333	1.13207	183.95849	165.7622	69.94419	0.31504	 	4.50441E17	 	7.02302E-18	 	12235.28172	26.17538	 
370.0	1.0	0.0	8.06369	7.1563	-8.79338	14.90459	17.89907	0.88034	1.13593	184.28221	165.91826	70.07533	0.31489	 	6.65229E17	 	4.71876E-18	 	12104.62032	26.13228	 
365.0	1.0	0.0	8.06565	7.15457	-8.81545	14.88286	17.82111	0.87731	1.13985	184.60536	166.07357	70.20628	0.31474	 	9.88456E17	 	3.15103E-18	 	11974.17438	26.08919	 
360.0	1.0	0.0	8.06759	7.15284	-8.83747	14.86114	17.7431	0.87427	1.14382	184.92794	166.22814	70.33705	0.31458	 	1.47795E18	 	2.0909E-18	 	11843.94386	26.0461	 
355.0	1.0	0.0	8.06954	7.15112	-8.85942	14.83943	17.66505	0.87119	1.14785	185.24996	166.38197	70.46763	0.31443	 	2.22405E18	 	1.3785E-18	 	11713.92876	26.00302	 
350.0	1.0	0.0	8.07147	7.1494	-8.88131	14.81774	17.58696	0.8681	1.15195	185.57141	166.53507	70.59802	0.31428	 	3.3688E18	 	9.02825E-19	 	11584.12905	25.95994	 
345.0	1.0	0.0	8.07341	7.14769	-8.90315	14.79605	17.50882	0.86497	1.1561	185.89229	166.68743	70.72823	0.31413	 	5.13718E18	 	5.87294E-19	 	11454.54477	25.91686	 
340.0	1.0	0.0	8.07534	7.14598	-8.92492	14.77438	17.43063	0.86183	1.16033	186.21261	166.83906	70.85824	0.31398	 	7.88792E18	 	3.79394E-19	 	11325.17596	25.87376	 
335.0	1.0	0.0	8.07727	7.14428	-8.94664	14.75272	17.3524	0.85865	1.16462	186.53236	166.98996	70.98808	0.31383	 	1.21973E19	 	2.43352E-19	 	11196.02266	25.83066	 
330.0	1.0	0.0	8.07919	7.14258	-8.96829	14.73108	17.27411	0.85545	1.16897	186.85154	167.14012	71.11772	0.31368	 	1.89977E19	 	1.54957E-19	 	11067.08497	25.78754	 
325.0	1.0	0.0	8.0811	7.14089	-8.98989	14.70944	17.19577	0.85223	1.1734	187.17015	167.28956	71.24718	0.31353	 	2.98097E19	 	9.79352E-20	 	10938.36297	25.7444	 
320.0	1.0	0.0	8.08302	7.1392	-9.01142	14.68782	17.11739	0.84897	1.1779	187.4882	167.43828	71.37645	0.31338	 	4.71316E19	 	6.14241E-20	 	10809.85679	25.70124	 
315.0	1.0	0.0	8.08493	7.13751	-9.0329	14.66621	17.03894	0.84569	1.18247	187.80569	167.58627	71.50553	0.31322	 	7.51017E19	 	3.8223E-20	 	10681.56657	25.65804	 
310.0	1.0	0.0	8.08683	7.13583	-9.05432	14.64461	16.96045	0.84238	1.18711	188.1226	167.73353	71.63443	0.31307	 	1.2062999999999998E20	 	2.35945E-20	 	10553.49249	25.61482	 
305.0	1.0	0.0	8.08873	7.13415	-9.07568	14.62302	16.8819	0.83904	1.19183	188.43895	167.88008	71.76314	0.31292	 	1.95355E20	 	1.44445E-20	 	10425.63473	25.57155	 
300.0	1.0	0.0	8.09062	7.13248	-9.09698	14.60145	16.8033	0.83568	1.19663	188.75473	168.0259	71.89166	0.31277	 	3.1903899999999997E20	 	8.76822E-21	 	10297.99351	25.52824	 
295.0	1.0	0.0	8.09252	7.13082	-9.11822	14.57989	16.72464	0.83229	1.20151	189.06995	168.17101	72.01999	0.31262	 	5.2554799999999993E20	 	5.27639E-21	 	10170.56907	25.48489	 
290.0	1.0	0.0	8.0944	7.12915	-9.13941	14.55834	16.64592	0.82886	1.20647	189.38459	168.31541	72.14813	0.31247	 	8.734359999999999E20	 	3.14688E-21	 	10043.3617	25.44147	 
285.0	1.0	0.0	8.09628	7.1275	-9.16053	14.5368	16.56714	0.82541	1.21152	189.69867	168.45909	72.27609	0.31232	 	1.46488E21	 	1.85967E-21	 	9916.37169	25.398	 
280.0	1.0	0.0	8.09816	7.12584	-9.18159	14.51528	16.48829	0.82193	1.21665	190.01219	168.60205	72.40386	0.31217	 	2.47989E21	 	1.08867E-21	 	9789.59938	25.35446	 
275.0	1.0	0.0	8.10004	7.1242	-9.2026	14.49376	16.40939	0.81841	1.22188	190.32514	168.74431	72.53144	0.31202	 	4.23872E21	 	6.31177E-22	 	9663.04514	25.31085	 
270.0	1.0	0.0	8.1019	7.12255	-9.22355	14.47226	16.33042	0.81487	1.22719	190.63752	168.88586	72.65883	0.31187	 	7.31683E21	 	3.62313E-22	 	9536.70937	25.26715	 
265.0	1.0	0.0	8.10377	7.12091	-9.24443	14.45078	16.25139	0.8113	1.2326	190.94933	169.0267	72.78603	0.31172	 	1.2758999999999998E22	 	2.05861E-22	 	9410.5925	25.22337	 
260.0	1.0	0.0	8.10563	7.11928	-9.26526	14.4293	16.17229	0.80769	1.2381	191.26058	169.16684	72.91305	0.31157	 	2.24822E22	 	1.15744E-22	 	9284.69501	25.1795	 
255.0	1.0	0.0	8.10749	7.11765	-9.28604	14.40784	16.09312	0.80405	1.2437	191.57126	169.30628	73.03988	0.31142	 	4.00425E22	 	6.43759E-23	 	9159.0174	25.13552	 
250.0	1.0	0.0	8.10934	7.11602	-9.30675	14.38639	16.01388	0.80038	1.24941	191.88137	169.44501	73.16652	0.31126	 	7.210969999999999E22	 	3.54094E-23	 	9033.56023	25.09143	 
245.0	1.0	0.0	8.11118	7.1144	-9.3274	14.36495	15.93457	0.79667	1.25522	192.19092	169.58305	73.29297	0.31111	 	1.3133999999999999E23	 	1.92551E-23	 	8908.3241	25.04723	 
240.0	1.0	0.0	8.11303	7.11279	-9.348	14.34352	15.85519	0.79294	1.26113	192.4999	169.72038	73.41923	0.31096	 	2.42034E23	 	1.0348E-23	 	8783.30963	25.00289	 
235.0	1.0	0.0	8.11487	7.11118	-9.36853	14.3221	15.77573	0.78917	1.26716	192.80831	169.85702	73.54531	0.31081	 	4.51417E23	 	5.49415E-24	 	8658.51753	24.95842	 
230.0	1.0	0.0	8.1167	7.10957	-9.38901	14.3007	15.69619	0.78536	1.2733	193.11616	169.99297	73.67119	0.31066	 	8.52435E23	 	2.88087E-24	 	8533.94852	24.9138	 
225.0	1.0	0.0	8.11853	7.10797	-9.40943	14.27931	15.61658	0.78152	1.27956	193.42344	170.12823	73.79689	0.31051	 	1.63037E24	 	1.49129E-24	 	8409.60338	24.86903	 
220.0	1.0	0.0	8.12035	7.10637	-9.4298	14.25793	15.53688	0.77764	1.28593	193.73015	170.26279	73.9224	0.31036	 	3.1595200000000003E24	 	7.61805E-25	 	8285.48296	24.82408	 
215.0	1.0	0.0	8.12218	7.10478	-9.4501	14.23657	15.4571	0.77373	1.29243	194.0363	170.39666	74.04772	0.31021	 	6.20645E24	 	3.83881E-25	 	8161.58816	24.77896	 
210.0	1.0	0.0	8.12399	7.10319	-9.47034	14.21521	15.37723	0.76979	1.29906	194.34188	170.52985	74.17285	0.31006	 	1.23633E25	 	1.90737E-25	 	8037.91992	24.73365	 
205.0	1.0	0.0	8.1258	7.1016	-9.49053	14.19387	15.29727	0.7658	1.30582	194.6469	170.66235	74.29779	0.30991	 	2.49853E25	 	9.34042E-26	 	7914.47927	24.68813	 
200.0	1.0	0.0	8.12761	7.10002	-9.51066	14.17254	15.21722	0.76178	1.31272	194.95135	170.79417	74.42255	0.30976	 	5.12498E25	 	4.50602E-26	 	7791.26729	24.6424	 
195.0	1.0	0.0	8.12941	7.09845	-9.53073	14.15123	15.13708	0.75772	1.31975	195.25523	170.92531	74.54711	0.30961	 	1.0674900000000001E26	 	2.14046E-26	 	7668.28512	24.59643	 
190.0	1.0	0.0	8.13121	7.09688	-9.55075	14.12992	15.05685	0.75362	1.32692	195.55855	171.05577	74.67149	0.30946	 	2.2590100000000002E26	 	1.00067E-26	 	7545.53402	24.55022	 
185.0	1.0	0.0	8.13301	7.09531	-9.5707	14.10863	14.97651	0.74949	1.33425	195.8613	171.18555	74.79568	0.30931	 	4.85934E26	 	4.60168E-27	 	7423.01527	24.50375	 
180.0	1.0	0.0	8.1348	7.09375	-9.5906	14.08735	14.89607	0.74531	1.34173	196.16349	171.31465	74.91968	0.30916	 	1.06311E27	 	2.08042E-27	 	7300.73025	24.457	 
175.0	1.0	0.0	8.13658	7.0922	-9.61044	14.06608	14.81553	0.74109	1.34936	196.46511	171.44308	75.04349	0.30901	 	2.36682E27	 	9.24157E-28	 	7178.68045	24.40996	 
170.0	1.0	0.0	8.13836	7.09064	-9.63022	14.04482	14.73488	0.73683	1.35716	196.76617	171.57083	75.16711	0.30886	 	5.365309999999999E27	 	4.03128E-28	 	7056.86742	24.36261	 
165.0	1.0	0.0	8.14014	7.0891	-9.64995	14.02358	14.65412	0.73254	1.36512	197.06667	171.69792	75.29054	0.30871	 	1.23919E28	 	1.72573E-28	 	6935.29282	24.31492	 
160.0	1.0	0.0	8.14191	7.08755	-9.66961	14.00235	14.57325	0.7282	1.37326	197.3666	171.82433	75.41379	0.30856	 	2.91792E28	 	7.24523E-29	 	6813.9584	24.26688	 
155.0	1.0	0.0	8.14368	7.08601	-9.68922	13.98113	14.49226	0.72381	1.38157	197.66596	171.95008	75.53684	0.30841	 	7.00963E28	 	2.98117E-29	 	6692.86603	24.21847	 
150.0	1.0	0.0	8.14544	7.08448	-9.70877	13.95992	14.41114	0.71939	1.39007	197.96476	172.07517	75.65971	0.30826	 	1.71915E29	 	1.20135E-29	 	6572.01769	24.16967	 
145.0	1.0	0.0	8.1472	7.08295	-9.72827	13.93873	14.3299	0.71492	1.39877	198.263	172.19958	75.78239	0.30811	 	4.30772E29	 	4.73774E-30	 	6451.41548	24.12044	 
140.0	1.0	0.0	8.14896	7.08143	-9.7477	13.91755	14.24853	0.7104	1.40766	198.56068	172.32334	75.90488	0.30796	 	1.1036699999999999E30	 	1.82707E-30	 	6331.06162	24.07077	 
135.0	1.0	0.0	8.15071	7.0799	-9.76708	13.89638	14.16703	0.70584	1.41675	198.85779	172.44644	76.02718	0.30781	 	2.89361E30	 	6.88439E-31	 	6210.95849	24.02063	 
130.0	1.0	0.0	8.15245	7.07839	-9.7864	13.87522	14.08539	0.70124	1.42605	199.15434	172.56888	76.1493	0.30766	 	7.77009E30	 	2.53237E-31	 	6091.10857	23.96998	 
125.0	1.0	0.0	8.1542	7.07688	-9.80567	13.85407	14.0036	0.69658	1.43558	199.45033	172.69067	76.27122	0.30751	 	2.1388799999999997E31	 	9.08548E-32	 	5971.51452	23.91881	 
120.0	1.0	0.0	8.15593	7.07537	-9.82487	13.83294	13.92167	0.69188	1.44533	199.74576	172.8118	76.39296	0.30736	 	6.0413E31	 	3.17625E-32	 	5852.17917	23.86707	 
115.0	1.0	0.0	8.15766	7.07387	-9.84402	13.81182	13.83958	0.68714	1.45532	200.04062	172.93228	76.51451	0.30721	 	1.75264E32	 	1.08092E-32	 	5733.10552	23.81473	 
110.0	1.0	0.0	8.15939	7.07237	-9.86312	13.79071	13.75734	0.68234	1.46555	200.33493	173.0521	76.63587	0.30706	 	5.22792E32	 	3.57706E-33	 	5614.29672	23.76176	 
105.0	1.0	0.0	8.16112	7.07088	-9.88215	13.76961	13.67493	0.67749	1.47603	200.62867	173.17128	76.75704	0.30691	 	1.60515E33	 	1.14983E-33	 	5495.75616	23.70811	 
100.0	1.0	0.0	8.16283	7.06939	-9.90113	13.74853	13.59235	0.6726	1.48677	200.92186	173.28982	76.87803	0.30676	 	5.0787800000000004E33	 	3.586E-34	 	5377.48741	23.65375	 
95.0	1.0	0.0	8.16455	7.0679	-9.92005	13.72745	13.50959	0.66765	1.49779	201.21449	173.40771	76.99883	0.30661	 	1.6580200000000002E34	 	1.08373E-34	 	5259.49428	23.59863	 
90.0	1.0	0.0	8.16626	7.06642	-9.93891	13.70639	13.42665	0.66265	1.50909	201.50656	173.52496	77.11944	0.30646	 	5.59205E34	 	3.16958E-35	 	5141.78079	23.5427	 
85.0	1.0	0.0	8.16797	7.06495	-9.95772	13.68535	13.34352	0.6576	1.52068	201.79807	173.64157	77.23986	0.30631	 	1.95116E35	 	8.95897E-36	 	5024.35127	23.48591	 
80.0	1.0	0.0	8.16967	7.06348	-9.97647	13.66431	13.26019	0.65249	1.53258	202.08902	173.75754	77.3601	0.30616	 	7.053159999999999E35	 	2.44378E-36	 	4907.21026	23.4282	 
75.0	1.0	0.0	8.17136	7.06201	-9.99516	13.64329	13.17665	0.64733	1.5448	202.37942	173.87288	77.48015	0.30601	 	2.6454799999999998E36	 	6.42316E-37	 	4790.36263	23.36953	 
70.0	1.0	0.0	8.17306	7.06055	-10.0138	13.62227	13.0929	0.64212	1.55735	202.66927	173.98758	77.60001	0.30586	 	1.03123E37	 	1.62411E-37	 	4673.81355	23.30981	 
65.0	1.0	0.0	8.17474	7.05909	-10.03238	13.60127	13.00892	0.63685	1.57024	202.95856	174.10166	77.71969	0.30571	 	4.1848499999999996E37	 	3.94381E-38	 	4557.56855	23.249	 
60.0	1.0	0.0	8.17643	7.05764	-10.0509	13.58029	12.92471	0.63152	1.58349	203.24729	174.2151	77.83918	0.30556	 	1.7711899999999997E38	 	9.18041E-39	 	4441.63349	23.18701	 
55.0	1.0	0.0	8.17811	7.05619	-10.06937	13.55931	12.84026	0.62613	1.59711	203.53548	174.32792	77.95849	0.30541	 	7.83327E38	 	2.04463E-39	 	4326.01463	23.12377	 
50.0	1.0	0.0	8.17978	7.05474	-10.08778	13.53835	12.75556	0.62068	1.61113	203.82311	174.44011	78.07761	0.30526	 	3.62746E39	 	4.34798E-40	 	4210.71864	23.0592	 
45.0	1.0	0.0	8.18145	7.0533	-10.10613	13.5174	12.67059	0.61518	1.62554	204.11019	174.55169	78.19654	0.30511	 	1.76273E40	 	8.80914E-41	 	4095.7527	22.99319	 
40.0	1.0	0.0	8.18312	7.05187	-10.12443	13.49646	12.58535	0.60961	1.64039	204.39673	174.66264	78.3153	0.30496	 	9.009329999999999E40	 	1.69647E-41	 	3981.1244	22.92566	 
35.0	1.0	0.0	8.18478	7.05043	-10.14267	13.47554	12.49981	0.60398	1.65568	204.68272	174.77298	78.43386	0.30481	 	4.85503E41	 	3.09782E-42	 	3866.8419	22.8565	 
30.0	1.0	0.0	8.18643	7.04901	-10.16086	13.45463	12.41398	0.59829	1.67143	204.96816	174.88271	78.55225	0.30466	 	2.7658099999999997E42	 	5.34961E-43	 	3752.91393	22.78559	 
25.0	1.0	0.0	8.18809	7.04759	-10.17898	 	12.32782	0.59254	1.68766	205.25306	174.99183	78.67045	0.30451	 	1.6703E43	 	8.71217E-44	 	3639.34983	 	 
