T (C)	Fraction solid (wt)-TOTAL	Fraction liquid (wt)-LIQUID	Density (g/(cm)^3)-TOTAL	Molar volume (cm^3)-TOTAL	Volume change (%)-  	Average expansion coeff. (10e-6 1/K)-  	Thermal conductivity (W/(m*K))-TOTAL	Electrical resistivity (10e-6 Ohm*m)-TOTAL	Electrical conductivity (10e6 1/(Ohm*m))-TOTAL	Young's modulus (GPa)-TOTAL	Bulk modulus (GPa)-TOTAL	Shear modulus(GPa)-TOTAL	Poisson's ratio-TOTAL	Liquid viscosity (mPa s)-  	Total viscosity (mPa s)-  	Liquid diffusivity (10e-9 (m^2)/s)-  	Total diffusivity (10e-9 (m^2)/s)-  	Surface Tension (mN/m)-  	Enthalpy (J/mole)-TOTAL	Specific heat (J/(mole K))-TOTAL	Latent heat (J/mole)-TOTAL
1400.0	0.0	1.0	7.50465	7.87409	0.0	27.91666	28.47022	1.43983	0.69453	0.0	127.23166	0.0	0.5	8.43864	8.43864	0.96772	0.96772	1776.66458	56953.475	 	0.0
1395.0	0.0	1.0	7.50855	7.87	-0.0519907	27.87748	28.40151	1.439	0.69493	0.0	127.40231	0.0	0.5	8.53175	8.53175	0.9543	0.9543	1778.49331	56748.596	40.9758	0.0
1390.0	0.0	1.0	7.51245	7.86592	-0.10383	27.83843	28.3328	1.43816	0.69533	0.0	127.57295	0.0	0.5	8.62646	8.62646	0.94099	0.94099	1780.31681	56544.192	40.8808	0.0
1385.0	0.0	1.0	7.51634	7.86185	-0.15552	27.7995	28.2641	1.43732	0.69574	0.0	127.7436	0.0	0.5	8.7228	8.7228	0.9278	0.9278	1782.13514	56340.26	40.7864	0.0
1380.0	0.0	1.0	7.52022	7.85779	-0.20705	27.76071	28.19539	1.43648	0.69614	0.0	127.91424	0.0	0.5	8.82081	8.82081	0.91472	0.91472	1783.9481	56136.799	40.6922	0.0
1375.0	0.0	1.0	7.52409	7.85374	-0.25843	27.72204	28.12668	1.43564	0.69656	0.0	128.08489	0.0	0.5	8.92053	8.92053	0.90176	0.90176	1785.7555	55933.805	40.5988	0.0
1370.0	0.0	1.0	7.52796	7.84971	-0.30966	27.68351	28.05797	1.43479	0.69697	0.0	128.25553	0.0	0.5	9.02199	9.02199	0.88892	0.88892	1787.55714	55731.276	40.5058	0.0
1365.0	0.0	1.0	7.53182	7.84569	-0.36074	27.64511	27.98925	1.43393	0.69738	0.0	128.42618	0.0	0.5	9.12523	9.12523	0.87619	0.87619	1789.35281	55529.209	40.4134	0.0
1360.0	0.0	1.0	7.53567	7.84168	-0.41167	27.60685	27.92054	1.43307	0.6978	0.0	128.59682	0.0	0.5	9.2303	9.2303	0.86357	0.86357	1791.14231	55327.602	40.3214	0.0
1355.0	0.0	1.0	7.53951	7.83768	-0.46245	27.56873	27.85183	1.43221	0.69822	0.0	128.76747	0.0	0.5	9.33723	9.33723	0.85107	0.85107	1792.92543	55126.452	40.23	0.0
1350.0	0.0	1.0	7.54335	7.83369	-0.51307	27.53074	27.78312	1.43134	0.69864	0.0	128.93811	0.0	0.5	9.44608	9.44608	0.83868	0.83868	1794.70197	54925.757	40.139	0.0
1345.0	0.0	1.0	7.54718	7.82972	-0.56354	27.49289	27.7144	1.43047	0.69907	0.0	129.10876	0.0	0.5	9.55688	9.55688	0.8264	0.8264	1796.47173	54725.515	40.0484	0.0
1340.0	0.0	1.0	7.551	7.82576	-0.61386	27.45519	27.64569	1.4296	0.6995	0.0	129.2794	0.0	0.5	9.66967	9.66967	0.81423	0.81423	1798.23449	54525.722	39.9586	0.0
1335.0	0.0	1.0	7.55481	7.82181	-0.66403	27.41763	27.57698	1.42872	0.69993	0.0	129.45005	0.0	0.5	9.78451	9.78451	0.80218	0.80218	1799.99005	54326.377	39.869	0.0
1330.0	0.0	1.0	7.55862	7.81787	-0.71404	27.38021	27.50826	1.42783	0.70036	0.0	129.62069	0.0	0.5	9.90145	9.90145	0.79025	0.79025	1801.73819	54127.476	39.7802	0.0
1325.0	0.0	1.0	7.56242	7.81394	-0.76391	27.34294	27.43954	1.42694	0.7008	0.0	129.79134	0.0	0.5	10.02052	10.02052	0.77842	0.77842	1803.47869	53929.019	39.6914	0.0
1320.0	0.0	1.0	7.56621	7.81003	-0.81362	27.30582	27.37083	1.42605	0.70124	0.0	129.96198	0.0	0.5	10.14179	10.14179	0.76671	0.76671	1805.21136	53731.002	39.6034	0.0
1315.0	0.0	1.0	7.56999	7.80613	-0.86318	27.26885	27.30211	1.42515	0.70168	0.0	130.13263	0.0	0.5	10.26531	10.26531	0.7551	0.7551	1806.93596	53533.422	39.516	0.0
1310.03	0.0	1.0	7.57374	7.80226	-0.91229	27.23225	27.2338	1.42426	0.70212	0.0	130.30225	0.0	0.5	10.39036	10.39036	0.74368	0.74368	1808.6421	53337.462	39.4277	0.0
1310.0	4.4E-4	0.99956	7.57385	7.80204	-0.915	27.22503	27.2348	1.42418	0.70216	3.83322E-12	130.29732	1.2778E-12	0.49993	10.39133	10.39756	0.7436	0.74315	1808.64386	53329.889	253.36233	6.392
1305.0	0.0714906	0.92851	7.59138	7.78411	-1.14283	26.66975	27.4158	1.41031	0.70907	0.00265257	129.80391	8.9046E-4	0.48944	10.55187	14.21103	0.72997	0.54201	1808.83598	52108.25	244.3278	1031.322
1300.0	0.13478	0.86522	7.60736	7.76769	-1.35133	26.16647	27.57085	1.39793	0.71534	0.033874	129.39513	0.0114438	0.48002	10.71513	47.82095	0.71657	0.16056	1809.03163	51002.87	221.076	1940.424
1295.0	0.19145	0.80855	7.62198	7.75286	-1.53969	25.71818	27.70406	1.38679	0.72109	0.13925	129.06462	0.0473133	0.47154	10.88118	166.22859	0.70339	0.0460435	1809.22853	49996.757	201.2226	2750.685
1290.0	0.24242	0.75758	7.63544	7.73911	-1.71421	25.30702	27.81814	1.3767	0.72638	0.36136	128.79745	0.12343	0.46386	11.05011	433.53999	0.69043	0.0175978	1809.42857	49075.928	184.1658	3476.092
1285.0	0.28849	0.71151	7.64789	7.72655	-1.87375	24.93675	27.91585	1.36749	0.73127	0.73085	128.5899	0.25083	0.45689	11.22205	913.3708	0.67768	0.00832624	1809.62921	48228.791	169.4274	4128.231
1280.0	0.33027	0.66973	7.65947	7.71484	-2.02249	24.59555	27.99916	1.35905	0.73581	1.26589	128.43155	0.43636	0.45052	11.39705	1666.18576	0.66513	0.00454964	1809.83178	47445.669	156.6244	4716.776
1275.0	0.36834	0.63166	7.67027	7.70395	-2.16074	24.28281	28.06972	1.35127	0.74005	1.97355	128.31796	0.68304	0.44469	11.57527	2748.51983	0.65278	0.00274917	1810.03548	46718.436	145.4466	5249.852
1270.0	0.40313	0.59687	7.68039	7.69375	-2.29029	23.99355	28.12893	1.34407	0.74401	2.8527	128.24322	0.99098	0.43934	11.75684	4214.08895	0.64063	0.00178727	1810.23988	46040.225	135.6422	5734.324
1265.0	0.43503	0.56497	7.68991	7.68415	-2.41222	23.72479	28.17801	1.33738	0.74773	3.89602	128.20291	1.35807	0.4344	11.94175	6114.44655	0.62866	0.0012278	1810.44499	45405.204	127.0042	6176.023
1260.0	0.46439	0.53561	7.6989	7.67512	-2.52697	23.47546	28.218	1.33114	0.75123	5.09284	128.19409	1.78092	0.42983	12.13021	8501.8222	0.61688	8.80155E-4	1810.65014	44808.394	119.362	6579.924
1255.0	0.49147	0.50853	7.70741	7.66659	-2.6353	23.2435	28.24977	1.32531	0.75454	6.43046	128.21317	2.25535	0.4256	12.32234	11429.98628	0.60528	6.5254E-4	1810.855	44245.52	112.5748	6950.301
1250.0	0.51652	0.48348	7.71549	7.65847	-2.73834	23.02571	28.27412	1.31984	0.75767	7.89431	128.25689	2.77643	0.42166	12.51815	14953.36426	0.59387	4.97153E-4	1811.06005	43712.896	106.5248	7290.837
1245.0	0.53975	0.46025	7.72319	7.65079	-2.83588	22.82289	28.29165	1.31469	0.76064	9.46971	128.32375	3.33911	0.418	12.71787	19131.01507	0.58262	3.87314E-4	1811.26413	43207.336	101.112	7604.717
1240.0	0.56135	0.43865	7.73055	7.6434	-2.92974	22.62965	28.30297	1.30983	0.76346	11.1445	128.40955	3.93918	0.41457	12.92163	24029.55883	0.57155	3.07343E-4	1811.46893	42726.062	96.2548	7894.718
1238.76	0.56644	0.43356	7.73232	7.64162	-2.9524	22.58344	28.30473	1.30868	0.76413	11.57049	128.43435	4.0921	0.41376	12.97291	25358.28562	0.56882	2.90999E-4	1811.51724	42610.481	 	7962.798
1235.0	0.59522	0.40478	7.7415	7.6324	-3.06945	22.29395	28.35245	1.30323	0.76733	14.19311	128.57148	5.03616	0.40912	13.20659	32640.00773	0.55737	2.25518E-4	1812.48048	42038.47	137.5184	8391.444
1230.0	0.62913	0.37087	7.75257	7.62129	-3.21058	21.9511	28.40128	1.29667	0.7712	17.85618	128.7605	6.36073	0.40363	13.51971	43806.53183	0.54265	1.67475E-4	1813.70342	41348.698	137.9544	8890.755
1225.0	0.65854	0.34146	7.76247	7.6113	-3.3374	21.64971	28.43467	1.29084	0.77469	21.60318	128.95881	7.72188	0.39883	13.83554	56583.69033	0.5285	1.29226E-4	1814.86212	40730.729	123.5938	9318.665
1220.0	0.68427	0.31573	7.7714	7.60229	-3.45184	21.38432	28.4552	1.28561	0.77784	25.366	129.16693	9.09429	0.39461	14.15413	70996.51441	0.51488	1.02649E-4	1815.96093	40171.555	111.8348	9688.18
1215.0	0.70691	0.29309	7.77954	7.59405	-3.55656	21.14707	28.4647	1.28087	0.78072	29.09476	129.38334	10.45916	0.39087	14.47593	87092.88887	0.50175	8.33971E-5	1817.00627	39660.912	102.1286	10009.564
1210.0	0.72698	0.27302	7.78702	7.58645	-3.65301	20.93373	28.46488	1.27656	0.78335	32.75429	129.6078	11.80297	0.38754	14.80097	104955.6558	0.48908	6.89709E-5	1818.00276	39190.635	94.0554	10290.977
1205.0	0.74488	0.25512	7.79394	7.57943	-3.74216	20.7416	28.4571	1.27261	0.78579	36.32459	129.84012	13.11776	0.38456	15.12976	124705.9603	0.47684	5.78519E-5	1818.9538	38754.187	87.2896	10538.957
1200.0	0.76094	0.23906	7.80039	7.57285	-3.82578	20.56533	28.44242	1.26896	0.78805	39.79164	130.07863	14.39786	0.38186	15.46252	146475.0934	0.465	4.90874E-5	1819.86583	38346.288	81.5798	10758.78
1195.0	0.77542	0.22458	7.80645	7.56667	-3.90424	20.40396	28.42178	1.26557	0.79016	43.14765	130.3235	15.63987	0.37941	15.79964	170434.0231	0.45353	4.20437E-5	1820.74112	37962.651	76.7274	10954.733
1191.34	0.78512	0.21488	7.81065	7.56238	-3.95878	20.29423	28.4032	1.26323	0.79162	45.52456	130.50709	16.52117	0.37776	16.04975	189454.5811	0.44535	3.77283E-5	1821.35856	37695.457	 	11084.631
1190.0	0.79005	0.20995	7.81265	7.56033	-3.9847	20.23479	28.40191	1.26214	0.79231	46.7718	130.65001	16.98391	0.37694	16.11941	198177.6624	0.44302	3.60347E-5	1821.96928	37571.08065	78.31407	11157.337
1185.0	0.80692	0.19308	7.82105	7.55442	-4.05984	20.08122	28.3864	1.25851	0.79459	51.25853	131.14401	18.65114	0.37414	16.38154	232991.2103	0.43444	3.05456E-5	1824.25781	37134.25931	87.36427	11404.121
1180.0	0.82143	0.17857	7.82872	7.54897	-4.12901	19.94554	28.36352	1.25521	0.79668	55.412	131.61256	20.19811	0.37171	16.64678	270513.7021	0.42606	2.62185E-5	1826.54968	36734.86088	79.87969	11613.945
1175.0	0.83411	0.16589	7.83581	7.5439	-4.19346	19.82394	28.3347	1.25216	0.79862	59.27818	132.06211	21.641	0.36958	16.91593	311132.1572	0.41783	2.27172E-5	1828.84293	36364.39316	74.09354	11795.3
1170.0	0.84536	0.15464	7.84241	7.53909	-4.25449	19.71237	28.30106	1.24932	0.80043	62.90373	132.49691	22.99652	0.36768	17.18978	355299.2028	0.40976	1.98246E-5	1831.13718	36016.77596	69.52344	11954.263
1165.0	0.85545	0.14455	7.84862	7.53447	-4.31314	19.6076	28.26347	1.24665	0.80215	66.32461	132.91988	24.27763	0.36596	17.46894	403485.8149	0.40181	1.73965E-5	1833.43277	35687.52608	65.84998	12095.313
1160.0	0.86461	0.13539	7.85449	7.53001	-4.36976	19.50853	28.22264	1.24411	0.80378	69.57519	133.33394	25.49675	0.36439	17.75401	456240.3427	0.39399	1.53315E-5	1835.72714	35373.25832	62.85355	12221.833
1155.0	0.873	0.127	7.86007	7.52565	-4.42514	19.41267	28.17902	1.24169	0.80535	72.68062	133.74042	26.66307	0.36295	18.04575	514120.7901	0.38627	1.3558E-5	1838.02141	35071.35747	60.38017	12336.434
1150.0	0.88077	0.11923	7.86539	7.52136	-4.47972	19.31862	28.13309	1.23937	0.80686	75.66616	134.14069	27.78581	0.3616	18.34461	577775.6904	0.37864	1.2022E-5	1840.31506	34779.76131	58.31923	12441.177
1145.0	0.88802	0.11198	7.87048	7.5171	-4.53373	19.22561	28.08523	1.23712	0.80833	78.55517	134.53619	28.87358	0.36033	18.6511	647945.261	0.37111	1.06824E-5	1842.60649	34496.82166	56.58793	12537.708
1140.0	0.92063	0.0793738	7.88211	7.5029	-4.7141	18.71049	28.13177	1.23071	0.81254	91.37463	135.0455	33.71566	0.35508	19.10858	807605.0927	0.36095	8.54035E-6	1844.88781	33880.29528	123.30528	12968.267
1135.0	0.94653	0.0534664	7.89128	7.49068	-4.86931	18.27503	28.15633	1.22529	0.81613	102.69287	135.52948	38.00979	0.35087	19.58779	975323.0917	0.35087	7.04672E-6	1847.16796	33359.09197	104.24066	13303.938
1130.0	0.96474	0.0352553	7.89804	7.48107	-4.99135	17.94717	28.15389	1.22105	0.81897	111.36472	135.97818	41.31114	0.34788	20.06955	1139974.141	0.34123	6.00753E-6	1849.44535	32942.5205	83.31429	13535.411
1125.0	0.97783	0.0221679	7.90324	7.47322	-5.09104	17.69187	28.13271	1.21761	0.82128	118.04165	136.40123	43.8594	0.34568	20.55356	1305093.775	0.33201	5.22876E-6	1851.72034	32594.61468	69.58116	13698.651
1120.0	0.98742	0.0125774	7.90743	7.46659	-5.1752	17.48697	28.09849	1.21473	0.82323	123.23552	136.80542	45.84541	0.34403	21.03982	1474014.585	0.32318	4.61299E-6	1853.99384	32293.01929	60.31908	13816.009
1115.0	0.99458	0.00542311	7.91096	7.46084	-5.24827	17.318	28.05531	1.21224	0.82492	127.33273	137.19572	47.41441	0.34276	21.52836	1649802.207	0.31471	4.10668E-6	1856.26327	32023.3981	53.92424	13901.817
1110.0	1.0	0.0	7.91405	7.45572	-5.31332	17.17492	28.00505	1.21004	0.82642	130.61571	137.57528	48.67311	0.34176	 	1835249.854	 	3.67842E-6	 	31776.31892	49.41584	13965.508
1105.0	1.0	0.0	7.9166	7.45332	-5.34376	17.14967	27.92807	1.20899	0.82714	131.05426	137.91268	48.84173	0.34162	 	2002022.471	 	3.35981E-6	 	31581.31374	39.00104	 
1100.0	1.0	0.0	7.91914	7.45093	-5.37413	17.12443	27.85108	1.20793	0.82786	131.49205	138.24874	49.01011	0.34148	 	2185307.341	 	3.06685E-6	 	31411.41696	33.97936	 
1095.0	1.0	0.0	7.92168	7.44854	-5.40443	17.0992	27.77407	1.20687	0.82859	131.92909	138.58346	49.17823	0.34134	 	2386871.22	 	2.79764E-6	 	31241.86122	33.91115	 
1090.0	1.0	0.0	7.92421	7.44616	-5.43465	17.07398	27.69704	1.2058	0.82932	132.36538	138.91685	49.34612	0.34119	 	2608683.864	 	2.5504E-6	 	31072.64482	33.84328	 
1085.0	1.0	0.0	7.92674	7.44379	-5.46481	17.04877	27.62001	1.20473	0.83006	132.80092	139.2489	49.51375	0.34105	 	2852942.883	 	2.32349E-6	 	30903.76606	33.77575	 
1080.0	1.0	0.0	7.92926	7.44142	-5.49489	17.02357	27.54295	1.20365	0.8308	133.23572	139.57962	49.68114	0.34091	 	3122101.802	 	2.11537E-6	 	30735.22317	33.70858	 
1075.0	1.0	0.0	7.93178	7.43906	-5.5249	16.99839	27.46588	1.20257	0.83155	133.66977	139.90903	49.84829	0.34077	 	3418902.103	 	1.92459E-6	 	30567.0144	33.64175	 
1070.0	1.0	0.0	7.93429	7.4367	-5.55484	16.97321	27.3888	1.20148	0.8323	134.10307	140.23712	50.01519	0.34062	 	3746408.883	 	1.74983E-6	 	30399.13807	33.57527	 
1065.0	1.0	0.0	7.9368	7.43435	-5.58472	16.94805	27.31171	1.20039	0.83306	134.53564	140.5639	50.18185	0.34048	 	4108052.068	 	1.58985E-6	 	30231.59247	33.50912	 
1060.0	1.0	0.0	7.93931	7.432	-5.61452	16.92289	27.2346	1.19929	0.83383	134.96747	140.88938	50.34827	0.34034	 	4507672.572	 	1.44349E-6	 	30064.37595	33.4433	 
1055.0	1.0	0.0	7.94181	7.42966	-5.64425	16.89775	27.15747	1.19818	0.8346	135.39856	141.21355	50.51444	0.3402	 	4949574.594	 	1.30968E-6	 	29897.48684	33.37782	 
1050.0	1.0	0.0	7.94431	7.42732	-5.67391	16.87261	27.08034	1.19707	0.83537	135.82891	141.53643	50.68038	0.34005	 	5438585.882	 	1.18743E-6	 	29730.92348	33.31267	 
1045.24	1.0	0.0	7.94668	7.42511	-5.70209	16.84868	27.00686	1.19601	0.83611	136.23809	141.84274	50.83819	0.33992	 	5953039.192	 	1.08091E-6	 	29572.59804	 	 
1045.0	1.0	0.0	7.9468	7.42499	-5.70352	16.84741	27.00329	1.19595	0.83615	136.25884	141.85745	50.84623	0.33991	 	5980119.106	 	1.07583E-6	 	29564.63956	33.25678	 
1040.0	1.0	0.0	7.94933	7.42263	-5.73349	16.82066	26.92831	1.19473	0.83701	136.69413	142.16553	51.01488	0.33975	 	6580135.082	 	9.74016E-7	 	29397.78124	33.37166	 
1035.0	1.0	0.0	7.95185	7.42028	-5.76337	16.79393	26.85334	1.19351	0.83787	137.12876	142.47223	51.18333	0.33958	 	7245565.272	 	8.81195E-7	 	29231.24012	33.30822	 
1030.0	1.0	0.0	7.95437	7.41793	-5.79318	16.76723	26.77835	1.19228	0.83873	137.56274	142.77755	51.35158	0.33942	 	7984099.999	 	7.96627E-7	 	29065.0135	33.24532	 
1025.0	1.0	0.0	7.95688	7.41559	-5.82291	16.74056	26.70337	1.19104	0.83961	137.99608	143.0815	51.51964	0.33926	 	8804398.297	 	7.19634E-7	 	28899.09867	33.18297	 
1020.0	1.0	0.0	7.95938	7.41326	-5.85256	16.71392	26.62839	1.18979	0.84048	138.42877	143.38407	51.6875	0.33909	 	9716218.233	 	6.49589E-7	 	28733.49292	33.12115	 
1015.0	1.0	0.0	7.96188	7.41093	-5.88213	16.6873	26.55341	1.18854	0.84137	138.86084	143.68526	51.85518	0.33893	 	1.073056586E7	 	5.85909E-7	 	28568.19356	33.05987	 
1010.0	1.0	0.0	7.96438	7.40861	-5.91162	16.66071	26.47843	1.18727	0.84226	139.29228	143.98508	52.02266	0.33877	 	1.185986451E7	 	5.28061E-7	 	28403.1979	32.99913	 
1005.0	1.0	0.0	7.96687	7.40629	-5.94104	16.63414	26.40346	1.18601	0.84317	139.72312	144.28353	52.18997	0.3386	 	1.311815022E7	 	4.7555E-7	 	28238.50325	32.93893	 
1000.0	1.0	0.0	7.96935	7.40398	-5.97037	16.6076	26.3285	1.18473	0.84407	140.15334	144.58061	52.3571	0.33844	 	1.452129373E7	 	4.27918E-7	 	28074.10695	32.87926	 
995.0	1.0	0.0	7.97184	7.40168	-5.99963	16.58109	26.25354	1.18345	0.84499	140.58298	144.87632	52.52405	0.33827	 	1.608725759E7	 	3.84747E-7	 	27910.00631	32.82013	 
992.25	1.0	0.0	7.9732	7.40041	-6.0157	16.5665	26.21228	1.18274	0.8455	140.81924	145.03852	52.61588	0.33818	 	1.702606658E7	 	3.62743E-7	 	27819.79541	 	 
990.0	1.0	0.0	7.9743	7.39939	-6.02865	16.55522	26.17768	1.1822	0.84588	141.00933	145.176	52.68947	0.33812	 	1.783679671E7	 	3.45641E-7	 	27746.55275	32.69071	 
985.0	1.0	0.0	7.97674	7.39713	-6.0574	16.53014	26.10068	1.18099	0.84675	141.43168	145.48101	52.85299	0.33797	 	1.979321814E7	 	3.10244E-7	 	27583.84207	32.54214	 
980.0	1.0	0.0	7.97917	7.39487	-6.08607	16.50508	26.02366	1.17978	0.84762	141.85328	145.78486	53.01626	0.33783	 	2.198228498E7	 	2.78238E-7	 	27421.44621	32.47917	 
975.0	1.0	0.0	7.9816	7.39262	-6.11467	16.48004	25.94661	1.17856	0.84849	142.27413	146.08755	53.17928	0.33768	 	2.443377438E7	 	2.49323E-7	 	27259.3631	32.41662	 
970.0	1.0	0.0	7.98403	7.39037	-6.14319	16.45503	25.86954	1.17734	0.84937	142.69423	146.38909	53.34204	0.33754	 	2.718154188E7	 	2.23222E-7	 	27097.59069	32.35448	 
965.0	1.0	0.0	7.98645	7.38813	-6.17165	16.43004	25.79244	1.17611	0.85026	143.11359	146.68947	53.50456	0.3374	 	3.026411441E7	 	1.99679E-7	 	26936.12697	32.29274	 
960.0	1.0	0.0	7.98887	7.3859	-6.20003	16.40507	25.71532	1.17487	0.85116	143.53222	146.98871	53.66683	0.33725	 	3.372537898E7	 	1.78462E-7	 	26774.96997	32.2314	 
955.0	1.0	0.0	7.99128	7.38367	-6.22834	16.38012	25.63817	1.17363	0.85206	143.95011	147.2868	53.82886	0.33711	 	3.761537473E7	 	1.59358E-7	 	26614.11773	32.17045	 
950.0	1.0	0.0	7.99369	7.38144	-6.25657	16.35519	25.561	1.17238	0.85297	144.36727	147.58375	53.99064	0.33697	 	4.199121407E7	 	1.4217E-7	 	26453.56835	32.10988	 
945.0	1.0	0.0	7.99609	7.37923	-6.28474	16.33028	25.48381	1.17112	0.85388	144.78371	147.87956	54.15218	0.33682	 	4.691813974E7	 	1.2672E-7	 	26293.31994	32.04968	 
940.0	1.0	0.0	7.99849	7.37701	-6.31283	16.30539	25.40659	1.16986	0.8548	145.19942	148.17424	54.31348	0.33668	 	5.247076519E7	 	1.12845E-7	 	26133.37066	31.98986	 
935.0	1.0	0.0	8.00088	7.37481	-6.34085	16.28052	25.32936	1.16859	0.85573	145.61442	148.46778	54.47454	0.33654	 	5.873449811E7	 	1.00396E-7	 	25973.71869	31.93039	 
930.0	1.0	0.0	8.00327	7.37261	-6.3688	16.25566	25.2521	1.16732	0.85667	146.02871	148.76019	54.63536	0.33639	 	6.580721336E7	 	8.92345E-8	 	25814.36226	31.87129	 
925.0	1.0	0.0	8.00565	7.37041	-6.39668	16.23083	25.17482	1.16603	0.85761	146.44228	149.05149	54.79595	0.33625	 	7.380117028E7	 	7.92382E-8	 	25655.29959	31.81253	 
920.0	1.0	0.0	8.00803	7.36822	-6.42449	16.20601	25.09752	1.16474	0.85856	146.85514	149.34165	54.9563	0.33611	 	8.284528108E7	 	7.02933E-8	 	25496.52898	31.75412	 
915.0	1.0	0.0	8.0104	7.36604	-6.45223	16.1812	25.02021	1.16345	0.85952	147.26731	149.6307	55.11642	0.33597	 	9.308772763E7	 	6.22968E-8	 	25338.04874	31.69605	 
910.0	1.0	0.0	8.01277	7.36386	-6.47989	16.15642	24.94287	1.16214	0.86048	147.67877	149.91864	55.27631	0.33582	 	1.046990239E8	 	5.51549E-8	 	25179.8572	31.63831	 
905.0	1.0	0.0	8.01514	7.36169	-6.50749	16.13165	24.86552	1.16083	0.86145	148.08953	150.20546	55.43596	0.33568	 	1.178755934E8	 	4.87824E-8	 	25021.95274	31.58089	 
900.0	1.0	0.0	8.0175	7.35952	-6.53502	16.10689	24.78814	1.15951	0.86243	148.4996	150.49118	55.59538	0.33554	 	1.328439649E8	 	4.31021E-8	 	24864.33376	31.5238	 
895.0	1.0	0.0	8.01986	7.35736	-6.56247	16.08215	24.71075	1.15819	0.86342	148.90898	150.77579	55.75458	0.3354	 	1.498656585E8	 	3.80437E-8	 	24706.99868	31.46702	 
890.0	1.0	0.0	8.02221	7.3552	-6.58986	16.05742	24.63335	1.15685	0.86441	149.31767	151.05929	55.91355	0.33525	 	1.692429555E8	 	3.35438E-8	 	24549.94596	31.41054	 
885.0	1.0	0.0	8.02455	7.35305	-6.61717	16.03271	24.55592	1.15551	0.86542	149.72568	151.3417	56.07229	0.33511	 	1.913256215E8	 	2.95446E-8	 	24393.17409	31.35437	 
880.0	1.0	0.0	8.0269	7.35091	-6.64442	16.00801	24.47848	1.15416	0.86643	150.133	151.62301	56.2308	0.33497	 	2.165188521E8	 	2.59942E-8	 	24236.68156	31.29851	 
875.0	1.0	0.0	8.02923	7.34877	-6.6716	15.98333	24.40102	1.15281	0.86745	150.53965	151.90323	56.38909	0.33483	 	2.452926021E8	 	2.28455E-8	 	24080.4669	31.24293	 
870.0	1.0	0.0	8.03157	7.34663	-6.6987	15.95866	24.32355	1.15144	0.86848	150.94561	152.18236	56.54716	0.33469	 	2.781925711E8	 	2.0056E-8	 	23924.52874	31.18763	 
865.0	1.0	0.0	8.03389	7.3445	-6.72574	15.934	24.24606	1.15007	0.86951	151.3509	152.46041	56.70501	0.33455	 	3.158531881E8	 	1.75874E-8	 	23768.86567	31.13261	 
860.0	1.0	0.0	8.03622	7.34238	-6.75271	15.90935	24.16855	1.14869	0.87056	151.75553	152.73737	56.86263	0.3344	 	3.590128942E8	 	1.54051E-8	 	23613.47633	31.07787	 
855.0	1.0	0.0	8.03854	7.34026	-6.77961	15.88472	24.09103	1.1473	0.87161	152.15948	153.01325	57.02003	0.33426	 	4.085323266E8	 	1.34781E-8	 	23458.35937	31.02339	 
850.0	1.0	0.0	8.04085	7.33815	-6.80644	15.8601	24.01349	1.1459	0.87267	152.56276	153.28805	57.17722	0.33412	 	4.654156936E8	 	1.17783E-8	 	23303.51346	30.96918	 
845.0	1.0	0.0	8.04316	7.33604	-6.83321	15.83547	23.93576	1.14451	0.87374	152.96422	153.56157	57.3337	0.33398	 	5.308076245E8	 	1.02813E-8	 	23152.37377	30.22794	 
840.0	1.0	0.0	8.04547	7.33394	-6.85991	15.81084	23.85801	1.1431	0.87481	153.36505	153.83402	57.48999	0.33384	 	6.061026815E8	 	8.96384E-9	 	22998.40327	30.7941	 
835.0	1.0	0.0	8.04777	7.33184	-6.88654	15.78622	23.78026	1.14169	0.87589	153.76526	154.1054	57.64607	0.3337	 	6.929072817E8	 	7.80567E-9	 	22844.68844	30.74297	 
830.0	1.0	0.0	8.05006	7.32975	-6.91311	15.7616	23.7025	1.14027	0.87699	154.16485	154.37572	57.80195	0.33356	 	7.931055353E8	 	6.78876E-9	 	22691.22869	30.69195	 
825.0	1.0	0.0	8.05236	7.32766	-6.93961	15.73698	23.62473	1.13884	0.87809	154.56381	154.64498	57.95762	0.33342	 	9.089101849E8	 	5.89695E-9	 	22538.02343	30.64105	 
820.0	1.0	0.0	8.05464	7.32558	-6.96604	15.71237	23.54695	1.13739	0.8792	154.96214	154.91317	58.1131	0.33328	 	1.042923424E9	 	5.11581E-9	 	22385.07208	30.59027	 
815.0	1.0	0.0	8.05693	7.3235	-6.9924	15.68776	23.46916	1.13594	0.88032	155.35986	155.18031	58.26837	0.33314	 	1.198209614E9	 	4.43244E-9	 	22232.37406	30.53961	 
810.0	1.0	0.0	8.05921	7.32143	-7.0187	15.66315	23.39136	1.13449	0.88146	155.75695	155.4464	58.42344	0.333	 	1.378382361E9	 	3.83536E-9	 	22079.92877	30.48906	 
805.0	1.0	0.0	8.06148	7.31937	-7.04493	15.63855	23.31356	1.13302	0.8826	156.15341	155.71144	58.57831	0.33286	 	1.58770892E9	 	3.31432E-9	 	21927.73562	30.43863	 
800.0	1.0	0.0	8.06375	7.31731	-7.0711	15.61396	23.23574	1.13154	0.88375	156.54925	155.97542	58.73298	0.33272	 	1.831235594E9	 	2.86024E-9	 	21775.79402	30.38832	 
795.0	1.0	0.0	8.06602	7.31525	-7.09719	15.58936	23.15791	1.13005	0.88491	156.94447	156.23837	58.88744	0.33258	 	2.114938538E9	 	2.46502E-9	 	21624.10339	30.33813	 
790.0	1.0	0.0	8.06828	7.3132	-7.12322	15.56478	23.08008	1.12856	0.88609	157.33907	156.50027	59.04171	0.33244	 	2.445905421E9	 	2.12149E-9	 	21472.66312	30.28805	 
785.0	1.0	0.0	8.07053	7.31116	-7.14918	15.54019	23.00223	1.12705	0.88727	157.73304	156.76113	59.19577	0.3323	 	2.832554588E9	 	1.82329E-9	 	21321.47261	30.2381	 
780.0	1.0	0.0	8.07278	7.30912	-7.17508	15.51561	22.92438	1.12553	0.88847	158.12639	157.02095	59.34962	0.33216	 	3.284899868E9	 	1.56479E-9	 	21170.53128	30.18827	 
775.0	1.0	0.0	8.07503	7.30709	-7.20091	15.49103	22.84651	1.12401	0.88967	158.51912	157.27975	59.50328	0.33202	 	3.814871057E9	 	1.341E-9	 	21019.83851	30.13855	 
770.0	1.0	0.0	8.07727	7.30506	-7.22667	15.46646	22.76864	1.12247	0.89089	158.91122	157.53751	59.65673	0.33188	 	4.436702398E9	 	1.14755E-9	 	20869.39371	30.08896	 
765.0	1.0	0.0	8.07951	7.30303	-7.25237	15.44189	22.69075	1.12093	0.89212	159.3027	157.79424	59.80998	0.33174	 	5.167404253E9	 	9.8056E-10	 	20719.19626	30.03949	 
760.0	1.0	0.0	8.08174	7.30102	-7.27799	15.41733	22.61286	1.11937	0.89336	159.69355	158.04994	59.96303	0.3316	 	6.027336725E9	 	8.36613E-10	 	20569.24555	29.99014	 
755.0	1.0	0.0	8.08397	7.299	-7.30356	15.39277	22.53495	1.1178	0.89461	160.08379	158.30462	60.11587	0.33146	 	7.040908446E9	 	7.12713E-10	 	20419.54098	29.94091	 
750.0	1.0	0.0	8.0862	7.297	-7.32905	15.36821	22.45703	1.11623	0.89587	160.4734	158.55829	60.26852	0.33132	 	8.237429272E9	 	6.06226E-10	 	20270.08191	29.89181	 
745.0	1.0	0.0	8.08842	7.29499	-7.35448	15.34366	22.37911	1.11464	0.89715	160.86239	158.81093	60.42096	0.33118	 	9.652152595E9	 	5.14842E-10	 	20120.86774	29.84284	 
740.0	1.0	0.0	8.09063	7.293	-7.37984	15.31911	22.30117	1.11304	0.89844	161.25075	159.06256	60.57319	0.33104	 	1.13276E10	 	4.3654E-10	 	19971.89782	29.79398	 
735.0	1.0	0.0	8.09284	7.29101	-7.40513	15.29456	22.22322	1.11144	0.89974	161.63849	159.31318	60.72523	0.3309	 	1.3314899999999998E10	 	3.69551E-10	 	19823.17155	29.74525	 
730.0	1.0	0.0	8.09505	7.28902	-7.43036	15.27002	22.14526	1.10982	0.90105	162.02561	159.56278	60.87706	0.33076	 	1.5676099999999998E10	 	3.1233E-10	 	19674.68828	29.69666	 
725.0	1.0	0.0	8.09725	7.28704	-7.45552	15.24549	22.06729	1.10819	0.90238	162.41211	159.81138	61.02869	0.33062	 	1.84863E10	 	2.63531E-10	 	19526.44734	29.64819	 
720.0	1.0	0.0	8.09944	7.28506	-7.48061	15.22095	21.98931	1.10655	0.90371	162.79799	160.05898	61.18011	0.33048	 	2.18365E10	 	2.21983E-10	 	19378.44813	29.59984	 
715.0	1.0	0.0	8.10163	7.28309	-7.50564	15.19643	21.91131	1.10489	0.90506	163.18324	160.30557	61.33134	0.33034	 	2.5837299999999996E10	 	1.86665E-10	 	19230.68996	29.55163	 
710.0	1.0	0.0	8.10382	7.28113	-7.5306	15.1719	21.83331	1.10323	0.90643	163.56787	160.55117	61.48235	0.3302	 	3.0623499999999996E10	 	1.56694E-10	 	19083.17219	29.50355	 
705.0	1.0	0.0	8.106	7.27917	-7.55549	15.14738	21.75529	1.10156	0.90781	163.95188	160.79577	61.63317	0.33006	 	3.63594E10	 	1.31303E-10	 	18935.89414	29.45561	 
700.0	1.0	0.0	8.10818	7.27721	-7.58032	15.12286	21.67727	1.09987	0.9092	164.33526	161.03937	61.78378	0.32992	 	4.3246E10	 	1.0983E-10	 	18788.85512	29.4078	 
695.0	1.0	0.0	8.11035	7.27526	-7.60508	15.09835	21.59923	1.09817	0.9106	164.71803	161.28198	61.93419	0.32978	 	5.152909999999999E10	 	9.17016E-11	 	18642.05448	29.36013	 
690.0	1.0	0.0	8.11252	7.27332	-7.62977	15.07384	21.52117	1.09646	0.91202	165.10017	161.5236	62.0844	0.32964	 	6.151049999999999E10	 	7.64243E-11	 	18495.49149	29.3126	 
685.0	1.0	0.0	8.11469	7.27138	-7.6544	15.04933	21.44311	1.09474	0.91346	165.48169	161.76424	62.23441	0.3295	 	7.35611E10	 	6.35729E-11	 	18349.16546	29.26521	 
680.0	1.0	0.0	8.11684	7.26944	-7.67896	15.02483	21.36503	1.09301	0.91491	165.86258	162.0039	62.38421	0.32936	 	8.81379E10	 	5.27819E-11	 	18203.07567	29.21796	 
675.0	1.0	0.0	8.119	7.26752	-7.70346	15.00034	21.28694	1.09126	0.91637	166.24286	162.24257	62.5338	0.32922	 	1.05805E11	 	4.37379E-11	 	18057.2214	29.17085	 
670.0	1.0	0.0	8.12115	7.26559	-7.72788	14.97584	21.20884	1.08951	0.91785	166.62251	162.48026	62.6832	0.32908	 	1.27259E11	 	3.61725E-11	 	17911.60188	29.1239	 
665.0	1.0	0.0	8.12329	7.26367	-7.75224	14.95135	21.13073	1.08774	0.91934	167.00154	162.71698	62.83239	0.32894	 	1.53365E11	 	2.9856E-11	 	17766.21638	29.0771	 
660.0	1.0	0.0	8.12543	7.26176	-7.77654	14.92687	21.0526	1.08596	0.92085	167.37995	162.95272	62.98137	0.32881	 	1.85197E11	 	2.45925E-11	 	17621.06491	29.03029	 
655.0	1.0	0.0	8.12757	7.25985	-7.80076	14.90239	20.97446	1.08416	0.92237	167.75774	163.18749	63.13015	0.32867	 	2.24091E11	 	2.02153E-11	 	17476.15137	28.98271	 
650.0	1.0	0.0	8.1297	7.25795	-7.82492	14.87791	20.8963	1.08235	0.92391	168.1349	163.4213	63.27873	0.32853	 	2.71713E11	 	1.65824E-11	 	17331.48108	28.93406	 
645.0	1.0	0.0	8.13182	7.25605	-7.84902	14.85344	20.81813	1.08053	0.92547	168.51144	163.65413	63.42711	0.32839	 	3.30147E11	 	1.35735E-11	 	17187.05349	28.88552	 
640.0	1.0	0.0	8.13394	7.25416	-7.87305	14.82897	20.73995	1.0787	0.92704	168.88737	163.886	63.57528	0.32825	 	4.02006E11	 	1.10866E-11	 	17042.86803	28.83709	 
635.0	1.0	0.0	8.13606	7.25228	-7.89701	14.8045	20.66176	1.07685	0.92863	169.26267	164.11692	63.72325	0.32811	 	4.90567E11	 	9.03538E-12	 	16898.92416	28.78877	 
630.0	1.0	0.0	8.13817	7.25039	-7.9209	14.78004	20.58355	1.07499	0.93024	169.63734	164.34687	63.87101	0.32797	 	5.99959E11	 	7.34726E-12	 	16755.22131	28.74057	 
625.0	1.0	0.0	8.14028	7.24852	-7.94473	14.75558	20.50533	1.07312	0.93186	170.0114	164.57587	64.01857	0.32783	 	7.3539E11	 	5.96098E-12	 	16611.75892	28.69248	 
620.0	1.0	0.0	8.14238	7.24665	-7.96849	14.73113	20.42709	1.07123	0.9335	170.38483	164.80391	64.16593	0.32769	 	9.0345E11	 	4.82511E-12	 	16468.53633	28.64452	 
615.0	1.0	0.0	8.14448	7.24478	-7.99219	14.70668	20.34884	1.06933	0.93516	170.75765	165.031	64.31308	0.32755	 	1.11249E12	 	3.89651E-12	 	16325.55305	28.59666	 
610.0	1.0	0.0	8.14657	7.24292	-8.01582	14.68224	20.27057	1.06742	0.93684	171.12984	165.25714	64.46003	0.32741	 	1.37314E12	 	3.13912E-12	 	16182.80854	28.5489	 
605.0	1.0	0.0	8.14866	7.24106	-8.03938	14.65779	20.19229	1.06549	0.93854	171.50141	165.48233	64.60677	0.32727	 	1.69891E12	 	2.52281E-12	 	16040.30226	28.50126	 
600.0	1.0	0.0	8.15074	7.23921	-8.06288	14.63336	20.11399	1.06355	0.94025	171.87236	165.70658	64.75331	0.32713	 	2.10711E12	 	2.0225E-12	 	15898.03368	28.45372	 
595.0	1.0	0.0	8.15282	7.23737	-8.08631	14.60892	20.03568	1.06159	0.94198	172.24269	165.92989	64.89965	0.32699	 	2.61987E12	 	1.61734E-12	 	15756.00228	28.40628	 
590.0	1.0	0.0	8.15489	7.23553	-8.10967	14.58449	19.95735	1.05962	0.94374	172.61239	166.15226	65.04578	0.32685	 	3.26565E12	 	1.29004E-12	 	15614.20751	28.35895	 
585.0	1.0	0.0	8.15696	7.2337	-8.13297	14.56007	19.879	1.05763	0.94551	172.98148	166.37369	65.1917	0.32671	 	4.08107E12	 	1.0263E-12	 	15472.64887	28.31173	 
580.0	1.0	0.0	8.15902	7.23187	-8.1562	14.53565	19.80064	1.05563	0.9473	173.34994	166.59419	65.33742	0.32657	 	5.11344E12	 	8.14327E-13	 	15331.32583	28.26461	 
575.0	1.0	0.0	8.16108	7.23004	-8.17936	14.51123	19.72227	1.05361	0.94911	173.71778	166.81375	65.48294	0.32644	 	6.42402E12	 	6.44396E-13	 	15190.23786	28.21759	 
570.0	1.0	0.0	8.16313	7.22822	-8.20246	14.48681	19.64388	1.05158	0.95095	174.085	167.03238	65.62825	0.3263	 	8.09237E12	 	5.08529E-13	 	15049.38446	28.17068	 
565.0	1.0	0.0	8.16518	7.22641	-8.2255	14.46241	19.56547	1.04954	0.9528	174.4516	167.25009	65.77336	0.32616	 	1.02221E13	 	4.00191E-13	 	14908.76512	28.12387	 
560.0	1.0	0.0	8.16723	7.2246	-8.24846	14.438	19.48704	1.04747	0.95468	174.81758	167.46687	65.91826	0.32602	 	1.29487E13	 	3.1404E-13	 	14768.37932	28.07716	 
555.0	1.0	0.0	8.16926	7.2228	-8.27136	14.4136	19.4086	1.0454	0.95658	175.18293	167.68272	66.06296	0.32588	 	1.64493E13	 	2.45724E-13	 	14628.22657	28.03055	 
550.0	1.0	0.0	8.1713	7.221	-8.29419	14.3892	19.33014	1.0433	0.9585	175.54767	167.89766	66.20746	0.32574	 	2.09572E13	 	1.91705E-13	 	14488.30638	27.98404	 
545.0	1.0	0.0	8.17333	7.21921	-8.31696	14.36481	19.25166	1.04119	0.96044	175.91178	168.11167	66.35175	0.3256	 	2.67796E13	 	1.49113E-13	 	14348.61823	27.93763	 
540.0	1.0	0.0	8.17535	7.21742	-8.33966	14.34042	19.17316	1.03907	0.9624	176.27528	168.32477	66.49583	0.32546	 	3.4323E13	 	1.1563E-13	 	14209.16164	27.89132	 
535.0	1.0	0.0	8.17737	7.21564	-8.3623	14.31603	19.09465	1.03692	0.96439	176.63815	168.53696	66.63971	0.32532	 	4.41265E13	 	8.9388E-14	 	14069.93613	27.8451	 
530.0	1.0	0.0	8.17939	7.21386	-8.38487	14.29165	19.01612	1.03476	0.9664	177.0004	168.74823	66.78338	0.32518	 	5.69079E13	 	6.88828E-14	 	13930.94121	27.79899	 
525.0	1.0	0.0	8.18139	7.21209	-8.40737	14.26727	18.93757	1.03259	0.96844	177.36203	168.9586	66.92685	0.32504	 	7.36257E13	 	5.29105E-14	 	13792.17641	27.75296	 
520.0	1.0	0.0	8.1834	7.21032	-8.42981	14.2429	18.859	1.03039	0.9705	177.72304	169.16805	67.07011	0.3249	 	9.55646E13	 	4.05084E-14	 	13653.64124	27.70703	 
515.0	1.0	0.0	8.1854	7.20856	-8.45218	14.21853	18.78041	1.02818	0.97259	178.08342	169.37661	67.21317	0.32477	 	1.24452E14	 	3.09097E-14	 	13515.33524	27.6612	 
510.0	1.0	0.0	8.18739	7.2068	-8.47448	14.19416	18.7018	1.02595	0.9747	178.44319	169.58425	67.35602	0.32463	 	1.62619E14	 	2.3505E-14	 	13377.25796	27.61546	 
505.0	1.0	0.0	8.18938	7.20505	-8.49672	14.1698	18.62317	1.02371	0.97684	178.80233	169.791	67.49867	0.32449	 	2.13222E14	 	1.78122E-14	 	13239.40892	27.56981	 
500.0	1.0	0.0	8.19137	7.20331	-8.51889	14.14544	18.54452	1.02144	0.97901	179.16086	169.99685	67.64111	0.32435	 	2.8055399999999997E14	 	1.34504E-14	 	13101.78767	27.52425	 
495.0	1.0	0.0	8.19335	7.20157	-8.541	14.12109	18.46585	1.01916	0.9812	179.51876	170.2018	67.78335	0.32421	 	3.70469E14	 	1.012E-14	 	12964.39378	27.47878	 
490.0	1.0	0.0	8.19532	7.19983	-8.56304	14.09674	18.38716	1.01686	0.98342	179.87604	170.40586	67.92538	0.32407	 	4.90986E14	 	7.58625E-15	 	12827.22678	27.4334	 
485.0	1.0	0.0	8.19729	7.1981	-8.58501	14.07239	18.30845	1.01454	0.98567	180.2327	170.60903	68.0672	0.32393	 	6.53131E14	 	5.66555E-15	 	12690.28626	27.38811	 
480.0	1.0	0.0	8.19926	7.19638	-8.60692	14.04805	18.22972	1.0122	0.98794	180.58874	170.81131	68.20882	0.32379	 	8.7212E14	 	4.21494E-15	 	12553.57177	27.3429	 
475.0	1.0	0.0	8.20122	7.19466	-8.62876	14.02371	18.15097	1.00985	0.99025	180.94416	171.0127	68.35024	0.32365	 	1.16905E15	 	3.12352E-15	 	12417.08289	27.29778	 
470.0	1.0	0.0	8.20317	7.19294	-8.65054	13.99938	18.07219	1.00747	0.99259	181.29896	171.2132	68.49144	0.32352	 	1.57325E15	 	2.3055E-15	 	12280.8192	27.25274	 
465.0	1.0	0.0	8.20512	7.19123	-8.67225	13.97505	17.99339	1.00507	0.99495	181.65314	171.41282	68.63245	0.32338	 	2.12575E15	 	1.6948E-15	 	12144.78028	27.20778	 
460.0	1.0	0.0	8.20707	7.18953	-8.6939	13.95072	17.91457	1.00266	0.99735	182.0067	171.61156	68.77324	0.32324	 	2.8841E15	 	1.24071E-15	 	12008.96574	27.16291	 
455.0	1.0	0.0	8.20901	7.18783	-8.71548	13.9264	17.83573	1.00022	0.99978	182.35963	171.80943	68.91383	0.3231	 	3.92941E15	 	9.04441E-16	 	11873.37517	27.11811	 
450.0	1.0	0.0	8.21094	7.18613	-8.73699	13.90208	17.75686	0.99777	1.00224	182.71195	172.00641	69.05421	0.32296	 	5.37652E15	 	6.56468E-16	 	11738.00818	27.0734	 
445.0	1.0	0.0	8.21287	7.18445	-8.75843	13.87776	17.67797	0.99529	1.00473	183.06364	172.20252	69.19439	0.32282	 	7.38877E15	 	4.74384E-16	 	11602.86439	27.02876	 
440.0	1.0	0.0	8.2148	7.18276	-8.77982	13.85345	17.59905	0.99279	1.00726	183.41471	172.39776	69.33436	0.32268	 	1.01995E16	 	3.41263E-16	 	11467.94341	26.9842	 
435.0	1.0	0.0	8.21672	7.18108	-8.80113	13.82915	17.52011	0.99027	1.00982	183.76517	172.59213	69.47413	0.32254	 	1.41437E16	 	2.44371E-16	 	11333.24487	26.93971	 
430.0	1.0	0.0	8.21863	7.17941	-8.82238	13.80485	17.44115	0.98773	1.01242	184.115	172.78563	69.61369	0.32241	 	1.97045E16	 	1.74168E-16	 	11198.76843	26.89529	 
425.0	1.0	0.0	8.22054	7.17774	-8.84356	13.78055	17.36216	0.98517	1.01505	184.46421	172.97826	69.75304	0.32227	 	2.75823E16	 	1.23539E-16	 	11064.51372	26.85094	 
420.0	1.0	0.0	8.22245	7.17608	-8.86468	13.75625	17.28314	0.98259	1.01772	184.8128	173.17003	69.89218	0.32213	 	3.87975E16	 	8.71988E-17	 	10930.48039	26.80667	 
415.0	1.0	0.0	8.22435	7.17442	-8.88573	13.73196	17.2041	0.97998	1.02043	185.16077	173.36093	70.03112	0.32199	 	5.48441E16	 	6.12407E-17	 	10796.66816	26.76245	 
410.0	1.0	0.0	8.22624	7.17277	-8.90672	13.70768	17.12503	0.97735	1.02317	185.50811	173.55098	70.16985	0.32185	 	7.79213E16	 	4.27904E-17	 	10663.07676	26.71828	 
405.0	1.0	0.0	8.22813	7.17112	-8.92764	13.68339	17.04593	0.9747	1.02596	185.85484	173.74017	70.30838	0.32171	 	1.11284E17	 	2.97427E-17	 	10529.70592	26.67417	 
400.0	1.0	0.0	8.23002	7.16948	-8.9485	13.65911	16.96681	0.97203	1.02878	186.20095	173.9285	70.4467	0.32157	 	1.59774E17	 	2.05633E-17	 	10396.55543	26.6301	 
395.0	1.0	0.0	8.2319	7.16784	-8.96929	13.63484	16.88765	0.96933	1.03164	186.54643	174.11598	70.58481	0.32143	 	2.30639E17	 	1.41393E-17	 	10263.62503	26.58608	 
390.0	1.0	0.0	8.23377	7.16621	-8.99001	13.61057	16.80847	0.96661	1.03455	186.8913	174.30261	70.72271	0.3213	 	3.34782E17	 	9.66799E-18	 	10130.91451	26.5421	 
385.0	1.0	0.0	8.23564	7.16458	-9.01067	13.5863	16.72926	0.96386	1.03749	187.23555	174.48839	70.86041	0.32116	 	4.8871E17	 	6.57295E-18	 	9998.42366	26.49817	 
380.0	1.0	0.0	8.23751	7.16296	-9.03126	13.56204	16.65002	0.96109	1.04048	187.57917	174.67332	70.9979	0.32102	 	7.17555E17	 	4.44267E-18	 	9866.15228	26.45428	 
375.0	1.0	0.0	8.23936	7.16135	-9.05179	13.53778	16.57075	0.9583	1.04352	187.92217	174.85741	71.13519	0.32088	 	1.05982E18	 	2.9849E-18	 	9734.10018	26.41042	 
370.0	1.0	0.0	8.24122	7.15974	-9.07225	13.51353	16.49144	0.95548	1.0466	188.26456	175.04065	71.27226	0.32074	 	1.57487E18	 	1.99322E-18	 	9602.26719	26.3666	 
365.0	1.0	0.0	8.24307	7.15813	-9.09264	13.48928	16.41211	0.95263	1.04972	188.60632	175.22305	71.40913	0.3206	 	2.35478E18	 	1.32269E-18	 	9470.65313	26.32281	 
360.0	1.0	0.0	8.24491	7.15653	-9.11297	13.46503	16.33274	0.94976	1.0529	188.94746	175.40461	71.5458	0.32047	 	3.54337E18	 	8.72121E-19	 	9339.25787	26.27905	 
355.0	1.0	0.0	8.24675	7.15493	-9.13323	13.44079	16.25334	0.94686	1.05612	189.28798	175.58534	71.68225	0.32033	 	5.36671E18	 	5.71271E-19	 	9208.08127	26.23532	 
350.0	1.0	0.0	8.24858	7.15334	-9.15343	13.41655	16.17391	0.94394	1.05939	189.62788	175.76523	71.8185	0.32019	 	8.18262E18	 	3.71695E-19	 	9077.1232	26.19161	 
345.0	1.0	0.0	8.25041	7.15176	-9.17357	13.39231	16.09444	0.94099	1.06271	189.96716	175.94428	71.95454	0.32005	 	1.25615E19	 	2.40182E-19	 	8946.38356	26.14793	 
340.0	1.0	0.0	8.25223	7.15018	-9.19363	13.36808	16.01494	0.93801	1.06609	190.30582	176.12251	72.09037	0.31991	 	1.94189E19	 	1.5411E-19	 	8815.86225	26.10426	 
335.0	1.0	0.0	8.25405	7.1486	-9.21364	13.34386	15.9354	0.935	1.06951	190.64386	176.2999	72.226	0.31977	 	3.02356E19	 	9.817E-20	 	8685.55922	26.06061	 
330.0	1.0	0.0	8.25587	7.14703	-9.23357	13.31963	15.85583	0.93197	1.07299	190.98128	176.47647	72.36141	0.31963	 	4.74243E19	 	6.20742E-20	 	8555.47438	26.01697	 
325.0	1.0	0.0	8.25767	7.14547	-9.25344	13.29541	15.77621	0.92891	1.07653	191.31808	176.65221	72.49662	0.3195	 	7.49466E19	 	3.89533E-20	 	8425.60771	25.97333	 
320.0	1.0	0.0	8.25948	7.14391	-9.27325	13.2712	15.69657	0.92582	1.08013	191.65425	176.82713	72.63162	0.31936	 	1.1935899999999998E20	 	2.42548E-20	 	8295.95918	25.92971	 
315.0	1.0	0.0	8.26127	7.14235	-9.29299	13.24699	15.61688	0.9227	1.08378	191.98981	177.00123	72.76642	0.31922	 	1.91598E20	 	1.49825E-20	 	8166.52878	25.88608	 
310.0	1.0	0.0	8.26307	7.14081	-9.31266	13.22278	15.53715	0.91955	1.08749	192.32475	177.17451	72.901	0.31908	 	3.10066E20	 	9.17937E-21	 	8037.31654	25.84245	 
305.0	1.0	0.0	8.26485	7.13926	-9.33227	13.19858	15.45738	0.91637	1.09126	192.65907	177.34697	73.03538	0.31894	 	5.0597899999999997E20	 	5.57692E-21	 	7908.32249	25.79881	 
300.0	1.0	0.0	8.26664	7.13772	-9.35182	13.17438	15.37758	0.91316	1.0951	192.99276	177.51861	73.16955	0.31881	 	8.32764E20	 	3.35918E-21	 	7779.54668	25.75516	 
295.0	1.0	0.0	8.26841	7.13619	-9.37129	13.15018	15.29773	0.90992	1.099	193.32584	177.68944	73.30351	0.31867	 	1.38267E21	 	2.00553E-21	 	7650.9892	25.7115	 
290.0	1.0	0.0	8.27018	7.13466	-9.39071	13.12599	15.21783	0.90665	1.10297	193.65829	177.85946	73.43727	0.31853	 	2.31648E21	 	1.18654E-21	 	7522.65013	25.66781	 
285.0	1.0	0.0	8.27195	7.13314	-9.41005	13.10181	15.1379	0.90334	1.107	193.99013	178.02867	73.57081	0.31839	 	3.91698E21	 	6.95483E-22	 	7394.52963	25.6241	 
280.0	1.0	0.0	8.27371	7.13162	-9.42934	13.07762	15.05791	0.9	1.11111	194.32134	178.19707	73.70415	0.31825	 	6.68649E21	 	4.03767E-22	 	7266.62784	25.58036	 
275.0	1.0	0.0	8.27547	7.13011	-9.44855	13.05344	14.97789	0.89663	1.11528	194.65194	178.36466	73.83728	0.31811	 	1.15261E22	 	2.32115E-22	 	7138.94494	25.53658	 
270.0	1.0	0.0	8.27722	7.1286	-9.46771	13.02927	14.89781	0.89323	1.11953	194.98191	178.53145	73.9702	0.31798	 	2.0068799999999998E22	 	1.32095E-22	 	7011.48113	25.49276	 
265.0	1.0	0.0	8.27896	7.12709	-9.48679	13.0051	14.81769	0.88979	1.12386	195.31127	178.69744	74.10291	0.31784	 	3.5304799999999997E22	 	7.43971E-23	 	6884.23664	25.4489	 
260.0	1.0	0.0	8.2807	7.1256	-9.50581	12.98093	14.73752	0.88632	1.12826	195.64	178.86263	74.23541	0.3177	 	6.2769499999999994E22	 	4.1456E-23	 	6757.21175	25.40498	 
255.0	1.0	0.0	8.28244	7.1241	-9.52477	12.95677	14.6573	0.88281	1.13274	195.96812	179.02702	74.36771	0.31756	 	1.12822E23	 	2.2848E-23	 	6630.40675	25.361	 
250.0	1.0	0.0	8.28417	7.12262	-9.54366	12.93261	14.57702	0.87927	1.1373	196.29561	179.19061	74.4998	0.31742	 	2.0507299999999997E23	 	1.2451E-23	 	6503.82198	25.31695	 
245.0	1.0	0.0	8.28589	7.12113	-9.56248	12.90845	14.4967	0.87569	1.14195	196.62249	179.35341	74.63167	0.31729	 	3.77079E23	 	6.70672E-24	 	6377.45779	25.27284	 
240.0	1.0	0.0	8.28761	7.11966	-9.58124	12.8843	14.41632	0.87208	1.14668	196.94874	179.51542	74.76334	0.31715	 	7.01632E23	 	3.56962E-24	 	6251.31461	25.22864	 
235.0	1.0	0.0	8.28932	7.11818	-9.59994	12.86015	14.33588	0.86843	1.15151	197.27438	179.67664	74.8948	0.31701	 	1.3215800000000002E24	 	1.87666E-24	 	6125.39284	25.18435	 
230.0	1.0	0.0	8.29103	7.11672	-9.61857	12.83601	14.25539	0.86474	1.15642	197.59939	179.83706	75.02605	0.31687	 	2.5208300000000003E24	 	9.74183E-25	 	5999.69299	25.13997	 
225.0	1.0	0.0	8.29274	7.11526	-9.63713	12.81187	14.17483	0.86101	1.16143	197.92379	179.9967	75.1571	0.31673	 	4.87106E24	 	4.99141E-25	 	5874.21558	25.09548	 
220.0	1.0	0.0	8.29443	7.1138	-9.65563	12.78773	14.09422	0.85724	1.16653	198.24756	180.15556	75.28793	0.3166	 	9.53903E24	 	2.52326E-25	 	5748.96116	25.05088	 
215.0	1.0	0.0	8.29613	7.11235	-9.67407	12.7636	14.01355	0.85344	1.17173	198.57072	180.31363	75.41855	0.31646	 	1.8939300000000002E25	 	1.25799E-25	 	5623.93036	25.00616	 
210.0	1.0	0.0	8.29782	7.1109	-9.69244	12.73948	13.93281	0.84959	1.17704	198.89326	180.47092	75.54897	0.31632	 	3.8140700000000003E25	 	6.18272E-26	 	5499.12383	24.96131	 
205.0	1.0	0.0	8.2995	7.10946	-9.71074	12.71535	13.85201	0.8457	1.18245	199.21517	180.62743	75.67918	0.31618	 	7.79421E25	 	2.99418E-26	 	5374.54229	24.91631	 
200.0	1.0	0.0	8.30117	7.10802	-9.72898	12.69123	13.77115	0.84177	1.18797	199.53647	180.78316	75.80917	0.31604	 	1.6170200000000002E26	 	1.42814E-26	 	5250.18651	24.87116	 
195.0	1.0	0.0	8.30285	7.10659	-9.74715	12.66712	13.69021	0.8378	1.1936	199.85715	180.93812	75.93896	0.31591	 	3.40745E26	 	6.70568E-27	 	5126.05732	24.82584	 
190.0	1.0	0.0	8.30451	7.10517	-9.76526	12.64301	13.60921	0.83379	1.19935	200.17721	181.0923	76.06854	0.31577	 	7.296790000000001E26	 	3.09797E-27	 	5002.15558	24.78035	 
185.0	1.0	0.0	8.30617	7.10375	-9.78331	12.6189	13.52813	0.82973	1.20521	200.49665	181.24571	76.19791	0.31563	 	1.58874E27	 	1.40748E-27	 	4878.48226	24.73467	 
180.0	1.0	0.0	8.30783	7.10233	-9.80128	12.59479	13.44697	0.82563	1.2112	200.81547	181.39835	76.32707	0.31549	 	3.51909E27	 	6.28489E-28	 	4755.03836	24.68878	 
175.0	1.0	0.0	8.30948	7.10092	-9.8192	12.57069	13.36574	0.82148	1.21732	201.13367	181.55022	76.45602	0.31536	 	7.93443E27	 	2.75673E-28	 	4631.82497	24.64268	 
170.0	1.0	0.0	8.31112	7.09951	-9.83705	12.5466	13.28444	0.81729	1.22356	201.45126	181.70133	76.58476	0.31522	 	1.8220800000000001E28	 	1.18705E-28	 	4508.84326	24.59634	 
165.0	1.0	0.0	8.31276	7.09811	-9.85483	12.52251	13.20305	0.81305	1.22994	201.76822	181.85167	76.7133	0.31508	 	4.2644300000000005E28	 	5.01474E-29	 	4386.09445	24.54976	 
160.0	1.0	0.0	8.3144	7.09672	-9.87255	12.49842	13.12157	0.80876	1.23646	202.08457	182.00125	76.84162	0.31494	 	1.01784E29	 	2.07704E-29	 	4263.57986	24.50292	 
155.0	1.0	0.0	8.31603	7.09533	-9.8902	12.47434	13.04001	0.80442	1.24313	202.4003	182.15006	76.96973	0.3148	 	2.47926E29	 	8.42869E-30	 	4141.3009	24.45579	 
150.0	1.0	0.0	8.31765	7.09394	-9.90779	12.45026	12.95837	0.80004	1.24994	202.71541	182.29812	77.09764	0.31467	 	6.167410000000001E29	 	3.34871E-30	 	4019.25909	24.40836	 
145.0	1.0	0.0	8.31927	7.09256	-9.92532	12.42618	12.87662	0.7956	1.25691	203.0299	182.44542	77.22533	0.31453	 	1.56801E30	 	1.30158E-30	 	3897.456	24.36062	 
140.0	1.0	0.0	8.32088	7.09119	-9.94278	12.40211	12.79479	0.79112	1.26404	203.34377	182.59197	77.35282	0.31439	 	4.07758E30	 	4.94529E-31	 	3775.89335	24.31253	 
135.0	1.0	0.0	8.32249	7.08982	-9.96017	12.37804	12.71286	0.78658	1.27133	203.65702	182.73776	77.48009	0.31425	 	1.08549E31	 	1.83519E-31	 	3654.57296	24.26408	 
130.0	1.0	0.0	8.32409	7.08846	-9.9775	12.35398	12.63082	0.78199	1.27879	203.96966	182.8828	77.60716	0.31412	 	2.96071E31	 	6.64595E-32	 	3533.49674	24.21524	 
125.0	1.0	0.0	8.32569	7.0871	-9.99476	12.32992	12.54868	0.77735	1.28643	204.28168	183.02709	77.73402	0.31398	 	8.281549999999999E31	 	2.34651E-32	 	3412.66676	24.166	 
120.0	1.0	0.0	8.32728	7.08574	-10.01196	12.30586	12.46644	0.77265	1.29425	204.59308	183.17063	77.86067	0.31384	 	2.37788E32	 	8.06966E-33	 	3292.08522	24.11631	 
115.0	1.0	0.0	8.32886	7.08439	-10.0291	12.28181	12.38408	0.7679	1.30226	204.90387	183.31343	77.9871	0.3137	 	7.01568E32	 	2.70033E-33	 	3171.75443	24.06616	 
110.0	1.0	0.0	8.33045	7.08305	-10.04617	12.25776	12.3016	0.76309	1.31047	205.21404	183.45548	78.11333	0.31357	 	2.12918E33	 	8.783E-34	 	3051.67689	24.01551	 
105.0	1.0	0.0	8.33202	7.08171	-10.06318	12.23372	12.21901	0.75822	1.31888	205.52359	183.59679	78.23935	0.31343	 	6.65436E33	 	2.77361E-34	 	2931.85523	23.96433	 
100.0	1.0	0.0	8.33359	7.08038	-10.08012	12.20968	12.13629	0.75329	1.32751	205.83252	183.73736	78.36516	0.31329	 	2.14418E34	 	8.49392E-35	 	2812.29226	23.91259	 
95.0	1.0	0.0	8.33515	7.07905	-10.09699	12.18564	12.05344	0.74831	1.33635	206.14084	183.87719	78.49076	0.31315	 	7.1321500000000005E34	 	2.51936E-35	 	2692.99099	23.86026	 
90.0	1.0	0.0	8.33671	7.07772	-10.1138	12.16161	11.97046	0.74326	1.34542	206.44854	184.01629	78.61615	0.31302	 	2.4521799999999998E35	 	7.22803E-36	 	2573.9546	23.80728	 
85.0	1.0	0.0	8.33827	7.0764	-10.13055	12.13758	11.88734	0.73815	1.35473	206.75563	184.15465	78.74134	0.31288	 	8.726889999999999E35	 	2.00305E-36	 	2455.18649	23.75362	 
80.0	1.0	0.0	8.33981	7.07509	-10.14723	12.11356	11.80408	0.73298	1.36429	207.0621	184.29228	78.86631	0.31274	 	3.21942E36	 	5.35387E-37	 	2336.6903	23.69924	 
75.0	1.0	0.0	8.34136	7.07378	-10.16385	12.08953	11.72066	0.72775	1.3741	207.36796	184.42917	78.99107	0.3126	 	1.23305E37	 	1.37808E-37	 	2218.46988	23.64408	 
70.0	1.0	0.0	8.34289	7.07248	-10.1804	12.06552	11.63709	0.72245	1.38419	207.6732	184.56534	79.11562	0.31247	 	4.911079999999999E37	 	3.41031E-38	 	2100.52935	23.58811	 
65.0	1.0	0.0	8.34443	7.07118	-10.19689	12.04151	11.55336	0.71708	1.39455	207.97783	184.70078	79.23997	0.31233	 	2.03762E38	 	8.09976E-39	 	1982.8731	23.53125	 
60.0	1.0	0.0	8.34595	7.06989	-10.21331	12.0175	11.46945	0.71164	1.4052	208.28184	184.83549	79.36411	0.31219	 	8.82306E38	 	1.84292E-39	 	1865.50584	23.47345	 
55.0	1.0	0.0	8.34747	7.0686	-10.22967	11.99349	11.38538	0.70614	1.41615	208.58524	184.96949	79.48803	0.31205	 	3.99495E39	 	4.00911E-40	 	1748.43257	23.41465	 
50.0	1.0	0.0	8.34899	7.06732	-10.24596	11.96949	11.30111	0.70057	1.42742	208.88803	185.10276	79.61175	0.31192	 	1.8954E40	 	8.3213E-41	 	1631.65866	23.35478	 
45.0	1.0	0.0	8.3505	7.06604	-10.26219	11.9455	11.21666	0.69492	1.43902	209.1902	185.23531	79.73526	0.31178	 	9.4437E40	 	1.64428E-41	 	1515.18983	23.29377	 
40.0	1.0	0.0	8.352	7.06477	-10.27836	11.9215	11.132	0.6892	1.45096	209.49176	185.36715	79.85856	0.31164	 	4.95287E41	 	3.0859E-42	 	1399.03221	23.23152	 
35.0	1.0	0.0	8.3535	7.0635	-10.29446	11.89752	11.04714	0.68341	1.46326	209.79271	185.49827	79.98165	0.31151	 	2.7411099999999997E42	 	5.48684E-43	 	1283.19237	23.16797	 
30.0	1.0	0.0	8.355	7.06224	-10.31049	11.87353	10.96206	0.67753	1.47594	210.09305	185.62868	80.10454	0.31137	 	1.60513E43	 	9.21797E-44	 	1167.67732	23.10301	 
25.0	1.0	0.0	8.35648	7.06098	-10.32646	 	10.87674	0.67159	1.48901	210.39278	185.75837	80.22721	0.31123	 	9.97323E43	 	1.4591E-44	 	1052.49463	 	 
