T (C)	Fraction solid (wt)-TOTAL	Fraction liquid (wt)-LIQUID	Density (g/(cm)^3)-TOTAL	Molar volume (cm^3)-TOTAL	Volume change (%)-  	Average expansion coeff. (10e-6 1/K)-  	Thermal conductivity (W/(m*K))-TOTAL	Electrical resistivity (10e-6 Ohm*m)-TOTAL	Electrical conductivity (10e6 1/(Ohm*m))-TOTAL	Young's modulus (GPa)-TOTAL	Bulk modulus (GPa)-TOTAL	Shear modulus(GPa)-TOTAL	Poisson's ratio-TOTAL	Liquid viscosity (mPa s)-  	Total viscosity (mPa s)-  	Liquid diffusivity (10e-9 (m^2)/s)-  	Total diffusivity (10e-9 (m^2)/s)-  	Surface Tension (mN/m)-  	Enthalpy (J/mole)-TOTAL	Specific heat (J/(mole K))-TOTAL	Latent heat (J/mole)-TOTAL
1400.0	0.0	1.0	6.90329	7.79193	0.0	31.12564	28.81328	1.42268	0.7029	0.0	122.37786	0.0	0.5	6.64566	6.64566	1.22881	1.22881	1787.01106	51560.334	 	0.0
1395.0	0.0	1.0	6.90727	7.78743	-0.0576744	31.08089	28.75287	1.42141	0.70353	0.0	122.5366	0.0	0.5	6.71584	6.71584	1.21233	1.21233	1789.0183	51354.5	41.1668	0.0
1390.0	0.0	1.0	6.91125	7.78295	-0.11519	31.03627	28.69246	1.42014	0.70416	0.0	122.69534	0.0	0.5	6.78719	6.78719	1.19599	1.19599	1791.02425	51149.137	41.0726	0.0
1385.0	0.0	1.0	6.91522	7.77848	-0.17253	30.99176	28.63205	1.41885	0.70479	0.0	122.85408	0.0	0.5	6.85974	6.85974	1.17979	1.17979	1793.02891	50944.245	40.9784	0.0
1380.0	0.0	1.0	6.91918	7.77403	-0.22972	30.94739	28.57164	1.41757	0.70543	0.0	123.01282	0.0	0.5	6.9335	6.9335	1.16371	1.16371	1795.03227	50739.819	40.8852	0.0
1375.0	0.0	1.0	6.92314	7.76958	-0.28674	30.90313	28.51123	1.41627	0.70608	0.0	123.17156	0.0	0.5	7.00852	7.00852	1.14778	1.14778	1797.03432	50535.857	40.7924	0.0
1370.0	0.0	1.0	6.92709	7.76515	-0.3436	30.85901	28.45082	1.41497	0.70673	0.0	123.3303	0.0	0.5	7.08481	7.08481	1.13197	1.13197	1799.03508	50332.357	40.7	0.0
1365.0	0.0	1.0	6.93103	7.76074	-0.4003	30.81501	28.39041	1.41367	0.70738	0.0	123.48904	0.0	0.5	7.1624	7.1624	1.1163	1.1163	1801.03452	50129.317	40.608	0.0
1360.0	0.0	1.0	6.93497	7.75633	-0.45683	30.77114	28.33	1.41236	0.70803	0.0	123.64778	0.0	0.5	7.24133	7.24133	1.10077	1.10077	1803.03265	49926.733	40.5168	0.0
1359.46	0.0	1.0	6.93539	7.75586	-0.4629	30.76643	28.3235	1.41222	0.70811	0.0	123.66485	0.0	0.5	7.2499	7.2499	1.0991	1.0991	1803.24751	49904.966	40.47039	0.0010
1355.0	0.22231	0.77769	6.9922	7.69282	-1.27187	28.58185	28.96915	1.37697	0.72623	0.19534	120.36959	0.066462	0.46953	7.27176	63.59025	1.0928	0.12497	1801.84299	46396.202	786.33932	3328.403
1350.0	0.39906	0.60094	7.0392	7.64149	-1.93073	26.81938	29.49039	1.34848	0.74158	2.09587	117.79107	0.72532	0.44479	7.29516	601.29847	1.08595	0.0131751	1800.11314	43561.738	566.8928	5961.188
1345.0	0.52501	0.47499	7.07418	7.60376	-2.41489	25.54138	29.86142	1.32762	0.75323	6.43986	116.0292	2.25667	0.42685	7.31768	1875.78549	1.07928	0.00421039	1798.27251	41498.922	412.5632	7822.776
1340.0	0.61781	0.38219	7.10117	7.57502	-2.78378	24.58335	30.12774	1.31182	0.7623	12.60441	114.81769	4.45882	0.41342	7.33936	3786.62657	1.07276	0.00207926	1796.35675	39938.809	312.0226	9182.108
1335.28	0.68452	0.31548	7.1215	7.55355	-3.0593	23.88101	30.30905	1.30016	0.76914	19.30292	114.02939	6.87601	0.40364	7.35892	6007.78218	1.06678	0.00130669	1794.51163	38781.107	 	10150.592
1335.0	0.6938	0.3062	7.12441	7.55045	-3.09902	23.77205	30.33937	1.29863	0.77004	20.42001	113.92142	7.28123	0.40224	7.36396	6361.57923	1.06586	0.00123381	1794.6078	38622.621	263.2376	10297.96
1330.0	0.83556	0.16444	7.16928	7.50352	-3.70135	22.12708	30.80399	1.27507	0.78427	44.62585	112.15776	16.16285	0.38051	7.44551	14246.17607	1.05091	5.49241E-4	1795.78094	36211.097	482.3048	12509.591
1325.0	0.90445	0.0955538	7.19276	7.47926	-4.01273	21.31124	30.99788	1.26314	0.79168	62.58224	111.43604	22.84526	0.3697	7.51809	20829.20897	1.03752	3.74482E-4	1796.42698	34964.322	249.355	13556.911
1320.0	0.94199	0.0580132	7.20702	7.46467	-4.1999	20.84991	31.07015	1.25626	0.79601	74.66395	111.19944	27.37617	0.36367	7.58336	26104.82992	1.02537	2.97867E-4	1796.6687	34206.771	151.5102	14115.446
1319.67	0.94359	0.0564058	7.2077	7.46398	-4.2088	20.82936	31.0715	1.25595	0.79621	75.22831	111.19922	27.58841	0.3634	7.58759	26392.83305	1.02459	2.94556E-4	1796.67901	34170.0	 	14139.108
1319.67	0.94359	0.0564058	7.2077	7.46398	-4.2088	20.82936	31.0715	1.25595	0.79621	75.22831	111.19922	27.58841	0.3634	7.58759	26392.83305	1.02459	2.94556E-4	1796.67901	34170.001	 	14139.107
1315.0	0.96629	0.0337148	7.21746	7.45406	-4.33615	20.53343	31.09336	1.25138	0.79912	83.59801	111.19563	30.74294	0.35963	7.63217	30793.88363	1.01562	2.51718E-4	1796.45275	33646.097	112.1348	14477.54
1310.0	0.98069	0.0193076	7.22497	7.44649	-4.4333	20.32898	31.07506	1.24818	0.80117	89.46717	111.35657	32.9614	0.35715	7.67435	34811.35996	1.00686	2.21967E-4	1796.01675	33238.594	81.5006	14686.895
1305.0	0.98972	0.0102792	7.23086	7.44059	-4.50896	20.18606	31.03437	1.24587	0.80265	93.48675	111.61141	34.48358	0.35553	7.71281	38483.52369	0.99867	2.00152E-4	1795.43494	32913.436	65.0316	14814.336
1300.0	0.99576	0.00424167	7.23585	7.43563	-4.57259	20.0775	30.98141	1.24404	0.80383	96.41756	111.92	35.59482	0.35438	7.74871	42033.96376	0.99089	1.82665E-4	1794.73821	32633.626	55.962	14896.859
1295.0	1.0	0.0	7.24029	7.43125	-4.6289	19.98978	30.92094	1.24251	0.80482	98.66848	112.26132	36.44902	0.35351	 	45591.85301	 	1.67875E-4	 	32380.901	50.545	14952.723
1290.0	1.0	0.0	7.24303	7.42843	-4.665	19.96144	30.84569	1.24157	0.80543	99.15525	112.68165	36.63353	0.35334	 	48627.21071	 	1.56895E-4	 	32186.49149	38.8819	 
1285.0	1.0	0.0	7.24575	7.42564	-4.70082	19.93374	30.77048	1.24063	0.80604	99.64135	113.10072	36.81783	0.35317	 	51886.76639	 	1.46568E-4	 	31997.67442	37.76341	 
1280.0	1.0	0.0	7.24847	7.42286	-4.73656	19.90604	30.69528	1.23968	0.80666	100.12675	113.51809	37.00191	0.35299	 	55387.94651	 	1.36863E-4	 	31809.18042	37.6988	 
1275.77	1.0	0.0	7.25076	7.42051	-4.76671	19.88263	30.63169	1.23887	0.80719	100.53655	113.86964	37.15736	0.35285	 	58550.81297	 	1.29117E-4	 	31650.07626	 	 
1275.0	1.0	0.0	7.25119	7.42007	-4.77236	19.87793	30.62022	1.23871	0.80729	100.6128	113.93505	37.18628	0.35282	 	59157.15629	 	1.2773E-4	 	31620.34362	37.76736	 
1270.0	1.0	0.0	7.25397	7.41723	-4.80883	19.84758	30.54598	1.23771	0.80794	101.10553	114.35711	37.37323	0.35265	 	63249.25379	 	1.1908E-4	 	31428.24842	38.41904	 
1265.0	1.0	0.0	7.25674	7.41439	-4.8452	19.81729	30.47172	1.23671	0.8086	101.59738	114.77732	37.55989	0.35247	 	67652.57482	 	1.10969E-4	 	31236.5767	38.33434	 
1260.0	1.0	0.0	7.25951	7.41157	-4.88147	19.78708	30.39742	1.2357	0.80926	102.08835	115.1957	37.74627	0.3523	 	72392.90001	 	1.03365E-4	 	31045.32616	38.25011	 
1255.0	1.0	0.0	7.26227	7.40875	-4.91763	19.75693	30.3231	1.23469	0.80992	102.57844	115.61225	37.93237	0.35212	 	77498.31574	 	9.62411E-5	 	30854.49455	38.16632	 
1250.0	1.0	0.0	7.26503	7.40594	-4.95369	19.72685	30.24874	1.23368	0.81059	103.06766	116.02699	38.11819	0.35195	 	82999.44181	 	8.95683E-5	 	30664.0796	38.08299	 
1245.23	1.0	0.0	7.26765	7.40327	-4.98799	19.69822	30.1778	1.23271	0.81122	103.53348	116.42089	38.29516	0.35178	 	88645.9232	 	8.36005E-5	 	30482.84152	 	 
1245.0	1.0	0.0	7.26783	7.40308	-4.99033	19.69472	30.17609	1.23259	0.8113	103.57344	116.45139	38.31046	0.35176	 	88925.93889	 	8.33245E-5	 	30471.33671	38.54858	 
1244.74	1.0	0.0	7.26803	7.40288	-4.99292	19.69086	30.1742	1.23246	0.81139	103.61762	116.4851	38.32738	0.35174	 	89236.90781	 	8.30202E-5	 	30458.60748	 	 
1240.0	1.0	0.0	7.27066	7.4002	-5.02735	19.66118	30.1044	1.23145	0.81205	104.08817	116.88085	38.50625	0.35158	 	95328.77925	 	7.7472E-5	 	30276.93412	38.88052	 
1235.0	1.0	0.0	7.27343	7.39738	-5.06351	19.63002	30.03078	1.23039	0.81275	104.58293	117.29595	38.69437	0.3514	 	102242.6624	 	7.19945E-5	 	30085.95535	38.19575	 
1230.0	1.0	0.0	7.27619	7.39457	-5.09955	19.59897	29.9571	1.22933	0.81345	105.07656	117.70907	38.88211	0.35122	 	109706.3687	 	6.6874E-5	 	29895.45995	38.09908	 
1225.0	1.0	0.0	7.27895	7.39177	-5.13547	19.56804	29.88337	1.22826	0.81416	105.56905	118.12021	39.06946	0.35104	 	117767.449	 	6.20893E-5	 	29705.44326	38.00334	 
1220.0	1.0	0.0	7.2817	7.38899	-5.17128	19.53722	29.80958	1.2272	0.81487	106.06041	118.5294	39.25645	0.35087	 	126477.9032	 	5.76203E-5	 	29515.90067	37.90852	 
1215.0	1.0	0.0	7.28444	7.3862	-5.20696	19.5065	29.73574	1.22612	0.81558	106.55066	118.93663	39.44305	0.35069	 	135894.6106	 	5.3448E-5	 	29326.82769	37.8146	 
1210.0	1.0	0.0	7.28717	7.38343	-5.24254	19.47589	29.66185	1.22505	0.81629	107.0398	119.34194	39.62929	0.35051	 	146079.832	 	4.95543E-5	 	29138.21985	37.72157	 
1205.0	1.0	0.0	7.2899	7.38067	-5.278	19.44539	29.58791	1.22397	0.81701	107.52784	119.74532	39.81515	0.35034	 	157101.7519	 	4.59224E-5	 	28950.07271	37.62943	 
1200.0	1.0	0.0	7.29262	7.37792	-5.31334	19.41499	29.51391	1.22289	0.81774	108.01478	120.14681	40.00065	0.35016	 	169035.083	 	4.2536E-5	 	28762.38196	37.53815	 
1195.0	1.0	0.0	7.29534	7.37517	-5.34858	19.38468	29.43987	1.2218	0.81846	108.50064	120.5464	40.18579	0.34999	 	181961.731	 	3.93801E-5	 	28575.1433	37.44773	 
1190.0	1.0	0.0	7.29804	7.37243	-5.3837	19.35448	29.36577	1.22071	0.81919	108.98542	120.94412	40.37056	0.34981	 	195971.5548	 	3.64403E-5	 	28388.35247	37.35817	 
1185.0	1.0	0.0	7.30075	7.3697	-5.41872	19.32437	29.29163	1.21962	0.81993	109.46913	121.33997	40.55498	0.34964	 	211163.1686	 	3.37032E-5	 	28202.00533	37.26943	 
1180.0	1.0	0.0	7.30344	7.36698	-5.45363	19.29435	29.21745	1.21852	0.82066	109.95178	121.73398	40.73905	0.34946	 	227644.8836	 	3.11558E-5	 	28016.09775	37.18152	 
1175.0	1.0	0.0	7.30613	7.36427	-5.48842	19.26442	29.14321	1.21742	0.82141	110.43338	122.12615	40.92276	0.34929	 	245535.7147	 	2.87863E-5	 	27830.62566	37.09442	 
1170.0	1.0	0.0	7.30881	7.36157	-5.52312	19.23458	29.06894	1.21632	0.82215	110.91392	122.5165	41.10612	0.34912	 	264966.5009	 	2.65832E-5	 	27645.58507	37.00812	 
1165.0	1.0	0.0	7.31149	7.35887	-5.5577	19.20483	28.99462	1.21521	0.8229	111.39343	122.90503	41.28913	0.34894	 	286081.1951	 	2.45359E-5	 	27460.97203	36.92261	 
1160.0	1.0	0.0	7.31416	7.35619	-5.59219	19.17516	28.92025	1.2141	0.82365	111.87191	123.29178	41.4718	0.34877	 	309038.2684	 	2.26342E-5	 	27276.78264	36.83788	 
1155.0	1.0	0.0	7.31682	7.35351	-5.62656	19.14557	28.84585	1.21299	0.82441	112.34936	123.67674	41.65413	0.3486	 	334012.2413	 	2.08688E-5	 	27093.01306	36.75391	 
1150.0	1.0	0.0	7.31948	7.35084	-5.66084	19.11607	28.7714	1.21187	0.82517	112.8258	124.05993	41.83612	0.34843	 	361195.4625	 	1.92307E-5	 	26909.65953	36.67071	 
1145.0	1.0	0.0	7.32214	7.34818	-5.69501	19.08664	28.69692	1.21075	0.82594	113.30122	124.44136	42.01777	0.34825	 	390800.0639	 	1.77115E-5	 	26726.71831	36.58824	 
1140.0	1.0	0.0	7.32478	7.34552	-5.72908	19.0573	28.62239	1.20962	0.82671	113.77565	124.82105	42.19909	0.34808	 	423060.1085	 	1.63032E-5	 	26544.18575	36.50651	 
1135.0	1.0	0.0	7.32742	7.34287	-5.76306	19.02803	28.54783	1.20849	0.82748	114.24908	125.19901	42.38008	0.34791	 	458234.0537	 	1.49985E-5	 	26362.05821	36.42551	 
1130.0	1.0	0.0	7.33006	7.34023	-5.79693	18.99883	28.47323	1.20735	0.82826	114.72152	125.57524	42.56074	0.34774	 	496607.411	 	1.37904E-5	 	26180.33214	36.34521	 
1125.0	1.0	0.0	7.33269	7.3376	-5.8307	18.9697	28.39859	1.20621	0.82904	115.19298	125.94978	42.74108	0.34757	 	538495.8954	 	1.26724E-5	 	25999.00404	36.26562	 
1120.0	1.0	0.0	7.33531	7.33498	-5.86438	18.94065	28.32392	1.20507	0.82983	115.66347	126.32261	42.92109	0.3474	 	584248.7106	 	1.16382E-5	 	25818.07046	36.18672	 
1115.0	1.0	0.0	7.33793	7.33236	-5.89796	18.91166	28.24922	1.20392	0.83062	116.133	126.69377	43.10078	0.34723	 	634252.4487	 	1.06822E-5	 	25637.52798	36.10849	 
1110.0	1.0	0.0	7.34054	7.32975	-5.93144	18.88274	28.17447	1.20276	0.83142	116.60156	127.06325	43.28015	0.34706	 	688935.3331	 	9.7989E-6	 	25457.37329	36.03094	 
1105.0	1.0	0.0	7.34314	7.32715	-5.96482	18.85389	28.0997	1.2016	0.83222	117.06917	127.43107	43.45921	0.34689	 	748772.0184	 	8.98325E-6	 	25277.60307	35.95404	 
1100.0	1.0	0.0	7.34575	7.32456	-5.99811	18.8251	28.02489	1.20044	0.83303	117.53583	127.79725	43.63795	0.34672	 	814289.0091	 	8.2305E-6	 	25098.2141	35.87779	 
1095.0	1.0	0.0	7.34834	7.32197	-6.03131	18.79637	27.95005	1.19927	0.83384	118.00156	128.16179	43.81638	0.34655	 	886070.6618	 	7.53619E-6	 	24919.20319	35.80218	 
1090.0	1.0	0.0	7.35093	7.31939	-6.06441	18.76771	27.87518	1.1981	0.83466	118.46635	128.52471	43.99451	0.34638	 	964766.0534	 	6.89618E-6	 	24740.5672	35.7272	 
1085.0	1.0	0.0	7.35351	7.31682	-6.09742	18.7391	27.80027	1.19692	0.83548	118.93022	128.88602	44.17232	0.34621	 	1051096.606	 	6.30655E-6	 	24562.30306	35.65283	 
1080.0	1.0	0.0	7.35609	7.31426	-6.13034	18.71056	27.72534	1.19574	0.83631	119.39317	129.24572	44.34983	0.34604	 	1145864.699	 	5.76367E-6	 	24384.40773	35.57907	 
1075.0	1.0	0.0	7.35867	7.3117	-6.16317	18.68207	27.65038	1.19455	0.83714	119.8552	129.60384	44.52704	0.34587	 	1249963.423	 	5.26414E-6	 	24206.87823	35.5059	 
1070.0	1.0	0.0	7.36123	7.30915	-6.1959	18.65363	27.57538	1.19335	0.83797	120.31633	129.96037	44.70395	0.3457	 	1364387.542	 	4.80478E-6	 	24029.71165	35.43332	 
1065.0	1.0	0.0	7.3638	7.3066	-6.22854	18.62525	27.50036	1.19215	0.83882	120.77655	130.31534	44.88056	0.34553	 	1490245.874	 	4.38262E-6	 	23852.90509	35.36131	 
1060.0	1.0	0.0	7.36635	7.30407	-6.2611	18.59693	27.42531	1.19095	0.83967	121.23588	130.66875	45.05688	0.34536	 	1628775.244	 	3.99489E-6	 	23676.45573	35.28987	 
1055.0	1.0	0.0	7.36891	7.30154	-6.29356	18.56866	27.35024	1.18974	0.84052	121.69432	131.02061	45.2329	0.3452	 	1781356.262	 	3.63901E-6	 	23500.36079	35.21899	 
1050.0	1.0	0.0	7.37145	7.29901	-6.32593	18.54044	27.27513	1.18852	0.84138	122.15188	131.37094	45.40863	0.34503	 	1949531.275	 	3.31257E-6	 	23324.61755	35.14865	 
1045.0	1.0	0.0	7.37399	7.2965	-6.35822	18.51227	27.2	1.1873	0.84224	122.60855	131.71974	45.58407	0.34486	 	2135024.504	 	3.01334E-6	 	23149.22331	35.07885	 
1040.0	1.0	0.0	7.37653	7.29399	-6.39042	18.48414	27.12485	1.18608	0.84312	123.06436	132.06702	45.75922	0.34469	 	2339765.072	 	2.73923E-6	 	22974.17547	35.00957	 
1035.0	1.0	0.0	7.37906	7.29149	-6.42253	18.45607	27.04966	1.18485	0.84399	123.5193	132.4128	45.93409	0.34453	 	2565913.015	 	2.4883E-6	 	22799.47141	34.94081	 
1030.0	1.0	0.0	7.38159	7.28899	-6.45455	18.42804	26.97445	1.18361	0.84487	123.97337	132.75708	46.10867	0.34436	 	2815888.652	 	2.25874E-6	 	22625.10861	34.87256	 
1025.0	1.0	0.0	7.38411	7.2865	-6.48649	18.40006	26.89922	1.18236	0.84576	124.42659	133.09987	46.28298	0.34419	 	3092406.297	 	2.04887E-6	 	22451.08457	34.80481	 
1020.0	1.0	0.0	7.38662	7.28402	-6.51834	18.37212	26.82396	1.18111	0.84666	124.87896	133.44119	46.457	0.34403	 	3398512.264	 	1.85715E-6	 	22277.39684	34.73755	 
1015.0	1.0	0.0	7.38913	7.28155	-6.5501	18.34423	26.74868	1.17986	0.84756	125.33048	133.78104	46.63074	0.34386	 	3737628.222	 	1.68212E-6	 	22104.04303	34.67076	 
1010.0	1.0	0.0	7.39164	7.27908	-6.58178	18.31638	26.67337	1.1786	0.84847	125.78116	134.11943	46.8042	0.3437	 	4113600.843	 	1.52245E-6	 	21931.02078	34.60445	 
1005.0	1.0	0.0	7.39414	7.27662	-6.61337	18.28857	26.59805	1.17733	0.84938	126.231	134.45637	46.97739	0.34353	 	4530757.69	 	1.37689E-6	 	21758.32778	34.5386	 
1000.0	1.0	0.0	7.39664	7.27416	-6.64488	18.2608	26.52269	1.17606	0.8503	126.68001	134.79188	47.15031	0.34336	 	4993971.965	 	1.24429E-6	 	21585.96175	34.47321	 
995.0	1.0	0.0	7.39913	7.27171	-6.67631	18.23308	26.44732	1.17478	0.85123	127.12819	135.12595	47.32295	0.3432	 	5508735.238	 	1.12358E-6	 	21413.92048	34.40826	 
990.0	1.0	0.0	7.40161	7.26927	-6.70765	18.20539	26.37192	1.17349	0.85216	127.57555	135.4586	47.49533	0.34303	 	6081242.155	 	1.01379E-6	 	21242.20176	34.34374	 
985.0	1.0	0.0	7.40409	7.26684	-6.7389	18.17775	26.29649	1.1722	0.8531	128.02209	135.78984	47.66743	0.34287	 	6718485.274	 	9.14003E-7	 	21070.80347	34.27966	 
980.0	1.0	0.0	7.40657	7.26441	-6.77008	18.15014	26.22105	1.1709	0.85405	128.46781	136.11968	47.83927	0.3427	 	7428366.019	 	8.23373E-7	 	20899.7235	34.21599	 
975.0	1.0	0.0	7.40904	7.26198	-6.80117	18.12257	26.14558	1.16959	0.855	128.91272	136.44811	48.01084	0.34254	 	8219819.526	 	7.41125E-7	 	20728.95978	34.15274	 
970.0	1.0	0.0	7.41151	7.25957	-6.83218	18.09503	26.0701	1.16828	0.85596	129.35683	136.77516	48.18215	0.34237	 	9102960.233	 	6.66542E-7	 	20558.51029	34.0899	 
965.0	1.0	0.0	7.41397	7.25716	-6.8631	18.06754	25.99458	1.16696	0.85693	129.80013	137.10084	48.3532	0.34221	 	1.008924625E7	 	5.98965E-7	 	20388.37304	34.02745	 
960.0	1.0	0.0	7.41642	7.25476	-6.89395	18.04008	25.91905	1.16564	0.8579	130.24264	137.42514	48.52398	0.34204	 	1.119167113E7	 	5.37784E-7	 	20218.54609	33.96539	 
955.0	1.0	0.0	7.41887	7.25236	-6.92471	18.01265	25.8435	1.1643	0.85888	130.68435	137.74807	48.6945	0.34188	 	1.242498263E7	 	4.82439E-7	 	20049.02751	33.90372	 
950.0	1.0	0.0	7.42132	7.24997	-6.95539	17.98526	25.76792	1.16296	0.85987	131.12527	138.06966	48.86476	0.34172	 	1.380593582E7	 	4.32415E-7	 	19879.81544	33.84241	 
945.0	1.0	0.0	7.42376	7.24758	-6.98599	17.9579	25.69233	1.16162	0.86087	131.5654	138.38989	49.03476	0.34155	 	1.535358268E7	 	3.87238E-7	 	19710.90801	33.78148	 
940.0	1.0	0.0	7.4262	7.24521	-7.01651	17.93058	25.61671	1.16027	0.86187	132.00474	138.70878	49.20451	0.34139	 	1.708960963E7	 	3.46473E-7	 	19542.30344	33.72091	 
935.0	1.0	0.0	7.42863	7.24283	-7.04695	17.90329	25.54107	1.15891	0.86288	132.44331	139.02635	49.374	0.34123	 	1.903872608E7	 	3.0972E-7	 	19373.99994	33.6607	 
930.0	1.0	0.0	7.43106	7.24047	-7.0773	17.87603	25.46541	1.15754	0.8639	132.88109	139.34258	49.54324	0.34106	 	2.122911111E7	 	2.76614E-7	 	19205.99576	33.60084	 
925.0	1.0	0.0	7.43348	7.23811	-7.10758	17.84881	25.38972	1.15616	0.86493	133.31811	139.6575	49.71222	0.3409	 	2.369293412E7	 	2.46819E-7	 	19038.2892	33.54131	 
920.0	1.0	0.0	7.4359	7.23576	-7.13778	17.82162	25.31402	1.15478	0.86596	133.75434	139.97111	49.88095	0.34074	 	2.646695764E7	 	2.20028E-7	 	18870.87855	33.48213	 
915.0	1.0	0.0	7.43831	7.23341	-7.1679	17.79446	25.2383	1.15339	0.86701	134.18981	140.28341	50.04943	0.34057	 	2.959323428E7	 	1.95959E-7	 	18703.76218	33.42327	 
910.0	1.0	0.0	7.44072	7.23107	-7.19793	17.76733	25.16255	1.152	0.86806	134.62452	140.59442	50.21765	0.34041	 	3.311991871E7	 	1.74356E-7	 	18536.93845	33.36475	 
905.0	1.0	0.0	7.44312	7.22874	-7.22789	17.74023	25.08678	1.15059	0.86912	135.05846	140.90414	50.38563	0.34025	 	3.710221041E7	 	1.54984E-7	 	18370.40575	33.30654	 
900.0	1.0	0.0	7.44552	7.22641	-7.25777	17.71317	25.01099	1.14918	0.87018	135.49163	141.21258	50.55335	0.34009	 	4.160344881E7	 	1.37629E-7	 	18204.16252	33.24865	 
895.0	1.0	0.0	7.44791	7.22409	-7.28757	17.68613	24.93518	1.14776	0.87126	135.92405	141.51974	50.72083	0.33992	 	4.669639641E7	 	1.22096E-7	 	18038.20719	33.19107	 
890.0	1.0	0.0	7.4503	7.22177	-7.31729	17.65913	24.85935	1.14634	0.87234	136.35572	141.82563	50.88806	0.33976	 	5.24647286E7	 	1.08207E-7	 	17872.53824	33.13379	 
885.0	1.0	0.0	7.45268	7.21946	-7.34693	17.63216	24.7835	1.1449	0.87344	136.78663	142.13026	51.05505	0.3396	 	5.900477091E7	 	9.57998E-8	 	17707.15416	33.07682	 
880.0	1.0	0.0	7.45506	7.21716	-7.3765	17.60521	24.70762	1.14346	0.87454	137.21679	142.43363	51.22179	0.33944	 	6.642754712E7	 	8.47275E-8	 	17542.05346	33.02014	 
875.0	1.0	0.0	7.45744	7.21486	-7.40598	17.5783	24.63172	1.14201	0.87565	137.6462	142.73575	51.38828	0.33928	 	7.486114832E7	 	7.48564E-8	 	17377.23469	32.96375	 
870.56	1.0	0.0	7.45954	7.21282	-7.43211	17.55441	24.56426	1.14072	0.87664	138.02713	143.00316	51.53601	0.33913	 	8.332211169E7	 	6.69948E-8	 	17231.01807	 	 
870.0	1.0	0.0	7.45997	7.21241	-7.43741	17.54241	24.54493	1.14106	0.87638	138.04919	142.97312	51.54654	0.33907	 	8.468397543E7	 	6.58853E-8	 	17204.46954	34.55303	 
865.0	1.0	0.0	7.46378	7.20873	-7.48464	17.43535	24.37029	1.14421	0.87397	138.23843	142.7023	51.6375	0.33855	 	9.801148309E7	 	5.66773E-8	 	16967.28537	47.43683	 
860.0	1.0	0.0	7.46755	7.20509	-7.53134	17.32937	24.20195	1.1471	0.87176	138.41237	142.42951	51.72229	0.33803	 	1.13574416E8	 	4.8696E-8	 	16731.9817	47.06073	 
855.0	1.0	0.0	7.47128	7.20149	-7.57753	17.22444	24.03812	1.14983	0.8697	138.57169	142.15504	51.80116	0.33753	 	1.31770021E8	 	4.17866E-8	 	16498.51977	46.69239	 
850.0	1.0	0.0	7.47497	7.19793	-7.62322	17.12054	23.8774	1.15244	0.86773	138.717	141.87911	51.87436	0.33705	 	1.53070007E8	 	3.58125E-8	 	16266.86174	46.33161	 
845.0	1.0	0.0	7.47732	7.19567	-7.6522	17.092	23.80302	1.15089	0.86889	139.13404	142.17089	52.03632	0.33689	 	1.736981843E8	 	3.14189E-8	 	16107.18703	31.93494	 
840.0	1.0	0.0	7.47966	7.19342	-7.68111	17.06347	23.72862	1.14934	0.87007	139.5504	142.46155	52.19807	0.33674	 	1.973302639E8	 	2.75326E-8	 	15944.51303	32.5348	 
835.0	1.0	0.0	7.482	7.19117	-7.70993	17.03494	23.6542	1.14777	0.87125	139.96609	142.75109	52.3596	0.33658	 	2.244357482E8	 	2.40987E-8	 	15782.10017	32.48257	 
830.0	1.0	0.0	7.48433	7.18893	-7.73868	17.00641	23.57977	1.1462	0.87245	140.38111	143.03951	52.5209	0.33643	 	2.555624744E8	 	2.1068E-8	 	15619.94755	32.43052	 
825.0	1.0	0.0	7.48665	7.1867	-7.76736	16.97788	23.50531	1.14462	0.87365	140.79546	143.32681	52.68199	0.33628	 	2.913505036E8	 	1.83964E-8	 	15458.05427	32.37865	 
820.0	1.0	0.0	7.48898	7.18447	-7.79596	16.94935	23.43084	1.14303	0.87487	141.20914	143.613	52.84286	0.33612	 	3.325486176E8	 	1.6044E-8	 	15296.41943	32.32697	 
815.0	1.0	0.0	7.49129	7.18225	-7.82448	16.92083	23.35635	1.14143	0.87609	141.62215	143.89808	53.00352	0.33597	 	3.800339392E8	 	1.3975E-8	 	15135.04207	32.27547	 
810.0	1.0	0.0	7.49361	7.18003	-7.85292	16.89231	23.28183	1.13982	0.87733	142.03449	144.18207	53.16395	0.33582	 	4.348352996E8	 	1.21577E-8	 	14973.92124	32.22417	 
805.0	1.0	0.0	7.49591	7.17782	-7.88129	16.86379	23.2073	1.13821	0.87858	142.44616	144.46495	53.32416	0.33566	 	4.981611097E8	 	1.05632E-8	 	14813.05597	32.17305	 
800.0	1.0	0.0	7.49822	7.17562	-7.90959	16.83527	23.13274	1.13658	0.87983	142.85716	144.74673	53.48416	0.33551	 	5.714326495E8	 	9.16605E-9	 	14652.44527	32.12214	 
795.0	1.0	0.0	7.50052	7.17342	-7.9378	16.80675	23.05817	1.13494	0.8811	143.26749	145.02742	53.64394	0.33536	 	6.56323887E8	 	7.9433E-9	 	14492.0881	32.07143	 
790.0	1.0	0.0	7.50281	7.17123	-7.96595	16.77824	22.98357	1.1333	0.88238	143.67715	145.30703	53.80349	0.3352	 	7.548091775E8	 	6.87455E-9	 	14331.98342	32.02094	 
785.0	1.0	0.0	7.5051	7.16904	-7.99401	16.74973	22.90895	1.13164	0.88367	144.08614	145.58555	53.96283	0.33505	 	8.692204896E8	 	5.94161E-9	 	14172.13015	31.97065	 
780.0	1.0	0.0	7.50738	7.16686	-8.022	16.72122	22.8343	1.12997	0.88498	144.49446	145.86299	54.12195	0.3349	 	1.002316161E9	 	5.12829E-9	 	14012.52721	31.92059	 
775.0	1.0	0.0	7.50966	7.16468	-8.04991	16.69272	22.75964	1.1283	0.88629	144.90211	146.13936	54.28085	0.33474	 	1.157363641E9	 	4.42018E-9	 	13853.17346	31.87075	 
770.0	1.0	0.0	7.51193	7.16252	-8.07775	16.66421	22.68495	1.12661	0.88762	145.3091	146.41465	54.43953	0.33459	 	1.338239204E9	 	3.80452E-9	 	13694.06774	31.82114	 
765.0	1.0	0.0	7.5142	7.16035	-8.10551	16.63571	22.61023	1.12492	0.88895	145.71541	146.68887	54.59799	0.33444	 	1.549548332E9	 	3.26995E-9	 	13535.20884	31.77178	 
760.0	1.0	0.0	7.51647	7.1582	-8.13319	16.60721	22.5355	1.12321	0.8903	146.12106	146.96203	54.75623	0.33429	 	1.796771247E9	 	2.80645E-9	 	13376.59556	31.72266	 
755.0	1.0	0.0	7.51873	7.15604	-8.1608	16.57871	22.46073	1.1215	0.89166	146.52604	147.23413	54.91425	0.33413	 	2.086439165E9	 	2.40512E-9	 	13218.2266	31.67379	 
750.0	1.0	0.0	7.52098	7.1539	-8.18833	16.55022	22.38594	1.11977	0.89304	146.93034	147.50516	55.07205	0.33398	 	2.426348089E9	 	2.05813E-9	 	13060.10067	31.62519	 
745.0	1.0	0.0	7.52323	7.15176	-8.21578	16.52173	22.31113	1.11804	0.89442	147.33399	147.77515	55.22963	0.33383	 	2.825818566E9	 	1.75855E-9	 	12902.21642	31.57685	 
740.0	1.0	0.0	7.52548	7.14963	-8.24316	16.49324	22.23629	1.11629	0.89582	147.73696	148.04408	55.387	0.33368	 	3.296011841E9	 	1.50028E-9	 	12744.57244	31.5288	 
735.0	1.0	0.0	7.52772	7.1475	-8.27046	16.46475	22.16142	1.11453	0.89724	148.13927	148.31197	55.54414	0.33353	 	3.850315284E9	 	1.27796E-9	 	12587.16728	31.48103	 
730.0	1.0	0.0	7.52995	7.14538	-8.29769	16.43626	22.08652	1.11277	0.89866	148.5409	148.57881	55.70106	0.33338	 	4.504813116E9	 	1.08687E-9	 	12429.99945	31.43357	 
725.0	1.0	0.0	7.53218	7.14326	-8.32484	16.40778	22.0116	1.11099	0.9001	148.94187	148.84461	55.85776	0.33322	 	5.278862292E9	 	9.22874E-10	 	12273.06739	31.38641	 
720.0	1.0	0.0	7.53441	7.14115	-8.35191	16.3793	21.93664	1.1092	0.90155	149.34218	149.10938	56.01425	0.33307	 	6.195798314E9	 	7.82356E-10	 	12116.36948	31.33958	 
715.0	1.0	0.0	7.53663	7.13905	-8.37891	16.35082	21.86166	1.1074	0.90301	149.74181	149.37312	56.17051	0.33292	 	7.283801842E9	 	6.62142E-10	 	11959.90404	31.29309	 
710.0	1.0	0.0	7.53884	7.13695	-8.40583	16.32234	21.78665	1.10559	0.90449	150.14078	149.63582	56.32655	0.33277	 	8.576964698E9	 	5.59465E-10	 	11803.66932	31.24694	 
705.0	1.0	0.0	7.54105	7.13486	-8.43268	16.29386	21.7116	1.10377	0.90598	150.53908	149.8975	56.48237	0.33262	 	1.01166E10	 	4.71908E-10	 	11647.6635	31.20116	 
700.0	1.0	0.0	7.54326	7.13277	-8.45945	16.26539	21.63653	1.10194	0.90749	150.93671	150.15816	56.63798	0.33247	 	1.1952899999999998E10	 	3.97369E-10	 	11491.88466	31.15577	 
695.0	1.0	0.0	7.54546	7.13069	-8.48614	16.23692	21.56142	1.1001	0.90901	151.33368	150.4178	56.79336	0.33232	 	1.4146799999999998E10	 	3.34019E-10	 	11336.33086	31.11076	 
690.0	1.0	0.0	7.54765	7.12862	-8.51276	16.20845	21.48629	1.09824	0.91054	151.72998	150.67642	56.94852	0.33217	 	1.6772799999999998E10	 	2.8027E-10	 	11180.99998	31.06618	 
685.0	1.0	0.0	7.54984	7.12655	-8.5393	16.17998	21.41111	1.09638	0.91209	152.12562	150.93404	57.10346	0.33202	 	1.99215E10	 	2.34746E-10	 	11025.88987	31.02202	 
680.0	1.0	0.0	7.55203	7.12449	-8.56577	16.15152	21.33591	1.0945	0.91366	152.52058	151.19064	57.25818	0.33187	 	2.3704099999999996E10	 	1.96256E-10	 	10870.99826	30.97832	 
675.0	1.0	0.0	7.55421	7.12243	-8.59215	16.12306	21.26067	1.09261	0.91524	152.91489	151.44624	57.41268	0.33172	 	2.8256699999999996E10	 	1.63773E-10	 	10716.32277	30.9351	 
670.0	1.0	0.0	7.55638	7.12038	-8.61847	16.0946	21.1854	1.09071	0.91683	153.30852	151.70083	57.56696	0.33157	 	3.3746499999999996E10	 	1.36408E-10	 	10561.8609	30.89238	 
665.0	1.0	0.0	7.55855	7.11834	-8.6447	16.06614	21.11009	1.0888	0.91844	153.70149	151.95443	57.72101	0.33142	 	4.03792E10	 	1.13397E-10	 	10407.61002	30.85017	 
660.0	1.0	0.0	7.56072	7.1163	-8.67087	16.03769	21.03474	1.08688	0.92007	154.09379	152.20704	57.87485	0.33127	 	4.840849999999999E10	 	9.40842E-11	 	10253.57358	30.80729	 
655.0	1.0	0.0	7.56288	7.11427	-8.69695	16.00923	20.95936	1.08494	0.92171	154.48543	152.45865	58.02847	0.33112	 	5.814789999999999E10	 	7.7906E-11	 	10099.78583	30.75755	 
650.0	1.0	0.0	7.56503	7.11224	-8.72296	15.98078	20.88393	1.08299	0.92337	154.8764	152.70928	58.18186	0.33097	 	6.99857E10	 	6.43798E-11	 	9946.29226	30.69871	 
645.0	1.0	0.0	7.56718	7.11022	-8.74889	15.95233	20.80847	1.08103	0.92504	155.26671	152.95891	58.33503	0.33082	 	8.44035E10	 	5.30933E-11	 	9793.09175	30.6401	 
640.0	1.0	0.0	7.56933	7.10821	-8.77475	15.92389	20.73297	1.07906	0.92673	155.65635	153.20757	58.48799	0.33067	 	1.02001E11	 	4.36944E-11	 	9640.18318	30.58171	 
635.0	1.0	0.0	7.57147	7.1062	-8.80053	15.89544	20.65743	1.07708	0.92844	156.04533	153.45525	58.64072	0.33052	 	1.23524E11	 	3.58834E-11	 	9487.56541	30.52355	 
630.0	1.0	0.0	7.5736	7.10419	-8.82624	15.867	20.58185	1.07508	0.93016	156.43364	153.70196	58.79323	0.33037	 	1.49906E11	 	2.94054E-11	 	9335.23732	30.46562	 
625.0	1.0	0.0	7.57573	7.1022	-8.85186	15.83856	20.50623	1.07307	0.9319	156.82128	153.94769	58.94552	0.33022	 	1.82316E11	 	2.40443E-11	 	9183.19777	30.40791	 
620.0	1.0	0.0	7.57786	7.10021	-8.87742	15.81013	20.43056	1.07105	0.93366	157.20826	154.19245	59.09758	0.33007	 	2.22219E11	 	1.96169E-11	 	9031.44568	30.35042	 
615.0	1.0	0.0	7.57998	7.09822	-8.90289	15.78169	20.35485	1.06902	0.93544	157.59458	154.43625	59.24943	0.32992	 	2.71459E11	 	1.59687E-11	 	8879.97989	30.29316	 
610.0	1.0	0.0	7.58209	7.09624	-8.9283	15.75326	20.2791	1.06697	0.93723	157.98023	154.67909	59.40105	0.32978	 	3.32363E11	 	1.29691E-11	 	8728.79929	30.23612	 
605.0	1.0	0.0	7.5842	7.09427	-8.95362	15.72483	20.2033	1.06491	0.93905	158.36521	154.92096	59.55245	0.32963	 	4.07871E11	 	1.05083E-11	 	8577.90279	30.1793	 
600.0	1.0	0.0	7.5863	7.0923	-8.97887	15.6964	20.12745	1.06284	0.94088	158.74954	155.16188	59.70363	0.32948	 	5.01707E11	 	8.49426E-12	 	8427.28927	30.12271	 
595.0	1.0	0.0	7.5884	7.09034	-9.00404	15.66797	20.05156	1.06075	0.94273	159.13319	155.40185	59.85459	0.32933	 	6.18605E11	 	6.84964E-12	 	8276.95761	30.06633	 
590.0	1.0	0.0	7.5905	7.08838	-9.02914	15.63955	19.97562	1.05865	0.9446	159.51619	155.64087	60.00533	0.32918	 	7.64594E11	 	5.50988E-12	 	8126.90672	30.01018	 
585.0	1.0	0.0	7.59258	7.08643	-9.05416	15.61113	19.89963	1.05654	0.94649	159.89851	155.87894	60.15584	0.32904	 	9.47372E11	 	4.42109E-12	 	7977.13549	29.95425	 
580.0	1.0	0.0	7.59467	7.08449	-9.07911	15.58271	19.82358	1.05441	0.9484	160.28018	156.11607	60.30614	0.32889	 	1.1768E12	 	3.53843E-12	 	7827.64282	29.89853	 
575.0	1.0	0.0	7.59675	7.08255	-9.10398	15.55429	19.74749	1.05227	0.95033	160.66118	156.35226	60.45621	0.32874	 	1.46552E12	 	2.82466E-12	 	7678.42762	29.84304	 
570.0	1.0	0.0	7.59882	7.08062	-9.12877	15.52587	19.67135	1.05011	0.95228	161.04152	156.58751	60.60605	0.32859	 	1.82984E12	 	2.24894E-12	 	7529.4888	29.78776	 
565.0	1.0	0.0	7.60089	7.07869	-9.15349	15.49746	19.59515	1.04795	0.95425	161.42119	156.82182	60.75568	0.32845	 	2.29079E12	 	1.78576E-12	 	7380.82527	29.73271	 
560.0	1.0	0.0	7.60295	7.07677	-9.17813	15.46905	19.51889	1.04576	0.95624	161.8002	157.0552	60.90508	0.3283	 	2.8756E12	 	1.4141E-12	 	7232.43593	29.67787	 
555.0	1.0	0.0	7.605	7.07486	-9.2027	15.44064	19.44258	1.04357	0.95825	162.17854	157.28766	61.05426	0.32815	 	3.61963E12	 	1.11669E-12	 	7084.31973	29.62324	 
550.0	1.0	0.0	7.60706	7.07295	-9.22719	15.41223	19.36622	1.04136	0.96028	162.55622	157.51919	61.20322	0.328	 	4.56892E12	 	8.7933E-13	 	6936.47554	29.56884	 
545.0	1.0	0.0	7.6091	7.07105	-9.2516	15.38383	19.28979	1.03913	0.96234	162.93324	157.7498	61.35196	0.32786	 	5.78362E12	 	6.90431E-13	 	6788.90233	29.51464	 
540.0	1.0	0.0	7.61114	7.06915	-9.27594	15.35543	19.21331	1.03689	0.96442	163.3096	157.97948	61.50047	0.32771	 	7.3425E12	 	5.40522E-13	 	6641.59901	29.46066	 
535.0	1.0	0.0	7.61318	7.06726	-9.30021	15.32703	19.13676	1.03464	0.96652	163.68529	158.20825	61.64876	0.32756	 	9.34914E12	 	4.21898E-13	 	6494.56452	29.4069	 
530.0	1.0	0.0	7.61521	7.06538	-9.32439	15.29863	19.06016	1.03237	0.96864	164.06032	158.43611	61.79683	0.32742	 	1.194E13	 	3.28305E-13	 	6347.7978	29.35335	 
525.0	1.0	0.0	7.61724	7.0635	-9.34851	15.27024	18.98348	1.03009	0.97079	164.43469	158.66306	61.94467	0.32727	 	1.52957E13	 	2.54684E-13	 	6201.29777	29.30001	 
520.0	1.0	0.0	7.61926	7.06163	-9.37254	15.24184	18.90675	1.02779	0.97296	164.80839	158.8891	62.0923	0.32712	 	1.96558E13	 	1.96948E-13	 	6055.06339	29.24688	 
515.0	1.0	0.0	7.62127	7.05976	-9.3965	15.21345	18.82995	1.02548	0.97516	165.18143	159.11423	62.23969	0.32698	 	2.53393E13	 	1.5181E-13	 	5909.09361	29.19396	 
510.0	1.0	0.0	7.62328	7.0579	-9.42039	15.18506	18.75308	1.02315	0.97738	165.55381	159.33846	62.38687	0.32683	 	3.27722E13	 	1.16634E-13	 	5763.38739	29.14124	 
505.0	1.0	0.0	7.62529	7.05604	-9.44419	15.15668	18.67614	1.0208	0.97962	165.92552	159.56179	62.53382	0.32669	 	4.25258E13	 	8.93096E-14	 	5617.94367	29.08874	 
500.0	1.0	0.0	7.62728	7.05419	-9.46793	15.12829	18.59913	1.01844	0.98189	166.29657	159.78423	62.68055	0.32654	 	5.53685E13	 	6.81535E-14	 	5472.76144	29.03645	 
495.0	1.0	0.0	7.62928	7.05235	-9.49158	15.09991	18.52205	1.01607	0.98419	166.66696	160.00577	62.82705	0.32639	 	7.23377E13	 	5.18284E-14	 	5327.83964	28.98436	 
490.0	1.0	0.0	7.63127	7.05051	-9.51516	15.07153	18.4449	1.01368	0.98651	167.03669	160.22642	62.97334	0.32625	 	9.48394E13	 	3.92742E-14	 	5183.17727	28.93247	 
485.0	1.0	0.0	7.63325	7.04868	-9.53867	15.04315	18.36767	1.01127	0.98886	167.40576	160.44619	63.11939	0.3261	 	1.24785E14	 	2.96536E-14	 	5038.7733	28.88079	 
480.0	1.0	0.0	7.63523	7.04686	-9.5621	15.01478	18.29036	1.00885	0.99123	167.77416	160.66507	63.26523	0.32596	 	1.64786E14	 	2.23073E-14	 	4894.6267	28.82932	 
475.0	1.0	0.0	7.6372	7.04504	-9.58545	14.9864	18.21297	1.00641	0.99363	168.1419	160.88306	63.41084	0.32581	 	2.1842E14	 	1.67179E-14	 	4750.73649	28.77804	 
470.0	1.0	0.0	7.63917	7.04322	-9.60873	14.95803	18.13551	1.00395	0.99606	168.50898	161.10018	63.55623	0.32567	 	2.90611E14	 	1.24811E-14	 	4607.10164	28.72697	 
465.0	1.0	0.0	7.64113	7.04141	-9.63193	14.92966	18.05796	1.00148	0.99852	168.8754	161.31642	63.70139	0.32552	 	3.88159E14	 	9.28157E-15	 	4463.72117	28.67609	 
460.0	1.0	0.0	7.64308	7.03961	-9.65506	14.9013	17.98032	0.99899	1.00101	169.24115	161.53178	63.84633	0.32538	 	5.2050299999999994E14	 	6.87474E-15	 	4320.59408	28.62542	 
455.0	1.0	0.0	7.64503	7.03782	-9.67811	14.87293	17.9026	0.99648	1.00353	169.60624	161.74628	63.99104	0.32523	 	7.00787E14	 	5.07133E-15	 	4177.71939	28.57494	 
450.0	1.0	0.0	7.64698	7.03603	-9.70109	14.84457	17.8248	0.99396	1.00607	169.97068	161.9599	64.13553	0.32509	 	9.47403E14	 	3.72546E-15	 	4035.09613	28.52465	 
445.0	1.0	0.0	7.64892	7.03424	-9.72399	14.81621	17.7469	0.99142	1.00865	170.33445	162.17266	64.2798	0.32495	 	1.2862E15	 	2.72518E-15	 	3892.72331	28.47456	 
440.0	1.0	0.0	7.65085	7.03246	-9.74681	14.78785	17.66891	0.98887	1.01126	170.69755	162.38455	64.42384	0.3248	 	1.75364E15	 	1.98484E-15	 	3750.59999	28.42467	 
435.0	1.0	0.0	7.65278	7.03069	-9.76956	14.7595	17.59082	0.98629	1.0139	171.06	162.59559	64.56766	0.32466	 	2.40147E15	 	1.43925E-15	 	3608.72519	28.37496	 
430.0	1.0	0.0	7.65471	7.02892	-9.79223	14.73115	17.51264	0.9837	1.01657	171.42179	162.80576	64.71125	0.32451	 	3.30334E15	 	1.03892E-15	 	3467.09798	28.32544	 
425.0	1.0	0.0	7.65662	7.02716	-9.81483	14.7028	17.43436	0.98109	1.01927	171.78291	163.01508	64.85462	0.32437	 	4.56472E15	 	7.46485E-16	 	3325.71752	28.27609	 
420.0	1.0	0.0	7.65854	7.02541	-9.83735	14.67445	17.35598	0.97846	1.02201	172.14337	163.22355	64.99776	0.32423	 	6.33725E15	 	5.33842E-16	 	3184.58272	28.22696	 
415.0	1.0	0.0	7.66044	7.02366	-9.8598	14.6461	17.2775	0.97582	1.02478	172.50318	163.43117	65.14068	0.32408	 	8.84013E15	 	3.79937E-16	 	3043.69302	28.17794	 
410.0	1.0	0.0	7.66235	7.02192	-9.88217	14.61776	17.19891	0.97315	1.02759	172.86232	163.63794	65.28338	0.32394	 	1.23917E16	 	2.69073E-16	 	2903.04802	28.129	 
405.0	1.0	0.0	7.66424	7.02018	-9.90447	14.58941	17.12021	0.97047	1.03043	173.2208	163.84386	65.42585	0.32379	 	1.7457000000000002E16	 	1.89602E-16	 	2762.64735	28.08013	 
400.0	1.0	0.0	7.66613	7.01845	-9.92669	14.56107	17.0414	0.96777	1.0333	173.57862	164.04895	65.56809	0.32365	 	2.47182E16	 	1.32918E-16	 	2622.49061	28.03135	 
395.0	1.0	0.0	7.66802	7.01672	-9.94883	14.53274	16.96247	0.96505	1.03621	173.93578	164.25319	65.71011	0.32351	 	3.5182300000000004E16	 	9.26907E-17	 	2482.57744	27.98264	 
390.0	1.0	0.0	7.6699	7.015	-9.9709	14.5044	16.88343	0.96231	1.03916	174.29227	164.45659	65.8519	0.32337	 	5.03436E16	 	6.42916E-17	 	2342.90746	27.934	 
385.0	1.0	0.0	7.67177	7.01329	-9.99289	14.47607	16.80427	0.95956	1.04215	174.64811	164.65916	65.99347	0.32322	 	7.24317E16	 	4.43489E-17	 	2203.48032	27.88543	 
380.0	1.0	0.0	7.67364	7.01158	-10.01481	14.44774	16.72498	0.95678	1.04517	175.00329	164.8609	66.13482	0.32308	 	1.04793E17	 	3.04206E-17	 	2064.2957	27.83692	 
375.0	1.0	0.0	7.6755	7.00988	-10.03665	14.41941	16.64558	0.95399	1.04823	175.3578	165.06181	66.27593	0.32294	 	1.52479E17	 	2.07468E-17	 	1925.35326	27.78849	 
370.0	1.0	0.0	7.67736	7.00818	-10.05842	14.39108	16.56604	0.95117	1.05133	175.71166	165.26189	66.41683	0.32279	 	2.23162E17	 	1.40662E-17	 	1786.65267	27.74012	 
365.0	1.0	0.0	7.67921	7.00649	-10.08011	14.36276	16.48637	0.94834	1.05447	176.06485	165.46114	66.55749	0.32265	 	3.28567E17	 	9.47951E-18	 	1648.19365	27.6918	 
360.0	1.0	0.0	7.68106	7.00481	-10.10172	14.33443	16.40656	0.94549	1.05766	176.41739	165.65958	66.69793	0.32251	 	4.8672E17	 	6.34912E-18	 	1509.9759	27.64355	 
355.0	1.0	0.0	7.6829	7.00313	-10.12326	14.30611	16.32662	0.94261	1.06088	176.76926	165.85719	66.83815	0.32237	 	7.25525E17	 	4.22569E-18	 	1371.99913	27.59535	 
350.0	1.0	0.0	7.68473	7.00146	-10.14473	14.2778	16.24653	0.93972	1.06415	177.12048	166.05399	66.97814	0.32223	 	1.08845E18	 	2.79429E-18	 	1234.26311	27.54721	 
345.0	1.0	0.0	7.68656	6.99979	-10.16611	14.24948	16.1663	0.93681	1.06746	177.47103	166.24997	67.1179	0.32208	 	1.64366E18	 	1.83556E-18	 	1096.76755	27.49911	 
340.0	1.0	0.0	7.68839	6.99813	-10.18743	14.22117	16.08592	0.93387	1.07081	177.82093	166.44513	67.25744	0.32194	 	2.49883E18	 	1.19761E-18	 	959.51225	27.45106	 
335.0	1.0	0.0	7.69021	6.99648	-10.20867	14.19286	16.00538	0.93092	1.07421	178.17016	166.63949	67.39675	0.3218	 	3.82518E18	 	7.75971E-19	 	822.49698	27.40305	 
330.0	1.0	0.0	7.69202	6.99483	-10.22983	14.16455	15.92468	0.92794	1.07765	178.51873	166.83304	67.53584	0.32166	 	5.89703E18	 	4.99204E-19	 	685.72153	27.35509	 
325.0	1.0	0.0	7.69383	6.99318	-10.25092	14.13624	15.84383	0.92495	1.08114	178.86665	167.02579	67.6747	0.32152	 	9.1571E18	 	3.18815E-19	 	549.18574	27.30716	 
320.0	1.0	0.0	7.69563	6.99155	-10.27193	14.10794	15.76281	0.92193	1.08468	179.2139	167.21773	67.81333	0.32138	 	1.43253E19	 	2.02091E-19	 	412.88942	27.25926	 
315.0	1.0	0.0	7.69742	6.98991	-10.29286	14.07964	15.68161	0.91889	1.08827	179.5605	167.40887	67.95173	0.32124	 	2.25816E19	 	1.27122E-19	 	276.83245	27.21139	 
310.0	1.0	0.0	7.69921	6.98829	-10.31372	14.05134	15.60024	0.91583	1.09191	179.90643	167.59921	68.08991	0.32109	 	3.58753E19	 	7.93363E-20	 	141.01469	27.16355	 
305.0	1.0	0.0	7.701	6.98667	-10.33451	14.02304	15.51869	0.91275	1.09559	180.25171	167.78876	68.22787	0.32095	 	5.7453E19	 	4.91151E-20	 	5.43603	27.11573	 
300.0	1.0	0.0	7.70278	6.98506	-10.35522	13.99474	15.43696	0.90965	1.09933	180.59633	167.97751	68.36559	0.32081	 	9.2768E19	 	3.01548E-20	 	-129.90361	27.06793	 
295.0	1.0	0.0	7.70455	6.98345	-10.37585	13.96645	15.35504	0.90652	1.10312	180.94028	168.16547	68.50309	0.32067	 	1.51059E20	 	1.83571E-20	 	-265.00429	27.02014	 
290.0	1.0	0.0	7.70632	6.98185	-10.39641	13.93816	15.27292	0.90338	1.10696	181.28358	168.35264	68.64036	0.32053	 	2.4811599999999997E20	 	1.10779E-20	 	-399.86606	26.97235	 
285.0	1.0	0.0	7.70808	6.98025	-10.4169	13.90987	15.19059	0.90021	1.11086	181.62622	168.53903	68.77741	0.32039	 	4.1117299999999997E20	 	6.62542E-21	 	-534.48891	26.92457	 
280.0	1.0	0.0	7.70984	6.97866	-10.43731	13.88158	15.10807	0.89702	1.11481	181.9682	168.72463	68.91423	0.32025	 	6.87637E20	 	3.92618E-21	 	-668.87285	26.87679	 
275.0	1.0	0.0	7.71159	6.97708	-10.45764	13.8533	15.02532	0.8938	1.11882	182.30952	168.90945	69.05082	0.32011	 	1.1608300000000001E21	 	2.30471E-21	 	-803.01785	26.829	 
270.0	1.0	0.0	7.71333	6.9755	-10.4779	13.82502	14.94236	0.89057	1.12288	182.65018	169.09349	69.18718	0.31997	 	1.97863E21	 	1.3398E-21	 	-936.92382	26.78119	 
265.0	1.0	0.0	7.71507	6.97392	-10.49808	13.79674	14.85918	0.88731	1.127	182.99018	169.27675	69.32332	0.31983	 	3.40616E21	 	7.71124E-22	 	-1070.59068	26.73337	 
260.0	1.0	0.0	7.71681	6.97236	-10.51819	13.76846	14.77576	0.88403	1.13119	183.32952	169.45923	69.45923	0.31969	 	5.92366E21	 	4.39285E-22	 	-1204.01831	26.68553	 
255.0	1.0	0.0	7.71853	6.9708	-10.53822	13.74018	14.6921	0.88072	1.13543	183.66821	169.64095	69.59491	0.31955	 	1.04103E22	 	2.47616E-22	 	-1337.20655	26.63765	 
250.0	1.0	0.0	7.72026	6.96924	-10.55817	13.71191	14.6082	0.8774	1.13974	184.00623	169.82189	69.73036	0.31941	 	1.8493599999999999E22	 	1.38068E-22	 	-1470.15519	26.58973	 
245.0	1.0	0.0	7.72197	6.96769	-10.57805	13.68364	14.52405	0.87405	1.14411	184.3436	170.00206	69.86559	0.31927	 	3.32195E22	 	7.61288E-23	 	-1602.86403	26.54177	 
240.0	1.0	0.0	7.72368	6.96615	-10.59786	13.65537	14.43963	0.87067	1.14854	184.6803	170.18147	70.00059	0.31913	 	6.03562E22	 	4.14963E-23	 	-1735.33281	26.49376	 
235.0	1.0	0.0	7.72539	6.96461	-10.61759	13.6271	14.35494	0.86727	1.15304	185.01635	170.36011	70.13536	0.31899	 	1.1095699999999999E23	 	2.23524E-23	 	-1867.56121	26.44568	 
230.0	1.0	0.0	7.72709	6.96308	-10.63725	13.59884	14.26998	0.86385	1.1576	185.35174	170.53799	70.2699	0.31886	 	2.06463E23	 	1.18944E-23	 	-1999.5489	26.39754	 
225.0	1.0	0.0	7.72878	6.96156	-10.65683	13.57058	14.18473	0.86041	1.16224	185.68647	170.71511	70.40422	0.31872	 	3.8899599999999994E23	 	6.25032E-24	 	-2131.2955	26.34932	 
220.0	1.0	0.0	7.73047	6.96004	-10.67633	13.54232	14.09919	0.85694	1.16694	186.02055	170.89147	70.5383	0.31858	 	7.423779999999999E23	 	3.24221E-24	 	-2262.80058	26.30102	 
215.0	1.0	0.0	7.73215	6.95852	-10.69576	13.51406	14.01334	0.85345	1.17172	186.35396	171.06708	70.67216	0.31844	 	1.43567E24	 	1.65953E-24	 	-2394.06366	26.25262	 
210.0	1.0	0.0	7.73383	6.95701	-10.71512	13.4858	13.92717	0.84993	1.17656	186.68671	171.24193	70.80579	0.3183	 	2.81458E24	 	8.37828E-25	 	-2525.08421	26.20411	 
205.0	1.0	0.0	7.7355	6.95551	-10.73439	13.45755	13.84069	0.84639	1.18148	187.01881	171.41603	70.93919	0.31816	 	5.596110000000001E24	 	4.17027E-25	 	-2655.86167	26.15549	 
200.0	1.0	0.0	7.73716	6.95401	-10.7536	13.4293	13.75386	0.84283	1.18648	187.35025	171.58939	71.07236	0.31802	 	1.12893E25	 	2.04559E-25	 	-2786.39539	26.10674	 
195.0	1.0	0.0	7.73882	6.95252	-10.77273	13.40105	13.66669	0.83924	1.19155	187.68103	171.76199	71.20531	0.31789	 	2.31185E25	 	9.88354E-26	 	-2916.68471	26.05786	 
190.0	1.0	0.0	7.74047	6.95104	-10.79178	13.3728	13.57917	0.83563	1.1967	188.01115	171.93385	71.33802	0.31775	 	4.8080800000000005E25	 	4.7015E-26	 	-3046.72885	26.00883	 
185.0	1.0	0.0	7.74212	6.94956	-10.81076	13.34456	13.49127	0.832	1.20193	188.34062	172.10497	71.47051	0.31761	 	1.0160800000000001E26	 	2.20074E-26	 	-3176.52702	25.95963	 
180.0	1.0	0.0	7.74376	6.94809	-10.82966	13.31631	13.40299	0.82834	1.20724	188.66942	172.27534	71.60277	0.31747	 	2.1829800000000003E26	 	1.01316E-26	 	-3306.07832	25.91026	 
175.0	1.0	0.0	7.7454	6.94662	-10.84849	13.28807	13.31432	0.82465	1.21263	188.99757	172.44498	71.7348	0.31734	 	4.77075E26	 	4.58483E-27	 	-3435.38181	25.8607	 
170.0	1.0	0.0	7.74703	6.94516	-10.86724	13.25984	13.22524	0.82094	1.21811	189.32506	172.61388	71.8666	0.3172	 	1.06117E27	 	2.03823E-27	 	-3564.43645	25.81093	 
165.0	1.0	0.0	7.74865	6.9437	-10.88592	13.2316	13.13573	0.81721	1.22367	189.65189	172.78205	71.99817	0.31706	 	2.40384E27	 	8.89617E-28	 	-3693.24116	25.76094	 
160.0	1.0	0.0	7.75027	6.94225	-10.90452	13.20337	13.04579	0.81346	1.22932	189.97807	172.94948	72.12951	0.31692	 	5.54916E27	 	3.80976E-28	 	-3821.79472	25.71071	 
155.0	1.0	0.0	7.75188	6.94081	-10.92305	13.17514	12.95539	0.80968	1.23506	190.30358	173.11618	72.26062	0.31679	 	1.30627E28	 	1.59974E-28	 	-3950.09586	25.66023	 
150.0	1.0	0.0	7.75349	6.93937	-10.9415	13.14691	12.86452	0.80587	1.24089	190.62844	173.28216	72.3915	0.31665	 	3.13781E28	 	6.58195E-29	 	-4078.14321	25.60947	 
145.0	1.0	0.0	7.75509	6.93794	-10.95988	13.11868	12.77316	0.80205	1.24681	190.95264	173.4474	72.52216	0.31651	 	7.697E28	 	2.65154E-29	 	-4205.93528	25.55841	 
140.0	1.0	0.0	7.75668	6.93652	-10.97818	13.09046	12.68129	0.7982	1.25282	191.27618	173.61193	72.65258	0.31638	 	1.92952E29	 	1.04507E-29	 	-4333.4705	25.50704	 
135.0	1.0	0.0	7.75827	6.9351	-10.99641	13.06223	12.5889	0.79432	1.25893	191.59907	173.77572	72.78277	0.31624	 	4.947140000000001E29	 	4.02673E-30	 	-4460.74717	25.45534	 
130.0	1.0	0.0	7.75985	6.93368	-11.01456	13.03401	12.49596	0.79043	1.26514	191.9213	173.9388	72.91274	0.3161	 	1.29838E30	 	1.51548E-30	 	-4587.7635	25.40326	 
125.0	1.0	0.0	7.76143	6.93227	-11.03264	13.0058	12.40246	0.78651	1.27144	192.24286	174.10116	73.04247	0.31597	 	3.49122E30	 	5.56617E-31	 	-4714.5175	25.3508	 
120.0	1.0	0.0	7.763	6.93087	-11.05064	12.97758	12.30837	0.78257	1.27784	192.56378	174.26281	73.17198	0.31583	 	9.626699999999999E30	 	1.99328E-31	 	-4841.00715	25.29793	 
115.0	1.0	0.0	7.76456	6.92947	-11.06856	12.94937	12.21366	0.77861	1.28434	192.88403	174.42374	73.30125	0.31569	 	2.7247499999999997E31	 	6.9528E-32	 	-4967.23019	25.24461	 
110.0	1.0	0.0	7.76612	6.92808	-11.08642	12.92116	12.11832	0.77463	1.29094	193.20363	174.58395	73.43029	0.31556	 	7.92443E31	 	2.35987E-32	 	-5093.18426	25.19081	 
105.0	1.0	0.0	7.76768	6.9267	-11.10419	12.89295	12.02232	0.77062	1.29765	193.52257	174.74346	73.55911	0.31542	 	2.3706699999999998E32	 	7.78538E-33	 	-5218.86683	25.13651	 
100.0	1.0	0.0	7.76922	6.92532	-11.12189	12.86474	11.92563	0.7666	1.30446	193.84085	174.90226	73.68769	0.31529	 	7.30344E32	 	2.49369E-33	 	-5344.27518	25.08167	 
95.0	1.0	0.0	7.77076	6.92394	-11.13952	12.83653	11.82822	0.76256	1.31138	194.15848	175.06035	73.81604	0.31515	 	2.31983E33	 	7.74559E-34	 	-5469.40642	25.02625	 
90.0	1.0	0.0	7.7723	6.92258	-11.15707	12.80833	11.73006	0.75849	1.3184	194.47544	175.21773	73.94417	0.31502	 	7.60691E33	 	2.33005E-34	 	-5594.25745	24.97021	 
85.0	1.0	0.0	7.77383	6.92121	-11.17455	12.78013	11.63112	0.75441	1.32553	194.79175	175.37441	74.07206	0.31488	 	2.57846E34	 	6.77941E-35	 	-5718.82496	24.9135	 
80.0	1.0	0.0	7.77535	6.91986	-11.19195	12.75193	11.53137	0.75032	1.33277	195.10741	175.53039	74.19972	0.31474	 	9.047400000000001E34	 	1.90512E-35	 	-5843.10542	24.85609	 
75.0	1.0	0.0	7.77687	6.91851	-11.20927	12.72374	11.43076	0.7462	1.34012	195.4224	175.68567	74.32715	0.31461	 	3.2911399999999998E35	 	5.16306E-36	 	-5967.09504	24.79792	 
70.0	1.0	0.0	7.77838	6.91716	-11.22653	12.69554	11.32927	0.74208	1.34757	195.73674	175.84026	74.45435	0.31447	 	1.2431199999999999E36	 	1.34728E-36	 	-6090.78978	24.73895	 
65.0	1.0	0.0	7.77989	6.91583	-11.2437	12.66735	11.22685	0.73793	1.35514	196.05042	175.99414	74.58132	0.31434	 	4.8836699999999995E36	 	3.37948E-37	 	-6214.18532	24.67911	 
60.0	1.0	0.0	7.78139	6.91449	-11.2608	12.63916	11.12346	0.73378	1.36281	196.36345	176.14734	74.70806	0.31421	 	1.99902E37	 	8.13409E-38	 	-6337.27702	24.61834	 
55.0	1.0	0.0	7.78288	6.91317	-11.27783	12.61098	11.01906	0.72962	1.37058	196.67582	176.29984	74.83456	0.31407	 	8.54163E37	 	1.87507E-38	 	-6460.05994	24.55658	 
50.0	1.0	0.0	7.78437	6.91185	-11.29478	12.58279	10.91359	0.72544	1.37847	196.98753	176.45165	74.96084	0.31394	 	3.8175299999999996E38	 	4.13151E-39	 	-6582.52878	24.49377	 
45.0	1.0	0.0	7.78585	6.91053	-11.31166	12.55461	10.807	0.72126	1.38646	197.29858	176.60277	75.08688	0.3138	 	1.78839E39	 	8.68274E-40	 	-6704.67784	24.42981	 
40.0	1.0	0.0	7.78732	6.90922	-11.32846	12.52643	10.69925	0.71708	1.39455	197.60898	176.75321	75.21269	0.31367	 	8.801540000000001E39	 	1.73652E-40	 	-6826.50104	24.36464	 
35.0	1.0	0.0	7.78879	6.90792	-11.34519	12.49825	10.59027	0.71289	1.40274	197.91872	176.90296	75.33828	0.31353	 	4.56158E40	 	3.29711E-41	 	-6947.99186	24.29816	 
30.0	1.0	0.0	7.79026	6.90662	-11.36184	12.47008	10.47999	0.7087	1.41103	198.2278	177.05203	75.46362	0.3134	 	2.49599E41	 	5.92791E-42	 	-7069.14326	24.23028	 
25.0	1.0	0.0	7.79171	6.90533	-11.37841	 	10.36837	0.70452	1.41942	198.53623	177.20042	75.58874	0.31327	 	1.44586E42	 	1.00646E-42	 	-7189.94774	 	 
