T (C)	Fraction solid (wt)-TOTAL	Fraction liquid (wt)-LIQUID	Density (g/(cm)^3)-TOTAL	Molar volume (cm^3)-TOTAL	Volume change (%)-  	Average expansion coeff. (10e-6 1/K)-  	Thermal conductivity (W/(m*K))-TOTAL	Electrical resistivity (10e-6 Ohm*m)-TOTAL	Electrical conductivity (10e6 1/(Ohm*m))-TOTAL	Young's modulus (GPa)-TOTAL	Bulk modulus (GPa)-TOTAL	Shear modulus(GPa)-TOTAL	Poisson's ratio-TOTAL	Liquid viscosity (mPa s)-  	Total viscosity (mPa s)-  	Liquid diffusivity (10e-9 (m^2)/s)-  	Total diffusivity (10e-9 (m^2)/s)-  	Surface Tension (mN/m)-  	Enthalpy (J/mole)-TOTAL	Specific heat (J/(mole K))-TOTAL	Latent heat (J/mole)-TOTAL
1400.0	0.0	1.0	7.03954	7.78139	0.0	31.66209	30.96774	1.32371	0.75545	0.0	121.74246	0.0	0.5	6.0811	6.0811	1.34289	1.34289	1718.09114	52508.21	 	0.0
1395.0	0.0	1.0	7.0435	7.77702	-0.0562081	31.62303	30.88598	1.32324	0.75572	0.0	121.8952	0.0	0.5	6.14347	6.14347	1.32528	1.32528	1719.70511	52304.246	40.7928	0.0
1390.0	0.0	1.0	7.04745	7.77266	-0.11226	31.58411	30.80421	1.32278	0.75598	0.0	122.04793	0.0	0.5	6.20687	6.20687	1.30781	1.30781	1721.32254	52100.741	40.701	0.0
1385.0	0.0	1.0	7.05139	7.76831	-0.16815	31.54536	30.72244	1.32231	0.75625	0.0	122.20067	0.0	0.5	6.2713	6.2713	1.29048	1.29048	1722.94317	51897.694	40.6094	0.0
1380.0	0.0	1.0	7.05533	7.76397	-0.22388	31.50676	30.64067	1.32184	0.75652	0.0	122.3534	0.0	0.5	6.3368	6.3368	1.27329	1.27329	1724.56675	51695.103	40.5182	0.0
1375.0	0.0	1.0	7.05926	7.75965	-0.27945	31.46831	30.55889	1.32137	0.75679	0.0	122.50614	0.0	0.5	6.40339	6.40339	1.25624	1.25624	1726.193	51492.965	40.4276	0.0
1370.0	0.0	1.0	7.06319	7.75533	-0.33486	31.43003	30.47712	1.3209	0.75706	0.0	122.65887	0.0	0.5	6.47109	6.47109	1.23933	1.23933	1727.82162	51291.278	40.3374	0.0
1365.0	0.0	1.0	7.06711	7.75104	-0.39011	31.39191	30.39534	1.32042	0.75733	0.0	122.81161	0.0	0.5	6.53993	6.53993	1.22255	1.22255	1729.45229	51090.039	40.2478	0.0
1360.0	0.0	1.0	7.07102	7.74675	-0.44521	31.35395	30.31357	1.31994	0.75761	0.0	122.96434	0.0	0.5	6.60992	6.60992	1.20591	1.20591	1731.08471	50889.246	40.1586	0.0
1355.0	0.0	1.0	7.07492	7.74247	-0.50014	31.31616	30.23179	1.31946	0.75789	0.0	123.11708	0.0	0.5	6.68111	6.68111	1.18941	1.18941	1732.71854	50688.897	40.0698	0.0
1350.0	0.0	1.0	7.07882	7.73821	-0.55492	31.27854	30.15001	1.31898	0.75816	0.0	123.26981	0.0	0.5	6.7535	6.7535	1.17305	1.17305	1734.35341	50488.989	39.9816	0.0
1347.56	0.0	1.0	7.08072	7.73614	-0.58156	31.26026	30.11014	1.31874	0.7583	0.0	123.34426	0.0	0.5	6.78924	6.78924	1.16512	1.16512	1735.15063	50391.701	39.91581	0.0
1345.0	0.0652504	0.93475	7.09828	7.71705	-0.82687	30.62059	30.31998	1.30754	0.76479	0.00160122	123.46521	5.36868E-4	0.49126	6.81113	7.94135	1.15954	0.99451	1733.96211	49295.755	427.65787	993.763
1340.0	0.17721	0.82279	7.12897	7.68375	-1.25475	29.51073	30.67849	1.28827	0.77623	0.0890287	123.70462	0.0301566	0.47611	6.85347	38.87644	1.14882	0.20252	1731.75457	47399.632	379.2246	2690.856
1335.0	0.2702	0.7298	7.15513	7.65564	-1.61601	28.58407	30.97175	1.27212	0.78609	0.49031	123.96496	0.16753	0.46337	6.89584	183.60062	1.13822	0.0427503	1729.68061	45799.873	319.9518	4092.018
1330.0	0.34833	0.65167	7.17773	7.63163	-1.92466	27.80224	31.21318	1.25835	0.79469	1.37706	124.24548	0.47401	0.45256	6.9383	521.61337	1.12774	0.0150007	1727.72464	44432.279	273.5188	5261.448
1327.94	0.37652	0.62348	7.18605	7.62282	-2.03782	27.51898	31.2979	1.25333	0.79787	1.8917	124.36842	0.65293	0.44863	6.95591	726.65584	1.12343	0.0107541	1726.9497	43930.622	 	5681.456
1325.0	0.46225	0.53775	7.21045	7.59707	-2.3688	26.62162	31.58654	1.2396	0.80671	4.37968	124.92122	1.52462	0.43632	7.01017	1715.6323	1.11269	0.00454653	1725.81594	42464.858	393.4842	7031.137
1320.0	0.57332	0.42668	7.24282	7.56316	-2.80447	25.45653	31.95692	1.2214	0.81873	10.6706	125.66048	3.75684	0.42016	7.09843	4355.85165	1.09542	0.00178513	1723.9463	40539.08	385.1556	8759.61
1315.0	0.65154	0.34846	7.26656	7.53853	-3.12107	24.63028	32.20635	1.20814	0.82772	18.20631	126.25786	6.46245	0.40862	7.18319	7786.78604	1.0791	9.95451E-4	1722.17127	39142.784	279.2592	9959.026
1310.0	0.70893	0.29107	7.28478	7.51976	-3.36223	24.01882	32.37387	1.1981	0.83465	25.97387	126.77838	9.276	0.40006	7.26531	11685.29752	1.06354	6.61255E-4	1720.48332	38079.614	212.634	10825.744
1305.0	0.75243	0.24757	7.29928	7.50486	-3.55379	23.54865	32.4842	1.19026	0.84015	33.43575	127.25604	11.99715	0.39349	7.34552	15866.79268	1.04861	4.85451E-4	1722.30926	37234.76941	168.96892	11473.49
1300.0	0.78634	0.21366	7.3104	7.49312	-3.70469	23.19495	32.55426	1.18394	0.84464	40.34998	127.65221	14.53227	0.38829	7.42436	20276.33375	1.03418	3.78676E-4	1724.14445	36539.01518	139.15085	11971.38
1295.0	0.8134	0.1866	7.31979	7.48322	-3.83186	22.90889	32.59448	1.17872	0.84838	46.66066	128.04098	16.85605	0.38409	7.50242	24861.41427	1.02017	3.07857E-4	1725.9891	35949.78429	117.84618	12363.21
1290.0	0.83541	0.16459	7.32793	7.47468	-3.94154	22.67267	32.61238	1.17431	0.85156	52.38177	128.42826	18.97013	0.38064	7.58006	29622.77091	1.0065	2.5755E-4	1727.84167	35438.28177	102.3005	12677.774
1285.0	0.85361	0.14639	7.33515	7.46713	-4.03857	22.47243	32.61303	1.17053	0.85431	57.56005	128.81642	20.88926	0.37774	7.65765	34577.26948	0.99312	2.19941E-4	1729.70423	34984.95499	90.66536	12934.621
1280.0	0.86888	0.13112	7.34166	7.46037	-4.12554	22.3008	32.60031	1.16723	0.85673	62.24997	129.20772	22.63171	0.37528	7.73548	39750.5195	0.97997	1.90703E-4	1731.57469	34576.14936	81.76113	13147.405
1275.0	0.88186	0.11814	7.34764	7.4542	-4.20485	22.15089	32.57697	1.16431	0.85888	66.51434	129.60258	24.21944	0.37316	7.81384	45178.32777	0.96702	1.67251E-4	1733.45326	34202.08225	74.81342	13325.903
1270.0	0.89301	0.10699	7.35319	7.4485	-4.27802	22.01835	32.54501	1.16169	0.86082	70.39863	130.00084	25.66834	0.37131	7.89287	50891.22805	0.95424	1.47997E-4	1735.34025	33855.59406	69.29764	13477.275
1265.0	0.904	0.0960005	7.35868	7.4429	-4.35005	21.88821	32.5121	1.1591	0.86274	74.42426	130.41762	27.17259	0.36947	7.97025	57287.15547	0.94192	1.31047E-4	1737.2002	33510.66521	68.98577	13627.534
1260.0	0.9172	0.0827966	7.36467	7.43679	-4.42855	21.7373	32.48902	1.15615	0.86494	79.44867	130.87548	29.0537	0.36727	8.03954	65139.67572	0.93077	1.14875E-4	1738.9616	33131.77008	75.77903	13812.208
1255.0	0.92803	0.0719673	7.37018	7.43121	-4.50024	21.60599	32.45492	1.15359	0.86686	83.83709	131.32757	30.69979	0.36543	8.10867	73260.24584	0.91982	1.01809E-4	1740.72829	32788.65206	68.6236	13961.547
1250.0	0.93704	0.0629575	7.37531	7.42601	-4.56704	21.48869	32.41225	1.15133	0.86856	87.7023	131.77532	32.15196	0.36387	8.17793	81723.4832	0.90905	9.09667E-5	1742.50424	32472.82157	63.1661	14084.039
1245.0	0.94463	0.0553657	7.38015	7.42113	-4.62983	21.38278	32.36285	1.1493	0.87009	91.13453	132.22038	33.44323	0.36253	8.2477	90603.07761	0.8984	8.17821E-5	1744.28753	32178.21199	58.92192	14185.748
1240.0	0.9511	0.0488997	7.38476	7.4165	-4.68934	21.28618	32.30808	1.14746	0.87149	94.20664	132.66347	34.60038	0.36135	8.31827	99972.87066	0.88784	7.38731E-5	1746.07706	31900.39173	55.56405	14271.106
1235.0	0.95666	0.0433371	7.38918	7.41206	-4.74631	21.19672	32.24894	1.14576	0.87278	96.97791	133.10499	35.64533	0.36032	8.38981	109907.1996	0.87736	6.69738E-5	1747.8746	31636.06317	52.86571	14343.409
1230.0	0.96149	0.0385127	7.39344	7.4078	-4.80113	21.11321	32.18622	1.14419	0.87398	99.49528	133.54502	36.59545	0.35939	8.46259	120481.4132	0.86693	6.08932E-5	1749.67974	31382.72674	50.66729	14405.151
1225.0	0.9657	0.0342956	7.39757	7.40367	-4.85413	21.03473	32.12051	1.14272	0.87511	101.7971	133.98395	37.46494	0.35856	8.5368	131773.95	0.85654	5.54897E-5	1751.49149	31138.46084	48.85318	14458.254
1220.0	0.96942	0.0305833	7.40159	7.39967	-4.90561	20.9604	32.05232	1.14133	0.87617	103.91499	134.42167	38.26558	0.35781	8.61257	143867.3703	0.84617	5.06556E-5	1753.31059	30901.76487	47.33919	14504.214
1215.0	0.97271	0.0272944	7.40552	7.39576	-4.95577	20.8896	31.98203	1.14001	0.87719	105.8752	134.85812	39.00715	0.35713	8.69007	156849.4635	0.83581	4.63074E-5	1755.13689	30671.45424	46.06213	14544.215
1210.0	0.97563	0.0243663	7.40936	7.39195	-5.0048	20.82183	31.90994	1.13874	0.87816	107.69832	135.29329	39.69731	0.35649	8.76943	170812.6491	0.82547	4.23791E-5	1756.97058	30446.57838	44.97517	14579.203
1205.0	0.97826	0.0217438	7.41313	7.38821	-5.05281	20.7567	31.83631	1.13753	0.8791	109.40315	135.72732	40.34308	0.35591	8.85081	185858.4975	0.81512	3.88171E-5	1758.81056	30226.37067	44.04154	14609.944
1200.0	0.98061	0.0193854	7.41684	7.38454	-5.09995	20.69385	31.76137	1.13635	0.88001	111.00407	136.15995	40.94986	0.35537	8.93429	202094.7516	0.80477	3.55778E-5	1760.65771	30010.20555	43.23302	14637.061
1195.0	0.98274	0.017255	7.42048	7.38094	-5.1463	20.63296	31.68527	1.13522	0.88089	112.51387	136.59117	41.52243	0.35486	9.01996	219639.0228	0.79442	3.26248E-5	1762.51251	29797.56644	42.52782	14661.066
1190.0	0.98531	0.0146867	7.42436	7.37705	-5.19632	20.55973	31.61142	1.13399	0.88184	114.18842	137.03186	42.15857	0.35427	9.11732	239262.4962	0.78326	2.9847E-5	1764.36445	29577.70471	43.97235	14692.71
1185.0	0.98868	0.0113234	7.42862	7.37266	-5.2527	20.46516	31.54152	1.13262	0.88291	116.16342	137.48916	42.91049	0.35356	9.23735	261636.7243	0.77044	2.72013E-5	1766.20167	29344.54991	46.63096	14738.054
1180.0	0.99143	0.00856756	7.43259	7.36853	-5.3058	20.38049	31.46834	1.13136	0.88389	117.89546	137.93893	43.5703	0.35293	9.3607	285505.6714	0.75768	2.48418E-5	1768.04866	29120.69131	44.77172	14774.511
1175.0	0.99373	0.0062727	7.43634	7.3646	-5.35628	20.30369	31.3931	1.13017	0.88482	119.4527	138.38219	44.16366	0.35239	9.4877	311099.8167	0.74497	2.27196E-5	1769.9002	28903.94349	43.34956	14804.263
1170.0	0.99567	0.00433482	7.43992	7.36083	-5.40474	20.23284	31.31626	1.12904	0.88571	120.92161	138.82005	44.72295	0.3519	9.61816	338652.5929	0.73233	2.07991E-5	1771.76162	28692.76675	42.23535	14828.847
1165.0	0.99732	0.00267885	7.44335	7.35719	-5.45154	20.16688	31.23832	1.12793	0.88658	122.45203	139.25302	45.30388	0.35145	9.75236	368400.2564	0.71975	1.90533E-5	1773.6307	28486.04865	41.34362	14849.373
1160.0	0.99875	0.00124788	7.44668	7.35365	-5.49697	20.10487	31.15934	1.12686	0.88742	124.14855	139.68162	45.94545	0.35104	9.8903	400595.3493	0.70724	1.74611E-5	1775.5071	28282.96251	40.61723	14866.666
1155.0	1.0	0.0	7.44991	7.3502	-5.54126	20.04611	31.07961	1.12581	0.88825	125.53777	140.10635	46.47262	0.35066	 	435502.4055	 	1.60055E-5	 	28082.88589	40.01532	14881.344
1150.0	1.0	0.0	7.4525	7.34765	-5.5741	20.02519	30.99452	1.12495	0.88893	126.03414	140.50025	46.66225	0.35049	 	471290.3803	 	1.47383E-5	 	27880.66897	40.44338	 
1145.0	1.0	0.0	7.45509	7.3451	-5.60687	20.00433	30.90944	1.12408	0.88962	126.52954	140.89226	46.85156	0.35032	 	510300.3113	 	1.35639E-5	 	27701.54937	35.82392	 
1140.0	1.0	0.0	7.45767	7.34255	-5.63957	19.98351	30.82436	1.12321	0.89031	127.02395	141.2824	47.04056	0.35015	 	552846.8784	 	1.24758E-5	 	27522.74469	35.76094	 
1135.0	1.0	0.0	7.46025	7.34002	-5.67219	19.96275	30.73927	1.12233	0.891	127.5174	141.67068	47.22923	0.34998	 	599278.0508	 	1.14685E-5	 	27344.25374	35.69819	 
1130.0	1.0	0.0	7.46283	7.33748	-5.70475	19.94204	30.65419	1.12145	0.8917	128.00986	142.0571	47.41759	0.34981	 	649978.3992	 	1.05364E-5	 	27166.07559	35.63563	 
1125.0	1.0	0.0	7.4654	7.33495	-5.73724	19.92138	30.5691	1.12057	0.89241	128.50136	142.44167	47.60563	0.34964	 	705373.7894	 	9.67434E-6	 	26988.20905	35.57331	 
1120.0	1.0	0.0	7.46797	7.33243	-5.76966	19.90078	30.48401	1.11967	0.89312	128.99188	142.8244	47.79336	0.34947	 	765935.4873	 	8.87753E-6	 	26810.65319	35.51117	 
1115.0	1.0	0.0	7.47053	7.32992	-5.802	19.88023	30.39893	1.11878	0.89383	129.48143	143.20529	47.98076	0.34931	 	832186.0307	 	8.14147E-6	 	26633.40687	35.44927	 
1110.0	1.0	0.0	7.47309	7.3274	-5.83428	19.85973	30.31383	1.11788	0.89455	129.97001	143.58436	48.16786	0.34914	 	904704.4207	 	7.4619E-6	 	26456.46911	35.38755	 
1105.0	1.0	0.0	7.47565	7.3249	-5.86648	19.83929	30.22874	1.11697	0.89528	130.45762	143.96161	48.35463	0.34897	 	984133.5681	 	6.83485E-6	 	26279.8388	35.32606	 
1104.76	1.0	0.0	7.47578	7.32478	-5.86805	19.83829	30.22459	1.11693	0.89531	130.48137	143.97994	48.36373	0.34896	 	988194.9657	 	6.80556E-6	 	26271.23285	 	 
1100.0	1.0	0.0	7.47818	7.32242	-5.89837	19.81977	30.14376	1.11606	0.89601	130.94508	144.33828	48.54138	0.3488	 	1071235.461	 	6.25633E-6	 	26103.2574	35.31628	 
1095.0	1.0	0.0	7.48071	7.31994	-5.93018	19.80034	30.05877	1.11514	0.89675	131.43158	144.71318	48.72782	0.34863	 	1166764.837	 	5.72318E-6	 	25926.97725	35.25603	 
1090.0	1.0	0.0	7.48324	7.31747	-5.96194	19.78095	29.97377	1.11421	0.89749	131.9171	145.08625	48.91394	0.34846	 	1271601.176	 	5.23214E-6	 	25751.01104	35.19324	 
1085.0	1.0	0.0	7.48576	7.315	-5.99362	19.76159	29.88877	1.11328	0.89824	132.40162	145.45748	49.09973	0.34829	 	1386726.315	 	4.78017E-6	 	25575.35751	35.13071	 
1080.0	1.0	0.0	7.48828	7.31254	-6.02525	19.74226	29.80377	1.11235	0.899	132.88516	145.8269	49.2852	0.34812	 	1513233.382	 	4.36442E-6	 	25400.01519	35.06846	 
1075.0	1.0	0.0	7.4908	7.31009	-6.05682	19.72298	29.71875	1.11141	0.89976	133.36772	146.1945	49.47034	0.34796	 	1652340.39	 	3.98222E-6	 	25224.98267	35.0065	 
1070.0	1.0	0.0	7.49331	7.30764	-6.08832	19.70373	29.63373	1.11046	0.90053	133.84929	146.5603	49.65517	0.34779	 	1805405.535	 	3.63109E-6	 	25050.25865	34.94481	 
1065.0	1.0	0.0	7.49582	7.30519	-6.11976	19.68453	29.54871	1.10951	0.9013	134.32988	146.92431	49.83967	0.34762	 	1973944.135	 	3.30869E-6	 	24875.8417	34.88339	 
1060.0	1.0	0.0	7.49833	7.30275	-6.15114	19.66537	29.46368	1.10856	0.90207	134.80948	147.28653	50.02385	0.34745	 	2159648.468	 	3.01289E-6	 	24701.73084	34.82217	 
1055.0	1.0	0.0	7.50083	7.30031	-6.18246	19.64625	29.37864	1.1076	0.90286	135.28812	147.64697	50.20771	0.34728	 	2364409.658	 	2.74164E-6	 	24527.92468	34.76123	 
1050.0	1.0	0.0	7.50333	7.29788	-6.21371	19.62718	29.2936	1.10663	0.90364	135.76577	148.00565	50.39125	0.34712	 	2590342.381	 	2.49309E-6	 	24354.42197	34.70054	 
1045.0	1.0	0.0	7.50582	7.29545	-6.2449	19.60815	29.20855	1.10566	0.90444	136.24245	148.36256	50.57447	0.34695	 	2839813.703	 	2.26549E-6	 	24181.22148	34.6401	 
1040.0	1.0	0.0	7.50832	7.29303	-6.27602	19.58917	29.1235	1.10468	0.90524	136.71816	148.71772	50.75738	0.34678	 	3115474.517	 	2.0572E-6	 	24008.322	34.5799	 
1035.0	1.0	0.0	7.51081	7.29061	-6.30708	19.57025	29.03843	1.1037	0.90604	137.1929	149.07114	50.93996	0.34661	 	3420296.666	 	1.86673E-6	 	23835.72229	34.51994	 
1030.0	1.0	0.0	7.51329	7.2882	-6.33808	19.55137	28.95337	1.10271	0.90686	137.66666	149.42283	51.12223	0.34645	 	3757613.715	 	1.69266E-6	 	23663.42115	34.46023	 
1026.39	1.0	0.0	7.51508	7.28646	-6.3604	19.53778	28.892	1.10199	0.90745	138.0078	149.67543	51.2535	0.34633	 	4023182.706	 	1.57655E-6	 	23539.32612	 	 
1025.0	1.0	0.0	7.51623	7.28535	-6.37468	19.51121	28.84743	1.10251	0.90702	138.21908	149.81367	51.33552	0.34623	 	4144521.962	 	1.52875E-6	 	23464.57985	39.76826	 
1020.0	1.0	0.0	7.52031	7.2814	-6.42546	19.41692	28.69012	1.10429	0.90556	138.96976	150.30417	51.62701	0.3459	 	4613114.682	 	1.36817E-6	 	23198.44786	53.2264	 
1015.0	1.0	0.0	7.52434	7.2775	-6.47557	19.32424	28.53663	1.10594	0.90421	139.70914	150.78626	51.91421	0.34558	 	5138712.144	 	1.22349E-6	 	22935.46958	52.59566	 
1010.0	1.0	0.0	7.52832	7.27365	-6.52502	19.2331	28.38678	1.10746	0.90297	140.43763	151.26026	52.19727	0.34526	 	5728707.039	 	1.09322E-6	 	22675.54972	51.98397	 
1005.0	1.0	0.0	7.53225	7.26985	-6.57385	19.14347	28.24039	1.10886	0.90183	141.1556	151.72649	52.47634	0.34495	 	6391509.222	 	9.76034E-7	 	22418.5956	51.39082	 
1000.0	1.0	0.0	7.53614	7.2661	-6.62206	19.05529	28.0973	1.11015	0.90078	141.86343	152.18524	52.75156	0.34464	 	7136694.591	 	8.70701E-7	 	22164.5178	50.81556	 
995.0	1.0	0.0	7.53999	7.2624	-6.66968	18.96851	27.95737	1.11132	0.89983	142.56147	152.63679	53.02306	0.34433	 	7975176.129	 	7.76099E-7	 	21913.22943	50.25767	 
990.0	1.0	0.0	7.54379	7.25874	-6.71672	18.88309	27.82045	1.11239	0.89897	143.25006	153.08139	53.29096	0.34404	 	8919401.292	 	6.91203E-7	 	21664.64622	49.71664	 
985.0	1.0	0.0	7.54755	7.25512	-6.76319	18.79898	27.68642	1.11335	0.89819	143.92952	153.51929	53.55539	0.34374	 	9983580.785	 	6.15082E-7	 	21418.68638	49.19197	 
980.0	1.0	0.0	7.55127	7.25155	-6.80913	18.71614	27.55513	1.11421	0.8975	144.60016	153.95073	53.81648	0.34346	 	1.118395328E7	 	5.46883E-7	 	21175.27057	48.68316	 
975.0	1.0	0.0	7.55495	7.24801	-6.85453	18.63452	27.42646	1.11497	0.89689	145.26229	154.37592	54.07432	0.34317	 	1.25390914E7	 	4.85833E-7	 	20934.32172	48.18977	 
970.0	1.0	0.0	7.55859	7.24452	-6.89942	18.55408	27.30031	1.11563	0.89635	145.9162	154.79508	54.32904	0.34289	 	1.407025761E7	 	4.31229E-7	 	20695.76508	47.71133	 
965.0	1.0	0.0	7.5622	7.24107	-6.94382	18.47478	27.17655	1.11621	0.89589	146.56215	155.20841	54.58074	0.34262	 	1.580181571E7	 	3.82431E-7	 	20459.52813	47.24739	 
960.0	1.0	0.0	7.56577	7.23765	-6.98773	18.39657	27.05507	1.11669	0.8955	147.20043	155.6161	54.82952	0.34235	 	1.77617115E7	 	3.38858E-7	 	20225.54028	46.79757	 
955.0	1.0	0.0	7.56931	7.23427	-7.03118	18.31942	26.93578	1.11709	0.89518	147.83128	156.01832	55.07547	0.34208	 	1.998202917E7	 	2.99984E-7	 	19993.73324	46.36141	 
950.0	1.0	0.0	7.57281	7.23092	-7.07417	18.24329	26.81857	1.1174	0.89493	148.45494	156.41524	55.31869	0.34182	 	2.249964105E7	 	2.65333E-7	 	19764.04065	45.93852	 
945.0	1.0	0.0	7.57628	7.22761	-7.11672	18.16813	26.70335	1.11764	0.89474	149.07167	156.80704	55.55928	0.34156	 	2.53569638E7	 	2.34472E-7	 	19536.39815	45.5285	 
940.0	1.0	0.0	7.57971	7.22433	-7.15884	18.09391	26.59003	1.11779	0.89462	149.68167	157.19386	55.79731	0.3413	 	2.860284284E7	 	2.0701E-7	 	19310.7433	45.13097	 
935.0	1.0	0.0	7.58312	7.22109	-7.20055	18.0206	26.47852	1.11787	0.89455	150.28517	157.57585	56.03288	0.34104	 	3.229358222E7	 	1.82596E-7	 	19087.01556	44.74555	 
930.0	1.0	0.0	7.5865	7.21787	-7.24186	17.94815	26.36875	1.11788	0.89455	150.88239	157.95315	56.26605	0.34079	 	3.649414956E7	 	1.6091E-7	 	18865.15606	44.3719	 
925.0	1.0	0.0	7.58984	7.21469	-7.28277	17.87653	26.26062	1.11782	0.8946	151.47351	158.32589	56.49691	0.34055	 	4.12795951E7	 	1.41665E-7	 	18645.10787	44.00964	 
920.0	1.0	0.0	7.59316	7.21154	-7.32331	17.80571	26.15407	1.11769	0.8947	152.05873	158.69421	56.72554	0.3403	 	4.673669703E7	 	1.24602E-7	 	18426.81588	43.6584	 
915.0	1.0	0.0	7.59646	7.20841	-7.36348	17.73565	26.04903	1.1175	0.89486	152.63823	159.05822	56.952	0.34006	 	5.296591391E7	 	1.09487E-7	 	18210.22622	43.31793	 
910.77	1.0	0.0	7.59922	7.20579	-7.3972	17.67691	25.96124	1.11728	0.89503	153.1244	159.36304	57.14203	0.33986	 	5.892753252E7	 	9.80596E-8	 	18028.19653	 	 
910.0	1.0	0.0	7.60031	7.20476	-7.41038	17.63614	25.94188	1.11739	0.89494	153.27218	159.44287	57.20035	0.33978	 	6.020333629E7	 	9.59193E-8	 	17974.43256	47.15873	 
909.83	1.0	0.0	7.60054	7.20454	-7.41321	17.62737	25.93765	1.11741	0.89492	153.30395	159.46003	57.21289	0.33977	 	6.04822312E7	 	9.54636E-8	 	17962.86394	 	 
905.0	1.0	0.0	7.60379	7.20145	-7.45288	17.55434	25.83862	1.11711	0.89516	153.86821	159.81058	57.43363	0.33953	 	6.843115844E7	 	8.40298E-8	 	17751.12846	44.66082	 
900.0	1.0	0.0	7.60719	7.19824	-7.49418	17.47674	25.7375	1.11674	0.89546	154.44954	160.16966	57.66117	0.33929	 	7.784010497E7	 	7.35592E-8	 	17532.34233	43.75723	 
895.0	1.0	0.0	7.61066	7.19496	-7.5363	17.39475	25.63764	1.11631	0.8958	155.03213	160.5264	57.88938	0.33904	 	8.865795237E7	 	6.43084E-8	 	17312.31456	44.00555	 
890.0	1.0	0.0	7.61429	7.19153	-7.58041	17.30309	25.539	1.11583	0.89619	155.62379	160.88322	58.12141	0.33878	 	1.011467871E8	 	5.61268E-8	 	17087.77414	44.90808	 
887.65	1.0	0.0	7.61611	7.18981	-7.60257	17.25351	25.49293	1.11558	0.89639	155.90984	161.0525	58.23375	0.33866	 	1.077032545E8	 	5.26034E-8	 	16978.64148	 	 
885.0	1.0	0.0	7.61778	7.18824	-7.62275	17.21816	25.44183	1.11528	0.89664	156.2006	161.23304	58.34758	0.33854	 	1.154696431E8	 	4.89535E-8	 	16868.73641	43.80755	 
880.0	1.0	0.0	7.6209	7.18529	-7.66065	17.1518	25.34611	1.11466	0.89714	156.74634	161.57132	58.56127	0.33831	 	1.318091021E8	 	4.26999E-8	 	16662.16067	41.31515	 
875.0	1.0	0.0	7.62401	7.18236	-7.69826	17.08595	25.25142	1.11398	0.89768	157.2875	161.90602	58.77324	0.33809	 	1.506207333E8	 	3.72049E-8	 	16456.93642	41.04485	 
870.0	1.0	0.0	7.62709	7.17946	-7.73558	17.0206	25.15772	1.11326	0.89826	157.82421	162.23722	58.98353	0.33787	 	1.72302921E8	 	3.23815E-8	 	16253.02274	40.78274	 
865.0	1.0	0.0	7.63016	7.17657	-7.77262	16.9557	25.06497	1.1125	0.89888	158.3566	162.56499	59.19218	0.33765	 	1.973222151E8	 	2.81521E-8	 	16050.37954	40.52864	 
860.0	1.0	0.0	7.6332	7.17371	-7.8094	16.89124	24.97312	1.11168	0.89954	158.88477	162.88941	59.39925	0.33743	 	2.262256461E8	 	2.44474E-8	 	15848.96796	40.28232	 
855.0	1.0	0.0	7.63623	7.17087	-7.84592	16.82718	24.88213	1.11082	0.90023	159.40884	163.21053	59.60477	0.33722	 	2.596554098E8	 	2.12059E-8	 	15648.75038	40.04352	 
850.0	1.0	0.0	7.63923	7.16805	-7.88219	16.7635	24.79198	1.10992	0.90096	159.92891	163.52843	59.80878	0.337	 	2.983664033E8	 	1.83728E-8	 	15449.69033	39.81201	 
845.0	1.0	0.0	7.64156	7.16586	-7.91024	16.73676	24.71377	1.10848	0.90214	160.35311	163.81184	59.97413	0.33685	 	3.395950094E8	 	1.60704E-8	 	15291.05097	31.72787	 
840.0	1.0	0.0	7.64388	7.16369	-7.93823	16.71003	24.63556	1.10702	0.90332	160.7765	164.09393	60.13921	0.3367	 	3.869703189E8	 	1.40399E-8	 	15129.42269	32.32566	 
835.0	1.0	0.0	7.6462	7.16151	-7.96614	16.6833	24.55734	1.10556	0.90452	161.19907	164.37472	60.30402	0.33655	 	4.414747025E8	 	1.22512E-8	 	14968.04488	32.27556	 
830.0	1.0	0.0	7.64851	7.15935	-7.99399	16.65657	24.47911	1.10409	0.90572	161.62081	164.65421	60.46856	0.3364	 	5.042579575E8	 	1.06775E-8	 	14806.91687	32.2256	 
825.0	1.0	0.0	7.65082	7.15719	-8.02176	16.62985	24.40088	1.10261	0.90694	162.04174	164.93239	60.63282	0.33625	 	5.766676044E8	 	9.29443E-9	 	14646.03796	32.17578	 
820.0	1.0	0.0	7.65313	7.15503	-8.04946	16.60313	24.32264	1.10112	0.90817	162.46185	165.20928	60.79681	0.33611	 	6.602849846E8	 	8.08044E-9	 	14485.40748	32.1261	 
815.0	1.0	0.0	7.65543	7.15288	-8.07709	16.57641	24.24439	1.09962	0.9094	162.88114	165.48488	60.96053	0.33596	 	7.569683272E8	 	7.01613E-9	 	14325.02471	32.07655	 
810.0	1.0	0.0	7.65772	7.15074	-8.10464	16.54969	24.16614	1.09811	0.91065	163.29961	165.75919	61.12398	0.33581	 	8.689042072E8	 	6.0842E-9	 	14164.88896	32.02715	 
805.0	1.0	0.0	7.66002	7.1486	-8.13213	16.52298	24.08788	1.0966	0.91191	163.71727	166.03222	61.28716	0.33566	 	9.986691155E8	 	5.2692E-9	 	14004.99949	31.97789	 
800.0	1.0	0.0	7.6623	7.14647	-8.15954	16.49627	24.00961	1.09507	0.91318	164.1341	166.30397	61.45007	0.33551	 	1.149303239E9	 	4.55735E-9	 	13845.35557	31.92878	 
795.0	1.0	0.0	7.66458	7.14434	-8.18689	16.46957	23.93134	1.09353	0.91447	164.55012	166.57445	61.6127	0.33536	 	1.324399002E9	 	3.93641E-9	 	13685.95646	31.87982	 
790.0	1.0	0.0	7.66686	7.14222	-8.21416	16.44286	23.85305	1.09198	0.91576	164.96533	166.84365	61.77506	0.33521	 	1.52820748E9	 	3.39546E-9	 	13526.80138	31.83102	 
785.0	1.0	0.0	7.66913	7.1401	-8.24136	16.41616	23.77476	1.09043	0.91707	165.37971	167.11159	61.93715	0.33506	 	1.765766488E9	 	2.92483E-9	 	13367.88955	31.78237	 
780.0	1.0	0.0	7.6714	7.13799	-8.26848	16.38947	23.69647	1.08886	0.91839	165.79328	167.37826	62.09897	0.33491	 	2.043055008E9	 	2.51592E-9	 	13209.2202	31.73387	 
775.0	1.0	0.0	7.67367	7.13588	-8.29554	16.36277	23.61816	1.08729	0.91972	166.20603	167.64368	62.26052	0.33476	 	2.367179642E9	 	2.16112E-9	 	13050.7925	31.68554	 
770.0	1.0	0.0	7.67592	7.13378	-8.32253	16.33608	23.53985	1.0857	0.92107	166.61797	167.90784	62.4218	0.33461	 	2.746600106E9	 	1.85369E-9	 	12892.60564	31.63737	 
765.0	1.0	0.0	7.67818	7.13169	-8.34944	16.30939	23.46152	1.0841	0.92242	167.02909	168.17074	62.5828	0.33446	 	3.191402376E9	 	1.58769E-9	 	12734.65876	31.58938	 
760.0	1.0	0.0	7.68043	7.1296	-8.37628	16.28271	23.38319	1.08249	0.92379	167.4394	168.4324	62.74354	0.33432	 	3.713630081E9	 	1.35785E-9	 	12576.95099	31.54155	 
755.0	1.0	0.0	7.68267	7.12752	-8.40305	16.25603	23.30486	1.08088	0.92517	167.84889	168.69282	62.904	0.33417	 	4.327687255E9	 	1.15954E-9	 	12419.48145	31.49391	 
750.0	1.0	0.0	7.68491	7.12544	-8.42975	16.22935	23.22651	1.07925	0.92657	168.25757	168.952	63.06419	0.33402	 	5.050828606E9	 	9.88697E-10	 	12262.24922	31.44644	 
745.0	1.0	0.0	7.68715	7.12337	-8.45638	16.20267	23.14815	1.07761	0.92798	168.66543	169.20994	63.2241	0.33387	 	5.903757352E9	 	8.41725E-10	 	12105.25338	31.39917	 
740.0	1.0	0.0	7.68938	7.1213	-8.48294	16.176	23.06979	1.07596	0.9294	169.07248	169.46665	63.38375	0.33372	 	6.911355469E9	 	7.1548E-10	 	11948.49295	31.35208	 
735.0	1.0	0.0	7.6916	7.11924	-8.50942	16.14933	22.99141	1.0743	0.93084	169.47871	169.72213	63.54313	0.33357	 	8.103577248E9	 	6.07205E-10	 	11791.96694	31.3052	 
730.0	1.0	0.0	7.69383	7.11718	-8.53584	16.12266	22.91303	1.07263	0.93229	169.88413	169.97638	63.70223	0.33342	 	9.516544608E9	 	5.14486E-10	 	11635.67434	31.25852	 
725.0	1.0	0.0	7.69604	7.11513	-8.56218	16.09599	22.83464	1.07095	0.93375	170.28874	170.22942	63.86106	0.33328	 	1.11939E10	 	4.35213E-10	 	11479.61408	31.21205	 
720.0	1.0	0.0	7.69825	7.11309	-8.58845	16.06933	22.75624	1.06925	0.93523	170.69254	170.48123	64.01962	0.33313	 	1.3188399999999998E10	 	3.67543E-10	 	11323.78509	31.1658	 
715.0	1.0	0.0	7.70046	7.11105	-8.61465	16.04268	22.67782	1.06755	0.93673	171.09552	170.73184	64.17791	0.33298	 	1.5564099999999998E10	 	3.09873E-10	 	11168.18623	31.11977	 
710.0	1.0	0.0	7.70266	7.10902	-8.64078	16.01602	22.5994	1.06583	0.93823	171.49769	170.98123	64.33592	0.33283	 	1.83988E10	 	2.60806E-10	 	11012.81635	31.07398	 
705.0	1.0	0.0	7.70486	7.10699	-8.66684	15.98937	22.52097	1.0641	0.93976	171.89904	171.22942	64.49367	0.33268	 	2.17869E10	 	2.19127E-10	 	10857.67422	31.02843	 
700.0	1.0	0.0	7.70705	7.10497	-8.69283	15.96272	22.44253	1.06237	0.9413	172.29959	171.47641	64.65114	0.33253	 	2.5843899999999996E10	 	1.83785E-10	 	10702.75862	30.98312	 
695.0	1.0	0.0	7.70924	7.10295	-8.71874	15.93607	22.36407	1.06062	0.94285	172.69932	171.72219	64.80834	0.33238	 	3.0710299999999996E10	 	1.53867E-10	 	10548.06823	30.93808	 
690.0	1.0	0.0	7.71143	7.10094	-8.74459	15.90943	22.28561	1.05885	0.94442	173.09825	171.96679	64.96527	0.33224	 	3.65586E10	 	1.28585E-10	 	10393.60171	30.8933	 
685.0	1.0	0.0	7.7136	7.09894	-8.77036	15.88279	22.20713	1.05708	0.946	173.49636	172.21019	65.12193	0.33209	 	4.35998E10	 	1.07259E-10	 	10239.35764	30.84881	 
680.0	1.0	0.0	7.71578	7.09694	-8.79606	15.85615	22.12865	1.05529	0.94761	173.89366	172.4524	65.27832	0.33194	 	5.209339999999999E10	 	8.93028E-11	 	10085.33458	30.80461	 
675.0	1.0	0.0	7.71795	7.09494	-8.82169	15.82952	22.05015	1.05349	0.94922	174.29015	172.69342	65.43443	0.33179	 	6.235849999999999E10	 	7.42109E-11	 	9931.53099	30.76072	 
670.0	1.0	0.0	7.72011	7.09295	-8.84725	15.80288	21.97164	1.05168	0.95086	174.68582	172.93327	65.59027	0.33164	 	7.47889E10	 	6.15503E-11	 	9777.94527	30.71714	 
665.0	1.0	0.0	7.72227	7.09097	-8.87274	15.77626	21.89312	1.04986	0.95251	175.08069	173.17194	65.74584	0.3315	 	8.98711E10	 	5.09494E-11	 	9624.57574	30.67391	 
660.0	1.0	0.0	7.72442	7.08899	-8.89816	15.74963	21.81459	1.04802	0.95418	175.47475	173.40944	65.90114	0.33135	 	1.08208E11	 	4.20901E-11	 	9471.42432	30.63028	 
655.0	1.0	0.0	7.72657	7.08702	-8.9235	15.72301	21.73604	1.04617	0.95586	175.868	173.64576	66.05617	0.3312	 	1.30546E11	 	3.47009E-11	 	9318.5109	30.58268	 
650.0	1.0	0.0	7.72872	7.08505	-8.94878	15.69639	21.65749	1.04431	0.95757	176.26044	173.88092	66.21092	0.33105	 	1.57817E11	 	2.85499E-11	 	9165.862	30.52978	 
645.0	1.0	0.0	7.73086	7.08309	-8.97398	15.66977	21.57892	1.04244	0.95929	176.65207	174.11492	66.36541	0.3309	 	1.91179E11	 	2.34401E-11	 	9013.47684	30.47703	 
640.0	1.0	0.0	7.73299	7.08114	-8.99911	15.64316	21.50033	1.04055	0.96103	177.04289	174.34775	66.51962	0.33076	 	2.32081E11	 	1.92039E-11	 	8861.35462	30.42444	 
635.0	1.0	0.0	7.73512	7.07919	-9.02417	15.61655	21.42174	1.03865	0.96279	177.4329	174.57943	66.67356	0.33061	 	2.82335E11	 	1.56992E-11	 	8709.49457	30.37201	 
630.0	1.0	0.0	7.73725	7.07724	-9.04916	15.58994	21.34313	1.03674	0.96457	177.8221	174.80995	66.82723	0.33046	 	3.44218E11	 	1.2806E-11	 	8557.89589	30.31973	 
625.0	1.0	0.0	7.73937	7.0753	-9.07408	15.56334	21.26451	1.03481	0.96636	178.2105	175.03933	66.98062	0.33031	 	4.20592E11	 	1.04226E-11	 	8406.55756	30.26767	 
620.0	1.0	0.0	7.74149	7.07337	-9.09893	15.53673	21.18587	1.03287	0.96818	178.59809	175.26756	67.13375	0.33017	 	5.15065E11	 	8.46348E-12	 	8255.4782	30.21587	 
615.0	1.0	0.0	7.7436	7.07144	-9.12371	15.51013	21.10722	1.03091	0.97002	178.98486	175.49465	67.2866	0.33002	 	6.322E11	 	6.85676E-12	 	8104.65736	30.16417	 
610.0	1.0	0.0	7.7457	7.06952	-9.14841	15.48354	21.02855	1.02894	0.97187	179.37083	175.72059	67.43918	0.32987	 	7.77775E11	 	5.54201E-12	 	7954.09425	30.11262	 
605.0	1.0	0.0	7.7478	7.0676	-9.17305	15.45695	20.94987	1.02696	0.97375	179.756	175.94541	67.59148	0.32972	 	9.59132E11	 	4.46866E-12	 	7803.78814	30.06122	 
600.0	1.0	0.0	7.7499	7.06569	-9.19761	15.43036	20.87117	1.02496	0.97565	180.14035	176.16908	67.74352	0.32958	 	1.18562E12	 	3.59443E-12	 	7653.73826	30.00997	 
595.0	1.0	0.0	7.75199	7.06378	-9.22211	15.40377	20.79246	1.02295	0.97756	180.5239	176.39163	67.89528	0.32943	 	1.46917E12	 	2.88409E-12	 	7503.94386	29.95888	 
590.0	1.0	0.0	7.75408	7.06188	-9.24653	15.37719	20.71374	1.02093	0.9795	180.90664	176.61306	68.04677	0.32928	 	1.82507E12	 	2.30831E-12	 	7354.40419	29.90793	 
585.0	1.0	0.0	7.75616	7.05999	-9.27088	15.35061	20.63499	1.01888	0.98147	181.28858	176.83335	68.19799	0.32913	 	2.27292E12	 	1.84275E-12	 	7205.11851	29.85714	 
580.0	1.0	0.0	7.75823	7.0581	-9.29516	15.32403	20.55623	1.01683	0.98345	181.66971	177.05253	68.34894	0.32899	 	2.83796E12	 	1.46726E-12	 	7056.08607	29.80649	 
575.0	1.0	0.0	7.7603	7.05622	-9.31937	15.29745	20.47746	1.01476	0.98546	182.05003	177.2706	68.49962	0.32884	 	3.55274E12	 	1.16519E-12	 	6907.30611	29.75599	 
570.0	1.0	0.0	7.76237	7.05434	-9.34351	15.27088	20.39866	1.01267	0.98749	182.42955	177.48755	68.65002	0.32869	 	4.45943E12	 	9.2281E-13	 	6758.77794	29.70564	 
565.0	1.0	0.0	7.76443	7.05246	-9.36757	15.24431	20.31985	1.01057	0.98954	182.80826	177.70339	68.80015	0.32855	 	5.6127E12	 	7.28847E-13	 	6610.50079	29.65543	 
560.0	1.0	0.0	7.76649	7.0506	-9.39157	15.21775	20.24103	1.00846	0.99162	183.18616	177.91812	68.95001	0.3284	 	7.08377E12	 	5.74045E-13	 	6462.47394	29.60537	 
555.0	1.0	0.0	7.76854	7.04874	-9.41549	15.19118	20.16218	1.00632	0.99372	183.56326	178.13175	69.09959	0.32825	 	8.96555E12	 	4.50836E-13	 	6314.69667	29.55545	 
550.0	1.0	0.0	7.77059	7.04688	-9.43935	15.16462	20.08332	1.00418	0.99584	183.93955	178.34428	69.2489	0.3281	 	1.13798E13	 	3.53047E-13	 	6167.16826	29.50568	 
545.0	1.0	0.0	7.77263	7.04503	-9.46313	15.13807	20.00443	1.00201	0.99799	184.31504	178.55571	69.39794	0.32796	 	1.44862E13	 	2.75655E-13	 	6019.88798	29.45606	 
540.0	1.0	0.0	7.77466	7.04318	-9.48684	15.11151	19.92553	0.99983	1.00017	184.68972	178.76605	69.54671	0.32781	 	1.84954E13	 	2.14582E-13	 	5872.85514	29.40657	 
535.0	1.0	0.0	7.7767	7.04134	-9.51049	15.08496	19.84661	0.99764	1.00237	185.0636	178.9753	69.69521	0.32766	 	2.36858E13	 	1.66529E-13	 	5726.06901	29.35722	 
530.0	1.0	0.0	7.77872	7.03951	-9.53406	15.05841	19.76767	0.99542	1.0046	185.43667	179.18346	69.84343	0.32752	 	3.04263E13	 	1.28835E-13	 	5579.52891	29.30802	 
525.0	1.0	0.0	7.78074	7.03768	-9.55756	15.03187	19.6887	0.99319	1.00685	185.80894	179.39053	69.99138	0.32737	 	3.92079E13	 	9.93569E-14	 	5433.23413	29.25896	 
520.0	1.0	0.0	7.78276	7.03586	-9.58099	15.00533	19.60972	0.99095	1.00914	186.18041	179.59653	70.13906	0.32722	 	5.06857E13	 	7.6376E-14	 	5287.18397	29.21003	 
515.0	1.0	0.0	7.78477	7.03404	-9.60435	14.97879	19.53072	0.98868	1.01145	186.55107	179.80144	70.28646	0.32708	 	6.57374E13	 	5.85172E-14	 	5141.37774	29.16125	 
510.0	1.0	0.0	7.78678	7.03223	-9.62763	14.95225	19.45169	0.9864	1.01379	186.92093	180.00528	70.4336	0.32693	 	8.55424E13	 	4.46838E-14	 	4995.81478	29.11259	 
505.0	1.0	0.0	7.78878	7.03042	-9.65085	14.92572	19.37264	0.9841	1.01615	187.28998	180.20805	70.58046	0.32678	 	1.11691E14	 	3.4004E-14	 	4850.49438	29.06408	 
500.0	1.0	0.0	7.79077	7.02862	-9.674	14.89919	19.29357	0.98179	1.01855	187.65823	180.40974	70.72704	0.32664	 	1.46338E14	 	2.57866E-14	 	4705.41589	29.0157	 
495.0	1.0	0.0	7.79276	7.02682	-9.69707	14.87266	19.21448	0.97945	1.02098	188.02498	180.60971	70.8731	0.32649	 	1.92407E14	 	1.94855E-14	 	4560.57864	28.96745	 
490.0	1.0	0.0	7.79475	7.02503	-9.72008	14.84614	19.13536	0.9771	1.02344	188.39162	180.80928	71.01914	0.32634	 	2.5388899999999997E14	 	1.46708E-14	 	4415.98194	28.91934	 
485.0	1.0	0.0	7.79673	7.02325	-9.74301	14.81961	19.05622	0.97473	1.02592	188.75746	181.00778	71.1649	0.3262	 	3.36244E14	 	1.10049E-14	 	4271.62519	28.87135	 
480.0	1.0	0.0	7.79871	7.02147	-9.76587	14.7931	18.97705	0.97234	1.02845	189.12249	181.20523	71.3104	0.32605	 	4.46976E14	 	8.22401E-15	 	4127.5077	28.8235	 
475.0	1.0	0.0	7.80068	7.0197	-9.78867	14.76658	18.89786	0.96993	1.031	189.48672	181.40162	71.45562	0.3259	 	5.96441E14	 	6.12221E-15	 	3983.62883	28.77577	 
470.0	1.0	0.0	7.80264	7.01793	-9.81139	14.74007	18.81864	0.96751	1.03358	189.85015	181.59696	71.60057	0.32576	 	7.98981E14	 	4.5397E-15	 	3839.98796	28.72817	 
465.0	1.0	0.0	7.8046	7.01617	-9.83404	14.71356	18.7394	0.96506	1.0362	190.21278	181.79125	71.74524	0.32561	 	1.07455E15	 	3.35279E-15	 	3696.58445	28.6807	 
460.0	1.0	0.0	7.80656	7.01441	-9.85662	14.68705	18.66013	0.9626	1.03886	190.5746	181.9845	71.88964	0.32547	 	1.45101E15	 	2.4661E-15	 	3553.41768	28.63335	 
455.0	1.0	0.0	7.80851	7.01266	-9.87913	14.66055	18.58083	0.96011	1.04155	190.93562	182.1767	72.03377	0.32532	 	1.96745E15	 	1.80635E-15	 	3410.48705	28.58613	 
450.0	1.0	0.0	7.81045	7.01091	-9.90157	14.63405	18.5015	0.95761	1.04427	191.29584	182.36787	72.17763	0.32517	 	2.67898E15	 	1.31749E-15	 	3267.79194	28.53902	 
445.0	1.0	0.0	7.81239	7.00917	-9.92393	14.60755	18.42214	0.95508	1.04703	191.65526	182.558	72.32121	0.32503	 	3.66353E15	 	9.56757E-16	 	3125.33175	28.49204	 
440.0	1.0	0.0	7.81432	7.00744	-9.94623	14.58106	18.34276	0.95254	1.04983	192.01387	182.74709	72.46452	0.32488	 	5.03196E15	 	6.9172E-16	 	2983.10589	28.44517	 
435.0	1.0	0.0	7.81625	7.00571	-9.96846	14.55457	18.26334	0.94997	1.05266	192.37169	182.93515	72.60756	0.32474	 	6.94258E15	 	4.97842E-16	 	2841.11379	28.39842	 
430.0	1.0	0.0	7.81818	7.00398	-9.99062	14.52808	18.1839	0.94739	1.05554	192.7287	183.12219	72.75032	0.32459	 	9.62259E15	 	3.5665E-16	 	2699.35485	28.35179	 
425.0	1.0	0.0	7.8201	7.00226	-10.0127	14.50159	18.10442	0.94478	1.05845	193.08491	183.3082	72.89281	0.32444	 	1.33997E16	 	2.54297E-16	 	2557.8286	28.30525	 
420.0	1.0	0.0	7.82201	7.00055	-10.03472	14.47511	18.02491	0.94215	1.0614	193.44032	183.49319	73.03502	0.3243	 	1.87487E16	 	1.80444E-16	 	2416.53437	28.25885	 
415.0	1.0	0.0	7.82392	6.99884	-10.05666	14.44863	17.94536	0.9395	1.0644	193.79493	183.67715	73.17696	0.32415	 	2.63613E16	 	1.2741E-16	 	2275.47184	28.21251	 
410.0	1.0	0.0	7.82582	6.99714	-10.07854	14.42215	17.86578	0.93683	1.06743	194.14874	183.8601	73.31863	0.32401	 	3.72504E16	 	8.95101E-17	 	2134.64078	28.16621	 
405.0	1.0	0.0	7.82772	6.99544	-10.10034	14.39568	17.78617	0.93413	1.07051	194.50175	184.04204	73.46003	0.32386	 	5.29064E16	 	6.25611E-17	 	1994.04095	28.11997	 
400.0	1.0	0.0	7.82961	6.99375	-10.12207	14.36921	17.70652	0.93142	1.07363	194.85396	184.22296	73.60115	0.32372	 	7.55351E16	 	4.3496E-17	 	1853.67217	28.07376	 
395.0	1.0	0.0	7.8315	6.99207	-10.14373	14.34274	17.62684	0.92868	1.0768	195.20537	184.40288	73.742	0.32357	 	1.08419E17	 	3.00785E-17	 	1713.5342	28.02759	 
390.0	1.0	0.0	7.83338	6.99039	-10.16533	14.31628	17.54711	0.92592	1.08001	195.55597	184.58179	73.88257	0.32342	 	1.56468E17	 	2.06858E-17	 	1573.62687	27.98147	 
385.0	1.0	0.0	7.83526	6.98871	-10.18685	14.28982	17.46735	0.92313	1.08327	195.90578	184.7597	74.02287	0.32328	 	2.27075E17	 	1.41463E-17	 	1433.95	27.93537	 
380.0	1.0	0.0	7.83713	6.98704	-10.2083	14.26336	17.38755	0.92032	1.08657	196.25479	184.93661	74.16289	0.32313	 	3.31428E17	 	9.61858E-18	 	1294.50342	27.88932	 
375.0	1.0	0.0	7.839	6.98538	-10.22968	14.2369	17.30771	0.91749	1.08993	196.603	185.11252	74.30265	0.32299	 	4.86566E17	 	6.5016E-18	 	1155.28698	27.84329	 
370.0	1.0	0.0	7.84086	6.98372	-10.25099	14.21045	17.22783	0.91463	1.09333	196.9504	185.28743	74.44212	0.32284	 	7.186E17	 	4.36829E-18	 	1016.30053	27.79729	 
365.0	1.0	0.0	7.84272	6.98207	-10.27223	14.184	17.14791	0.91175	1.09679	197.29701	185.46135	74.58133	0.3227	 	1.06779E18	 	2.91691E-18	 	877.54398	27.75131	 
360.0	1.0	0.0	7.84457	6.98042	-10.2934	14.15755	17.06794	0.90885	1.10029	197.64282	185.63429	74.72026	0.32255	 	1.59662E18	 	1.93549E-18	 	739.01718	27.70536	 
355.0	1.0	0.0	7.84641	6.97878	-10.3145	14.13111	16.98793	0.90592	1.10385	197.98783	185.80623	74.85891	0.32241	 	2.4027E18	 	1.276E-18	 	600.72005	27.65942	 
350.0	1.0	0.0	7.84825	6.97714	-10.33553	14.10467	16.90787	0.90296	1.10747	198.33204	185.9772	74.99729	0.32226	 	3.63954E18	 	8.35667E-19	 	462.65251	27.61351	 
345.0	1.0	0.0	7.85009	6.97551	-10.35648	14.07823	16.82776	0.89998	1.11113	198.67546	186.14718	75.1354	0.32212	 	5.55021E18	 	5.4359E-19	 	324.81451	27.5676	 
340.0	1.0	0.0	7.85192	6.97389	-10.37737	14.0518	16.74761	0.89697	1.11486	199.01807	186.31618	75.27323	0.32197	 	8.5224E18	 	3.51149E-19	 	187.206	27.5217	 
335.0	1.0	0.0	7.85374	6.97227	-10.39819	14.02536	16.66741	0.89394	1.11864	199.35989	186.48421	75.41079	0.32183	 	1.31788E19	 	2.25227E-19	 	49.82694	27.47581	 
330.0	1.0	0.0	7.85556	6.97065	-10.41893	13.99893	16.58715	0.89088	1.12248	199.7009	186.65126	75.54808	0.32168	 	2.05272E19	 	1.43411E-19	 	-87.32268	27.42992	 
325.0	1.0	0.0	7.85737	6.96904	-10.43961	13.97251	16.50685	0.88779	1.12639	200.04112	186.81734	75.68509	0.32154	 	3.22108E19	 	9.06349E-20	 	-224.24283	27.38403	 
320.0	1.0	0.0	7.85918	6.96744	-10.46022	13.94609	16.42649	0.88468	1.13035	200.38054	186.98245	75.82182	0.32139	 	5.09297E19	 	5.68434E-20	 	-360.93348	27.33813	 
315.0	1.0	0.0	7.86098	6.96584	-10.48075	13.91967	16.34607	0.88154	1.13438	200.71916	187.1466	75.95828	0.32125	 	8.11566E19	 	3.53713E-20	 	-497.39459	27.29222	 
310.0	1.0	0.0	7.86278	6.96425	-10.50122	13.89325	16.2656	0.87837	1.13848	201.05698	187.30979	76.09447	0.3211	 	1.3036099999999998E20	 	2.18333E-20	 	-633.62607	27.2463	 
305.0	1.0	0.0	7.86457	6.96266	-10.52161	13.86683	16.18507	0.87517	1.14264	201.39401	187.47201	76.23038	0.32096	 	2.1111999999999997E20	 	1.33659E-20	 	-769.62785	27.20036	 
300.0	1.0	0.0	7.86636	6.96108	-10.54194	13.84042	16.10448	0.87194	1.14687	201.73024	187.63328	76.36601	0.32081	 	3.4479899999999997E20	 	8.11314E-21	 	-905.39978	27.15439	 
295.0	1.0	0.0	7.86814	6.95951	-10.56219	13.81402	16.02383	0.86869	1.15116	202.06567	187.79359	76.50138	0.32067	 	5.6800399999999993E20	 	4.882E-21	 	-1040.94172	27.10839	 
290.0	1.0	0.0	7.86992	6.95794	-10.58238	13.78761	15.94312	0.8654	1.15554	202.4003	187.95294	76.63646	0.32052	 	9.44033E20	 	2.91155E-21	 	-1176.25351	27.06236	 
285.0	1.0	0.0	7.87169	6.95637	-10.60249	13.76121	15.86234	0.86208	1.15998	202.73413	188.11135	76.77127	0.32038	 	1.5833400000000001E21	 	1.72053E-21	 	-1311.33493	27.01628	 
280.0	1.0	0.0	7.87345	6.95481	-10.62253	13.73481	15.78149	0.85874	1.1645	203.06717	188.26881	76.90581	0.32023	 	2.68055E21	 	1.00718E-21	 	-1446.18577	26.97017	 
275.0	1.0	0.0	7.87521	6.95326	-10.64251	13.70841	15.70058	0.85536	1.1691	203.39941	188.42532	77.04007	0.32009	 	4.5818800000000003E21	 	5.83906E-22	 	-1580.80576	26.924	 
270.0	1.0	0.0	7.87697	6.95171	-10.66241	13.68202	15.61959	0.85195	1.17377	203.73085	188.58089	77.17406	0.31994	 	7.909510000000001E21	 	3.35164E-22	 	-1715.19461	26.87777	 
265.0	1.0	0.0	7.87872	6.95016	-10.68224	13.65563	15.53853	0.84851	1.17853	204.0615	188.73552	77.30777	0.3198	 	1.37931E22	 	1.90427E-22	 	-1849.35201	26.83148	 
260.0	1.0	0.0	7.88046	6.94863	-10.702	13.62924	15.45739	0.84504	1.18337	204.39135	188.88922	77.4412	0.31966	 	2.43055E22	 	1.07061E-22	 	-1983.27758	26.78511	 
255.0	1.0	0.0	7.8822	6.94709	-10.7217	13.60286	15.37618	0.84154	1.1883	204.7204	189.04197	77.57437	0.31951	 	4.3291699999999995E22	 	5.95442E-23	 	-2116.97094	26.73867	 
250.0	1.0	0.0	7.88393	6.94557	-10.74132	13.57648	15.29489	0.838	1.19331	205.04865	189.1938	77.70725	0.31937	 	7.79645E22	 	3.27503E-23	 	-2250.43167	26.69215	 
245.0	1.0	0.0	7.88566	6.94405	-10.76087	13.5501	15.21351	0.83443	1.19842	205.37611	189.34469	77.83986	0.31922	 	1.4201099999999998E23	 	1.78083E-23	 	-2383.65928	26.64552	 
240.0	1.0	0.0	7.88738	6.94253	-10.78035	13.52372	15.13205	0.83083	1.20361	205.70278	189.49466	77.97219	0.31908	 	2.6170899999999998E23	 	9.56999E-24	 	-2516.65327	26.5988	 
235.0	1.0	0.0	7.8891	6.94102	-10.79976	13.49735	15.0505	0.82719	1.20891	206.02864	189.6437	78.10425	0.31893	 	4.88138E23	 	5.08084E-24	 	-2649.41308	26.55196	 
230.0	1.0	0.0	7.89081	6.93951	-10.81911	13.47098	14.96886	0.82352	1.2143	206.35371	189.79181	78.23604	0.31879	 	9.21821E23	 	2.66402E-24	 	-2781.93812	26.50501	 
225.0	1.0	0.0	7.89251	6.93802	-10.83838	13.44462	14.88713	0.81981	1.21979	206.67799	189.93901	78.36754	0.31865	 	1.76317E24	 	1.37897E-24	 	-2914.22773	26.45792	 
220.0	1.0	0.0	7.89421	6.93652	-10.85758	13.41825	14.8053	0.81607	1.22538	207.00146	190.08528	78.49877	0.3185	 	3.41705E24	 	7.04392E-25	 	-3046.28123	26.4107	 
215.0	1.0	0.0	7.89591	6.93503	-10.87671	13.39189	14.72337	0.81229	1.23108	207.32414	190.23064	78.62973	0.31836	 	6.71267E24	 	3.54931E-25	 	-3178.09785	26.36332	 
210.0	1.0	0.0	7.8976	6.93355	-10.89577	13.36554	14.64134	0.80848	1.23689	207.64603	190.37509	78.76041	0.31821	 	1.3372400000000001E25	 	1.76343E-25	 	-3309.6768	26.31579	 
205.0	1.0	0.0	7.89928	6.93207	-10.91476	13.33918	14.5592	0.80462	1.24282	207.96712	190.51863	78.89081	0.31807	 	2.70261E25	 	8.63511E-26	 	-3441.0172	26.26808	 
200.0	1.0	0.0	7.90096	6.9306	-10.93368	13.31283	14.47695	0.80073	1.24886	208.28742	190.66125	79.02094	0.31793	 	5.5438900000000004E25	 	4.16553E-26	 	-3572.11813	26.22019	 
195.0	1.0	0.0	7.90263	6.92913	-10.95253	13.28648	14.39459	0.7968	1.25501	208.60691	190.80297	79.15079	0.31778	 	1.15481E26	 	1.97861E-26	 	-3702.97862	26.1721	 
190.0	1.0	0.0	7.9043	6.92767	-10.97132	13.26014	14.3121	0.79284	1.26129	208.92562	190.94379	79.28037	0.31764	 	2.44394E26	 	9.24949E-27	 	-3833.59758	26.12379	 
185.0	1.0	0.0	7.90596	6.92621	-10.99003	13.23379	14.2295	0.78883	1.2677	209.24353	191.0837	79.40967	0.31749	 	5.25745E26	 	4.25324E-27	 	-3963.97391	26.07527	 
180.0	1.0	0.0	7.90762	6.92476	-11.00867	13.20745	14.14677	0.78479	1.27423	209.56064	191.22272	79.53869	0.31735	 	1.15027E27	 	1.92277E-27	 	-4094.10637	26.02649	 
175.0	1.0	0.0	7.90927	6.92332	-11.02724	13.18112	14.06391	0.7807	1.2809	209.87696	191.36083	79.66744	0.31721	 	2.56103E27	 	8.54074E-28	 	-4223.9937	25.97747	 
170.0	1.0	0.0	7.91091	6.92188	-11.04574	13.15478	13.98092	0.77657	1.28771	210.19248	191.49805	79.79591	0.31706	 	5.80594E27	 	3.72533E-28	 	-4353.63452	25.92816	 
165.0	1.0	0.0	7.91255	6.92045	-11.06417	13.12845	13.89778	0.7724	1.29466	210.50721	191.63438	79.9241	0.31692	 	1.3410400000000001E28	 	1.59465E-28	 	-4483.02737	25.87857	 
160.0	1.0	0.0	7.91419	6.91902	-11.08253	13.10213	13.8145	0.76819	1.30176	210.82114	191.76982	80.05202	0.31678	 	3.15796E28	 	6.6945E-29	 	-4612.17071	25.82867	 
155.0	1.0	0.0	7.91581	6.91759	-11.10082	13.0758	13.73107	0.76394	1.30901	211.13428	191.90437	80.17966	0.31663	 	7.5868E28	 	2.75438E-29	 	-4741.06287	25.77843	 
150.0	1.0	0.0	7.91744	6.91618	-11.11904	13.04948	13.64748	0.75964	1.31641	211.44662	192.03804	80.30703	0.31649	 	1.86083E29	 	1.10988E-29	 	-4869.70209	25.72785	 
145.0	1.0	0.0	7.91905	6.91476	-11.13719	13.02316	13.56373	0.7553	1.32398	211.75817	192.17082	80.43411	0.31635	 	4.66307E29	 	4.3767E-30	 	-4998.0865	25.67688	 
140.0	1.0	0.0	7.92067	6.91336	-11.15527	12.99685	13.47981	0.75091	1.33171	212.06893	192.30271	80.56092	0.3162	 	1.1948E30	 	1.68772E-30	 	-5126.21412	25.62552	 
135.0	1.0	0.0	7.92227	6.91195	-11.17329	12.97053	13.39572	0.74648	1.33962	212.37889	192.43373	80.68746	0.31606	 	3.1327699999999996E30	 	6.35885E-31	 	-5254.08282	25.57374	 
130.0	1.0	0.0	7.92387	6.91056	-11.19123	12.94422	13.31144	0.74201	1.3477	212.68805	192.56388	80.81371	0.31592	 	8.412909999999999E30	 	2.33887E-31	 	-5381.69035	25.52151	 
125.0	1.0	0.0	7.92547	6.90917	-11.2091	12.91792	13.22698	0.73748	1.35596	212.99642	192.69314	80.93969	0.31577	 	2.3160099999999997E31	 	8.39061E-32	 	-5509.03433	25.4688	 
120.0	1.0	0.0	7.92706	6.90778	-11.2269	12.89161	13.14232	0.73291	1.36442	213.304	192.82154	81.0654	0.31563	 	6.5421399999999995E31	 	2.93309E-32	 	-5636.11219	25.41557	 
115.0	1.0	0.0	7.92864	6.9064	-11.24463	12.86531	13.05745	0.72829	1.37307	213.61078	192.94906	81.19082	0.31549	 	1.8981E32	 	9.98087E-33	 	-5762.92125	25.36181	 
110.0	1.0	0.0	7.93022	6.90503	-11.26229	12.83901	12.97237	0.72363	1.38193	213.91677	193.07572	81.31597	0.31534	 	5.6622599999999996E32	 	3.30267E-33	 	-5889.45862	25.30747	 
105.0	1.0	0.0	7.93179	6.90366	-11.27989	12.81272	12.88707	0.71891	1.39099	214.22197	193.20151	81.44084	0.3152	 	1.73866E33	 	1.06154E-33	 	-6015.72124	25.25252	 
100.0	1.0	0.0	7.93336	6.9023	-11.29741	12.78643	12.80154	0.71415	1.40027	214.52637	193.32644	81.56543	0.31506	 	5.50169E33	 	3.31035E-34	 	-6141.70586	25.19692	 
95.0	1.0	0.0	7.93492	6.90094	-11.31486	12.76014	12.71577	0.70933	1.40978	214.82998	193.4505	81.68975	0.31491	 	1.7962500000000001E34	 	1.00033E-34	 	-6267.40903	25.14063	 
90.0	1.0	0.0	7.93647	6.89959	-11.33224	12.73385	12.62974	0.70446	1.41952	215.13279	193.57371	81.81379	0.31477	 	6.05882E34	 	2.9254E-35	 	-6392.82703	25.0836	 
85.0	1.0	0.0	7.93802	6.89824	-11.34956	12.70757	12.54346	0.69954	1.42951	215.43482	193.69606	81.93755	0.31463	 	2.11423E35	 	8.26799E-36	 	-6517.95597	25.02579	 
80.0	1.0	0.0	7.93957	6.8969	-11.3668	12.68129	12.4569	0.69457	1.43974	215.73604	193.81755	82.06103	0.31449	 	7.64338E35	 	2.25507E-36	 	-6642.79165	24.96714	 
75.0	1.0	0.0	7.94111	6.89556	-11.38397	12.65501	12.37005	0.68954	1.45024	216.03648	193.93819	82.18424	0.31434	 	2.86715E36	 	5.92657E-37	 	-6767.32964	24.9076	 
70.0	1.0	0.0	7.94264	6.89423	-11.40107	12.62874	12.28291	0.68446	1.461	216.33612	194.05798	82.30717	0.3142	 	1.1177599999999998E37	 	1.49839E-37	 	-6891.56518	24.84711	 
65.0	1.0	0.0	7.94417	6.8929	-11.41811	12.60247	12.19545	0.67933	1.47205	216.63497	194.17692	82.42982	0.31406	 	4.53647E37	 	3.63813E-38	 	-7015.49322	24.78561	 
60.0	1.0	0.0	7.94569	6.89158	-11.43507	12.5762	12.10766	0.67413	1.48339	216.93302	194.29501	82.55219	0.31391	 	1.92022E38	 	8.46791E-39	 	-7139.10838	24.72303	 
55.0	1.0	0.0	7.9472	6.89027	-11.45197	12.54994	12.01953	0.66888	1.49503	217.23028	194.41226	82.67428	0.31377	 	8.49335E38	 	1.88573E-39	 	-7262.40488	24.6593	 
50.0	1.0	0.0	7.94872	6.88896	-11.46879	12.52367	11.93104	0.66358	1.50698	217.52675	194.52867	82.7961	0.31363	 	3.9335900000000004E39	 	4.0096E-40	 	-7385.3766	24.59434	 
45.0	1.0	0.0	7.95022	6.88766	-11.48555	12.49742	11.84218	0.65821	1.51927	217.82243	194.64423	82.91764	0.31349	 	1.91172E40	 	8.12258E-41	 	-7508.01694	24.52807	 
40.0	1.0	0.0	7.95172	6.88636	-11.50223	12.47116	11.75292	0.65279	1.53189	218.11731	194.75896	83.0389	0.31334	 	9.77206E40	 	1.56406E-41	 	-7630.31889	24.46039	 
35.0	1.0	0.0	7.95321	6.88507	-11.51885	12.44491	11.66324	0.6473	1.54487	218.4114	194.87285	83.15988	0.3132	 	5.2667400000000006E41	 	2.85566E-42	 	-7752.27495	24.39121	 
30.0	1.0	0.0	7.9547	6.88378	-11.53539	12.41866	11.57313	0.64176	1.55821	218.7047	194.98591	83.28058	0.31306	 	3.00075E42	 	4.93077E-43	 	-7873.87706	24.32042	 
25.0	1.0	0.0	7.95618	6.8825	-11.55187	 	11.48256	0.63615	1.57195	218.9972	195.09813	83.401	0.31292	 	1.81244E43	 	8.02894E-44	 	-7995.11662	 	 
