T (C)	Fraction solid (wt)-TOTAL	Fraction liquid (wt)-LIQUID	Density (g/(cm)^3)-TOTAL	Molar volume (cm^3)-TOTAL	Volume change (%)-  	Average expansion coeff. (10e-6 1/K)-  	Thermal conductivity (W/(m*K))-TOTAL	Electrical resistivity (10e-6 Ohm*m)-TOTAL	Electrical conductivity (10e6 1/(Ohm*m))-TOTAL	Young's modulus (GPa)-TOTAL	Bulk modulus (GPa)-TOTAL	Shear modulus(GPa)-TOTAL	Poisson's ratio-TOTAL	Liquid viscosity (mPa s)-  	Total viscosity (mPa s)-  	Liquid diffusivity (10e-9 (m^2)/s)-  	Total diffusivity (10e-9 (m^2)/s)-  	Surface Tension (mN/m)-  	Enthalpy (J/mole)-TOTAL	Specific heat (J/(mole K))-TOTAL	Latent heat (J/mole)-TOTAL
1400.0	0.0	1.0	7.32884	7.79629	0.0	30.51897	29.86078	1.37278	0.72845	0.0	124.31938	0.0	0.5	7.08892	7.08892	1.15197	1.15197	1766.78338	51250.93	 	0.0
1395.0	0.0	1.0	7.3329	7.79198	-0.055392	30.47862	29.7895	1.37195	0.72889	0.0	124.47272	0.0	0.5	7.16502	7.16502	1.13633	1.13633	1769.42254	51045.193	41.1474	0.0
1390.0	0.0	1.0	7.33695	7.78767	-0.11063	30.43839	29.71821	1.37112	0.72933	0.0	124.62607	0.0	0.5	7.2424	7.2424	1.12082	1.12082	1772.07999	50839.937	41.0512	0.0
1385.0	0.0	1.0	7.341	7.78338	-0.16571	30.39831	29.64692	1.37028	0.72978	0.0	124.77941	0.0	0.5	7.32109	7.32109	1.10544	1.10544	1774.75554	50635.158	40.9558	0.0
1380.0	0.0	1.0	7.34504	7.77909	-0.22063	30.35836	29.57563	1.36944	0.73022	0.0	124.93275	0.0	0.5	7.40112	7.40112	1.09019	1.09019	1777.44892	50430.855	40.8606	0.0
1375.0	0.0	1.0	7.34907	7.77482	-0.27539	30.31855	29.50433	1.3686	0.73067	0.0	125.0861	0.0	0.5	7.48252	7.48252	1.07507	1.07507	1780.15988	50227.024	40.7662	0.0
1370.0	0.0	1.0	7.3531	7.77057	-0.33	30.27889	29.43304	1.36775	0.73113	0.0	125.23944	0.0	0.5	7.56532	7.56532	1.06007	1.06007	1782.88812	50023.664	40.672	0.0
1365.0	0.0	1.0	7.35712	7.76632	-0.38445	30.23936	29.36174	1.3669	0.73158	0.0	125.39278	0.0	0.5	7.64955	7.64955	1.04521	1.04521	1785.63337	49820.77	40.5788	0.0
1360.0	0.0	1.0	7.36113	7.76209	-0.43875	30.19998	29.29044	1.36605	0.73204	0.0	125.54613	0.0	0.5	7.73524	7.73524	1.03048	1.03048	1788.39532	49618.342	40.4856	0.0
1355.0	0.0	1.0	7.36514	7.75787	-0.49289	30.16075	29.21914	1.36519	0.7325	0.0	125.69947	0.0	0.5	7.82242	7.82242	1.01587	1.01587	1791.17366	49416.377	40.393	0.0
1350.0	0.0	1.0	7.36913	7.75366	-0.54687	30.12166	29.14784	1.36433	0.73296	0.0	125.85281	0.0	0.5	7.91114	7.91114	1.0014	1.0014	1793.96806	49214.871	40.3012	0.0
1346.32	0.0	1.0	7.37207	7.75057	-0.58646	30.09302	29.09542	1.36369	0.7333	0.0	125.96556	0.0	0.5	7.97736	7.97736	0.99084	0.99084	1796.03262	49067.021	40.21936	0.0
1345.0	0.0409801	0.95902	7.38299	7.73918	-0.73253	29.70789	29.20728	1.35736	0.73673	2.58355E-4	126.0733	8.6439E-5	0.49444	7.9885	8.53532	0.98864	0.92531	1795.31981	48390.619	510.91237	623.202
1340.0	0.18149	0.81851	7.42104	7.69944	-1.24231	28.36597	29.59122	1.3356	0.74872	0.10192	126.41648	0.0345471	0.47514	8.03025	53.64273	0.98047	0.14677	1792.68914	46063.791	465.3656	2749.438
1335.0	0.29526	0.70474	7.45274	7.66673	-1.66184	27.27233	29.89805	1.3178	0.75884	0.72909	126.72348	0.24981	0.4593	8.07217	335.88969	0.97235	0.0233677	1790.17273	44154.0	381.9582	4459.089
1330.0	0.38853	0.61147	7.47949	7.63934	-2.0132	26.36638	30.14426	1.30297	0.76748	2.22582	127.00761	0.76957	0.44614	8.11427	1047.61396	0.9643	0.00746895	1787.77154	42564.1	317.98	5849.3
1325.0	0.46587	0.53413	7.50235	7.61611	-2.31112	25.6077	30.34204	1.29044	0.77493	4.67341	127.28049	1.62824	0.43511	8.15654	2291.12088	0.95631	0.00340452	1785.48407	41222.78	268.264	6991.379
1320.24	0.52761	0.47239	7.5212	7.59709	-2.55511	24.99479	30.49268	1.28025	0.7811	7.79124	127.53525	2.73146	0.4262	8.19706	3993.33469	0.94875	0.00194749	1783.41238	40130.636	 	7894.418
1320.0	0.53424	0.46576	7.52315	7.59513	-2.5803	24.92649	30.51137	1.27927	0.7817	8.20136	127.57657	2.87721	0.42523	8.20128	4211.54226	0.94812	0.0018463	1783.25304	40019.039	240.7482	7996.324
1315.0	0.65621	0.34379	7.55956	7.55877	-3.04663	23.66643	30.86073	1.26082	0.79314	19.20768	128.21171	6.82532	0.40709	8.28827	10290.28788	0.93522	7.5327E-4	1780.1278	37964.351	410.9376	9852.66
1310.0	0.73809	0.26191	7.58511	7.53352	-3.37053	22.81253	31.08079	1.24795	0.80132	31.41232	128.65349	11.26128	0.3947	8.37454	17663.97987	0.92267	4.37442E-4	1777.21169	36543.317	284.2068	11075.782
1305.0	0.79528	0.20472	7.60393	7.51509	-3.60695	22.20846	31.21601	1.23862	0.80735	43.03475	129.00579	15.5257	0.38592	8.46012	25514.67503	0.91045	3.01887E-4	1774.49597	35506.889	207.2856	11914.738
1300.0	0.83663	0.16337	7.6184	7.50102	-3.78732	21.76462	31.29444	1.2316	0.81195	53.38185	129.31779	19.34858	0.37948	8.54519	33470.36673	0.89854	2.29402E-4	1771.96755	34713.705	158.6368	12510.885
1295.0	0.86742	0.13258	7.62997	7.48986	-3.93047	21.42728	31.33382	1.22614	0.81557	62.32951	129.61275	22.67177	0.37461	8.63012	41415.59653	0.88686	1.84804E-4	1769.6104	34080.299	126.6812	12947.69
1290.0	0.89097	0.10903	7.63952	7.48069	-4.04808	21.16306	31.34577	1.22177	0.81849	69.9865	129.90208	25.52716	0.37082	8.71516	49356.62511	0.87541	1.54576E-4	1767.40959	33555.506	104.9586	13276.313
1285.0	0.90938	0.0906177	7.64763	7.47294	-4.14758	20.95066	31.33799	1.21816	0.82091	76.53589	130.19127	27.97739	0.36782	8.80063	57354.52722	0.86414	1.32595E-4	1765.34936	33106.854	89.7304	13529.225
1280.0	0.92407	0.0759318	7.6547	7.46622	-4.23369	20.77663	31.31565	1.21512	0.82297	82.15408	130.48288	30.08474	0.36538	8.88691	65480.75848	0.853	1.15767E-4	1763.41383	32713.065	78.7578	13727.701
1275.0	0.93597	0.0640276	7.66099	7.46028	-4.3099	20.63092	31.28238	1.21249	0.82475	87.00754	130.77761	31.9092	0.36336	8.97427	73819.7181	0.84198	1.02359E-4	1761.59125	32359.788	70.6554	13886.09
1270.0	0.94577	0.0542297	7.66665	7.45491	-4.37878	20.50615	31.24062	1.21019	0.82631	91.2315	131.07701	33.49997	0.36167	9.06294	82450.06985	0.83105	9.1349E-5	1764.22334	32036.28208	64.70118	14014.33
1265.0	0.95394	0.0460601	7.67081	7.45046	-4.43595	20.41582	31.19196	1.20815	0.82771	94.89968	131.32055	34.88428	0.36021	9.15321	91541.57442	0.82019	8.201E-5	1766.87315	31734.40954	60.37451	14119.463
1260.0	0.96083	0.0391721	7.67488	7.44625	-4.48989	20.33455	31.13837	1.2063	0.82898	98.14546	131.58357	36.11081	0.35895	9.24526	101088.0099	0.80938	7.40239E-5	1769.54378	31451.01385	56.67914	14206.592
1255.0	0.9667	0.033305	7.67888	7.44225	-4.5412	20.26066	31.08079	1.20459	0.83016	101.03916	131.8629	37.20554	0.35785	9.33934	111165.0904	0.79861	6.70941E-5	1772.23274	31182.32521	53.73773	14279.484
1250.0	0.97229	0.02771	7.68301	7.43825	-4.59253	20.18609	31.02212	1.20292	0.83131	103.89392	132.16034	38.28658	0.35679	9.43263	122142.5945	0.78813	6.08642E-5	1774.90257	30917.41903	52.98124	14349.061
1245.0	0.97956	0.0204412	7.68801	7.43359	-4.65222	20.0852	30.97013	1.20099	0.83265	107.62572	132.48905	39.70096	0.35545	9.51318	135219.3852	0.77889	5.47977E-5	1777.41988	30628.57553	57.7687	14443.04
1240.0	0.98538	0.014617	7.69283	7.42921	-4.70848	19.99409	30.91256	1.19926	0.83385	110.78461	132.8282	40.89963	0.35435	9.59334	148810.8741	0.76984	4.96288E-5	1779.95208	30360.51821	53.61146	14516.695
1235.0	0.99012	0.00988156	7.69751	7.42502	-4.76214	19.91028	30.85075	1.19769	0.83494	113.49608	133.17561	41.92955	0.35341	9.67327	163062.859	0.76095	4.51415E-5	1782.50003	30108.10551	50.48254	14575.167
1230.0	0.99402	0.00598149	7.70208	7.421	-4.81373	19.8322	30.78558	1.19625	0.83595	115.85292	133.52953	42.82554	0.35261	9.75347	178110.9688	0.75219	4.11906E-5	1785.06057	29867.69459	48.08218	14622.095
1225.0	0.99727	0.00273218	7.70656	7.41711	-4.86369	19.75859	30.71786	1.1949	0.83689	117.92641	133.88835	43.6144	0.35192	9.834	194088.1756	0.74355	3.76741E-5	1787.63491	29636.65805	46.20731	14660.106
1220.0	1.0	0.0	7.71096	7.41332	-4.91232	19.68855	30.64823	1.19361	0.83779	119.77118	134.25086	44.31672	0.35131	 	211127.1835	 	3.4518E-5	 	29413.06005	44.7196	14691.13
1215.0	1.0	0.0	7.71358	7.4108	-4.94459	19.66948	30.5678	1.19275	0.8384	120.19742	134.57817	44.4799	0.35114	 	227191.6424	 	3.19699E-5	 	29210.79884	40.45224	 
1210.0	1.0	0.0	7.7162	7.40829	-4.97681	19.65045	30.48737	1.19188	0.83901	120.62286	134.90395	44.64283	0.35098	 	244596.8918	 	2.95952E-5	 	29025.08253	37.14326	 
1205.0	1.0	0.0	7.71881	7.40578	-5.00896	19.63145	30.40694	1.191	0.83963	121.04749	135.22821	44.80549	0.35081	 	263464.4788	 	2.73831E-5	 	28839.71333	37.07384	 
1200.0	1.0	0.0	7.72142	7.40328	-5.04105	19.6125	30.3265	1.19012	0.84025	121.47132	135.55097	44.96789	0.35064	 	283927.8581	 	2.53236E-5	 	28654.68995	37.00468	 
1195.0	1.0	0.0	7.72402	7.40078	-5.07308	19.59358	30.24605	1.18924	0.84088	121.89434	135.87222	45.13003	0.35048	 	306133.5782	 	2.3407E-5	 	28470.01144	36.9357	 
1190.0	1.0	0.0	7.72662	7.39829	-5.10504	19.5747	30.1656	1.18835	0.84151	122.31657	136.19196	45.29191	0.35031	 	330242.7346	 	2.16243E-5	 	28285.67647	36.867	 
1185.0	1.0	0.0	7.72922	7.3958	-5.13694	19.55587	30.08514	1.18745	0.84214	122.73799	136.51022	45.45353	0.35015	 	356432.4188	 	1.99669E-5	 	28101.68409	36.79847	 
1180.0	1.0	0.0	7.73182	7.39332	-5.16878	19.53707	30.00467	1.18655	0.84278	123.1586	136.82698	45.61489	0.34998	 	384897.5318	 	1.84269E-5	 	27918.03297	36.73022	 
1175.0	1.0	0.0	7.73441	7.39084	-5.20056	19.51832	29.9242	1.18565	0.84342	123.57841	137.14226	45.77598	0.34982	 	415852.5682	 	1.69966E-5	 	27734.72217	36.66216	 
1170.0	1.0	0.0	7.737	7.38837	-5.23227	19.49961	29.84372	1.18474	0.84406	123.99742	137.45606	45.93681	0.34965	 	449533.9026	 	1.56688E-5	 	27551.75035	36.59436	 
1165.0	1.0	0.0	7.73958	7.3859	-5.26392	19.48094	29.76323	1.18383	0.84471	124.41563	137.76838	46.09738	0.34949	 	486201.9558	 	1.44369E-5	 	27369.11658	36.52675	 
1160.0	1.0	0.0	7.74216	7.38344	-5.2955	19.46231	29.68274	1.18292	0.84537	124.83304	138.07923	46.25769	0.34932	 	526144.0524	 	1.32946E-5	 	27186.81953	36.45941	 
1155.0	1.0	0.0	7.74474	7.38098	-5.32703	19.44373	29.60224	1.18199	0.84603	125.24964	138.38863	46.41774	0.34916	 	569677.1894	 	1.22358E-5	 	27004.85824	36.39226	 
1150.0	1.0	0.0	7.74731	7.37853	-5.35849	19.4252	29.52174	1.18107	0.84669	125.66544	138.69656	46.57752	0.34899	 	617151.4564	 	1.1255E-5	 	26823.2314	36.32537	 
1145.0	1.0	0.0	7.74989	7.37608	-5.38989	19.40671	29.44123	1.18014	0.84736	126.08044	139.00304	46.73704	0.34883	 	668953.6349	 	1.0347E-5	 	26641.9381	36.25866	 
1140.0	1.0	0.0	7.75245	7.37364	-5.42122	19.38826	29.36071	1.1792	0.84803	126.49464	139.30808	46.8963	0.34866	 	725511.4256	 	9.50672E-6	 	26460.97697	36.19223	 
1135.0	1.0	0.0	7.75502	7.3712	-5.45249	19.36987	29.28018	1.17826	0.84871	126.90804	139.61167	47.0553	0.3485	 	787297.9033	 	8.72964E-6	 	26280.34711	36.12597	 
1130.0	1.0	0.0	7.75758	7.36877	-5.4837	19.35152	29.19965	1.17731	0.84939	127.32063	139.91382	47.21404	0.34833	 	854836.9105	 	8.01138E-6	 	26100.04718	36.05998	 
1125.0	1.0	0.0	7.76014	7.36634	-5.51485	19.33322	29.11912	1.17636	0.85008	127.73243	140.21455	47.37252	0.34817	 	928708.5976	 	7.34786E-6	 	25920.07629	35.99418	 
1120.0	1.0	0.0	7.76269	7.36392	-5.54593	19.31497	29.03857	1.17541	0.85077	128.14343	140.51385	47.53073	0.34801	 	1009556.24	 	6.73526E-6	 	25740.43309	35.92864	 
1115.0	1.0	0.0	7.76524	7.3615	-5.57695	19.29677	28.95802	1.17445	0.85146	128.55363	140.81172	47.68868	0.34784	 	1098093.128	 	6.16998E-6	 	25561.11669	35.86328	 
1110.0	1.0	0.0	7.76779	7.35909	-5.6079	19.27862	28.87747	1.17348	0.85217	128.96303	141.10819	47.84637	0.34768	 	1195111.286	 	5.64869E-6	 	25382.12575	35.79819	 
1105.0	1.0	0.0	7.77033	7.35668	-5.6388	19.26052	28.7969	1.17251	0.85287	129.37164	141.40324	48.0038	0.34751	 	1301490.122	 	5.16824E-6	 	25203.45939	35.73327	 
1104.27	1.0	0.0	7.7707	7.35633	-5.6433	19.25787	28.78516	1.17237	0.85297	129.43109	141.44609	48.02671	0.34749	 	1317824.608	 	5.10148E-6	 	25177.45914	 	 
1100.0	1.0	0.0	7.77351	7.35367	-5.67737	19.21542	28.73119	1.17093	0.85402	129.81967	141.71367	48.17694	0.34732	 	1418332.38	 	4.72527E-6	 	25011.54738	38.3824	 
1095.0	1.0	0.0	7.77681	7.35055	-5.71742	19.16475	28.66848	1.16922	0.85527	130.27364	142.02464	48.35253	0.34712	 	1546624.939	 	4.31753E-6	 	24817.34521	38.84043	 
1094.77	1.0	0.0	7.77696	7.35041	-5.71925	19.16242	28.66565	1.16914	0.85533	130.29425	142.03872	48.36051	0.34711	 	1552746.738	 	4.29979E-6	 	24808.51846	 	 
1090.0	1.0	0.0	7.77941	7.34809	-5.7489	19.1438	28.58954	1.16816	0.85605	130.68595	142.31873	48.51158	0.34696	 	1687630.466	 	3.94233E-6	 	24637.60439	35.94816	 
1085.0	1.0	0.0	7.78196	7.34568	-5.77988	19.12442	28.50977	1.16713	0.8568	131.09536	142.61063	48.66953	0.34679	 	1842650.493	 	3.59742E-6	 	24458.9218	35.73652	 
1080.0	1.0	0.0	7.78452	7.34327	-5.81077	19.10515	28.42995	1.1661	0.85756	131.50383	142.90106	48.82715	0.34663	 	2013186.971	 	3.28056E-6	 	24280.61386	35.66159	 
1075.0	1.0	0.0	7.78706	7.34087	-5.84159	19.086	28.35009	1.16506	0.85832	131.91136	143.19001	48.98446	0.34646	 	2200918.939	 	2.98965E-6	 	24102.67725	35.58732	 
1070.0	1.0	0.0	7.78961	7.33847	-5.87232	19.06696	28.27019	1.16402	0.85909	132.31795	143.47751	49.14146	0.3463	 	2407720.582	 	2.72273E-6	 	23925.10881	35.51369	 
1065.0	1.0	0.0	7.79214	7.33608	-5.90296	19.04803	28.19025	1.16298	0.85986	132.7236	143.76356	49.29814	0.34613	 	2635685.476	 	2.47798E-6	 	23747.90556	35.44065	 
1060.0	1.0	0.0	7.79467	7.3337	-5.93353	19.02922	28.11028	1.16193	0.86064	133.12833	144.04816	49.4545	0.34597	 	2887154.009	 	2.2537E-6	 	23571.06456	35.3682	 
1055.0	1.0	0.0	7.7972	7.33132	-5.96401	19.01052	28.03026	1.16088	0.86142	133.53214	144.33133	49.61056	0.3458	 	3164744.293	 	2.04831E-6	 	23394.58299	35.29631	 
1050.0	1.0	0.0	7.79972	7.32895	-5.99442	18.99193	27.95021	1.15982	0.8622	133.93503	144.61306	49.7663	0.34564	 	3471387.517	 	1.86034E-6	 	23218.45811	35.22498	 
1045.0	1.0	0.0	7.80224	7.32659	-6.02474	18.97345	27.87012	1.15876	0.86299	134.33699	144.89336	49.92174	0.34548	 	3810367.898	 	1.68844E-6	 	23042.68725	35.15417	 
1040.0	1.0	0.0	7.80475	7.32423	-6.05499	18.95508	27.79	1.15769	0.86379	134.73805	145.17224	50.07686	0.34531	 	4185367.886	 	1.53133E-6	 	22867.2678	35.08389	 
1035.0	1.0	0.0	7.80726	7.32188	-6.08516	18.93681	27.70984	1.15662	0.86459	135.1382	145.44971	50.23168	0.34515	 	4600520.096	 	1.38783E-6	 	22692.19737	35.01409	 
1030.0	1.0	0.0	7.80976	7.31953	-6.11525	18.91865	27.62965	1.15554	0.8654	135.53743	145.72576	50.3862	0.34499	 	5060465.499	 	1.25687E-6	 	22517.47353	34.94477	 
1025.0	1.0	0.0	7.81226	7.31719	-6.14527	18.90059	27.54942	1.15446	0.86621	135.93576	146.00042	50.54041	0.34482	 	5570420.754	 	1.13743E-6	 	22343.09397	34.87591	 
1020.0	1.0	0.0	7.81475	7.31486	-6.17521	18.88264	27.46916	1.15337	0.86702	136.33319	146.27367	50.69431	0.34466	 	6136253.658	 	1.02857E-6	 	22169.05635	34.80752	 
1015.0	1.0	0.0	7.81724	7.31253	-6.20507	18.86478	27.38888	1.15228	0.86784	136.72972	146.54552	50.84791	0.3445	 	6764570.686	 	9.29422E-7	 	21995.35849	34.73957	 
1010.0	1.0	0.0	7.81972	7.31021	-6.23487	18.84703	27.30856	1.15118	0.86867	137.12536	146.81599	51.00121	0.34433	 	7462815.635	 	8.39192E-7	 	21821.9981	34.67208	 
1005.0	1.0	0.0	7.8222	7.30789	-6.26459	18.82938	27.22821	1.15008	0.8695	137.52009	147.08507	51.15421	0.34417	 	8239382.866	 	7.57136E-7	 	21648.97304	34.60501	 
1000.0	1.0	0.0	7.82468	7.30558	-6.29423	18.81182	27.14783	1.14897	0.87034	137.91394	147.35278	51.30691	0.34401	 	9103746.796	 	6.82568E-7	 	21476.28112	34.53838	 
999.14	1.0	0.0	7.82511	7.30518	-6.29935	18.80879	27.13394	1.14878	0.87049	137.98192	147.39891	51.33327	0.34398	 	9262787.155	 	6.70393E-7	 	21446.46997	 	 
995.0	1.0	0.0	7.82874	7.30179	-6.34282	18.72079	27.01128	1.15025	0.86938	138.5541	147.7101	51.5583	0.34366	 	1.017538009E7	 	6.08284E-7	 	21217.26322	51.80358	 
990.0	1.0	0.0	7.83308	7.29775	-6.39468	18.6161	26.86701	1.15187	0.86816	139.23076	148.07778	51.8245	0.34329	 	1.140633627E7	 	5.405E-7	 	20943.58189	54.73627	 
985.0	1.0	0.0	7.83736	7.29376	-6.4458	18.51321	26.7267	1.15333	0.86706	139.89168	148.4366	52.08459	0.34293	 	1.27947113E7	 	4.79942E-7	 	20673.53199	54.00998	 
980.0	1.0	0.0	7.84158	7.28983	-6.4962	18.41209	26.59	1.15465	0.86606	140.5376	148.78705	52.33886	0.34257	 	1.436175749E7	 	4.25875E-7	 	20407.00649	53.3051	 
975.0	1.0	0.0	7.84575	7.28596	-6.5459	18.31266	26.45671	1.15584	0.86517	141.16925	149.12957	52.58759	0.34223	 	1.613175813E7	 	3.77635E-7	 	20143.9014	52.62102	 
970.0	1.0	0.0	7.84987	7.28214	-6.59491	18.2149	26.32665	1.1569	0.86438	141.78729	149.46458	52.83102	0.34189	 	1.813248491E7	 	3.34621E-7	 	19884.1158	51.95712	 
965.0	1.0	0.0	7.85393	7.27837	-6.64327	18.11874	26.19965	1.15783	0.86369	142.39237	149.79246	53.06942	0.34157	 	2.039572689E7	 	2.96293E-7	 	19627.55156	51.31285	 
960.0	1.0	0.0	7.85795	7.27465	-6.69097	18.02414	26.07557	1.15864	0.86308	142.98508	150.11357	53.303	0.34125	 	2.295790753E7	 	2.62162E-7	 	19374.11302	50.68771	 
955.0	1.0	0.0	7.86192	7.27098	-6.73805	17.93106	25.95424	1.15934	0.86256	143.56601	150.42824	53.532	0.34094	 	2.586079545E7	 	2.31791E-7	 	19123.70714	50.08118	 
950.0	1.0	0.0	7.86583	7.26735	-6.78452	17.83944	25.83554	1.15992	0.86213	144.1357	150.73678	53.75662	0.34063	 	2.915233706E7	 	2.04783E-7	 	18876.24313	49.4928	 
945.0	1.0	0.0	7.86971	7.26378	-6.8304	17.74925	25.71933	1.1604	0.86177	144.69467	151.03949	53.97707	0.34033	 	3.288762253E7	 	1.80782E-7	 	18631.63246	48.92213	 
940.0	1.0	0.0	7.87354	7.26024	-6.8757	17.66043	25.60547	1.16077	0.86149	145.24341	151.33663	54.19353	0.34004	 	3.713001114E7	 	1.59469E-7	 	18389.78889	48.36871	 
935.0	1.0	0.0	7.87732	7.25676	-6.92044	17.57295	25.49386	1.16105	0.86129	145.7824	151.62847	54.40619	0.33976	 	4.195244624E7	 	1.40556E-7	 	18150.62823	47.83213	 
930.0	1.0	0.0	7.88106	7.25331	-6.96464	17.48677	25.38436	1.16123	0.86115	146.31207	151.91525	54.61522	0.33948	 	4.743898586E7	 	1.23786E-7	 	17914.06842	47.31196	 
925.0	1.0	0.0	7.88476	7.24991	-7.0083	17.40183	25.27688	1.16133	0.86109	146.83285	152.19718	54.82079	0.33921	 	5.368659981E7	 	1.08926E-7	 	17680.0295	46.80778	 
920.0	1.0	0.0	7.88842	7.24654	-7.05146	17.31809	25.17129	1.16133	0.86108	147.34516	152.47449	55.02306	0.33894	 	6.080726294E7	 	9.57693E-8	 	17448.43353	46.31919	 
915.0	1.0	0.0	7.89205	7.24322	-7.09411	17.23552	25.06751	1.16125	0.86114	147.84936	152.74738	55.22216	0.33868	 	6.893041419E7	 	8.41293E-8	 	17219.20463	45.84578	 
910.0	1.0	0.0	7.89563	7.23993	-7.13628	17.15408	24.96544	1.16109	0.86126	148.34583	153.01603	55.41826	0.33842	 	7.820583929E7	 	7.38393E-8	 	16992.26895	45.38714	 
905.0	1.0	0.0	7.89918	7.23668	-7.17798	17.07371	24.86499	1.16086	0.86143	148.83491	153.28062	55.61147	0.33817	 	8.880706054E7	 	6.475E-8	 	16767.55461	44.94287	 
900.0	1.0	0.0	7.90269	7.23346	-7.21922	16.99439	24.76607	1.16055	0.86166	149.31692	153.54132	55.80194	0.33792	 	1.009353013E8	 	5.6728E-8	 	16544.99176	44.51257	 
895.0	1.0	0.0	7.90616	7.23028	-7.26001	16.91608	24.6686	1.16017	0.86195	149.79219	153.79828	55.98977	0.33767	 	1.148241861E8	 	4.96537E-8	 	16324.51255	44.09584	 
890.0	1.0	0.0	7.90961	7.22714	-7.30038	16.83872	24.5725	1.15972	0.86228	150.26101	154.05165	56.17509	0.33743	 	1.307452437E8	 	4.34207E-8	 	16106.05107	43.6923	 
885.0	1.0	0.0	7.91302	7.22402	-7.34033	16.76229	24.47771	1.1592	0.86266	150.72365	154.30158	56.35802	0.3372	 	1.490144315E8	 	3.79335E-8	 	15889.5434	43.30153	 
880.0	1.0	0.0	7.91639	7.22094	-7.37987	16.68675	24.38414	1.15863	0.86309	151.18038	154.54819	56.53864	0.33697	 	1.699998059E8	 	3.31073E-8	 	15674.92749	42.92318	 
875.0	1.0	0.0	7.91974	7.21789	-7.41902	16.61206	24.29175	1.15799	0.86356	151.63146	154.7916	56.71706	0.33674	 	1.941306427E8	 	2.88663E-8	 	15462.1428	42.55694	 
870.0	1.0	0.0	7.92306	7.21486	-7.45778	16.53818	24.20046	1.1573	0.86408	152.07713	155.03193	56.89338	0.33651	 	2.219081889E8	 	2.5143E-8	 	15251.13171	42.20222	 
865.0	1.0	0.0	7.92635	7.21187	-7.49618	16.46508	24.11022	1.15655	0.86464	152.5176	155.2693	57.06768	0.33629	 	2.53918424E8	 	2.18772E-8	 	15041.83794	41.85875	 
860.0	1.0	0.0	7.92961	7.20891	-7.53421	16.39272	24.02097	1.15575	0.86524	152.95309	155.50379	57.24005	0.33607	 	2.908472496E8	 	1.90156E-8	 	14834.20693	41.5262	 
855.0	1.0	0.0	7.93284	7.20597	-7.5719	16.32107	23.93267	1.15489	0.86588	153.38381	155.73552	57.41056	0.33585	 	3.334984833E8	 	1.65105E-8	 	14628.18602	41.20418	 
850.0	1.0	0.0	7.93605	7.20306	-7.60924	16.2501	23.84525	1.15399	0.86656	153.80995	155.96457	57.5793	0.33564	 	3.828153159E8	 	1.43197E-8	 	14423.72426	40.89235	 
845.0	1.0	0.0	7.93838	7.20094	-7.63633	16.22522	23.77123	1.15243	0.86773	154.17076	156.19404	57.72057	0.33549	 	4.361941365E8	 	1.25114E-8	 	14263.93022	31.95881	 
840.0	1.0	0.0	7.9407	7.19884	-7.66335	16.20034	23.69719	1.15086	0.86891	154.53093	156.4225	57.86163	0.33535	 	4.975991408E8	 	1.09184E-8	 	14101.13223	32.5596	 
835.0	1.0	0.0	7.94302	7.19674	-7.6903	16.17545	23.62315	1.14928	0.87011	154.89045	156.64995	58.00248	0.33521	 	5.683234735E8	 	9.51677E-9	 	13938.59335	32.50778	 
830.0	1.0	0.0	7.94533	7.19464	-7.71719	16.15056	23.5491	1.14769	0.87131	155.24934	156.87639	58.14312	0.33506	 	6.498823748E8	 	8.28489E-9	 	13776.31293	32.45608	 
825.0	1.0	0.0	7.94764	7.19255	-7.74402	16.12566	23.47504	1.1461	0.87253	155.60759	157.10183	58.28355	0.33492	 	7.440536688E8	 	7.20351E-9	 	13614.29034	32.40452	 
820.0	1.0	0.0	7.94995	7.19046	-7.77078	16.10076	23.40098	1.14449	0.87375	155.9652	157.32627	58.42377	0.33478	 	8.529260565E8	 	6.2554E-9	 	13452.5249	32.35309	 
815.0	1.0	0.0	7.95225	7.18838	-7.79747	16.07585	23.3269	1.14287	0.87499	156.32217	157.54972	58.56378	0.33463	 	9.789568033E8	 	5.42515E-9	 	13291.01594	32.30179	 
810.0	1.0	0.0	7.95455	7.1863	-7.8241	16.05094	23.25281	1.14125	0.87624	156.67851	157.77216	58.70357	0.33449	 	1.125040743E9	 	4.69902E-9	 	13129.76279	32.25063	 
805.0	1.0	0.0	7.95684	7.18423	-7.85066	16.02602	23.17872	1.13961	0.87749	157.0342	157.99362	58.84316	0.33435	 	1.294592942E9	 	4.06474E-9	 	12968.76472	32.19961	 
800.0	1.0	0.0	7.95913	7.18217	-7.87716	16.00109	23.10462	1.13796	0.87876	157.38925	158.21409	58.98253	0.3342	 	1.491647872E9	 	3.5114E-9	 	12808.02106	32.14873	 
795.0	1.0	0.0	7.96141	7.18011	-7.90359	15.97616	23.0305	1.1363	0.88005	157.74367	158.43357	59.1217	0.33406	 	1.720978571E9	 	3.02931E-9	 	12647.53108	32.098	 
790.0	1.0	0.0	7.96369	7.17805	-7.92996	15.95123	22.95638	1.13464	0.88134	158.09745	158.65207	59.26065	0.33392	 	1.988240021E9	 	2.60983E-9	 	12487.29405	32.04741	 
785.0	1.0	0.0	7.96597	7.176	-7.95626	15.92628	22.88225	1.13296	0.88264	158.45059	158.86959	59.39939	0.33377	 	2.300141963E9	 	2.24533E-9	 	12327.30924	31.99696	 
780.0	1.0	0.0	7.96824	7.17396	-7.9825	15.90134	22.80811	1.13127	0.88396	158.80309	159.08613	59.53792	0.33363	 	2.664657469E9	 	1.92901E-9	 	12167.57586	31.94668	 
775.0	1.0	0.0	7.97051	7.17191	-8.00867	15.87638	22.73396	1.12957	0.88529	159.15495	159.3017	59.67624	0.33349	 	3.09127512E9	 	1.6549E-9	 	12008.09315	31.89654	 
770.0	1.0	0.0	7.97277	7.16988	-8.03478	15.85142	22.6598	1.12786	0.88663	159.50618	159.51629	59.81434	0.33334	 	3.59130434E9	 	1.41769E-9	 	11848.86033	31.84656	 
765.0	1.0	0.0	7.97503	7.16785	-8.06082	15.82646	22.58563	1.12614	0.88799	159.85676	159.72992	59.95224	0.3332	 	4.178245745E9	 	1.2127E-9	 	11689.87657	31.79675	 
760.0	1.0	0.0	7.97728	7.16582	-8.0868	15.80149	22.51144	1.12441	0.88935	160.20671	159.94258	60.08992	0.33306	 	4.86824103E9	 	1.03581E-9	 	11531.14105	31.7471	 
755.0	1.0	0.0	7.97953	7.1638	-8.11271	15.77652	22.43725	1.12267	0.89073	160.55603	160.15427	60.2274	0.33292	 	5.680620439E9	 	8.8338E-10	 	11372.65292	31.69763	 
750.0	1.0	0.0	7.98178	7.16179	-8.13855	15.75154	22.36305	1.12092	0.89212	160.9047	160.365	60.36466	0.33277	 	6.638570076E9	 	7.52231E-10	 	11214.4113	31.64832	 
745.0	1.0	0.0	7.98402	7.15978	-8.16433	15.72655	22.28884	1.11916	0.89353	161.25274	160.57478	60.50171	0.33263	 	7.769946685E9	 	6.39559E-10	 	11056.41531	31.5992	 
740.0	1.0	0.0	7.98625	7.15777	-8.19004	15.70156	22.21461	1.11738	0.89495	161.60014	160.7836	60.63855	0.33249	 	9.108274237E9	 	5.42906E-10	 	10898.66402	31.55026	 
735.0	1.0	0.0	7.98848	7.15578	-8.21569	15.67656	22.14037	1.11559	0.89638	161.9469	160.99146	60.77517	0.33234	 	1.0694E10	 	4.60122E-10	 	10741.15649	31.50151	 
730.0	1.0	0.0	7.99071	7.15378	-8.24127	15.65156	22.06613	1.1138	0.89783	162.29302	161.19838	60.91159	0.3322	 	1.2575799999999998E10	 	3.89329E-10	 	10583.89173	31.45295	 
725.0	1.0	0.0	7.99293	7.15179	-8.26679	15.62655	21.99187	1.11199	0.89929	162.63851	161.40435	61.04779	0.33206	 	1.4812899999999998E10	 	3.28885E-10	 	10426.86875	31.4046	 
720.0	1.0	0.0	7.99515	7.14981	-8.29224	15.60154	21.9176	1.11017	0.90077	162.98336	161.60937	61.18378	0.33192	 	1.74766E10	 	2.7736E-10	 	10270.08651	31.35645	 
715.0	1.0	0.0	7.99737	7.14783	-8.31763	15.57652	21.84331	1.10833	0.90226	163.32758	161.81345	61.31956	0.33177	 	2.0654E10	 	2.3351E-10	 	10113.54393	31.30852	 
710.0	1.0	0.0	7.99958	7.14585	-8.34295	15.55149	21.76902	1.10649	0.90376	163.67115	162.01659	61.45513	0.33163	 	2.4450399999999996E10	 	1.96255E-10	 	9957.23989	31.26081	 
705.0	1.0	0.0	8.00178	7.14389	-8.3682	15.52646	21.69471	1.10463	0.90528	164.0141	162.2188	61.59049	0.33149	 	2.8994699999999996E10	 	1.64654E-10	 	9801.17327	31.21333	 
700.0	1.0	0.0	8.00398	7.14192	-8.39339	15.50142	21.62039	1.10276	0.90681	164.3564	162.42006	61.72563	0.33135	 	3.44439E10	 	1.37897E-10	 	9645.34286	31.16608	 
695.0	1.0	0.0	8.00618	7.13996	-8.41851	15.47638	21.54606	1.10088	0.90836	164.69807	162.6204	61.86057	0.3312	 	4.09901E10	 	1.15279E-10	 	9489.74742	31.11909	 
690.0	1.0	0.0	8.00837	7.13801	-8.44357	15.45134	21.47171	1.09899	0.90993	165.0391	162.81981	61.99529	0.33106	 	4.886849999999999E10	 	9.61948E-11	 	9334.38567	31.07235	 
685.0	1.0	0.0	8.01055	7.13606	-8.46856	15.42628	21.39735	1.09708	0.91151	165.37949	163.01829	62.1298	0.33092	 	5.836819999999999E10	 	8.01206E-11	 	9179.25628	31.02588	 
680.0	1.0	0.0	8.01274	7.13412	-8.49348	15.40123	21.32298	1.09516	0.9131	165.71925	163.21585	62.2641	0.33078	 	6.98446E10	 	6.66062E-11	 	9024.35783	30.97969	 
675.0	1.0	0.0	8.01491	7.13218	-8.51834	15.37616	21.24859	1.09323	0.91472	166.05838	163.41248	62.39818	0.33063	 	8.37359E10	 	5.52652E-11	 	8869.68891	30.93379	 
670.0	1.0	0.0	8.01709	7.13025	-8.54314	15.35109	21.17419	1.09129	0.91635	166.39686	163.6082	62.53205	0.33049	 	1.00583E11	 	4.57658E-11	 	8715.24796	30.88819	 
665.0	1.0	0.0	8.01925	7.12832	-8.56787	15.32602	21.09977	1.08933	0.91799	166.73471	163.803	62.66572	0.33035	 	1.21057E11	 	3.78242E-11	 	8561.03342	30.84291	 
660.0	1.0	0.0	8.02142	7.1264	-8.59253	15.30094	21.02535	1.08736	0.91966	167.07193	163.99688	62.79916	0.33021	 	1.45987E11	 	3.11978E-11	 	8407.04704	30.79728	 
655.0	1.0	0.0	8.02358	7.12448	-8.61712	15.27585	20.9509	1.08538	0.92134	167.40851	164.18985	62.9324	0.33007	 	1.76407E11	 	2.56797E-11	 	8253.30748	30.74791	 
650.0	1.0	0.0	8.02573	7.12257	-8.64165	15.25076	20.87644	1.08338	0.92303	167.74445	164.38192	63.06543	0.32992	 	2.13603E11	 	2.10937E-11	 	8099.83962	30.69357	 
645.0	1.0	0.0	8.02788	7.12066	-8.66612	15.22567	20.80197	1.08137	0.92475	168.07976	164.57307	63.19824	0.32978	 	2.59181E11	 	1.72901E-11	 	7946.64268	30.63939	 
640.0	1.0	0.0	8.03003	7.11876	-8.69052	15.20056	20.72748	1.07935	0.92648	168.41444	164.76333	63.33084	0.32964	 	3.15152E11	 	1.41419E-11	 	7793.71591	30.58535	 
635.0	1.0	0.0	8.03217	7.11686	-8.71485	15.17546	20.65297	1.07731	0.92824	168.74847	164.95268	63.46322	0.3295	 	3.84036E11	 	1.15418E-11	 	7641.05855	30.53147	 
630.0	1.0	0.0	8.0343	7.11497	-8.73912	15.15034	20.57845	1.07526	0.93001	169.08188	165.14113	63.5954	0.32936	 	4.69001E11	 	9.3988E-12	 	7488.66983	30.47774	 
625.0	1.0	0.0	8.03643	7.11308	-8.76332	15.12522	20.50392	1.07319	0.9318	169.41464	165.32869	63.72736	0.32921	 	5.74041E11	 	7.63647E-12	 	7336.54877	30.42421	 
620.0	1.0	0.0	8.03856	7.1112	-8.78745	15.1001	20.42936	1.07111	0.93361	169.74677	165.51535	63.85911	0.32907	 	7.04197E11	 	6.19037E-12	 	7184.69398	30.37096	 
615.0	1.0	0.0	8.04068	7.10932	-8.81152	15.07497	20.35479	1.06902	0.93544	170.07827	165.70112	63.99065	0.32893	 	8.65854E11	 	5.00643E-12	 	7033.10503	30.31779	 
610.0	1.0	0.0	8.0428	7.10745	-8.83552	15.04983	20.2802	1.06691	0.93729	170.40913	165.886	64.12197	0.32879	 	1.06712E12	 	4.03933E-12	 	6881.7812	30.26477	 
605.0	1.0	0.0	8.04491	7.10559	-8.85946	15.02469	20.2056	1.06479	0.93915	170.73936	166.06999	64.25308	0.32865	 	1.31829E12	 	3.2512E-12	 	6730.72174	30.21189	 
600.0	1.0	0.0	8.04702	7.10372	-8.88333	14.99955	20.13098	1.06265	0.94104	171.06895	166.2531	64.38398	0.32851	 	1.63254E12	 	2.61043E-12	 	6579.92591	30.15917	 
595.0	1.0	0.0	8.04912	7.10187	-8.90713	14.97439	20.05633	1.0605	0.94295	171.39791	166.43532	64.51467	0.32836	 	2.02668E12	 	2.09072E-12	 	6429.393	30.10658	 
590.0	1.0	0.0	8.05122	7.10002	-8.93087	14.94924	19.98167	1.05833	0.94489	171.72623	166.61667	64.64514	0.32822	 	2.52229E12	 	1.67024E-12	 	6279.12227	30.05414	 
585.0	1.0	0.0	8.05331	7.09817	-8.95454	14.92407	19.907	1.05615	0.94684	172.05392	166.79714	64.7754	0.32808	 	3.14711E12	 	1.33088E-12	 	6129.11301	30.00185	 
580.0	1.0	0.0	8.0554	7.09633	-8.97814	14.8989	19.8323	1.05395	0.94882	172.38098	166.97673	64.90545	0.32794	 	3.93691E12	 	1.05769E-12	 	5979.36447	29.94971	 
575.0	1.0	0.0	8.05748	7.0945	-9.00168	14.87373	19.75758	1.05173	0.95081	172.7074	167.15545	65.03529	0.3278	 	4.93793E12	 	8.38329E-13	 	5829.87597	29.8977	 
570.0	1.0	0.0	8.05956	7.09267	-9.02516	14.84855	19.68285	1.0495	0.95283	173.03318	167.3333	65.16491	0.32766	 	6.21014E12	 	6.62659E-13	 	5680.64676	29.84584	 
565.0	1.0	0.0	8.06164	7.09084	-9.04856	14.82337	19.60809	1.04726	0.95488	173.35833	167.51028	65.29432	0.32751	 	7.83152E12	 	5.22351E-13	 	5531.67614	29.79412	 
560.0	1.0	0.0	8.06371	7.08902	-9.0719	14.79818	19.53331	1.04499	0.95694	173.68285	167.6864	65.42351	0.32737	 	9.90376E12	 	4.10592E-13	 	5382.96341	29.74255	 
555.0	1.0	0.0	8.06577	7.08721	-9.09517	14.77298	19.45851	1.04271	0.95904	174.00673	167.86165	65.55249	0.32723	 	1.25599E13	 	3.21818E-13	 	5234.50784	29.69111	 
550.0	1.0	0.0	8.06783	7.0854	-9.11838	14.74778	19.3837	1.04042	0.96115	174.32998	168.03604	65.68126	0.32709	 	1.59744E13	 	2.51503E-13	 	5086.30874	29.63982	 
545.0	1.0	0.0	8.06989	7.08359	-9.14152	14.72257	19.30885	1.03811	0.96329	174.6526	168.20957	65.80982	0.32695	 	2.03769E13	 	1.95966E-13	 	4938.36541	29.58867	 
540.0	1.0	0.0	8.07194	7.0818	-9.1646	14.69736	19.23399	1.03578	0.96546	174.97458	168.38225	65.93816	0.32681	 	2.60707E13	 	1.52231E-13	 	4790.67715	29.53765	 
535.0	1.0	0.0	8.07398	7.08	-9.1876	14.67214	19.15911	1.03343	0.96765	175.29593	168.55407	66.06629	0.32667	 	3.34574E13	 	1.17893E-13	 	4643.24327	29.48678	 
530.0	1.0	0.0	8.07602	7.07821	-9.21055	14.64691	19.0842	1.03107	0.96986	175.61664	168.72503	66.1942	0.32653	 	4.30706E13	 	9.10129E-14	 	4496.06308	29.43604	 
525.0	1.0	0.0	8.07806	7.07643	-9.23342	14.62169	19.00927	1.02869	0.97211	175.93672	168.89515	66.32191	0.32638	 	5.56215E13	 	7.00371E-14	 	4349.13589	29.38544	 
520.0	1.0	0.0	8.08009	7.07465	-9.25623	14.59645	18.93431	1.02629	0.97438	176.25617	169.06442	66.44939	0.32624	 	7.20619E13	 	5.37201E-14	 	4202.46102	29.33497	 
515.0	1.0	0.0	8.08211	7.07288	-9.27897	14.57121	18.85933	1.02388	0.97668	176.57498	169.23285	66.57667	0.3261	 	9.36688E13	 	4.10677E-14	 	4056.03779	29.28465	 
510.0	1.0	0.0	8.08413	7.07111	-9.30165	14.54596	18.78433	1.02145	0.979	176.89316	169.40043	66.70373	0.32596	 	1.22163E14	 	3.12891E-14	 	3909.86554	29.23445	 
505.0	1.0	0.0	8.08615	7.06935	-9.32426	14.52071	18.7093	1.01899	0.98136	177.2107	169.56717	66.83058	0.32582	 	1.59869E14	 	2.37566E-14	 	3763.94358	29.18439	 
500.0	1.0	0.0	8.08816	7.06759	-9.3468	14.49546	18.63424	1.01653	0.98374	177.52762	169.73308	66.95721	0.32568	 	2.09943E14	 	1.79741E-14	 	3618.27127	29.13446	 
495.0	1.0	0.0	8.09017	7.06584	-9.36927	14.47019	18.55916	1.01404	0.98616	177.8439	169.89814	67.08363	0.32554	 	2.7668099999999997E14	 	1.35504E-14	 	3472.84791	29.08467	 
490.0	1.0	0.0	8.09217	7.06409	-9.39168	14.44493	18.48405	1.01153	0.9886	178.15954	170.06237	67.20984	0.3254	 	3.65956E14	 	1.01781E-14	 	3327.67289	29.035	 
485.0	1.0	0.0	8.09416	7.06235	-9.41403	14.41965	18.40891	1.009	0.99108	178.47456	170.22577	67.33583	0.32526	 	4.85824E14	 	7.61663E-15	 	3182.74553	28.98547	 
480.0	1.0	0.0	8.09615	7.06061	-9.4363	14.39437	18.33375	1.00646	0.99358	178.78894	170.38834	67.46161	0.32512	 	6.47386E14	 	5.67812E-15	 	3038.06519	28.93607	 
475.0	1.0	0.0	8.09814	7.05888	-9.45851	14.36909	18.25856	1.0039	0.99612	179.10268	170.55008	67.58717	0.32498	 	8.65992E14	 	4.21659E-15	 	2893.63124	28.88679	 
470.0	1.0	0.0	8.10012	7.05715	-9.48065	14.3438	18.18334	1.00131	0.99869	179.4158	170.711	67.71252	0.32483	 	1.16296E15	 	3.11888E-15	 	2749.44303	28.83764	 
465.0	1.0	0.0	8.1021	7.05543	-9.50273	14.3185	18.10809	0.99871	1.00129	179.72828	170.87109	67.83766	0.32469	 	1.56802E15	 	2.29763E-15	 	2605.49994	28.78862	 
460.0	1.0	0.0	8.10407	7.05372	-9.52474	14.2932	18.0328	0.99608	1.00393	180.04013	171.03036	67.96258	0.32455	 	2.12279E15	 	1.68567E-15	 	2461.80134	28.73972	 
455.0	1.0	0.0	8.10603	7.05201	-9.54668	14.26789	17.95749	0.99344	1.0066	180.35135	171.18882	68.08728	0.32441	 	2.88582E15	 	1.23151E-15	 	2318.34662	28.69094	 
450.0	1.0	0.0	8.10799	7.0503	-9.56855	14.24258	17.88215	0.99077	1.00931	180.66193	171.34645	68.21178	0.32427	 	3.93982E15	 	8.95856E-16	 	2175.13517	28.64229	 
445.0	1.0	0.0	8.10995	7.0486	-9.59036	14.21726	17.80677	0.98809	1.01205	180.97188	171.50327	68.33605	0.32413	 	5.40215E15	 	6.48837E-16	 	2032.16638	28.59376	 
440.0	1.0	0.0	8.1119	7.04691	-9.61211	14.19194	17.73136	0.98538	1.01483	181.2812	171.65928	68.46012	0.32399	 	7.44009E15	 	4.67831E-16	 	1889.43964	28.54535	 
435.0	1.0	0.0	8.11385	7.04522	-9.63378	14.16661	17.65592	0.98265	1.01765	181.58988	171.81447	68.58397	0.32385	 	1.02933E16	 	3.35783E-16	 	1746.95437	28.49705	 
430.0	1.0	0.0	8.11579	7.04353	-9.65539	14.14128	17.58045	0.97991	1.02051	181.89794	171.96886	68.7076	0.32371	 	1.43065E16	 	2.39884E-16	 	1604.70999	28.44888	 
425.0	1.0	0.0	8.11772	7.04185	-9.67693	14.11594	17.50494	0.97713	1.0234	182.20536	172.12244	68.83102	0.32357	 	1.99784E16	 	1.70559E-16	 	1462.70596	28.4008	 
420.0	1.0	0.0	8.11965	7.04018	-9.6984	14.09059	17.42939	0.97434	1.02633	182.51215	172.27522	68.95423	0.32343	 	2.80338E16	 	1.20679E-16	 	1320.94164	28.35287	 
415.0	1.0	0.0	8.12158	7.03851	-9.71981	14.06524	17.35381	0.97153	1.02931	182.8183	172.42719	69.07722	0.32329	 	3.95311E16	 	8.49631E-17	 	1179.41667	28.30499	 
410.0	1.0	0.0	8.1235	7.03685	-9.74115	14.03988	17.27819	0.96869	1.03232	183.12383	172.57837	69.2	0.32315	 	5.60251E16	 	5.95142E-17	 	1038.13077	28.25718	 
405.0	1.0	0.0	8.12541	7.03519	-9.76242	14.01452	17.20253	0.96583	1.03538	183.42872	172.72874	69.32256	0.32301	 	7.98102E16	 	4.14719E-17	 	897.08369	28.20942	 
400.0	1.0	0.0	8.12732	7.03353	-9.78363	13.98915	17.12683	0.96294	1.03848	183.73298	172.87832	69.44491	0.32287	 	1.14292E17	 	2.87462E-17	 	756.27516	28.16171	 
395.0	1.0	0.0	8.12923	7.03189	-9.80477	13.96378	17.05109	0.96004	1.04163	184.03661	173.0271	69.56704	0.32273	 	1.64555E17	 	1.98175E-17	 	615.70494	28.11404	 
390.0	1.0	0.0	8.13113	7.03024	-9.82584	13.9384	16.97531	0.95711	1.04482	184.33961	173.1751	69.68895	0.32259	 	2.38227E17	 	1.35865E-17	 	475.3728	28.06643	 
385.0	1.0	0.0	8.13302	7.02861	-9.84684	13.91302	16.89949	0.95415	1.04805	184.64197	173.3223	69.81066	0.32245	 	3.46827E17	 	9.26187E-18	 	335.2785	28.01886	 
380.0	1.0	0.0	8.13491	7.02697	-9.86778	13.88763	16.82363	0.95117	1.05133	184.9437	173.46871	69.93214	0.32231	 	5.07846E17	 	6.27723E-18	 	195.42183	27.97133	 
375.0	1.0	0.0	8.13679	7.02535	-9.88865	13.86223	16.74772	0.94817	1.05466	185.2448	173.61434	70.05341	0.32217	 	7.48008E17	 	4.22918E-18	 	55.80257	27.92385	 
370.0	1.0	0.0	8.13867	7.02372	-9.90946	13.83683	16.67177	0.94514	1.05804	185.54527	173.75918	70.17447	0.32203	 	1.1084E18	 	2.83207E-18	 	-83.57945	27.87641	 
365.0	1.0	0.0	8.14055	7.02211	-9.93019	13.81143	16.59577	0.94209	1.06147	185.84511	173.90325	70.29531	0.32189	 	1.65257E18	 	1.88473E-18	 	-222.72444	27.829	 
360.0	1.0	0.0	8.14242	7.0205	-9.95086	13.78601	16.51973	0.93901	1.06495	186.14432	174.04653	70.41594	0.32175	 	2.47951E18	 	1.24631E-18	 	-361.63255	27.78162	 
355.0	1.0	0.0	8.14428	7.01889	-9.97146	13.7606	16.44364	0.9359	1.06849	186.44289	174.18903	70.53635	0.32161	 	3.74435E18	 	8.18792E-19	 	-500.30395	27.73428	 
350.0	1.0	0.0	8.14614	7.01729	-9.992	13.73517	16.3675	0.93277	1.07207	186.74083	174.33076	70.65654	0.32147	 	5.69193E18	 	5.34342E-19	 	-638.73881	27.68697	 
345.0	1.0	0.0	8.14799	7.01569	-10.01246	13.70975	16.29131	0.92962	1.07571	187.03814	174.47171	70.77652	0.32133	 	8.71134E18	 	3.46334E-19	 	-776.93722	27.63968	 
340.0	1.0	0.0	8.14984	7.0141	-10.03286	13.68431	16.21507	0.92643	1.07941	187.33482	174.61189	70.89628	0.32119	 	1.34253E19	 	2.22909E-19	 	-914.89934	27.59242	 
335.0	1.0	0.0	8.15168	7.01252	-10.0532	13.65887	16.13877	0.92322	1.08316	187.63087	174.7513	71.01583	0.32105	 	2.08379E19	 	1.42444E-19	 	-1052.62526	27.54518	 
330.0	1.0	0.0	8.15352	7.01094	-10.07346	13.63343	16.06242	0.91998	1.08698	187.92629	174.88994	71.13516	0.32091	 	3.25797E19	 	9.03576E-20	 	-1190.11506	27.49796	 
325.0	1.0	0.0	8.15535	7.00936	-10.09366	13.60798	15.98602	0.91672	1.09085	188.22107	175.02781	71.25428	0.32077	 	5.132E19	 	5.68866E-20	 	-1327.36884	27.45076	 
320.0	1.0	0.0	8.15718	7.00779	-10.11379	13.58252	15.90956	0.91342	1.09478	188.51523	175.16492	71.37318	0.32063	 	8.14615E19	 	3.55385E-20	 	-1464.38663	27.40356	 
315.0	1.0	0.0	8.159	7.00623	-10.13385	13.55706	15.83304	0.9101	1.09878	188.80875	175.30127	71.49186	0.32049	 	1.3032599999999998E20	 	2.20265E-20	 	-1601.1685	27.35637	 
310.0	1.0	0.0	8.16081	7.00467	-10.15385	13.53159	15.75646	0.90675	1.10284	189.10164	175.43685	71.61033	0.32035	 	2.10188E20	 	1.35413E-20	 	-1737.71446	27.30919	 
305.0	1.0	0.0	8.16262	7.00312	-10.17378	13.50612	15.67982	0.90337	1.10697	189.39391	175.57168	71.72859	0.32021	 	3.41802E20	 	8.25567E-21	 	-1874.02452	27.26201	 
300.0	1.0	0.0	8.16443	7.00157	-10.19364	13.48064	15.60311	0.89996	1.11116	189.68554	175.70575	71.84662	0.32007	 	5.6056699999999997E20	 	4.99031E-21	 	-2010.09867	27.21483	 
295.0	1.0	0.0	8.16623	7.00003	-10.21343	13.45516	15.52635	0.89652	1.11542	189.97654	175.83906	71.96444	0.31993	 	9.273869999999999E20	 	2.99012E-21	 	-2145.93686	27.16764	 
290.0	1.0	0.0	8.16802	6.99849	-10.23316	13.42967	15.44951	0.89305	1.11976	190.2669	175.97162	72.08205	0.31979	 	1.5480200000000001E21	 	1.77555E-21	 	-2281.53906	27.12044	 
285.0	1.0	0.0	8.16981	6.99695	-10.25282	13.40417	15.37261	0.88955	1.12417	190.55664	176.10343	72.19944	0.31965	 	2.60783E21	 	1.04462E-21	 	-2416.90518	27.07322	 
280.0	1.0	0.0	8.17159	6.99543	-10.27241	13.37867	15.29564	0.88602	1.12865	190.84575	176.23449	72.31661	0.31952	 	4.4348300000000003E21	 	6.08769E-22	 	-2552.03514	27.02599	 
275.0	1.0	0.0	8.17337	6.99391	-10.29193	13.35317	15.21859	0.88245	1.13321	191.13422	176.36481	72.43356	0.31938	 	7.61519E21	 	3.51322E-22	 	-2686.92878	26.97873	 
270.0	1.0	0.0	8.17515	6.99239	-10.31139	13.32766	15.14148	0.87886	1.13784	191.42207	176.49437	72.5503	0.31924	 	1.32071E22	 	2.00724E-22	 	-2821.58599	26.93144	 
265.0	1.0	0.0	8.17691	6.99088	-10.33077	13.30214	15.06428	0.87523	1.14256	191.70928	176.6232	72.66683	0.3191	 	2.3140799999999998E22	 	1.13504E-22	 	-2956.00656	26.88412	 
260.0	1.0	0.0	8.17868	6.98937	-10.35009	13.27662	14.98701	0.87157	1.14736	191.99587	176.75128	72.78313	0.31896	 	4.0974899999999995E22	 	6.35065E-23	 	-3090.19033	26.83675	 
255.0	1.0	0.0	8.18043	6.98787	-10.36935	13.25109	14.90966	0.86787	1.15224	192.28182	176.87862	72.89922	0.31882	 	7.334249999999999E22	 	3.5147E-23	 	-3224.13704	26.78934	 
250.0	1.0	0.0	8.18218	6.98637	-10.38853	13.22556	14.83223	0.86414	1.15722	192.56714	177.00522	73.01509	0.31868	 	1.32747E23	 	1.92348E-23	 	-3357.84644	26.74188	 
245.0	1.0	0.0	8.18393	6.98488	-10.40765	13.20002	14.75471	0.86038	1.16228	192.85183	177.13108	73.13075	0.31854	 	2.4303599999999997E23	 	1.04057E-23	 	-3491.31825	26.69436	 
240.0	1.0	0.0	8.18567	6.9834	-10.4267	13.17447	14.6771	0.85658	1.16743	193.13589	177.25621	73.24619	0.3184	 	4.5022699999999995E23	 	5.56288E-24	 	-3624.55213	26.64677	 
235.0	1.0	0.0	8.18741	6.98192	-10.44568	13.14892	14.59941	0.85275	1.17267	193.41932	177.38061	73.36141	0.31826	 	8.44233E23	 	2.93776E-24	 	-3757.54771	26.59912	 
230.0	1.0	0.0	8.18914	6.98044	-10.46459	13.12337	14.52162	0.84888	1.17802	193.70212	177.50427	73.47642	0.31812	 	1.60295E24	 	1.53202E-24	 	-3890.30462	26.55138	 
225.0	1.0	0.0	8.19086	6.97897	-10.48344	13.09781	14.44374	0.84498	1.18346	193.98429	177.62721	73.59121	0.31799	 	3.08296E24	 	7.88642E-25	 	-4022.82241	26.50356	 
220.0	1.0	0.0	8.19258	6.97751	-10.50222	13.07224	14.36576	0.84104	1.189	194.26583	177.74942	73.70578	0.31785	 	6.008610000000001E24	 	4.00582E-25	 	-4155.10061	26.45564	 
215.0	1.0	0.0	8.19429	6.97605	-10.52093	13.04667	14.28768	0.83706	1.19465	194.54674	177.8709	73.82013	0.31771	 	1.18718E25	 	2.00688E-25	 	-4287.13871	26.40762	 
210.0	1.0	0.0	8.196	6.9746	-10.53957	13.02109	14.20949	0.83305	1.20041	194.82702	177.99166	73.93427	0.31757	 	2.37894E25	 	9.91255E-26	 	-4418.93615	26.35949	 
205.0	1.0	0.0	8.1977	6.97315	-10.55815	12.99551	14.1312	0.82899	1.20628	195.10667	178.11169	74.04819	0.31743	 	4.83684E25	 	4.82491E-26	 	-4550.49231	26.31123	 
200.0	1.0	0.0	8.1994	6.97171	-10.57665	12.96992	14.05279	0.8249	1.21227	195.38569	178.23101	74.16189	0.31729	 	9.982830000000001E25	 	2.3133E-26	 	-4681.80654	26.26284	 
195.0	1.0	0.0	8.20109	6.97027	-10.59509	12.94432	13.97427	0.82077	1.21837	195.66408	178.3496	74.27538	0.31715	 	2.0925100000000003E26	 	1.09195E-26	 	-4812.87814	26.21432	 
190.0	1.0	0.0	8.20277	6.96884	-10.61346	12.91872	13.89564	0.8166	1.22459	195.94184	178.46748	74.38864	0.31701	 	4.4567700000000004E26	 	5.0721E-27	 	-4943.70633	26.16564	 
185.0	1.0	0.0	8.20445	6.96741	-10.63177	12.89312	13.81688	0.81239	1.23094	196.21897	178.58464	74.5017	0.31688	 	9.650300000000001E26	 	2.31715E-27	 	-5074.29031	26.11679	 
180.0	1.0	0.0	8.20613	6.96599	-10.65	12.86751	13.738	0.80814	1.23741	196.49546	178.70109	74.61453	0.31674	 	2.1255199999999998E27	 	1.04055E-27	 	-5204.62918	26.06777	 
175.0	1.0	0.0	8.2078	6.96457	-10.66817	12.84189	13.65898	0.80384	1.24402	196.77133	178.81683	74.72714	0.3166	 	4.7647699999999997E27	 	4.59058E-28	 	-5334.72202	26.01857	 
170.0	1.0	0.0	8.20946	6.96316	-10.68627	12.81627	13.57983	0.79951	1.25077	197.04657	178.93186	74.83954	0.31646	 	1.0877500000000001E28	 	1.98842E-28	 	-5464.56778	25.96915	 
165.0	1.0	0.0	8.21112	6.96176	-10.7043	12.79064	13.50054	0.79513	1.25766	197.32118	179.04618	74.95172	0.31632	 	2.53046E28	 	8.45104E-29	 	-5594.16542	25.91953	 
160.0	1.0	0.0	8.21277	6.96036	-10.72226	12.76501	13.42111	0.79071	1.26469	197.59516	179.15979	75.06368	0.31618	 	6.00252E28	 	3.52202E-29	 	-5723.51375	25.86967	 
155.0	1.0	0.0	8.21442	6.95896	-10.74015	12.73937	13.34153	0.78624	1.27187	197.86851	179.27269	75.17543	0.31605	 	1.45288E29	 	1.43831E-29	 	-5852.61154	25.81956	 
150.0	1.0	0.0	8.21606	6.95757	-10.75798	12.71373	13.2618	0.78173	1.27921	198.14123	179.3849	75.28695	0.31591	 	3.59086E29	 	5.75152E-30	 	-5981.45746	25.76918	 
145.0	1.0	0.0	8.21769	6.95619	-10.77574	12.68808	13.1819	0.77718	1.28671	198.41332	179.4964	75.39826	0.31577	 	9.06912E29	 	2.25037E-30	 	-6110.0501	25.71853	 
140.0	1.0	0.0	8.21932	6.95481	-10.79343	12.66242	13.10184	0.77258	1.29437	198.68478	179.6072	75.50935	0.31563	 	2.34245E30	 	8.60843E-31	 	-6238.38797	25.66757	 
135.0	1.0	0.0	8.22095	6.95343	-10.81105	12.63676	13.02161	0.76793	1.3022	198.95561	179.7173	75.62022	0.31549	 	6.192599999999999E30	 	3.21687E-31	 	-6366.46941	25.61629	 
130.0	1.0	0.0	8.22256	6.95206	-10.82861	12.6111	12.9412	0.76323	1.31021	199.22581	179.8267	75.73088	0.31535	 	1.67706E31	 	1.17329E-31	 	-6494.29275	25.56467	 
125.0	1.0	0.0	8.22418	6.9507	-10.84609	12.58542	12.86061	0.75849	1.3184	199.49538	179.93541	75.84131	0.31522	 	4.65683E31	 	4.17295E-32	 	-6621.85614	25.51268	 
120.0	1.0	0.0	8.22578	6.94934	-10.86351	12.55975	12.77982	0.7537	1.32678	199.76432	180.04343	75.95153	0.31508	 	1.32713E32	 	1.44588E-32	 	-6749.15762	25.4603	 
115.0	1.0	0.0	8.22739	6.94799	-10.88086	12.53406	12.69883	0.74886	1.33536	200.03263	180.15075	76.06153	0.31494	 	3.8855799999999995E32	 	4.87563E-33	 	-6876.19512	25.4075	 
110.0	1.0	0.0	8.22898	6.94664	-10.89814	12.50838	12.61764	0.74397	1.34414	200.30031	180.25739	76.17131	0.3148	 	1.16997E33	 	1.59839E-33	 	-7002.96641	25.35426	 
105.0	1.0	0.0	8.23057	6.9453	-10.91535	12.48268	12.53623	0.73903	1.35312	200.56736	180.36333	76.28087	0.31466	 	3.62703E33	 	5.08861E-34	 	-7129.46911	25.30054	 
100.0	1.0	0.0	8.23216	6.94397	-10.93249	12.45698	12.4546	0.73404	1.36232	200.83379	180.46859	76.39021	0.31453	 	1.1590400000000002E34	 	1.57135E-34	 	-7255.70073	25.24632	 
95.0	1.0	0.0	8.23373	6.94263	-10.94957	12.43128	12.37274	0.729	1.37175	201.09958	180.57317	76.49934	0.31439	 	3.8225100000000004E34	 	4.70071E-35	 	-7381.65857	25.19157	 
90.0	1.0	0.0	8.23531	6.94131	-10.96658	12.40557	12.29063	0.7239	1.38141	201.36474	180.67706	76.60824	0.31425	 	1.30278E35	 	1.36051E-35	 	-7507.33974	25.13623	 
85.0	1.0	0.0	8.23687	6.93999	-10.98352	12.37985	12.20827	0.71875	1.39131	201.62928	180.78026	76.71693	0.31411	 	4.59474E35	 	3.80444E-36	 	-7632.74119	25.08029	 
80.0	1.0	0.0	8.23844	6.93867	-11.00039	12.35413	12.12565	0.71354	1.40146	201.89318	180.88279	76.8254	0.31397	 	1.6793899999999998E36	 	1.02635E-36	 	-7757.85966	25.02369	 
75.0	1.0	0.0	8.23999	6.93736	-11.01719	12.3284	12.04275	0.70828	1.41187	202.15646	180.98464	76.93365	0.31384	 	6.371039999999999E36	 	2.66712E-37	 	-7882.69166	24.9664	 
70.0	1.0	0.0	8.24154	6.93606	-11.03392	12.30267	11.95957	0.70297	1.42254	202.41911	181.08581	77.04168	0.3137	 	2.51272E37	 	6.66541E-38	 	-8007.23349	24.90836	 
65.0	1.0	0.0	8.24308	6.93476	-11.05059	12.27693	11.87608	0.69759	1.4335	202.68112	181.1863	77.14949	0.31356	 	1.03205E38	 	1.59917E-38	 	-8131.48115	24.84953	 
60.0	1.0	0.0	8.24462	6.93346	-11.06718	12.25119	11.79228	0.69216	1.44475	202.94251	181.28612	77.25708	0.31342	 	4.4225699999999994E38	 	3.67665E-39	 	-8255.43042	24.78985	 
55.0	1.0	0.0	8.24616	6.93218	-11.08371	12.22544	11.70816	0.68667	1.4563	203.20327	181.38527	77.36445	0.31329	 	1.9811E39	 	8.08449E-40	 	-8379.07675	24.72927	 
50.0	1.0	0.0	8.24768	6.93089	-11.10017	12.19969	11.62369	0.68112	1.46816	203.4634	181.48375	77.47161	0.31315	 	9.295910000000001E39	 	1.69668E-40	 	-8502.41529	24.66771	 
45.0	1.0	0.0	8.2492	6.92961	-11.11656	12.17393	11.53886	0.67552	1.48035	203.7229	181.58156	77.57854	0.31301	 	4.5791E40	 	3.39109E-41	 	-8625.44086	24.60511	 
40.0	1.0	0.0	8.25072	6.92834	-11.13288	12.14816	11.45365	0.66985	1.49288	203.98177	181.6787	77.68526	0.31287	 	2.37346E41	 	6.43959E-42	 	-8748.1479	24.54141	 
35.0	1.0	0.0	8.25223	6.92708	-11.14914	12.12239	11.36805	0.66411	1.50577	204.24002	181.77517	77.79175	0.31274	 	1.2977E42	 	1.15898E-42	 	-8870.53046	24.47651	 
30.0	1.0	0.0	8.25373	6.92581	-11.16532	12.09662	11.28204	0.65832	1.51902	204.49763	181.87098	77.89803	0.3126	 	7.504149999999999E42	 	1.97171E-43	 	-8992.58216	24.41034	 
25.0	1.0	0.0	8.25523	6.92456	-11.18144	 	11.19559	0.65246	1.53266	204.75461	181.96612	78.00408	0.31246	 	4.60249E43	 	3.16176E-44	 	-9114.29614	 	 
