T (C)	Fraction solid (wt)-TOTAL	Fraction liquid (wt)-LIQUID	Density (g/(cm)^3)-TOTAL	Molar volume (cm^3)-TOTAL	Volume change (%)-  	Average expansion coeff. (10e-6 1/K)-  	Thermal conductivity (W/(m*K))-TOTAL	Electrical resistivity (10e-6 Ohm*m)-TOTAL	Electrical conductivity (10e6 1/(Ohm*m))-TOTAL	Young's modulus (GPa)-TOTAL	Bulk modulus (GPa)-TOTAL	Shear modulus(GPa)-TOTAL	Poisson's ratio-TOTAL	Liquid viscosity (mPa s)-  	Total viscosity (mPa s)-  	Liquid diffusivity (10e-9 (m^2)/s)-  	Total diffusivity (10e-9 (m^2)/s)-  	Surface Tension (mN/m)-  	Enthalpy (J/mole)-TOTAL	Specific heat (J/(mole K))-TOTAL	Latent heat (J/mole)-TOTAL
1400.0	0.0	1.0	7.19988	7.74257	0.0	30.22854	29.89548	1.37118	0.7293	0.0	124.22813	0.0	0.5	6.89261	6.89261	1.18478	1.18478	1756.94738	51238.419	 	0.0
1395.0	0.0	1.0	7.20385	7.73829	-0.0551957	30.18782	29.82537	1.3703	0.72977	0.0	124.38199	0.0	0.5	6.96635	6.96635	1.16874	1.16874	1759.16295	51030.575	41.5688	0.0
1390.0	0.0	1.0	7.20782	7.73403	-0.11023	30.14724	29.75526	1.36941	0.73024	0.0	124.53585	0.0	0.5	7.04134	7.04134	1.15282	1.15282	1761.38777	50823.231	41.4688	0.0
1385.0	0.0	1.0	7.21179	7.72978	-0.16511	30.1068	29.68516	1.36852	0.73072	0.0	124.68971	0.0	0.5	7.11759	7.11759	1.13704	1.13704	1763.62162	50616.383	41.3696	0.0
1380.0	0.0	1.0	7.21574	7.72555	-0.21983	30.06649	29.61505	1.36762	0.7312	0.0	124.84357	0.0	0.5	7.19514	7.19514	1.1214	1.1214	1765.86425	50410.028	41.271	0.0
1375.0	0.0	1.0	7.21969	7.72132	-0.27439	30.02633	29.54495	1.36672	0.73168	0.0	124.99743	0.0	0.5	7.27401	7.27401	1.10588	1.10588	1768.11537	50204.163	41.173	0.0
1370.0	0.0	1.0	7.22363	7.71711	-0.3288	29.98632	29.47484	1.36581	0.73216	0.0	125.15129	0.0	0.5	7.35424	7.35424	1.0905	1.0905	1770.37472	49998.787	41.0752	0.0
1365.0	0.0	1.0	7.22756	7.71291	-0.38304	29.94644	29.40474	1.36491	0.73265	0.0	125.30514	0.0	0.5	7.43584	7.43584	1.07525	1.07525	1772.64202	49793.896	40.9782	0.0
1360.0	0.0	1.0	7.23149	7.70872	-0.43713	29.90672	29.33463	1.36399	0.73314	0.0	125.459	0.0	0.5	7.51887	7.51887	1.06013	1.06013	1774.91696	49589.488	40.8816	0.0
1355.0	0.0	1.0	7.23541	7.70455	-0.49105	29.86714	29.26452	1.36307	0.73364	0.0	125.61286	0.0	0.5	7.60333	7.60333	1.04515	1.04515	1777.19926	49385.56	40.7856	0.0
1350.0	0.0	1.0	7.23932	7.70038	-0.54482	29.82771	29.19442	1.36215	0.73413	0.0	125.76672	0.0	0.5	7.68927	7.68927	1.03029	1.03029	1779.48862	49182.109	40.6902	0.0
1345.0	0.0	1.0	7.24322	7.69623	-0.59843	29.78844	29.12431	1.36122	0.73463	0.0	125.92058	0.0	0.5	7.77673	7.77673	1.01557	1.01557	1781.78473	48979.133	40.5952	0.0
1341.26	0.0	1.0	7.24614	7.69314	-0.63838	29.75919	29.07194	1.36053	0.73501	0.0	126.03553	0.0	0.5	7.84308	7.84308	1.00465	1.00465	1783.5044	48827.806	40.50986	0.0
1340.0	0.03358	0.96642	7.25466	7.68416	-0.75441	29.45701	29.15418	1.35563	0.73767	1.08617E-4	125.64869	3.63187E-5	0.49534	7.86132	8.28749	1.00153	0.95003	1783.3137	48274.251	437.78669	502.376
1335.0	0.15433	0.84567	7.28578	7.65134	-1.17831	28.35633	29.44623	1.33802	0.74737	0.0494658	124.28102	0.0167291	0.47844	7.93459	42.02837	0.98921	0.18675	1782.60652	46274.58	399.9342	2300.014
1330.0	0.2539	0.7461	7.31215	7.62375	-1.53463	27.44133	29.67877	1.32341	0.75562	0.36898	123.21633	0.12599	0.46436	8.00954	263.366	0.97691	0.0297099	1781.96968	44600.083	334.8994	3772.945
1325.0	0.33702	0.66298	7.33478	7.6002	-1.83881	26.66967	29.86459	1.31107	0.76273	1.16372	122.39077	0.40059	0.45249	8.08621	846.96278	0.96463	0.00920958	1781.401	43178.357	284.3452	4993.57
1320.0	0.40717	0.59283	7.35444	7.57985	-2.10165	26.01174	30.01315	1.3005	0.76893	2.51456	121.75666	0.87166	0.44239	8.16461	1909.24288	0.95238	0.0040727	1780.8976	41955.863	244.4988	6015.427
1315.0	0.46697	0.53303	7.37171	7.5621	-2.33087	25.4464	30.13115	1.29134	0.77439	4.40567	121.27781	1.53646	0.43371	8.24482	3512.37021	0.94015	0.00220688	1780.45624	40892.378	212.697	6878.733
1310.0	0.51838	0.48162	7.387	7.54643	-2.53319	24.95516	30.22382	1.28333	0.77922	6.76817	120.92531	2.37281	0.42619	8.32682	5682.96063	0.92796	0.00135967	1780.07418	39957.253	187.025	7614.136
1305.0	0.56293	0.43707	7.40069	7.53244	-2.71388	24.52342	30.29518	1.27627	0.78354	9.51314	120.67625	3.35057	0.41963	8.41069	8429.29744	0.91581	9.13784E-4	1779.74896	39126.825	166.0856	8245.298
1300.0	0.60181	0.39819	7.41303	7.5199	-2.87592	24.14314	30.34863	1.26998	0.78741	12.54894	120.5142	4.43782	0.41386	8.49641	11751.24444	0.90369	6.53391E-4	1779.47709	38382.606	148.8438	8790.704
1295.0	0.63595	0.36405	7.42425	7.50852	-3.0229	23.80429	30.38673	1.26436	0.79092	15.79355	120.4243	5.60547	0.40876	8.58404	15650.32452	0.89163	4.89047E-4	1779.25649	37709.996	134.522	9264.951
1290.0	0.66612	0.33388	7.4345	7.49811	-3.15733	23.5	30.41169	1.25929	0.7941	19.17436	120.3949	6.8274	0.40422	8.67356	20127.15251	0.87961	3.79057E-4	1779.08503	37097.346	122.53	9679.688
1287.14	0.68168	0.31832	7.43994	7.49264	-3.22799	23.34338	30.42033	1.25663	0.79578	21.12697	120.40491	7.53527	0.40187	8.72563	22931.27478	0.87276	3.32096E-4	1779.00644	36771.998	 	9891.994
1285.0	0.70105	0.29895	7.44624	7.48625	-3.31044	23.13768	30.4491	1.25372	0.79763	23.76506	120.40177	8.49418	0.3989	8.78644	26416.58963	0.86553	2.87885E-4	1779.30006	36408.203	137.8286	10171.363
1280.0	0.74017	0.25983	7.4593	7.47301	-3.48152	22.71882	30.49828	1.24768	0.80149	29.8807	120.4397	10.72625	0.39288	8.9281	35168.21946	0.84906	2.15551E-4	1779.9482	35653.31	150.9786	10729.23
1275.0	0.77156	0.22844	7.47029	7.46186	-3.62554	22.37775	30.52356	1.24264	0.80474	35.64617	120.54181	12.84083	0.388	9.06976	44497.60482	0.83311	1.6981E-4	1780.55986	35015.47	127.568	11170.487
1270.0	0.79728	0.20272	7.47976	7.45226	-3.74947	22.09444	30.53096	1.23832	0.80754	41.0142	120.69329	14.81754	0.38397	9.21192	54378.41054	0.81761	1.38506E-4	1781.14536	34462.847	110.5246	11526.964
1265.0	0.81872	0.18128	7.48808	7.44381	-3.85857	21.85368	30.52462	1.23457	0.81	45.98641	120.88292	16.65467	0.38059	9.355	64833.53767	0.80249	1.15794E-4	1781.71327	33974.015	97.7664	11820.088
1260.0	0.83686	0.16314	7.49552	7.43626	-3.95616	21.6459	30.50742	1.23125	0.81218	50.58168	121.10288	18.35739	0.37769	9.49944	75906.32308	0.78772	9.8581E-5	1782.26922	33534.079	87.9872	12064.75
1255.0	0.8524	0.1476	7.50225	7.42942	-4.04446	21.46476	30.48167	1.22827	0.81415	54.83358	121.34759	19.93674	0.37519	9.64555	87667.81024	0.77326	8.50771E-5	1782.81633	33132.397	80.3364	12271.589
1250.0	0.86587	0.13413	7.50844	7.42313	-4.12573	21.30365	30.44893	1.22557	0.81595	58.77223	121.61187	21.40289	0.373	9.79356	100188.7945	0.75908	7.42011E-5	1783.35921	32761.184	74.2426	12448.391
1245.0	0.87765	0.12235	7.51416	7.4173	-4.20099	21.15969	30.41045	1.22309	0.8176	62.42955	121.89261	22.76689	0.37106	9.94375	113557.0991	0.74516	6.5251E-5	1783.89889	32414.621	69.3126	12600.969
1240.0	0.88804	0.11196	7.51952	7.41185	-4.27136	21.02965	30.3672	1.2208	0.81914	65.83326	122.18699	24.03845	0.36933	10.09638	127865.2054	0.73148	5.77586E-5	1784.4373	32088.277	65.2688	12733.755
1235.0	0.89727	0.10273	7.52456	7.40672	-4.33766	20.91113	30.31993	1.21866	0.82057	69.01399	122.49275	25.22851	0.36778	10.25168	143224.1472	0.71802	5.13943E-5	1784.97559	31778.728	61.9098	12850.172
1230.0	0.90552	0.0944771	7.52933	7.40185	-4.4006	20.80206	30.26928	1.21665	0.82193	71.99275	122.80791	26.34453	0.36637	10.40975	159741.0636	0.70477	4.59275E-5	1785.51529	31483.283	59.089	12952.908
1225.0	0.91295	0.0870451	7.53388	7.39722	-4.46042	20.70185	30.21571	1.21475	0.82321	74.78856	123.13139	27.3933	0.36509	10.57087	177535.0654	0.69172	4.11868E-5	1786.05559	31199.805	56.6956	13044.098
1220.0	0.91967	0.0803255	7.53824	7.39277	-4.51787	20.60826	30.15963	1.21295	0.82444	77.424	123.46147	28.38306	0.36391	10.73514	196746.2925	0.67886	3.70411E-5	1786.59864	30926.572	54.6466	13125.461
1215.0	0.92578	0.0742198	7.54244	7.38849	-4.57305	20.52098	30.10137	1.21123	0.82561	79.91215	123.79753	29.31848	0.36283	10.90279	217514.5552	0.66619	3.33922E-5	1787.14381	30662.186	52.8772	13198.395
1210.0	0.93135	0.0686487	7.54648	7.38437	-4.62633	20.43901	30.0412	1.20958	0.82673	82.26796	124.1385	30.20501	0.36183	11.07394	239997.6285	0.65369	3.01623E-5	1787.69188	30405.497	51.3378	13264.046
1205.0	0.93646	0.0635445	7.5504	7.38037	-4.67794	20.36165	29.97935	1.20799	0.82782	84.50399	124.48361	31.04724	0.36089	11.2487	264367.1748	0.64136	2.72896E-5	1788.24341	30155.554	49.9886	13323.363
1200.0	0.94115	0.0588528	7.55421	7.3765	-4.72794	20.28877	29.91603	1.20645	0.82888	86.63056	124.83249	31.84891	0.36002	11.4273	290811.1668	0.6292	2.47242E-5	1788.79739	29911.562	48.7984	13377.14
1195.0	0.94547	0.0545277	7.55791	7.37273	-4.77668	20.21932	29.85137	1.20496	0.8299	88.65742	125.18437	32.61362	0.35921	11.6098	319533.4468	0.61721	2.24254E-5	1789.35596	29672.852	47.742	13426.043
1190.0	0.94947	0.0505272	7.5615	7.36905	-4.82425	20.15301	29.78545	1.20351	0.8309	90.59438	125.5399	33.34497	0.35844	11.79645	350759.0104	0.60537	2.03595E-5	1791.90515	29438.08532	46.95334	13470.638
1185.0	0.95318	0.0468188	7.56498	7.36589	-4.86498	20.10825	29.71693	1.20217	0.83183	92.43381	125.88289	34.04	0.35772	11.98721	385035.4183	0.5937	1.84837E-5	1794.46363	29206.08419	46.40023	13511.404
1180.0	0.95723	0.0427719	7.56845	7.36261	-4.90736	20.05772	29.64981	1.20076	0.83281	94.45076	126.23419	34.8027	0.35695	12.1874	423485.377	0.58195	1.67478E-5	1796.99283	28969.3355	47.34974	13557.371
1175.0	0.96137	0.038629	7.57192	7.35924	-4.95091	20.00294	29.58335	1.19931	0.83381	96.54866	126.59197	35.59663	0.35615	12.39523	466178.422	0.57022	1.51617E-5	1799.50488	28731.47341	47.57242	13604.901
1170.0	0.96515	0.0348518	7.57531	7.35588	-4.99424	19.94844	29.51588	1.1979	0.83479	98.5315	126.9534	36.34758	0.35541	12.60733	512600.6909	0.5587	1.3741E-5	1802.02663	28498.88204	46.51827	13647.608
1165.0	0.9686	0.0313971	7.57864	7.35255	-5.0373	19.89431	29.44753	1.19652	0.83575	100.41059	127.31801	37.05974	0.35471	12.82383	563133.3967	0.54736	1.24646E-5	1804.55702	28270.94669	45.58707	13686.101
1160.0	0.97177	0.0282267	7.58192	7.34923	-5.08013	19.84051	29.37841	1.19517	0.8367	102.1954	127.68543	37.73661	0.35406	13.04494	618192.8259	0.53621	1.1315E-5	1807.09503	28047.15063	44.75921	13720.898
1155.0	0.97469	0.0253099	7.58514	7.34593	-5.12282	19.78667	29.3086	1.19384	0.83764	103.89511	128.05508	38.38161	0.35345	13.2707	678239.5705	0.52525	1.02773E-5	1809.64248	27827.05315	44.0195	13752.433
1150.0	0.97738	0.0226192	7.58831	7.34264	-5.16535	19.73286	29.23818	1.19252	0.83856	105.51764	128.42668	38.9977	0.35287	13.5013	743785.1396	0.51447	9.33877E-6	1812.19799	27610.2785	43.35493	13781.081
1145.0	0.97987	0.0201322	7.59143	7.33935	-5.20773	19.67908	29.16722	1.19122	0.83947	107.06926	128.79989	39.5872	0.35232	13.73675	815387.576	0.50388	8.48877E-6	1814.76164	27396.50699	42.7543	13807.159
1140.0	0.98217	0.0178287	7.59452	7.33608	-5.25001	19.62519	29.09576	1.18994	0.84038	108.55632	129.1744	40.15249	0.3518	13.97727	893668.9286	0.49346	7.71789E-6	1817.33355	27185.45788	42.20982	13830.945
1135.0	0.98431	0.0156905	7.59756	7.33282	-5.29215	19.57125	29.02385	1.18867	0.84128	109.98364	129.54997	40.69535	0.3513	14.22296	979312.4829	0.48322	7.01802E-6	1819.9129	26976.88946	41.71368	13852.677
1130.0	0.9863	0.0137029	7.60057	7.32956	-5.33423	19.51707	28.95155	1.1874	0.84217	111.35682	129.92631	41.2179	0.35083	14.47382	1073083.918	0.47316	6.382E-6	1822.50109	26770.59302	41.25929	13872.562
1125.0	0.98815	0.011853	7.60355	7.32631	-5.37617	19.46282	28.87886	1.18615	0.84306	112.67891	130.30329	41.72125	0.35038	14.7301	1175816.894	0.46327	5.80364E-6	1825.09635	26566.38183	40.84224	13890.784
1120.0	0.98987	0.0101279	7.6065	7.32307	-5.41801	19.40845	28.80582	1.18491	0.84395	113.95411	130.68063	42.20699	0.34994	14.99181	1288448.321	0.45356	5.27737E-6	1827.69915	26364.0932	40.45773	13907.503
1115.0	0.99148	0.00851815	7.60941	7.31984	-5.45973	19.35399	28.73246	1.18367	0.84483	115.18575	131.05817	42.67635	0.34953	15.25914	1412014.223	0.44401	4.79826E-6	1830.30912	26163.5834	40.10196	13922.859
1110.0	0.99299	0.0070129	7.6123	7.31662	-5.50136	19.29934	28.65881	1.18243	0.84571	116.37748	131.43578	43.13072	0.34913	15.53219	1547672.786	0.43463	4.36191E-6	1832.9265	25964.72473	39.77173	13936.978
1105.0	0.99439	0.0056058	7.61517	7.31341	-5.54287	19.24457	28.58487	1.18121	0.84659	117.53157	131.8133	43.57093	0.34874	15.81098	1696698.973	0.42543	3.96441E-6	1835.55149	25767.40251	39.46444	13949.972
1100.0	0.99576	0.00423838	7.618	7.31017	-5.58466	19.18836	28.51137	1.17996	0.84749	118.67806	132.19233	44.00842	0.34836	16.08829	1860895.492	0.41658	3.60149E-6	1838.17633	25569.82501	39.5155	13963.629
1095.0	0.99718	0.00282062	7.62081	7.30685	-5.62753	19.12782	28.4389	1.17866	0.84842	119.86566	132.57471	44.46175	0.34796	16.35662	2042644.887	0.40825	3.2691E-6	1840.79632	25370.11555	39.94189	13979.822
1090.0	0.99855	0.00145341	7.62362	7.30352	-5.6705	19.06637	28.36519	1.1774	0.84933	120.98806	132.95837	44.89087	0.34758	16.6335	2243042.835	0.39999	2.96615E-6	1843.41952	25170.44343	39.93442	13996.383
1085.0	1.0	0.0	7.62651	7.30014	-5.7142	19.00173	28.28793	1.17629	0.85013	122.26532	133.35004	45.37799	0.34719	 	2465433.616	 	2.68869E-6	 	24964.49396	41.18989	14019.623
1080.0	1.0	0.0	7.62897	7.29779	-5.74462	18.98369	28.20786	1.17528	0.85086	122.72654	133.71228	45.55461	0.34703	 	2696305.782	 	2.44942E-6	 	24745.32206	43.83438	 
1075.0	1.0	0.0	7.63143	7.29544	-5.77498	18.9657	28.12779	1.17427	0.85159	123.18696	134.07295	45.73097	0.34687	 	2950731.488	 	2.22995E-6	 	24566.9759	35.66923	 
1070.0	1.0	0.0	7.63388	7.29309	-5.80528	18.94775	28.04771	1.17326	0.85233	123.64658	134.43207	45.90708	0.34671	 	3231306.868	 	2.02877E-6	 	24388.95972	35.60324	 
1065.0	1.0	0.0	7.63633	7.29075	-5.83551	18.92986	27.96763	1.17224	0.85307	124.1054	134.78964	46.08292	0.34654	 	3540935.277	 	1.84448E-6	 	24211.27232	35.53748	 
1060.0	1.0	0.0	7.63878	7.28841	-5.86568	18.91201	27.88754	1.17121	0.85382	124.56343	135.14568	46.25852	0.34638	 	3882865.794	 	1.67577E-6	 	24033.91249	35.47197	 
1055.0	1.0	0.0	7.64123	7.28608	-5.8958	18.89422	27.80745	1.17018	0.85457	125.02067	135.50018	46.43385	0.34622	 	4260737.562	 	1.52142E-6	 	23856.87905	35.40669	 
1050.0	1.0	0.0	7.64367	7.28375	-5.92585	18.87647	27.72735	1.16914	0.85533	125.47711	135.85315	46.60893	0.34606	 	4678629.333	 	1.38031E-6	 	23680.1708	35.34165	 
1045.0	1.0	0.0	7.6461	7.28143	-5.95584	18.85878	27.64724	1.1681	0.85609	125.93276	136.2046	46.78376	0.3459	 	5141116.463	 	1.25139E-6	 	23503.78653	35.27685	 
1040.0	1.0	0.0	7.64854	7.27912	-5.98576	18.84114	27.56713	1.16705	0.85686	126.38762	136.55453	46.95833	0.34574	 	5653335.181	 	1.1337E-6	 	23327.72508	35.21229	 
1035.0	1.0	0.0	7.65097	7.2768	-6.01563	18.82356	27.48702	1.16599	0.85764	126.84169	136.90296	47.13265	0.34558	 	6221056.719	 	1.02631E-6	 	23151.98536	35.14794	 
1030.0	1.0	0.0	7.6534	7.2745	-6.04543	18.80602	27.40689	1.16493	0.85842	127.29497	137.24988	47.30671	0.34542	 	6850769.285	 	9.28414E-7	 	22976.56586	35.0839	 
1025.0	1.0	0.0	7.65582	7.27219	-6.07518	18.78855	27.32677	1.16387	0.85921	127.74747	137.5953	47.48052	0.34526	 	7549774.923	 	8.39223E-7	 	22801.46588	35.02	 
1020.0	1.0	0.0	7.65824	7.26989	-6.10486	18.77113	27.24663	1.16279	0.86	128.19918	137.93923	47.65408	0.3451	 	8326298.032	 	7.58025E-7	 	22626.68385	34.95641	 
1015.0	1.0	0.0	7.66066	7.2676	-6.13448	18.75377	27.16649	1.16171	0.8608	128.65011	138.28168	47.82738	0.34494	 	9189607.54	 	6.84158E-7	 	22452.21879	34.89301	 
1010.0	1.0	0.0	7.66307	7.26531	-6.16404	18.73647	27.08635	1.16063	0.8616	129.10026	138.62265	48.00043	0.34478	 	1.01501614E7	 	6.17009E-7	 	22278.06956	34.82985	 
1005.0	1.0	0.0	7.66548	7.26303	-6.19353	18.71923	27.0062	1.15954	0.86241	129.54962	138.96214	48.17323	0.34462	 	1.121976838E7	 	5.56013E-7	 	22104.23489	34.76693	 
1000.37	1.0	0.0	7.66771	7.26092	-6.22078	18.7033	26.93202	1.15852	0.86317	129.96476	139.27498	48.33292	0.34447	 	1.231825797E7	 	5.04597E-7	 	21943.65399	 	 
1000.0	1.0	0.0	7.66789	7.26075	-6.22297	18.70203	26.9261	1.15844	0.86323	129.99851	139.30041	48.3459	0.34446	 	1.241183743E7	 	5.00645E-7	 	21930.61628	34.72372	 
995.0	1.0	0.0	7.67029	7.25848	-6.25231	18.68503	26.84662	1.1573	0.86408	130.45028	139.64023	48.51971	0.3443	 	1.374242663E7	 	4.50395E-7	 	21756.13568	34.89612	 
990.72	1.0	0.0	7.67234	7.25653	-6.27742	18.67044	26.77847	1.15633	0.86481	130.83644	139.92993	48.66832	0.34416	 	1.500489316E7	 	4.11107E-7	 	21606.96701	 	 
990.0	1.0	0.0	7.67292	7.25598	-6.28454	18.65665	26.75824	1.15655	0.86464	130.95259	140.0103	48.71329	0.34412	 	1.525370272E7	 	4.04172E-7	 	21566.76806	37.87352	 
985.0	1.0	0.0	7.67697	7.25216	-6.3339	18.56105	26.62	1.15795	0.86359	131.75396	140.56463	49.02363	0.34378	 	1.711654161E7	 	3.58759E-7	 	21287.99704	55.75421	 
980.0	1.0	0.0	7.68097	7.24838	-6.38269	18.46668	26.48547	1.15921	0.86266	132.53838	141.10692	49.32747	0.34345	 	1.921808682E7	 	3.18258E-7	 	21012.75265	55.04888	 
975.0	1.0	0.0	7.68493	7.24465	-6.43095	18.37342	26.35437	1.16033	0.86183	133.30679	141.6378	49.62518	0.34314	 	2.159060582E7	 	2.82156E-7	 	20740.86415	54.3777	 
970.0	1.0	0.0	7.68885	7.24095	-6.47871	18.28117	26.22658	1.16131	0.8611	134.06013	142.15792	49.91712	0.34283	 	2.427101294E7	 	2.4999E-7	 	20472.14687	53.74345	 
965.0	1.0	0.0	7.69275	7.23729	-6.52602	18.18973	26.10181	1.16217	0.86046	134.79943	142.66793	50.20368	0.34253	 	2.730162921E7	 	2.21346E-7	 	20206.37708	53.15396	 
960.0	1.0	0.0	7.69661	7.23365	-6.57296	18.09878	25.97995	1.1629	0.85992	135.52594	143.1686	50.48535	0.34223	 	3.073111399E7	 	1.9585E-7	 	19943.25566	52.62428	 
955.0	1.0	0.0	7.70046	7.23003	-6.61969	18.00773	25.86114	1.16351	0.85947	136.24142	143.66093	50.76282	0.34194	 	3.461572585E7	 	1.73167E-7	 	19682.30915	52.1893	 
950.0	1.0	0.0	7.70432	7.22641	-6.66649	17.91539	25.74528	1.16399	0.85912	136.94881	144.14653	51.03725	0.34166	 	3.90212578E7	 	1.52991E-7	 	19422.66057	51.92972	 
945.0	1.0	0.0	7.70825	7.22273	-6.71403	17.81902	25.63264	1.16432	0.85887	137.65422	144.62863	51.31104	0.34137	 	4.402676189E7	 	1.35043E-7	 	19162.38672	52.05477	 
940.35	1.0	0.0	7.71207	7.21915	-6.76029	17.72015	25.53141	1.16448	0.85876	138.32052	145.08013	51.56985	0.3411	 	4.931068732E7	 	1.20111E-7	 	18915.86118	 	 
940.0	1.0	0.0	7.71232	7.21891	-6.76333	17.7144	25.52372	1.16449	0.85874	138.36667	145.11194	51.58776	0.34108	 	4.972819456E7	 	1.19069E-7	 	18898.61823	52.7537	 
935.0	1.0	0.0	7.71593	7.21554	-6.80686	17.63238	25.41426	1.16469	0.8586	139.02479	145.56543	51.84312	0.34082	 	5.616399493E7	 	1.0499E-7	 	18651.9022	49.3432	 
930.0	1.0	0.0	7.71949	7.21221	-6.8499	17.55151	25.30692	1.16479	0.85853	139.67189	146.01102	52.09425	0.34057	 	6.347888455E7	 	9.25076E-8	 	18407.83277	48.81389	 
925.0	1.0	0.0	7.72302	7.20891	-6.89246	17.47176	25.2016	1.16479	0.85852	140.30842	146.44897	52.34132	0.34032	 	7.179987593E7	 	8.14468E-8	 	18166.34182	48.29819	 
920.0	1.0	0.0	7.72651	7.20566	-6.93454	17.39309	25.0982	1.16471	0.85858	140.93478	146.87957	52.58451	0.34008	 	8.127340802E7	 	7.16528E-8	 	17927.363	47.79576	 
915.0	1.0	0.0	7.72997	7.20243	-6.97616	17.31548	24.99662	1.16454	0.8587	141.5514	147.30308	52.82395	0.33984	 	9.206850327E7	 	6.29864E-8	 	17690.83134	47.30633	 
910.0	1.0	0.0	7.73339	7.19925	-7.01733	17.2389	24.89676	1.1643	0.85889	142.15866	147.71973	53.05981	0.33961	 	1.043804373E8	 	5.53232E-8	 	17456.68339	46.82959	 
905.0	1.0	0.0	7.73678	7.19609	-7.05807	17.16332	24.79854	1.16397	0.85913	142.75693	148.12979	53.29223	0.33938	 	1.18435061E8	 	4.8552E-8	 	17224.85707	46.36526	 
900.0	1.0	0.0	7.74014	7.19297	-7.09837	17.0887	24.70188	1.16356	0.85943	143.34659	148.53346	53.52135	0.33915	 	1.3449387E8	 	4.25733E-8	 	16995.2917	45.91307	 
895.0	1.0	0.0	7.74346	7.18988	-7.13826	17.01503	24.60668	1.16309	0.85978	143.92797	148.93099	53.7473	0.33893	 	1.528599545E8	 	3.72985E-8	 	16767.92808	45.47272	 
890.0	1.0	0.0	7.74676	7.18683	-7.17774	16.94227	24.51289	1.16254	0.86019	144.50141	149.32258	53.97021	0.33871	 	1.738849897E8	 	3.26483E-8	 	16542.7082	45.04397	 
885.0	1.0	0.0	7.75002	7.1838	-7.21683	16.87039	24.42042	1.16192	0.86064	145.06724	149.70845	54.19022	0.3385	 	1.979774979E8	 	2.85519E-8	 	16319.57546	44.62655	 
880.0	1.0	0.0	7.75325	7.1808	-7.25552	16.79938	24.32921	1.16125	0.86114	145.62576	150.08879	54.40743	0.33829	 	2.256125478E8	 	2.49465E-8	 	16098.47455	44.22018	 
875.0	1.0	0.0	7.75646	7.17784	-7.29384	16.7292	24.23919	1.1605	0.86169	146.17727	150.46379	54.62196	0.33808	 	2.573432537E8	 	2.17757E-8	 	15879.35077	43.82476	 
870.0	1.0	0.0	7.75963	7.1749	-7.33179	16.65983	24.1503	1.1597	0.86229	146.72206	150.83363	54.83393	0.33788	 	2.938143188E8	 	1.89897E-8	 	15662.15216	43.43972	 
865.0	1.0	0.0	7.76278	7.17199	-7.36937	16.59123	24.06248	1.15884	0.86293	147.26039	151.19851	55.04344	0.33767	 	3.357780925E8	 	1.65437E-8	 	15446.82724	43.06498	 
860.0	1.0	0.0	7.7659	7.16911	-7.40661	16.5234	23.97567	1.15793	0.86361	147.79253	151.55858	55.25058	0.33747	 	3.841135676E8	 	1.43984E-8	 	15233.32589	42.70027	 
855.0	1.0	0.0	7.769	7.16625	-7.44351	16.45629	23.88982	1.15696	0.86433	148.31872	151.91401	55.45547	0.33728	 	4.398490056E8	 	1.25184E-8	 	15021.59912	42.34536	 
850.0	1.0	0.0	7.77207	7.16342	-7.48006	16.38989	23.80489	1.15595	0.86509	148.83921	152.26496	55.65818	0.33708	 	5.041886702E8	 	1.08725E-8	 	14811.59946	41.99993	 
845.0	1.0	0.0	7.77436	7.16131	-7.50726	16.36548	23.73166	1.15435	0.86629	149.25237	152.55041	55.81879	0.33694	 	5.7519751E8	 	9.48789E-9	 	14650.8492	32.15005	 
840.0	1.0	0.0	7.77664	7.15921	-7.5344	16.34107	23.65843	1.15275	0.86749	149.66487	152.83469	55.9792	0.33679	 	6.569842893E8	 	8.26962E-9	 	14487.08515	32.75281	 
835.0	1.0	0.0	7.77891	7.15712	-7.56147	16.31664	23.58519	1.15113	0.86871	150.07671	153.1178	56.13939	0.33664	 	7.513010601E8	 	7.19898E-9	 	14323.59004	32.69902	 
830.0	1.0	0.0	7.78119	7.15502	-7.58848	16.29221	23.51195	1.14951	0.86994	150.48789	153.39976	56.29937	0.3365	 	8.60203359E8	 	6.25922E-9	 	14160.36327	32.64535	 
825.0	1.0	0.0	7.78346	7.15294	-7.61542	16.26776	23.43871	1.14787	0.87118	150.89842	153.68056	56.45914	0.33635	 	9.861059865E8	 	5.43532E-9	 	13997.40423	32.59181	 
820.0	1.0	0.0	7.78572	7.15086	-7.6423	16.24331	23.36546	1.14623	0.87243	151.30829	153.96021	56.6187	0.3362	 	1.131849625E9	 	4.71387E-9	 	13834.71234	32.53838	 
815.0	1.0	0.0	7.78798	7.14878	-7.66912	16.21884	23.29221	1.14457	0.87369	151.7175	154.2387	56.77805	0.33606	 	1.300780513E9	 	4.08293E-9	 	13672.28695	32.48508	 
810.0	1.0	0.0	7.79024	7.14671	-7.69588	16.19437	23.21895	1.14291	0.87496	152.12605	154.51605	56.93718	0.33591	 	1.496845882E9	 	3.53182E-9	 	13510.12746	32.4319	 
805.0	1.0	0.0	7.79249	7.14464	-7.72257	16.16989	23.14569	1.14124	0.87624	152.53395	154.79226	57.09611	0.33576	 	1.72470843E9	 	3.05106E-9	 	13348.23325	32.37884	 
800.0	1.0	0.0	7.79474	7.14258	-7.7492	16.1454	23.07243	1.13955	0.87754	152.94119	155.06733	57.25482	0.33562	 	1.989883835E9	 	2.6322E-9	 	13186.60368	32.32591	 
795.0	1.0	0.0	7.79699	7.14052	-7.77576	16.12089	22.99916	1.13785	0.87885	153.34777	155.34126	57.41332	0.33547	 	2.298906212E9	 	2.26776E-9	 	13025.2381	32.27311	 
790.0	1.0	0.0	7.79923	7.13847	-7.80227	16.09638	22.92588	1.13615	0.88017	153.7537	155.61406	57.5716	0.33533	 	2.659527464E9	 	1.95109E-9	 	12864.13589	32.22044	 
785.0	1.0	0.0	7.80147	7.13642	-7.82871	16.07186	22.8526	1.13443	0.8815	154.15897	155.88572	57.72968	0.33518	 	3.080957877E9	 	1.67629E-9	 	12703.29637	32.1679	 
780.0	1.0	0.0	7.8037	7.13438	-7.85508	16.04733	22.77932	1.1327	0.88284	154.56359	156.15627	57.88754	0.33503	 	3.574156914E9	 	1.43815E-9	 	12542.71888	32.1155	 
775.0	1.0	0.0	7.80593	7.13234	-7.88139	16.02279	22.70603	1.13096	0.8842	154.96755	156.42568	58.0452	0.33489	 	4.152185273E9	 	1.23206E-9	 	12382.40274	32.06323	 
770.0	1.0	0.0	7.80815	7.13031	-7.90764	15.99825	22.63273	1.12921	0.88557	155.37086	156.69398	58.20264	0.33474	 	4.830631771E9	 	1.05397E-9	 	12222.34727	32.01109	 
765.0	1.0	0.0	7.81038	7.12829	-7.93382	15.97369	22.55943	1.12745	0.88696	155.77351	156.96117	58.35987	0.33459	 	5.628131832E9	 	9.0029E-10	 	12062.55177	31.9591	 
760.0	1.0	0.0	7.81259	7.12626	-7.95994	15.94912	22.48613	1.12568	0.88835	156.1755	157.22723	58.51688	0.33445	 	6.566998252E9	 	7.67862E-10	 	11903.01555	31.90725	 
755.0	1.0	0.0	7.8148	7.12425	-7.986	15.92454	22.41282	1.1239	0.88976	156.57684	157.49219	58.67369	0.3343	 	7.673989865E9	 	6.53916E-10	 	11743.73787	31.85554	 
750.0	1.0	0.0	7.81701	7.12223	-8.01199	15.89996	22.33951	1.1221	0.89119	156.97753	157.75605	58.83028	0.33416	 	8.981249833E9	 	5.56018E-10	 	11584.718	31.80397	 
745.0	1.0	0.0	7.81922	7.12023	-8.03792	15.87536	22.26618	1.12029	0.89262	157.37756	158.01879	58.98666	0.33401	 	1.05275E10	 	4.72036E-10	 	11425.95519	31.75256	 
740.0	1.0	0.0	7.82142	7.11822	-8.06379	15.85076	22.19286	1.11848	0.89407	157.77694	158.28044	59.14283	0.33386	 	1.2359199999999998E10	 	4.00101E-10	 	11267.44868	31.7013	 
735.0	1.0	0.0	7.82361	7.11622	-8.08959	15.82614	22.11953	1.11665	0.89554	158.17566	158.54099	59.29879	0.33372	 	1.4532799999999998E10	 	3.38581E-10	 	11109.19769	31.6502	 
730.0	1.0	0.0	7.8258	7.11423	-8.11533	15.80152	22.04619	1.1148	0.89702	158.57373	158.80045	59.45454	0.33357	 	1.7116299999999998E10	 	2.86051E-10	 	10951.20143	31.59925	 
725.0	1.0	0.0	7.82799	7.11224	-8.141	15.77689	21.97285	1.11295	0.89851	158.97115	159.05882	59.61007	0.33343	 	2.01921E10	 	2.41269E-10	 	10793.45908	31.54847	 
720.0	1.0	0.0	7.83017	7.11026	-8.16661	15.75224	21.8995	1.11108	0.90002	159.36791	159.3161	59.7654	0.33328	 	2.3860299999999996E10	 	2.03154E-10	 	10635.96979	31.49786	 
715.0	1.0	0.0	7.83235	7.10828	-8.19216	15.72759	21.82614	1.10921	0.90155	159.76402	159.57229	59.92051	0.33313	 	2.8242499999999996E10	 	1.70768E-10	 	10478.73273	31.44741	 
710.0	1.0	0.0	7.83453	7.10631	-8.21764	15.70293	21.75278	1.10731	0.90309	160.15948	159.8274	60.07541	0.33299	 	3.3486999999999996E10	 	1.43295E-10	 	10321.747	31.39715	 
705.0	1.0	0.0	7.8367	7.10434	-8.24306	15.67826	21.67941	1.10541	0.90464	160.55429	160.08144	60.2301	0.33284	 	3.97746E10	 	1.20029E-10	 	10165.0117	31.34706	 
700.0	1.0	0.0	7.83886	7.10238	-8.26841	15.65358	21.60604	1.1035	0.90621	160.94844	160.3344	60.38457	0.3327	 	4.732629999999999E10	 	1.00361E-10	 	10008.5259	31.29716	 
695.0	1.0	0.0	7.84103	7.10042	-8.2937	15.62889	21.53266	1.10157	0.9078	161.34194	160.58628	60.53884	0.33255	 	5.641299999999999E10	 	8.37625E-11	 	9852.28865	31.24745	 
690.0	1.0	0.0	7.84318	7.09847	-8.31893	15.60419	21.45927	1.09963	0.9094	161.73478	160.8371	60.69289	0.3324	 	6.736719999999999E10	 	6.97802E-11	 	9696.29897	31.19794	 
685.0	1.0	0.0	7.84534	7.09652	-8.34409	15.57948	21.38587	1.09767	0.91102	162.12698	161.08685	60.84673	0.33226	 	8.05975E10	 	5.80228E-11	 	9540.55582	31.14863	 
680.0	1.0	0.0	7.84748	7.09458	-8.36918	15.55477	21.31247	1.0957	0.91265	162.51852	161.33554	61.00036	0.33211	 	9.660769999999998E10	 	4.81544E-11	 	9385.05815	31.09953	 
675.0	1.0	0.0	7.84963	7.09264	-8.39422	15.53004	21.23906	1.09372	0.91431	162.90942	161.58317	61.15377	0.33197	 	1.1602E11	 	3.98871E-11	 	9229.80488	31.05065	 
670.0	1.0	0.0	7.85177	7.09071	-8.41919	15.5053	21.16565	1.09173	0.91598	163.29966	161.82974	61.30698	0.33182	 	1.39603E11	 	3.29741E-11	 	9074.79487	31.002	 
665.0	1.0	0.0	7.8539	7.08878	-8.44409	15.48056	21.09223	1.08972	0.91766	163.68924	162.07526	61.45997	0.33167	 	1.68312E11	 	2.72047E-11	 	8920.02696	30.95358	 
660.0	1.0	0.0	7.85604	7.08685	-8.46893	15.4558	21.0188	1.0877	0.91937	164.07818	162.31972	61.61275	0.33153	 	2.03332E11	 	2.23992E-11	 	8765.50206	30.90498	 
655.0	1.0	0.0	7.85816	7.08494	-8.4937	15.43104	20.94536	1.08567	0.92109	164.46647	162.56314	61.76532	0.33138	 	2.46139E11	 	1.84045E-11	 	8611.23163	30.85409	 
650.0	1.0	0.0	7.86029	7.08302	-8.51841	15.40626	20.87191	1.08362	0.92283	164.8541	162.80551	61.91768	0.33124	 	2.98575E11	 	1.50906E-11	 	8457.23102	30.80012	 
645.0	1.0	0.0	7.8624	7.08111	-8.54306	15.38148	20.79846	1.08155	0.92459	165.24109	163.04685	62.06982	0.33109	 	3.62945E11	 	1.2347E-11	 	8303.49958	30.74629	 
640.0	1.0	0.0	7.86452	7.07921	-8.56764	15.35668	20.725	1.07948	0.92637	165.62742	163.28714	62.22176	0.33094	 	4.42136E11	 	1.00803E-11	 	8150.03666	30.69259	 
635.0	1.0	0.0	7.86663	7.07731	-8.59216	15.33188	20.65153	1.07739	0.92817	166.0131	163.52639	62.37348	0.3308	 	5.39778E11	 	8.21162E-12	 	7996.84158	30.63902	 
630.0	1.0	0.0	7.86873	7.07542	-8.61661	15.30707	20.57805	1.07528	0.92999	166.39814	163.76461	62.52499	0.33065	 	6.60442E11	 	6.6744E-12	 	7843.91373	30.58557	 
625.0	1.0	0.0	7.87083	7.07353	-8.641	15.28225	20.50456	1.07316	0.93183	166.78252	164.00181	62.67628	0.33051	 	8.09895E11	 	5.41261E-12	 	7691.25213	30.53232	 
620.0	1.0	0.0	7.87293	7.07165	-8.66532	15.25742	20.43107	1.07102	0.93369	167.16625	164.23797	62.82737	0.33036	 	9.9544E11	 	4.37921E-12	 	7538.85542	30.47934	 
615.0	1.0	0.0	7.87502	7.06977	-8.68958	15.23258	20.35757	1.06887	0.93556	167.54934	164.47311	62.97824	0.33022	 	1.22634E12	 	3.53478E-12	 	7386.72333	30.42642	 
610.0	1.0	0.0	7.87711	7.0679	-8.71377	15.20773	20.28405	1.06671	0.93746	167.93177	164.70723	63.1289	0.33007	 	1.51437E12	 	2.84636E-12	 	7234.85523	30.37362	 
605.0	1.0	0.0	7.87919	7.06603	-8.7379	15.18287	20.21053	1.06453	0.93938	168.31355	164.94033	63.27935	0.32992	 	1.87454E12	 	2.28644E-12	 	7083.25049	30.32095	 
600.0	1.0	0.0	7.88127	7.06417	-8.76196	15.158	20.137	1.06233	0.94133	168.69469	165.17241	63.42959	0.32978	 	2.32606E12	 	1.83212E-12	 	6931.90849	30.2684	 
595.0	1.0	0.0	7.88334	7.06231	-8.78596	15.13312	20.06346	1.06012	0.94329	169.07517	165.40348	63.57961	0.32963	 	2.89352E12	 	1.46439E-12	 	6780.82861	30.21598	 
590.0	1.0	0.0	7.88541	7.06045	-8.8099	15.10823	19.98991	1.05789	0.94528	169.45501	165.63353	63.72942	0.32949	 	3.60852E12	 	1.16746E-12	 	6630.01022	30.16368	 
585.0	1.0	0.0	7.88748	7.05861	-8.83377	15.08334	19.91635	1.05565	0.94728	169.8342	165.86259	63.87902	0.32934	 	4.51181E12	 	9.28323E-13	 	6479.45271	30.1115	 
580.0	1.0	0.0	7.88954	7.05676	-8.85757	15.05843	19.84278	1.05339	0.94932	170.21274	166.09063	64.02841	0.3292	 	5.65599E12	 	7.36212E-13	 	6329.15546	30.05945	 
575.0	1.0	0.0	7.89159	7.05493	-8.88131	15.03352	19.7692	1.05111	0.95137	170.59063	166.31767	64.17759	0.32905	 	7.10926E12	 	5.82284E-13	 	6179.11785	30.00752	 
570.0	1.0	0.0	7.89364	7.05309	-8.90498	15.00859	19.69561	1.04882	0.95345	170.96787	166.54372	64.32655	0.32891	 	8.96021E12	 	4.59276E-13	 	6029.33928	29.95571	 
565.0	1.0	0.0	7.89569	7.05126	-8.92859	14.98366	19.62201	1.04651	0.95555	171.34446	166.76877	64.4753	0.32876	 	1.13243E13	 	3.61242E-13	 	5879.81914	29.90403	 
560.0	1.0	0.0	7.89773	7.04944	-8.95213	14.95871	19.5484	1.04419	0.95768	171.7204	166.99282	64.62384	0.32861	 	1.43524E13	 	2.83326E-13	 	5730.55682	29.85246	 
555.0	1.0	0.0	7.89977	7.04762	-8.97561	14.93376	19.47478	1.04184	0.95984	172.0957	167.21588	64.77217	0.32847	 	1.82423E13	 	2.21573E-13	 	5581.55172	29.80102	 
550.0	1.0	0.0	7.9018	7.04581	-8.99902	14.9088	19.40114	1.03948	0.96202	172.47035	167.43796	64.92028	0.32832	 	2.32541E13	 	1.72769E-13	 	5432.80325	29.7497	 
545.0	1.0	0.0	7.90383	7.044	-9.02237	14.88383	19.3275	1.03711	0.96422	172.84435	167.65904	65.06818	0.32818	 	2.9731E13	 	1.3431E-13	 	5284.31081	29.69849	 
540.0	1.0	0.0	7.90585	7.0422	-9.04565	14.85884	19.25384	1.03471	0.96645	173.2177	167.87915	65.21587	0.32803	 	3.81269E13	 	1.04094E-13	 	5136.0738	29.6474	 
535.0	1.0	0.0	7.90787	7.0404	-9.06887	14.83385	19.18017	1.0323	0.96871	173.59041	168.09827	65.36335	0.32789	 	4.90445E13	 	8.04245E-14	 	4988.09163	29.59643	 
530.0	1.0	0.0	7.90988	7.03861	-9.09202	14.80885	19.10649	1.02987	0.971	173.96246	168.31642	65.51061	0.32774	 	6.32864E13	 	6.19402E-14	 	4840.36373	29.54558	 
525.0	1.0	0.0	7.91189	7.03682	-9.11511	14.78384	19.0328	1.02742	0.97331	174.33387	168.53359	65.65766	0.3276	 	8.19253E13	 	4.75503E-14	 	4692.88951	29.49484	 
520.0	1.0	0.0	7.9139	7.03504	-9.13813	14.75882	18.95909	1.02495	0.97565	174.70464	168.74979	65.8045	0.32745	 	1.06399E14	 	3.63834E-14	 	4545.66839	29.44422	 
515.0	1.0	0.0	7.9159	7.03326	-9.16108	14.7338	18.88537	1.02247	0.97803	175.07475	168.96502	65.95113	0.32731	 	1.3864399999999998E14	 	2.77457E-14	 	4398.69981	29.39372	 
510.0	1.0	0.0	7.91789	7.03149	-9.18397	14.70876	18.81164	1.01996	0.98043	175.44422	169.17929	66.09754	0.32716	 	1.81271E14	 	2.10864E-14	 	4251.98317	29.34333	 
505.0	1.0	0.0	7.91988	7.02972	-9.2068	14.68371	18.7379	1.01744	0.98286	175.81304	169.39259	66.24374	0.32702	 	2.37823E14	 	1.59697E-14	 	4105.51793	29.29305	 
500.0	1.0	0.0	7.92187	7.02796	-9.22956	14.65865	18.66414	1.0149	0.98532	176.18122	169.60492	66.38973	0.32687	 	3.13116E14	 	1.20516E-14	 	3959.30352	29.24288	 
495.0	1.0	0.0	7.92385	7.02621	-9.25225	14.63359	18.59037	1.01233	0.98782	176.54875	169.8163	66.53551	0.32673	 	4.13724E14	 	9.06196E-15	 	3813.33938	29.19283	 
490.0	1.0	0.0	7.92582	7.02445	-9.27488	14.60851	18.51658	1.00975	0.99034	176.91563	170.02672	66.68107	0.32658	 	5.4865799999999994E14	 	6.78883E-15	 	3667.62497	29.14288	 
485.0	1.0	0.0	7.9278	7.02271	-9.29744	14.58343	18.44278	1.00715	0.9929	177.28186	170.23619	66.82642	0.32644	 	7.30315E14	 	5.06678E-15	 	3522.15972	29.09305	 
480.0	1.0	0.0	7.92976	7.02096	-9.31993	14.55833	18.36896	1.00453	0.99549	177.64745	170.44471	66.97156	0.32629	 	9.75815E14	 	3.76704E-15	 	3376.9431	29.04332	 
475.0	1.0	0.0	7.93172	7.01923	-9.34236	14.53323	18.29513	1.00189	0.99812	178.0124	170.65227	67.11649	0.32615	 	1.3089E15	 	2.78977E-15	 	3231.97457	28.99371	 
470.0	1.0	0.0	7.93368	7.0175	-9.36473	14.50812	18.22129	0.99923	1.00078	178.37669	170.85889	67.2612	0.326	 	1.76264E15	 	2.05779E-15	 	3087.25359	28.94419	 
465.0	1.0	0.0	7.93563	7.01577	-9.38702	14.48299	18.14743	0.99654	1.00347	178.74034	171.06457	67.4057	0.32585	 	2.38325E15	 	1.51169E-15	 	2942.77965	28.89479	 
460.0	1.0	0.0	7.93758	7.01405	-9.40926	14.45786	18.07355	0.99384	1.0062	179.10335	171.26931	67.54998	0.32571	 	3.23567E15	 	1.1059E-15	 	2798.5522	28.84549	 
455.0	1.0	0.0	7.93952	7.01233	-9.43142	14.43272	17.99965	0.99111	1.00897	179.46571	171.4731	67.69406	0.32556	 	4.41145E15	 	8.05613E-16	 	2654.57074	28.79629	 
450.0	1.0	0.0	7.94146	7.01062	-9.45352	14.40757	17.92574	0.98836	1.01177	179.82742	171.67596	67.83792	0.32542	 	6.04033E15	 	5.84325E-16	 	2510.83476	28.7472	 
445.0	1.0	0.0	7.94339	7.00892	-9.47556	14.38241	17.85182	0.9856	1.01461	180.18849	171.87789	67.98156	0.32527	 	8.30692E15	 	4.21951E-16	 	2367.34375	28.6982	 
440.0	1.0	0.0	7.94532	7.00721	-9.49752	14.35724	17.77787	0.9828	1.0175	180.54891	172.07888	68.125	0.32513	 	1.14752E16	 	3.03325E-16	 	2224.0972	28.64931	 
435.0	1.0	0.0	7.94725	7.00552	-9.51943	14.33206	17.70391	0.97999	1.02042	180.90869	172.27895	68.26822	0.32498	 	1.59243E16	 	2.17045E-16	 	2081.09464	28.60051	 
430.0	1.0	0.0	7.94916	7.00383	-9.54126	14.30687	17.62993	0.97716	1.02338	181.26782	172.47809	68.41123	0.32484	 	2.22017E16	 	1.54578E-16	 	1938.33558	28.55181	 
425.0	1.0	0.0	7.95108	7.00214	-9.56303	14.28167	17.55593	0.9743	1.02638	181.62631	172.67631	68.55402	0.32469	 	3.11013E16	 	1.09561E-16	 	1795.81955	28.50321	 
420.0	1.0	0.0	7.95299	7.00046	-9.58473	14.25647	17.48191	0.97141	1.02943	181.98415	172.8736	68.6966	0.32455	 	4.37808E16	 	7.72735E-17	 	1653.54606	28.4547	 
415.0	1.0	0.0	7.95489	6.99879	-9.60637	14.23125	17.40787	0.96851	1.03252	182.34135	173.06998	68.83897	0.3244	 	6.19364E16	 	5.42281E-17	 	1511.51474	28.40626	 
410.0	1.0	0.0	7.95679	6.99712	-9.62794	14.20602	17.33382	0.96558	1.03565	182.6979	173.26544	68.98113	0.32426	 	8.80671E16	 	3.78607E-17	 	1369.72534	28.35788	 
405.0	1.0	0.0	7.95868	6.99545	-9.64945	14.18079	17.25974	0.96263	1.03882	183.05381	173.45999	69.12307	0.32412	 	1.25874E17	 	2.62952E-17	 	1228.17757	28.30955	 
400.0	1.0	0.0	7.96057	6.99379	-9.67088	14.15554	17.18564	0.95965	1.04205	183.40907	173.65362	69.26479	0.32397	 	1.80868E17	 	1.8165E-17	 	1086.87117	28.26128	 
395.0	1.0	0.0	7.96246	6.99214	-9.69226	14.13029	17.11152	0.95665	1.04532	183.76369	173.84635	69.40631	0.32383	 	2.61303E17	 	1.248E-17	 	945.80588	28.21306	 
390.0	1.0	0.0	7.96433	6.99049	-9.71356	14.10502	17.03738	0.95362	1.04864	184.11767	174.03817	69.54761	0.32368	 	3.79609E17	 	8.52632E-18	 	804.98146	28.16488	 
385.0	1.0	0.0	7.96621	6.98884	-9.7348	14.07975	16.96322	0.95057	1.052	184.471	174.22908	69.6887	0.32354	 	5.54617E17	 	5.79186E-18	 	664.39767	28.11676	 
380.0	1.0	0.0	7.96808	6.9872	-9.75597	14.05447	16.88903	0.94749	1.05542	184.82368	174.41909	69.82957	0.32339	 	8.15025E17	 	3.91137E-18	 	524.05428	28.06868	 
375.0	1.0	0.0	7.96994	6.98557	-9.77708	14.02918	16.81482	0.94439	1.05889	185.17573	174.6082	69.97023	0.32325	 	1.20483E18	 	2.62564E-18	 	383.95108	28.02064	 
370.0	1.0	0.0	7.9718	6.98394	-9.79812	14.00387	16.74059	0.94126	1.06241	185.52712	174.79642	70.11068	0.3231	 	1.79194E18	 	1.75176E-18	 	244.08785	27.97265	 
365.0	1.0	0.0	7.97365	6.98232	-9.81909	13.97856	16.66634	0.9381	1.06599	185.87788	174.98374	70.25091	0.32296	 	2.68177E18	 	1.16142E-18	 	104.4644	27.92469	 
360.0	1.0	0.0	7.9755	6.9807	-9.84	13.95324	16.59206	0.93492	1.06962	186.22799	175.17016	70.39093	0.32281	 	4.0391E18	 	7.65083E-19	 	-34.91945	27.87677	 
355.0	1.0	0.0	7.97735	6.97909	-9.86083	13.92791	16.51775	0.93171	1.0733	186.57745	175.3557	70.53074	0.32267	 	6.12321E18	 	5.00692E-19	 	-174.06389	27.82889	 
350.0	1.0	0.0	7.97919	6.97748	-9.88161	13.90257	16.44342	0.92847	1.07704	186.92628	175.54035	70.67033	0.32252	 	9.34488E18	 	3.25466E-19	 	-312.96907	27.78104	 
345.0	1.0	0.0	7.98102	6.97587	-9.90231	13.87723	16.36906	0.9252	1.08085	187.27446	175.72411	70.80971	0.32238	 	1.43595E19	 	2.10108E-19	 	-451.63513	27.73321	 
340.0	1.0	0.0	7.98285	6.97428	-9.92295	13.85187	16.29467	0.92191	1.08471	187.62199	175.90699	70.94888	0.32223	 	2.22201E19	 	1.34682E-19	 	-590.06221	27.68542	 
335.0	1.0	0.0	7.98467	6.97268	-9.94352	13.8265	16.22026	0.91858	1.08863	187.96888	176.08899	71.08783	0.32209	 	3.46314E19	 	8.57092E-20	 	-728.25044	27.63765	 
330.0	1.0	0.0	7.98649	6.9711	-9.96403	13.80112	16.14582	0.91523	1.09262	188.31513	176.27011	71.22656	0.32194	 	5.43739E19	 	5.41404E-20	 	-866.19994	27.5899	 
325.0	1.0	0.0	7.9883	6.96951	-9.98447	13.77574	16.07135	0.91185	1.09667	188.66074	176.45036	71.36509	0.3218	 	8.60174E19	 	3.39399E-20	 	-1003.91077	27.54217	 
320.0	1.0	0.0	7.99011	6.96794	-10.00484	13.75034	15.99685	0.90844	1.10079	189.0057	176.62973	71.5034	0.32166	 	1.3713199999999998E20	 	2.11111E-20	 	-1141.38303	27.49445	 
315.0	1.0	0.0	7.99191	6.96636	-10.02514	13.72494	15.92232	0.905	1.10497	189.35002	176.80822	71.64149	0.32151	 	2.2036299999999997E20	 	1.30268E-20	 	-1278.61677	27.44675	 
310.0	1.0	0.0	7.99371	6.9648	-10.04538	13.69952	15.84775	0.90153	1.10923	189.6937	176.98585	71.77937	0.32137	 	3.57E20	 	7.97257E-21	 	-1415.61205	27.39906	 
305.0	1.0	0.0	7.99551	6.96324	-10.06555	13.6741	15.77316	0.89802	1.11356	190.03673	177.16261	71.91704	0.32122	 	5.8320699999999997E20	 	4.83843E-21	 	-1552.36888	27.35136	 
300.0	1.0	0.0	7.99729	6.96168	-10.08565	13.64866	15.69853	0.89449	1.11796	190.37912	177.33851	72.05449	0.32108	 	9.609399999999999E20	 	2.91111E-21	 	-1688.88727	27.30368	 
295.0	1.0	0.0	7.99908	6.96013	-10.10569	13.62322	15.62387	0.89092	1.12243	190.72087	177.51354	72.19173	0.32093	 	1.5973000000000001E21	 	1.73605E-21	 	-1825.16721	27.25599	 
290.0	1.0	0.0	8.00085	6.95858	-10.12565	13.59777	15.54917	0.88733	1.12698	191.06198	177.68771	72.32875	0.32079	 	2.67915E21	 	1.02592E-21	 	-1961.20868	27.20829	 
285.0	1.0	0.0	8.00262	6.95704	-10.14556	13.57231	15.47444	0.88369	1.13161	191.40244	177.86102	72.46556	0.32064	 	4.5355600000000003E21	 	6.0063E-22	 	-2097.01161	27.16059	 
280.0	1.0	0.0	8.00439	6.9555	-10.16539	13.54684	15.39967	0.88003	1.13632	191.74226	178.03348	72.60216	0.3205	 	7.75171E21	 	3.48283E-22	 	-2232.57595	27.11287	 
275.0	1.0	0.0	8.00615	6.95397	-10.18516	13.52136	15.32486	0.87633	1.14112	192.08144	178.20508	72.73854	0.32036	 	1.33786E22	 	1.99975E-22	 	-2367.90157	27.06513	 
270.0	1.0	0.0	8.00791	6.95245	-10.20486	13.49587	15.25002	0.8726	1.146	192.41998	178.37583	72.8747	0.32021	 	2.3323199999999998E22	 	1.13663E-22	 	-2502.98838	27.01736	 
265.0	1.0	0.0	8.00966	6.95093	-10.22449	13.47037	15.17513	0.86883	1.15097	192.75787	178.54573	73.01065	0.32007	 	4.10819E22	 	6.39351E-23	 	-2637.83622	26.96957	 
260.0	1.0	0.0	8.01141	6.94941	-10.24405	13.44486	15.10021	0.86503	1.15603	193.09512	178.71478	73.14639	0.31992	 	7.3134899999999995E22	 	3.55804E-23	 	-2772.44491	26.92174	 
255.0	1.0	0.0	8.01315	6.9479	-10.26355	13.41934	15.02524	0.8612	1.16118	193.43173	178.88299	73.28191	0.31978	 	1.31626E23	 	1.95841E-23	 	-2906.81427	26.87387	 
250.0	1.0	0.0	8.01488	6.9464	-10.28298	13.39381	14.95023	0.85732	1.16642	193.7677	179.05035	73.41722	0.31963	 	2.39572E23	 	1.0658E-23	 	-3040.94406	26.82596	 
245.0	1.0	0.0	8.01661	6.9449	-10.30234	13.36828	14.87518	0.85341	1.17176	194.10303	179.21688	73.55231	0.31949	 	4.41114E23	 	5.73312E-24	 	-3174.83402	26.77799	 
240.0	1.0	0.0	8.01834	6.94341	-10.32163	13.34273	14.80008	0.84947	1.17721	194.43771	179.38256	73.68719	0.31935	 	8.219239999999999E23	 	3.04719E-24	 	-3308.48387	26.72997	 
235.0	1.0	0.0	8.02006	6.94192	-10.34086	13.31718	14.72493	0.84548	1.18276	194.77176	179.54741	73.82185	0.3192	 	1.55036E24	 	1.59973E-24	 	-3441.89328	26.68188	 
230.0	1.0	0.0	8.02177	6.94044	-10.36002	13.29161	14.64973	0.84146	1.18841	195.10516	179.71142	73.9563	0.31906	 	2.96148E24	 	8.2923E-25	 	-3575.06189	26.63372	 
225.0	1.0	0.0	8.02348	6.93896	-10.37911	13.26604	14.57449	0.8374	1.19417	195.43791	179.8746	74.09054	0.31891	 	5.73098E24	 	4.24246E-25	 	-3707.98931	26.58548	 
220.0	1.0	0.0	8.02518	6.93748	-10.39813	13.24045	14.49919	0.8333	1.20005	195.77003	180.03695	74.22456	0.31877	 	1.1239900000000001E25	 	2.14142E-25	 	-3840.67511	26.53716	 
215.0	1.0	0.0	8.02688	6.93602	-10.41709	13.21486	14.42384	0.82916	1.20604	196.10151	180.19847	74.35836	0.31862	 	2.23506E25	 	1.06598E-25	 	-3973.11881	26.48874	 
210.0	1.0	0.0	8.02857	6.93455	-10.43598	13.18926	14.34844	0.82498	1.21215	196.43234	180.35916	74.49195	0.31848	 	4.50812E25	 	5.23087E-26	 	-4105.3199	26.44022	 
205.0	1.0	0.0	8.03026	6.9331	-10.4548	13.16364	14.27298	0.82076	1.21838	196.76254	180.51903	74.62532	0.31834	 	9.22726E25	 	2.52917E-26	 	-4237.27781	26.39158	 
200.0	1.0	0.0	8.03194	6.93165	-10.47355	13.13802	14.19747	0.8165	1.22475	197.09209	180.67808	74.75848	0.31819	 	1.91746E26	 	1.20437E-26	 	-4368.99194	26.34283	 
195.0	1.0	0.0	8.03362	6.9302	-10.49224	13.11239	14.12189	0.81219	1.23124	197.421	180.8363	74.89142	0.31805	 	4.0472800000000006E26	 	5.64558E-27	 	-4500.46163	26.29394	 
190.0	1.0	0.0	8.03529	6.92876	-10.51085	13.08675	14.04625	0.80784	1.23786	197.74927	180.99371	75.02415	0.3179	 	8.681730000000001E26	 	2.60377E-27	 	-4631.68618	26.24491	 
185.0	1.0	0.0	8.03696	6.92732	-10.5294	13.0611	13.97055	0.80345	1.24463	198.0769	181.1503	75.15666	0.31776	 	1.8935799999999998E27	 	1.18089E-27	 	-4762.66482	26.19573	 
180.0	1.0	0.0	8.03862	6.92589	-10.54788	13.03544	13.89479	0.79902	1.25154	198.40389	181.30608	75.28896	0.31762	 	4.20179E27	 	5.26374E-28	 	-4893.39672	26.14638	 
175.0	1.0	0.0	8.04027	6.92446	-10.56629	13.00977	13.81896	0.79454	1.25859	198.73023	181.46105	75.42104	0.31747	 	9.49095E27	 	2.30463E-28	 	-5023.881	26.09686	 
170.0	1.0	0.0	8.04192	6.92304	-10.58464	12.98409	13.74306	0.79001	1.2658	199.05594	181.61521	75.55291	0.31733	 	2.18359E28	 	9.90529E-29	 	-5154.11671	26.04714	 
165.0	1.0	0.0	8.04357	6.92163	-10.60291	12.95841	13.66708	0.78544	1.27317	199.381	181.76856	75.68456	0.31718	 	5.1202300000000005E28	 	4.17657E-29	 	-5284.10285	25.99723	 
160.0	1.0	0.0	8.0452	6.92022	-10.62112	12.93271	13.59104	0.78082	1.2807	199.70543	181.9211	75.81599	0.31704	 	1.22449E29	 	1.72652E-29	 	-5413.83831	25.94709	 
155.0	1.0	0.0	8.04684	6.91881	-10.63926	12.907	13.51491	0.77616	1.2884	200.02901	182.07266	75.94714	0.3169	 	2.9885600000000003E29	 	6.9923E-30	 	-5543.32194	25.89673	 
150.0	1.0	0.0	8.04847	6.91742	-10.65733	12.88129	13.43871	0.77144	1.29627	200.35215	182.22359	76.07814	0.31675	 	7.44952E29	 	2.77238E-30	 	-5672.55247	25.84611	 
145.0	1.0	0.0	8.05009	6.91602	-10.67534	12.85556	13.36242	0.76668	1.30433	200.67466	182.37373	76.20893	0.31661	 	1.8979299999999998E30	 	1.07532E-30	 	-5801.52858	25.79522	 
140.0	1.0	0.0	8.0517	6.91463	-10.69327	12.82983	13.28605	0.76186	1.31257	200.99652	182.52307	76.3395	0.31646	 	4.9461099999999995E30	 	4.07691E-31	 	-5930.24885	25.74405	 
135.0	1.0	0.0	8.05332	6.91325	-10.71114	12.80408	13.20959	0.757	1.321	201.31774	182.67161	76.46986	0.31632	 	1.31959E31	 	1.50962E-31	 	-6058.71176	25.69258	 
130.0	1.0	0.0	8.05492	6.91187	-10.72893	12.77833	13.13304	0.75209	1.32964	201.63832	182.81936	76.6	0.31618	 	3.60732E31	 	5.45467E-32	 	-6186.91567	25.64078	 
125.0	1.0	0.0	8.05652	6.9105	-10.74666	12.75257	13.05639	0.74712	1.33848	201.95826	182.96632	76.72992	0.31603	 	1.01135E32	 	1.92147E-32	 	-6314.85886	25.58864	 
120.0	1.0	0.0	8.05812	6.90913	-10.76433	12.7268	12.97965	0.7421	1.34753	202.27756	183.11249	76.85963	0.31589	 	2.91074E32	 	6.59237E-33	 	-6442.53948	25.53612	 
115.0	1.0	0.0	8.0597	6.90777	-10.78192	12.70101	12.90281	0.73702	1.35681	202.59622	183.25787	76.98912	0.31575	 	8.60864E32	 	2.20065E-33	 	-6569.95554	25.48321	 
110.0	1.0	0.0	8.06129	6.90641	-10.79944	12.67522	12.82585	0.73189	1.36632	202.91424	183.40246	77.1184	0.3156	 	2.61913E33	 	7.14001E-34	 	-6697.10495	25.42988	 
105.0	1.0	0.0	8.06287	6.90506	-10.8169	12.64942	12.74879	0.72671	1.37606	203.23163	183.54627	77.24746	0.31546	 	8.2065E33	 	2.24902E-34	 	-6823.98546	25.3761	 
100.0	1.0	0.0	8.06444	6.90372	-10.83428	12.62361	12.67162	0.72147	1.38606	203.54837	183.6893	77.3763	0.31531	 	2.6512500000000003E34	 	6.86941E-35	 	-6950.59468	25.32184	 
95.0	1.0	0.0	8.066	6.90237	-10.8516	12.59779	12.59432	0.71617	1.39632	203.86447	183.83154	77.50493	0.31517	 	8.84256E34	 	2.03205E-35	 	-7076.93004	25.26707	 
90.0	1.0	0.0	8.06757	6.90104	-10.86885	12.57197	12.51691	0.71081	1.40684	204.17993	183.97301	77.63334	0.31503	 	3.0486699999999996E35	 	5.81383E-36	 	-7202.98882	25.21176	 
85.0	1.0	0.0	8.06912	6.89971	-10.88603	12.54613	12.43936	0.7054	1.41764	204.49475	184.1137	77.76154	0.31488	 	1.08806E36	 	1.60657E-36	 	-7328.76811	25.15586	 
80.0	1.0	0.0	8.07067	6.89838	-10.90315	12.52028	12.36168	0.69992	1.42874	204.80893	184.25362	77.88952	0.31474	 	4.02567E36	 	4.28162E-37	 	-7454.26481	25.09934	 
75.0	1.0	0.0	8.07222	6.89706	-10.92019	12.49442	12.28386	0.69438	1.44013	205.12247	184.39276	78.01728	0.3146	 	1.54648E37	 	1.09877E-37	 	-7579.47558	25.04215	 
70.0	1.0	0.0	8.07375	6.89575	-10.93716	12.46856	12.20589	0.68878	1.45184	205.43537	184.53114	78.14482	0.31445	 	6.17854E37	 	2.71072E-38	 	-7704.39691	24.98427	 
65.0	1.0	0.0	8.07529	6.89444	-10.95407	12.44268	12.12778	0.68312	1.46388	205.74763	184.66874	78.27215	0.31431	 	2.57167E38	 	6.41772E-39	 	-7829.02498	24.92562	 
60.0	1.0	0.0	8.07681	6.89314	-10.9709	12.4168	12.0495	0.67739	1.47626	206.05926	184.80558	78.39927	0.31417	 	1.1172100000000001E39	 	1.45543E-39	 	-7953.35579	24.86616	 
55.0	1.0	0.0	8.07833	6.89184	-10.98767	12.3909	11.97106	0.67159	1.489	206.37024	184.94165	78.52616	0.31402	 	5.0756900000000006E39	 	3.15547E-40	 	-8077.38497	24.80584	 
50.0	1.0	0.0	8.07985	6.89055	-11.00437	12.365	11.89244	0.66573	1.50211	206.68058	185.07696	78.65284	0.31388	 	2.41656E40	 	6.5267E-41	 	-8201.10792	24.74459	 
45.0	1.0	0.0	8.08136	6.88926	-11.021	12.33908	11.81365	0.6598	1.5156	206.99029	185.21151	78.7793	0.31374	 	1.20837E41	 	1.28504E-41	 	-8324.51968	24.68235	 
40.0	1.0	0.0	8.08287	6.88798	-11.03756	12.31316	11.73466	0.6538	1.52951	207.29935	185.34529	78.90555	0.31359	 	6.36101E41	 	2.40278E-42	 	-8447.61496	24.61906	 
35.0	1.0	0.0	8.08436	6.8867	-11.05405	12.28723	11.65548	0.64774	1.54384	207.60778	185.47832	79.03158	0.31345	 	3.5339399999999997E42	 	4.25588E-43	 	-8570.38806	24.55462	 
30.0	1.0	0.0	8.08586	6.88543	-11.07047	12.26129	11.57608	0.6416	1.55861	207.91556	185.61059	79.15739	0.3133	 	2.0775900000000002E43	 	7.12172E-44	 	-8692.83289	24.48897	 
25.0	1.0	0.0	8.08734	6.88416	-11.08683	 	11.49647	0.63538	1.57385	208.22271	185.74211	79.28298	0.31316	 	1.29617E44	 	1.12269E-44	 	-8814.94292	 	 
