T (C)	Fraction solid (wt)-TOTAL	Fraction liquid (wt)-LIQUID	Density (g/(cm)^3)-TOTAL	Molar volume (cm^3)-TOTAL	Volume change (%)-  	Average expansion coeff. (10e-6 1/K)-  	Thermal conductivity (W/(m*K))-TOTAL	Electrical resistivity (10e-6 Ohm*m)-TOTAL	Electrical conductivity (10e6 1/(Ohm*m))-TOTAL	Young's modulus (GPa)-TOTAL	Bulk modulus (GPa)-TOTAL	Shear modulus(GPa)-TOTAL	Poisson's ratio-TOTAL	Liquid viscosity (mPa s)-  	Total viscosity (mPa s)-  	Liquid diffusivity (10e-9 (m^2)/s)-  	Total diffusivity (10e-9 (m^2)/s)-  	Surface Tension (mN/m)-  	Enthalpy (J/mole)-TOTAL	Specific heat (J/(mole K))-TOTAL	Latent heat (J/mole)-TOTAL
1400.0	0.0	1.0	7.47131	7.88691	0.0	30.15546	29.06388	1.41042	0.70901	0.0	123.14981	0.0	0.5	7.41624	7.41624	1.10113	1.10113	1776.2076	53073.527	 	0.0
1395.0	0.0	1.0	7.47535	7.88266	-0.0539576	30.1179	28.98577	1.40999	0.70922	0.0	123.30512	0.0	0.5	7.49536	7.49536	1.08625	1.08625	1779.27868	52869.574	40.7906	0.0
1390.0	0.0	1.0	7.47937	7.87841	-0.10776	30.08049	28.90766	1.40956	0.70944	0.0	123.46043	0.0	0.5	7.57581	7.57581	1.07149	1.07149	1782.39171	52666.082	40.6984	0.0
1385.0	0.0	1.0	7.48339	7.87418	-0.16141	30.04322	28.82955	1.40913	0.70966	0.0	123.61574	0.0	0.5	7.65762	7.65762	1.05686	1.05686	1785.54716	52463.049	40.6066	0.0
1380.0	0.0	1.0	7.48741	7.86996	-0.21491	30.0061	28.75145	1.4087	0.70987	0.0	123.77105	0.0	0.5	7.74081	7.74081	1.04235	1.04235	1788.74547	52260.471	40.5156	0.0
1375.0	0.0	1.0	7.49141	7.86575	-0.26826	29.96913	28.67334	1.40827	0.71009	0.0	123.92636	0.0	0.5	7.82542	7.82542	1.02796	1.02796	1791.98709	52058.348	40.4246	0.0
1370.0	0.0	1.0	7.49541	7.86156	-0.32145	29.93231	28.59523	1.40783	0.71031	0.0	124.08167	0.0	0.5	7.91147	7.91147	1.01369	1.01369	1795.27243	51856.676	40.3344	0.0
1365.0	0.0	1.0	7.4994	7.85738	-0.37449	29.89564	28.51713	1.40739	0.71054	0.0	124.23698	0.0	0.5	7.99901	7.99901	0.99955	0.99955	1798.60187	51655.453	40.2446	0.0
1360.0	0.0	1.0	7.50338	7.8532	-0.42738	29.85913	28.43902	1.40695	0.71076	0.0	124.39229	0.0	0.5	8.08806	8.08806	0.98553	0.98553	1801.97578	51454.678	40.155	0.0
1355.0	0.0	1.0	7.50736	7.84905	-0.48012	29.82278	28.36091	1.4065	0.71098	0.0	124.5476	0.0	0.5	8.17866	8.17866	0.97163	0.97163	1805.39449	51254.347	40.0662	0.0
1350.0	0.0	1.0	7.51133	7.8449	-0.5327	29.78658	28.2828	1.40605	0.71121	0.0	124.70291	0.0	0.5	8.27084	8.27084	0.95785	0.95785	1808.85831	51054.459	39.9776	0.0
1345.0	0.0	1.0	7.51529	7.84076	-0.58513	29.75054	28.2047	1.40561	0.71144	0.0	124.85822	0.0	0.5	8.36464	8.36464	0.94419	0.94419	1812.36754	50855.012	39.8894	0.0
1340.0	0.0	1.0	7.51924	7.83664	-0.6374	29.71466	28.12659	1.40515	0.71167	0.0	125.01353	0.0	0.5	8.4601	8.4601	0.93065	0.93065	1815.92242	50656.003	39.8018	0.0
1335.0	0.0	1.0	7.52319	7.83253	-0.68953	29.67895	28.04848	1.4047	0.7119	0.0	125.16885	0.0	0.5	8.55724	8.55724	0.91723	0.91723	1819.52319	50457.43	39.7146	0.0
1330.0	0.0	1.0	7.52713	7.82843	-0.7415	29.6434	27.97038	1.40424	0.71213	0.0	125.32416	0.0	0.5	8.65612	8.65612	0.90394	0.90394	1823.17003	50259.291	39.6278	0.0
1325.0	0.0	1.0	7.53106	7.82434	-0.79332	29.60802	27.89227	1.40378	0.71236	0.0	125.47947	0.0	0.5	8.75678	8.75678	0.89076	0.89076	1826.86312	50061.584	39.5414	0.0
1322.44	0.0	1.0	7.53307	7.82226	-0.81976	29.58999	27.85233	1.40355	0.71248	0.0	125.55889	0.0	0.5	8.80894	8.80894	0.88407	0.88407	1828.76951	49960.65	39.477	0.0010
1320.0	0.0526701	0.94733	7.54652	7.80844	-0.99492	29.13885	28.02653	1.39269	0.71804	7.83271E-4	126.1256	2.62361E-4	0.49274	8.85019	9.80391	0.8786	0.79313	1828.7518	49077.537	361.45456	786.767
1316.69	0.11818	0.88182	7.56343	7.79089	-1.21746	28.56772	28.24185	1.3792	0.72506	0.0200609	126.8394	0.00676072	0.48364	8.90589	18.74858	0.87129	0.41388	1828.77237	47971.994	 	1762.097
1315.0	0.17217	0.82783	7.57726	7.77672	-1.39719	28.08305	28.42532	1.36884	0.73055	0.0902451	127.57426	0.0305713	0.47597	8.95335	49.95316	0.86575	0.15517	1828.81197	47061.371	403.2332	2606.083
1310.0	0.31058	0.68942	7.61295	7.74022	-1.85989	26.84275	28.90317	1.34197	0.74517	0.97718	129.41236	0.33554	0.45611	9.09085	454.50339	0.84997	0.0170009	1831.88972	44715.5933	469.15554	4754.849
1305.0	0.41678	0.58322	7.64005	7.71251	-2.21132	25.9186	29.2696	1.32098	0.75701	3.24477	130.77226	1.12614	0.44066	9.22596	1545.46582	0.83488	0.00498397	1834.98942	42885.66902	365.98486	6387.268
1300.0	0.50008	0.49992	7.6614	7.69053	-2.48991	25.20128	29.55434	1.30411	0.76681	6.86173	131.83438	2.40191	0.42839	9.35889	3406.72156	0.82041	0.00225383	1838.11317	41421.64205	292.80539	7654.248
1295.0	0.56671	0.43329	7.67862	7.67277	-2.71517	24.63573	29.77499	1.29033	0.77499	11.5033	132.69549	4.05479	0.41848	9.48996	5991.89091	0.80651	0.00127735	1841.25784	40223.16609	239.69519	8656.128
1290.0	0.62089	0.37911	7.69282	7.65793	-2.90335	24.17556	29.9477	1.2788	0.78198	16.80077	133.41436	5.95626	0.41035	9.61965	9216.22366	0.7931	8.27817E-4	1844.42664	39221.71352	200.29051	9461.434
1285.0	0.66557	0.33443	7.70474	7.64536	-3.06266	23.79762	30.08146	1.26904	0.788	22.44074	134.03406	7.99413	0.40358	9.748	12999.85817	0.78015	5.85002E-4	1847.61655	38369.34783	170.47314	10118.101
1280.0	0.7029	0.2971	7.71494	7.63442	-3.20136	23.4782	30.18353	1.26069	0.79321	28.18959	134.58018	10.08308	0.39787	9.87544	17280.78792	0.76762	4.38669E-4	1850.83065	37631.80256	147.50905	10660.393
1275.0	0.73442	0.26558	7.72379	7.62482	-3.3231	23.20711	30.26002	1.25346	0.79779	33.88665	135.07418	12.16316	0.393	10.00219	22020.02643	0.75545	3.43148E-4	1854.06577	36984.09919	129.54067	11113.284
1270.0	0.76131	0.23869	7.73159	7.61622	-3.43214	22.97204	30.31531	1.24713	0.80184	39.42839	135.52825	14.19494	0.38882	10.12854	27195.11268	0.74361	2.76952E-4	1857.32359	36407.70325	115.27919	11495.308
1265.0	0.78444	0.21556	7.73857	7.60845	-3.53065	22.76692	30.35318	1.24154	0.80545	44.74933	135.95291	16.15281	0.38519	10.25467	32799.37495	0.73209	2.28886E-4	1860.60216	35888.64026	103.8126	11820.436
1260.0	0.8045	0.1955	7.74487	7.60131	-3.6212	22.58431	30.37644	1.23656	0.8087	49.81868	136.35459	18.02404	0.38201	10.38071	38842.20934	0.72085	1.92649E-4	1863.90321	35416.21673	94.48471	12099.361
1255.0	0.82353	0.17647	7.75119	7.59434	-3.70965	22.40657	30.39159	1.23191	0.81175	54.95143	136.76068	19.92413	0.37902	10.45573	45583.00679	0.71334	1.63625E-4	1867.24003	34955.25817	92.19171	12367.253
1250.0	0.84162	0.15838	7.75773	7.58751	-3.79622	22.23318	30.40043	1.22752	0.81465	60.16294	137.16725	21.85863	0.37618	10.48666	53115.53592	0.70891	1.39961E-4	1870.60909	34505.60413	89.93081	12624.269
1245.0	0.85722	0.14278	7.7639	7.58121	-3.87609	22.07892	30.39752	1.22361	0.81725	64.99779	137.55456	23.65784	0.3737	10.51996	61135.0968	0.70435	1.21202E-4	1873.99953	34093.63912	82.393	12844.025
1240.0	0.87078	0.12922	7.76978	7.57535	-3.95035	21.94072	30.38487	1.22009	0.81961	69.47957	137.92818	25.32938	0.37152	10.5557	69685.11199	0.69965	1.05981E-4	1877.4102	33712.64367	76.19909	13033.237
1235.0	0.88262	0.11738	7.77542	7.56987	-4.01986	21.81608	30.36396	1.21689	0.82177	73.63028	138.29128	26.88052	0.36958	10.59393	78810.49747	0.69482	9.34001E-5	1880.8408	33357.33633	71.06147	13197.188
1230.0	0.89303	0.10697	7.78087	7.56471	-4.08533	21.70295	30.3361	1.21397	0.82374	77.47745	138.64697	28.32077	0.36786	10.6347	88567.88268	0.68986	8.28348E-5	1884.29034	33023.51361	66.76454	13340.077
1225.0	0.90222	0.0977837	7.78616	7.5598	-4.14757	21.59898	30.30222	1.21129	0.82557	81.04666	138.99619	29.65913	0.3663	10.67821	99017.02585	0.68477	7.38469E-5	1887.76043	32707.80608	63.14151	13465.273
1220.0	0.91039	0.0896147	7.79131	7.55512	-4.20687	21.50339	30.26323	1.2088	0.82727	84.36251	139.34104	30.90429	0.3649	10.72439	110227.8359	0.67954	6.61148E-5	1891.24897	32407.48325	60.06457	13575.502
1215.0	0.91767	0.0823288	7.79635	7.55064	-4.26371	21.41471	30.21977	1.20648	0.82885	87.44771	139.68205	32.0644	0.36363	10.77342	122273.3981	0.67419	5.9402E-5	1894.75662	32120.31671	57.43331	13672.991
1210.0	0.9242	0.0757997	7.80129	7.54632	-4.31847	21.33186	30.17247	1.20432	0.83035	90.3271	140.02011	33.14846	0.36246	10.82541	135242.4487	0.66869	5.35253E-5	1898.28337	31844.47397	55.16855	13759.57
1205.0	0.93038	0.0696209	7.80622	7.54209	-4.37206	21.25203	30.1233	1.20221	0.8318	93.14798	140.363	34.21168	0.36135	10.87574	149426.2188	0.66336	4.82812E-5	1901.81006	31573.55563	54.18367	13841.638
1200.0	0.93732	0.062677	7.81161	7.53767	-4.42808	21.16377	30.0779	1.19996	0.83336	96.39316	140.73458	35.43615	0.3601	10.90876	165744.1814	0.65911	4.33806E-5	1905.27812	31290.1612	56.67889	13936.589
1195.0	0.94343	0.0565682	7.81686	7.53342	-4.48195	21.08166	30.02832	1.19786	0.83482	99.36941	141.09902	36.56052	0.35897	10.94472	183254.8011	0.65472	3.91023E-5	1908.7601	31019.43826	54.14459	14019.277
1190.0	0.94883	0.0511674	7.82199	7.52932	-4.534	21.00468	29.97519	1.19589	0.83619	102.10841	141.45747	37.59641	0.35795	10.98384	202087.5863	0.65016	3.53375E-5	1912.25624	30759.43838	51.99998	14091.645
1185.0	0.95883	0.0411747	7.83001	7.52314	-4.61232	20.84217	29.95006	1.19281	0.83836	106.68682	141.90802	39.33415	0.35616	11.05186	227540.6761	0.64395	3.12773E-5	1915.76943	30422.03512	67.48065	14241.82
1180.0	0.96676	0.033243	7.83715	7.51763	-4.68224	20.70549	29.91428	1.19014	0.84024	110.51133	142.33134	40.78826	0.3547	11.12646	253984.2895	0.63744	2.79248E-5	1919.29343	30117.01308	61.00441	14360.013
1175.0	0.97288	0.0271235	7.84343	7.51274	-4.74427	20.59336	29.86884	1.18785	0.84186	113.63327	142.7281	41.97684	0.35352	11.20571	281392.6462	0.63076	2.51181E-5	1922.82784	29840.44879	55.31286	14450.147
1170.0	0.97772	0.0222767	7.8491	7.50828	-4.80077	20.49834	29.81655	1.18582	0.8433	116.2519	143.10572	42.97486	0.35256	11.28963	310198.0055	0.6239	2.2707E-5	1926.37348	29588.27988	50.43378	14516.28
1165.0	0.98165	0.0183547	7.85432	7.50414	-4.85327	20.41565	29.7592	1.18399	0.8446	118.50534	143.46904	43.83437	0.35174	11.37846	340768.0791	0.61689	2.05983E-5	1929.93215	29342.1709	49.2218	14576.746
1160.0	0.98488	0.0151225	7.85918	7.50024	-4.90267	20.34246	29.69802	1.18231	0.8458	120.4953	143.82109	44.59368	0.35104	11.47221	373438.2881	0.60972	1.87309E-5	1933.50002	29111.36046	46.16209	14622.304
1155.0	0.98759	0.0124078	7.86378	7.49653	-4.94969	20.27653	29.63388	1.18073	0.84693	122.31177	144.16452	45.2867	0.35042	11.56676	408549.6633	0.60263	1.70614E-5	1937.07843	28888.88914	44.49426	14659.911
1150.0	0.98996	0.0100421	7.86823	7.49295	-4.99517	20.21512	29.5676	1.17924	0.84801	124.05796	144.50238	45.9524	0.34985	11.66102	446535.6254	0.59566	1.55554E-5	1940.66717	28672.17955	43.34192	14692.143
1145.0	0.99198	0.00802463	7.87248	7.48949	-5.03905	20.15851	29.49929	1.17781	0.84903	125.74873	144.83366	46.59616	0.34935	11.76114	487601.5893	0.58852	1.41953E-5	1944.2659	28461.13328	42.20925	14719.097
1140.0	0.99369	0.0063145	7.87655	7.48614	-5.08152	20.10616	29.42905	1.17646	0.85001	127.41091	145.15988	47.22805	0.34889	11.86318	532054.4442	0.5814	1.29634E-5	1947.87517	28254.44794	41.33707	14742.069
1130.0	1.0	0.0	7.88576	7.47764	-5.18929	19.92257	29.2905	1.17366	0.85203	133.53271	145.91185	49.5493	0.34747	 	642560.1253	 	1.0658E-5	 	27757.52949	49.69185	14872.7
1125.0	1.0	0.0	7.88835	7.47518	-5.22044	19.90699	29.20872	1.17276	0.85269	133.93119	146.18807	49.70329	0.34731	 	697276.339	 	9.78668E-6	 	27569.47114	37.61167	 
1120.0	1.0	0.0	7.89094	7.47273	-5.25153	19.89148	29.12694	1.17184	0.85336	134.32887	146.4629	49.85701	0.34714	 	757093.1263	 	8.98122E-6	 	27395.22003	34.85022	 
1115.0	1.0	0.0	7.89353	7.47028	-5.28255	19.87606	29.04515	1.17092	0.85403	134.72575	146.73635	50.01047	0.34698	 	822526.0352	 	8.23708E-6	 	27221.26481	34.79104	 
1110.0	1.0	0.0	7.89611	7.46784	-5.31351	19.86073	28.96336	1.17	0.8547	135.12182	147.00843	50.16367	0.34681	 	894146.7852	 	7.55E-6	 	27047.6045	34.73206	 
1105.0	1.0	0.0	7.89868	7.4654	-5.34439	19.84548	28.88156	1.16907	0.85538	135.5171	147.27914	50.31661	0.34664	 	972589.6195	 	6.91598E-6	 	26874.23828	34.67324	 
1100.0	1.0	0.0	7.90126	7.46297	-5.37522	19.83032	28.79976	1.16814	0.85606	135.91158	147.54848	50.46929	0.34648	 	1058558.794	 	6.33125E-6	 	26701.16519	34.61462	 
1095.0	1.0	0.0	7.90383	7.46055	-5.40597	19.81525	28.71796	1.1672	0.85675	136.30525	147.81647	50.6217	0.34631	 	1152836.707	 	5.79232E-6	 	26528.38439	34.55616	 
1090.0	1.0	0.0	7.90639	7.45813	-5.43667	19.80027	28.63615	1.16626	0.85744	136.69814	148.0831	50.77385	0.34615	 	1256293.378	 	5.29589E-6	 	26355.89495	34.49789	 
1085.0	1.0	0.0	7.90895	7.45571	-5.46729	19.78539	28.55434	1.16531	0.85814	137.09022	148.34839	50.92574	0.34598	 	1369896.632	 	4.8389E-6	 	26183.69602	34.43979	 
1080.0	1.0	0.0	7.91151	7.4533	-5.49785	19.77059	28.47253	1.16436	0.85884	137.48151	148.61234	51.07737	0.34582	 	1494724.147	 	4.41847E-6	 	26011.78669	34.38187	 
1075.0	1.0	0.0	7.91406	7.4509	-5.52834	19.75589	28.39071	1.1634	0.85955	137.87201	148.87495	51.22873	0.34565	 	1631976.646	 	4.03191E-6	 	25840.16611	34.32412	 
1070.0	1.0	0.0	7.91661	7.4485	-5.55877	19.74129	28.30889	1.16243	0.86026	138.26171	149.13623	51.37984	0.34549	 	1782992.885	 	3.67673E-6	 	25668.83338	34.26655	 
1065.0	1.0	0.0	7.91916	7.4461	-5.58913	19.72678	28.22706	1.16146	0.86098	138.65062	149.39618	51.53068	0.34532	 	1949266.75	 	3.35058E-6	 	25497.78765	34.20915	 
1060.0	1.0	0.0	7.9217	7.44371	-5.61943	19.71237	28.14523	1.16049	0.86171	139.03873	149.65481	51.68126	0.34516	 	2132466.232	 	3.05129E-6	 	25327.02804	34.15192	 
1055.0	1.0	0.0	7.92424	7.44133	-5.64966	19.69806	28.0634	1.15951	0.86244	139.42606	149.91213	51.83158	0.34499	 	2334455.491	 	2.77682E-6	 	25156.55369	34.09487	 
1050.93	1.0	0.0	7.9263	7.43939	-5.6742	19.68647	27.99684	1.1587	0.86303	139.74049	150.12044	51.95365	0.34486	 	2514019.483	 	2.57059E-6	 	25018.11969	 	 
1050.0	1.0	0.0	7.92725	7.4385	-5.68553	19.66298	27.9622	1.15932	0.86257	139.86944	150.19181	52.00427	0.34479	 	2562603.962	 	2.52008E-6	 	24960.84157	39.14242	 
1045.0	1.0	0.0	7.93232	7.43375	-5.74578	19.53799	27.78397	1.16235	0.86033	140.5271	150.53915	52.26317	0.34442	 	2840503.304	 	2.26494E-6	 	24657.31177	60.70596	 
1040.0	1.0	0.0	7.9373	7.42908	-5.80493	19.41581	27.61269	1.16512	0.85828	141.16621	150.87345	52.51497	0.34406	 	3150860.26	 	2.0341E-6	 	24359.11455	59.63945	 
1036.41	1.0	0.0	7.94083	7.42578	-5.84676	19.32976	27.4934	1.16698	0.85691	141.6167	151.10882	52.69252	0.3438	 	3396055.128	 	1.88207E-6	 	24148.09553	 	 
1035.0	1.0	0.0	7.9422	7.4245	-5.86298	19.29651	27.44742	1.16768	0.8564	141.79155	151.20022	52.76144	0.3437	 	3497705.219	 	1.82541E-6	 	24066.04097	58.61472	 
1030.0	1.0	0.0	7.947	7.42001	-5.91992	19.18018	27.28764	1.17002	0.85468	142.40429	151.52053	53.00299	0.34336	 	3885617.89	 	1.6369E-6	 	23777.87593	57.63301	 
1025.0	1.0	0.0	7.95173	7.4156	-5.97583	19.06652	27.13291	1.17218	0.85311	143.00503	151.83469	53.23988	0.34303	 	4319718.799	 	1.46675E-6	 	23494.47416	56.68035	 
1020.0	1.0	0.0	7.95638	7.41127	-6.03076	18.95542	26.98292	1.17416	0.85167	143.59443	152.14313	53.47234	0.3427	 	4805844.501	 	1.31331E-6	 	23215.65462	55.76391	 
1015.0	1.0	0.0	7.96095	7.40701	-6.08474	18.8468	26.83738	1.17596	0.85037	144.17311	152.44623	53.70063	0.34238	 	5350613.972	 	1.17503E-6	 	22941.24117	54.88269	 
1010.0	1.0	0.0	7.96545	7.40283	-6.1378	18.74056	26.69604	1.1776	0.84919	144.74163	152.74435	53.92495	0.34207	 	5961538.504	 	1.05052E-6	 	22671.06245	54.03574	 
1005.0	1.0	0.0	7.96988	7.39871	-6.18998	18.63662	26.55865	1.17908	0.84812	145.30054	153.03779	54.14552	0.34176	 	6647151.056	 	9.38497E-7	 	22404.95249	53.22199	 
1000.0	1.0	0.0	7.97424	7.39467	-6.24131	18.53487	26.42499	1.1804	0.84717	145.85035	153.32683	54.36253	0.34146	 	7417152.201	 	8.37778E-7	 	22142.75026	52.44045	 
995.0	1.0	0.0	7.97854	7.39068	-6.29182	18.43525	26.29484	1.18159	0.84632	146.39152	153.61175	54.57616	0.34117	 	8282580.394	 	7.47294E-7	 	21884.30012	51.69003	 
990.0	1.0	0.0	7.98278	7.38676	-6.34154	18.33765	26.16801	1.18263	0.84557	146.92451	153.89279	54.7866	0.34088	 	9256007.31	 	6.66067E-7	 	21629.45166	50.96969	 
985.0	1.0	0.0	7.98695	7.3829	-6.39051	18.242	26.04429	1.18355	0.84492	147.44975	154.17015	54.994	0.3406	 	1.035176335E7	 	5.93205E-7	 	21378.05988	50.27836	 
980.0	1.0	0.0	7.99107	7.37909	-6.43874	18.14821	25.92351	1.18434	0.84435	147.96763	154.44404	55.19853	0.34032	 	1.158619957E7	 	5.27896E-7	 	21129.98482	49.61501	 
975.0	1.0	0.0	7.99513	7.37535	-6.48627	18.0562	25.8055	1.18501	0.84388	148.47854	154.71465	55.40032	0.34005	 	1.29779882E7	 	4.69403E-7	 	20885.0921	48.97855	 
970.0	1.0	0.0	7.99914	7.37165	-6.53313	17.96591	25.6901	1.18556	0.84348	148.98283	154.98214	55.59953	0.33978	 	1.454847399E7	 	4.17054E-7	 	20643.25253	48.36791	 
965.0	1.0	0.0	8.0031	7.36801	-6.57933	17.87724	25.57715	1.18601	0.84317	149.48083	155.24668	55.79628	0.33952	 	1.632207721E7	 	3.70241E-7	 	20404.34193	47.78212	 
960.0	1.0	0.0	8.007	7.36441	-6.62492	17.79012	25.46652	1.18635	0.84292	149.97285	155.5084	55.99069	0.33927	 	1.832676559E7	 	3.2841E-7	 	20168.24142	47.2201	 
955.7	1.0	0.0	8.01032	7.36136	-6.6636	17.71646	25.37322	1.18656	0.84277	150.39105	155.73112	56.15594	0.33905	 	2.025797464E7	 	2.96068E-7	 	19967.54988	 	 
955.0	1.0	0.0	8.01104	7.3607	-6.67199	17.69606	25.35885	1.18656	0.84278	150.47776	155.76503	56.19074	0.33899	 	2.060080185E7	 	2.90974E-7	 	19928.57232	47.93382	 
950.0	1.0	0.0	8.01611	7.35605	-6.73095	17.55283	25.26027	1.18634	0.84293	151.09153	156.00846	56.43698	0.33859	 	2.321755973E7	 	2.57128E-7	 	19654.29317	54.85583	 
949.57	1.0	0.0	8.01654	7.35565	-6.73595	17.5407	25.25194	1.18631	0.84295	151.144	156.02954	56.45803	0.33855	 	2.345768664E7	 	2.54407E-7	 	19630.97082	 	 
945.0	1.0	0.0	8.01998	7.3525	-6.77598	17.46478	25.15733	1.18632	0.84294	151.58382	156.26601	56.63183	0.33833	 	2.614089382E7	 	2.2744E-7	 	19422.11089	46.43646	 
940.0	1.0	0.0	8.0237	7.34908	-6.81924	17.383	25.05557	1.18625	0.84299	152.06013	156.52238	56.82007	0.33808	 	2.945249185E7	 	2.01038E-7	 	19195.96022	45.23013	 
935.0	1.0	0.0	8.02738	7.34571	-6.86199	17.30245	24.9555	1.1861	0.8431	152.53169	156.77647	57.00645	0.33785	 	3.321232044E7	 	1.77545E-7	 	18972.12236	44.76757	 
930.0	1.0	0.0	8.03103	7.34238	-6.90424	17.22307	24.85704	1.18587	0.84326	152.9987	157.02835	57.19106	0.33761	 	3.748502003E7	 	1.56657E-7	 	18750.50372	44.32373	 
925.0	1.0	0.0	8.03463	7.33909	-6.94601	17.14481	24.76009	1.18556	0.84348	153.46138	157.2781	57.37398	0.33738	 	4.234513658E7	 	1.381E-7	 	18531.01522	43.8977	 
920.0	1.0	0.0	8.0382	7.33583	-6.98731	17.0676	24.66457	1.18519	0.84375	153.9199	157.52579	57.55528	0.33715	 	4.787873426E7	 	1.2163E-7	 	18313.5717	43.4887	 
915.0	1.0	0.0	8.04173	7.33261	-7.02818	16.9914	24.5704	1.18475	0.84406	154.37445	157.77148	57.73503	0.33692	 	5.418527535E7	 	1.07023E-7	 	18098.09239	43.09586	 
910.0	1.0	0.0	8.04523	7.32942	-7.06862	16.91614	24.4775	1.18424	0.84443	154.82519	158.01523	57.9133	0.3367	 	6.13798329E7	 	9.40808E-8	 	17884.50023	42.71843	 
905.0	1.0	0.0	8.0487	7.32626	-7.10865	16.84177	24.38582	1.18367	0.84483	155.27228	158.2571	58.09015	0.33648	 	6.95956835E7	 	8.26238E-8	 	17672.72194	42.35566	 
900.0	1.0	0.0	8.05214	7.32313	-7.14828	16.76826	24.29528	1.18304	0.84528	155.71586	158.49714	58.26564	0.33626	 	7.89873594E7	 	7.24908E-8	 	17462.68742	42.0069	 
895.0	1.0	0.0	8.05554	7.32004	-7.18753	16.69554	24.20582	1.18235	0.84578	156.15606	158.73539	58.43982	0.33604	 	8.973423802E7	 	6.35371E-8	 	17254.33017	41.67145	 
890.0	1.0	0.0	8.05892	7.31697	-7.22641	16.62357	24.11739	1.1816	0.84631	156.59302	158.97189	58.61275	0.33583	 	1.020447702E8	 	5.56329E-8	 	17047.58674	41.34869	 
885.0	1.0	0.0	8.06226	7.31393	-7.26493	16.55232	24.02994	1.18081	0.84688	157.02686	159.20669	58.78447	0.33562	 	1.161614744E8	 	4.86619E-8	 	16842.39676	41.038	 
880.0	1.0	0.0	8.06559	7.31092	-7.30312	16.48173	23.94341	1.17996	0.84749	157.45769	159.43981	58.95502	0.33541	 	1.323668242E8	 	4.252E-8	 	16638.70224	40.7389	 
875.0	1.0	0.0	8.06888	7.30794	-7.34097	16.41176	23.85776	1.17906	0.84813	157.8856	159.67131	59.12445	0.3352	 	1.509902265E8	 	3.71139E-8	 	16436.44796	40.45086	 
870.0	1.0	0.0	8.07215	7.30498	-7.37851	16.34239	23.77294	1.17811	0.84882	158.31071	159.90119	59.29279	0.33499	 	1.724162621E8	 	3.23602E-8	 	16235.58221	40.17315	 
865.0	1.0	0.0	8.0754	7.30204	-7.41574	16.27356	23.68891	1.17712	0.84953	158.73309	160.12951	59.46009	0.33479	 	1.970944926E8	 	2.81846E-8	 	16036.05472	39.9055	 
860.0	1.0	0.0	8.07862	7.29913	-7.45267	16.20524	23.60565	1.17608	0.85028	159.15284	160.35627	59.62638	0.33458	 	2.255510409E8	 	2.45205E-8	 	15837.81788	39.64737	 
855.0	1.0	0.0	8.08182	7.29624	-7.48931	16.1374	23.5231	1.175	0.85106	159.57004	160.58151	59.79169	0.33438	 	2.584024337E8	 	2.13087E-8	 	15640.82608	39.39836	 
850.0	1.0	0.0	8.085	7.29337	-7.52567	16.07	23.44123	1.17388	0.85188	159.98477	160.80525	59.95605	0.33418	 	2.963720142E8	 	1.84964E-8	 	15445.03591	39.15804	 
845.0	1.0	0.0	8.08735	7.29125	-7.55255	16.04516	23.36793	1.17232	0.85301	160.33993	161.02239	60.09564	0.33404	 	3.373507513E8	 	1.61773E-8	 	15289.05086	31.19701	 
840.0	1.0	0.0	8.08969	7.28914	-7.57935	16.02032	23.29463	1.17075	0.85415	160.69443	161.23853	60.235	0.3339	 	3.844425461E8	 	1.41322E-8	 	15130.12744	31.78469	 
835.0	1.0	0.0	8.09203	7.28703	-7.60609	15.99548	23.22131	1.16917	0.85531	161.04827	161.45366	60.37415	0.33375	 	4.386249389E8	 	1.23308E-8	 	14971.45082	31.73532	 
830.0	1.0	0.0	8.09437	7.28492	-7.63277	15.97065	23.14799	1.16758	0.85647	161.40144	161.66779	60.51308	0.33361	 	5.010421619E8	 	1.0746E-8	 	14813.02036	31.68609	 
825.0	1.0	0.0	8.0967	7.28282	-7.65937	15.94582	23.07466	1.16598	0.85765	161.75395	161.88092	60.65179	0.33346	 	5.730353194E8	 	9.35335E-9	 	14654.83535	31.637	 
820.0	1.0	0.0	8.09903	7.28073	-7.68591	15.921	23.00133	1.16438	0.85883	162.1058	162.09305	60.79027	0.33332	 	6.561783472E8	 	8.13101E-9	 	14496.89515	31.58804	 
815.0	1.0	0.0	8.10135	7.27864	-7.71238	15.89618	22.92799	1.16276	0.86003	162.45699	162.30419	60.92854	0.33318	 	7.523209201E8	 	7.05947E-9	 	14339.19902	31.53923	 
810.0	1.0	0.0	8.10367	7.27656	-7.73878	15.87137	22.85464	1.16113	0.86123	162.80751	162.51434	61.06659	0.33303	 	8.636397227E8	 	6.12129E-9	 	14181.74629	31.49055	 
805.0	1.0	0.0	8.10599	7.27448	-7.76512	15.84655	22.78128	1.15949	0.86245	163.15738	162.7235	61.20442	0.33289	 	9.926998006E8	 	5.30088E-9	 	14024.53623	31.44201	 
800.0	1.0	0.0	8.1083	7.27241	-7.79139	15.82175	22.70792	1.15784	0.86368	163.50658	162.93168	61.34202	0.33275	 	1.142528084E9	 	4.58438E-9	 	13867.56813	31.39362	 
795.0	1.0	0.0	8.1106	7.27035	-7.81759	15.79695	22.63455	1.15618	0.86492	163.85512	163.13887	61.47941	0.3326	 	1.316701629E9	 	3.95942E-9	 	13710.84124	31.34538	 
790.0	1.0	0.0	8.1129	7.26828	-7.84373	15.77215	22.56117	1.15451	0.86617	164.203	163.34509	61.61658	0.33246	 	1.519453677E9	 	3.41502E-9	 	13554.35481	31.29729	 
785.0	1.0	0.0	8.1152	7.26623	-7.8698	15.74736	22.48778	1.15283	0.86743	164.55021	163.55032	61.75352	0.33231	 	1.755801336E9	 	2.94143E-9	 	13398.10807	31.24935	 
780.0	1.0	0.0	8.11749	7.26418	-7.8958	15.72257	22.41439	1.15114	0.8687	164.89677	163.75459	61.89025	0.33217	 	2.031699517E9	 	2.52998E-9	 	13242.10025	31.20156	 
775.0	1.0	0.0	8.11977	7.26213	-7.92173	15.69778	22.34099	1.14944	0.86999	165.24266	163.95788	62.02675	0.33203	 	2.354226822E9	 	2.17301E-9	 	13086.33054	31.15394	 
770.0	1.0	0.0	8.12205	7.26009	-7.9476	15.673	22.26758	1.14773	0.87128	165.58789	164.1602	62.16304	0.33188	 	2.731810365E9	 	1.86373E-9	 	12930.79814	31.10648	 
765.0	1.0	0.0	8.12433	7.25806	-7.9734	15.64822	22.19416	1.14601	0.87259	165.93246	164.36155	62.2991	0.33174	 	3.174498133E9	 	1.59614E-9	 	12775.50221	31.05918	 
760.0	1.0	0.0	8.1266	7.25603	-7.99913	15.62345	22.12073	1.14427	0.87392	166.27637	164.56194	62.43495	0.3316	 	3.694289458E9	 	1.36496E-9	 	12620.44191	31.01206	 
755.0	1.0	0.0	8.12887	7.254	-8.0248	15.59868	22.04729	1.14253	0.87525	166.61962	164.76137	62.57057	0.33145	 	4.305536674E9	 	1.16551E-9	 	12465.61636	30.96511	 
750.0	1.0	0.0	8.13114	7.25198	-8.0504	15.57392	21.97385	1.14077	0.8766	166.9622	164.95984	62.70597	0.33131	 	5.025434109E9	 	9.93693E-10	 	12311.02466	30.91834	 
745.0	1.0	0.0	8.13339	7.24997	-8.07593	15.54916	21.90039	1.13901	0.87796	167.30413	165.15736	62.84115	0.33117	 	5.874614414E9	 	8.459E-10	 	12156.6659	30.87175	 
740.0	1.0	0.0	8.13565	7.24796	-8.1014	15.5244	21.82693	1.13723	0.87933	167.64539	165.35392	62.97611	0.33102	 	6.877877035E9	 	7.18962E-10	 	12002.53913	30.82535	 
735.0	1.0	0.0	8.1379	7.24596	-8.1268	15.49965	21.75345	1.13544	0.88072	167.98599	165.54953	63.11085	0.33088	 	8.06507968E9	 	6.10103E-10	 	11848.6434	30.77915	 
730.0	1.0	0.0	8.14014	7.24396	-8.15213	15.4749	21.67997	1.13364	0.88212	168.32594	165.7442	63.24537	0.33074	 	9.472231177E9	 	5.16893E-10	 	11694.97768	30.73314	 
725.0	1.0	0.0	8.14238	7.24197	-8.1774	15.45016	21.60648	1.13182	0.88353	168.66522	165.93792	63.37967	0.33059	 	1.11428E10	 	4.37207E-10	 	11541.54097	30.68734	 
720.0	1.0	0.0	8.14462	7.23998	-8.20259	15.42542	21.53297	1.13	0.88496	169.00384	166.13069	63.51374	0.33045	 	1.3129499999999998E10	 	3.69192E-10	 	11388.33219	30.64176	 
715.0	1.0	0.0	8.14685	7.238	-8.22773	15.40069	21.45946	1.12816	0.8864	169.3418	166.32253	63.6476	0.33031	 	1.5496199999999998E10	 	3.11233E-10	 	11235.35025	30.59639	 
710.0	1.0	0.0	8.14907	7.23602	-8.25279	15.37596	21.38594	1.12631	0.88786	169.6791	166.51343	63.78123	0.33016	 	1.83202E10	 	2.61924E-10	 	11082.59401	30.55125	 
705.0	1.0	0.0	8.15129	7.23405	-8.27779	15.35123	21.3124	1.12445	0.88933	170.01573	166.70339	63.91465	0.33002	 	2.16961E10	 	2.20045E-10	 	10930.0623	30.50634	 
700.0	1.0	0.0	8.15351	7.23208	-8.30272	15.32651	21.23886	1.12257	0.89081	170.35171	166.89242	64.04784	0.32988	 	2.5738699999999996E10	 	1.84536E-10	 	10777.75389	30.46168	 
695.0	1.0	0.0	8.15572	7.23012	-8.32759	15.30179	21.1653	1.12069	0.89231	170.68703	167.08052	64.18081	0.32974	 	3.0588399999999996E10	 	1.5448E-10	 	10625.66754	30.41727	 
690.0	1.0	0.0	8.15793	7.22817	-8.35239	15.27708	21.09174	1.11879	0.89382	171.02168	167.26769	64.31356	0.32959	 	3.64172E10	 	1.29084E-10	 	10473.8019	30.37313	 
685.0	1.0	0.0	8.16013	7.22622	-8.37712	15.25237	21.01816	1.11688	0.89535	171.35568	167.45394	64.44608	0.32945	 	4.34358E10	 	1.07665E-10	 	10322.15563	30.32925	 
680.0	1.0	0.0	8.16233	7.22427	-8.40178	15.22766	20.94457	1.11495	0.8969	171.68902	167.63926	64.57839	0.32931	 	5.190279999999999E10	 	8.96308E-11	 	10170.72731	30.28566	 
675.0	1.0	0.0	8.16452	7.22233	-8.42638	15.20296	20.87097	1.11301	0.89846	172.02169	167.82367	64.71047	0.32916	 	6.213689999999999E10	 	7.44756E-11	 	10019.51544	30.24237	 
670.0	1.0	0.0	8.16671	7.2204	-8.45091	15.17827	20.79736	1.11106	0.90004	172.35371	168.00716	64.84233	0.32902	 	7.45311E10	 	6.17632E-11	 	9868.51848	30.19939	 
665.0	1.0	0.0	8.16889	7.21847	-8.47538	15.15357	20.72373	1.1091	0.90163	172.68506	168.18973	64.97397	0.32888	 	8.9571E10	 	5.11201E-11	 	9717.73481	30.15673	 
660.0	1.0	0.0	8.17107	7.21654	-8.49978	15.12888	20.6501	1.10712	0.90324	173.01575	168.37138	65.10539	0.32874	 	1.07858E11	 	4.22265E-11	 	9567.16622	30.11372	 
655.0	1.0	0.0	8.17324	7.21462	-8.52411	15.1042	20.57645	1.10513	0.90487	173.34579	168.55213	65.23659	0.32859	 	1.30139E11	 	3.48095E-11	 	9416.83183	30.06688	 
650.0	1.0	0.0	8.17541	7.21271	-8.54837	15.07952	20.50279	1.10313	0.90651	173.67516	168.73197	65.36756	0.32845	 	1.57342E11	 	2.86361E-11	 	9266.75706	30.01495	 
645.0	1.0	0.0	8.17757	7.2108	-8.57257	15.05485	20.42911	1.10111	0.90818	174.00388	168.91091	65.49832	0.32831	 	1.90625E11	 	2.35082E-11	 	9116.94113	29.96318	 
640.0	1.0	0.0	8.17973	7.2089	-8.5967	15.03017	20.35542	1.09908	0.90985	174.33193	169.08894	65.62885	0.32817	 	2.31435E11	 	1.92575E-11	 	8967.38329	29.91157	 
635.0	1.0	0.0	8.18189	7.207	-8.62077	15.00551	20.28172	1.09703	0.91155	174.65933	169.26608	65.75916	0.32802	 	2.81582E11	 	1.57412E-11	 	8818.08276	29.86011	 
630.0	1.0	0.0	8.18404	7.20511	-8.64477	14.98084	20.20801	1.09497	0.91327	174.98606	169.44231	65.88924	0.32788	 	3.4334E11	 	1.28387E-11	 	8669.03878	29.8088	 
625.0	1.0	0.0	8.18618	7.20322	-8.6687	14.95618	20.13428	1.0929	0.915	175.31214	169.61765	66.01911	0.32774	 	4.19569E11	 	1.0448E-11	 	8520.25025	29.75771	 
620.0	1.0	0.0	8.18832	7.20134	-8.69257	14.93153	20.06053	1.09081	0.91675	175.63756	169.79209	66.14875	0.3276	 	5.13873E11	 	8.48311E-12	 	8371.71564	29.70692	 
615.0	1.0	0.0	8.19046	7.19946	-8.71637	14.90688	19.98678	1.0887	0.91852	175.96231	169.96565	66.27817	0.32745	 	6.30813E11	 	6.87183E-12	 	8223.43461	29.65621	 
610.0	1.0	0.0	8.19259	7.19759	-8.7401	14.88223	19.91301	1.08659	0.92031	176.28641	170.13831	66.40736	0.32731	 	7.76164E11	 	5.55351E-12	 	8075.40641	29.60564	 
605.0	1.0	0.0	8.19471	7.19572	-8.76377	14.85759	19.83922	1.08445	0.92212	176.60984	170.31009	66.53634	0.32717	 	9.57264E11	 	4.47738E-12	 	7927.6303	29.55522	 
600.0	1.0	0.0	8.19683	7.19386	-8.78737	14.83295	19.76542	1.0823	0.92396	176.93262	170.48098	66.66509	0.32703	 	1.18346E12	 	3.601E-12	 	7780.10553	29.50495	 
595.0	1.0	0.0	8.19895	7.192	-8.8109	14.80832	19.6916	1.08014	0.92581	177.25474	170.651	66.79362	0.32688	 	1.46668E12	 	2.88899E-12	 	7632.83137	29.45483	 
590.0	1.0	0.0	8.20106	7.19015	-8.83437	14.78369	19.61776	1.07796	0.92768	177.5762	170.82013	66.92193	0.32674	 	1.82221E12	 	2.31193E-12	 	7485.80709	29.40486	 
585.0	1.0	0.0	8.20316	7.18831	-8.85777	14.75906	19.54391	1.07577	0.92957	177.897	170.98839	67.05001	0.3266	 	2.26964E12	 	1.84541E-12	 	7339.03197	29.35502	 
580.0	1.0	0.0	8.20526	7.18647	-8.88111	14.73444	19.47005	1.07356	0.93148	178.21714	171.15577	67.17787	0.32646	 	2.83424E12	 	1.46918E-12	 	7192.50527	29.30534	 
575.0	1.0	0.0	8.20736	7.18463	-8.90438	14.70983	19.39616	1.07133	0.93342	178.53662	171.32228	67.30551	0.32632	 	3.54856E12	 	1.16656E-12	 	7046.22628	29.2558	 
570.0	1.0	0.0	8.20945	7.1828	-8.92758	14.68521	19.32226	1.06909	0.93538	178.85544	171.48792	67.43292	0.32617	 	4.45477E12	 	9.23775E-13	 	6900.19427	29.2064	 
565.0	1.0	0.0	8.21154	7.18098	-8.95072	14.6606	19.24835	1.06683	0.93736	179.1736	171.65269	67.56012	0.32603	 	5.6076E12	 	7.2951E-13	 	6754.40854	29.15715	 
560.0	1.0	0.0	8.21362	7.17916	-8.97379	14.636	19.17441	1.06455	0.93936	179.4911	171.81659	67.68708	0.32589	 	7.0783E12	 	5.74488E-13	 	6608.86836	29.10804	 
555.0	1.0	0.0	8.2157	7.17734	-8.99679	14.6114	19.10046	1.06226	0.94139	179.80794	171.97963	67.81383	0.32575	 	8.95987E12	 	4.51122E-13	 	6463.57304	29.05906	 
550.0	1.0	0.0	8.21777	7.17553	-9.01973	14.5868	19.02649	1.05995	0.94344	180.12413	172.14181	67.94035	0.3256	 	1.13741E13	 	3.53221E-13	 	6318.52188	29.01023	 
545.0	1.0	0.0	8.21983	7.17373	-9.0426	14.56221	18.9525	1.05763	0.94551	180.43965	172.30314	68.06665	0.32546	 	1.44811E13	 	2.75751E-13	 	6173.71416	28.96154	 
540.0	1.0	0.0	8.22189	7.17193	-9.06541	14.53763	18.87849	1.05528	0.94761	180.75452	172.4636	68.19273	0.32532	 	1.84916E13	 	2.14626E-13	 	6029.14921	28.91299	 
535.0	1.0	0.0	8.22395	7.17014	-9.08814	14.51304	18.80446	1.05292	0.94974	181.06873	172.62321	68.31858	0.32518	 	2.36844E13	 	1.66539E-13	 	5884.82632	28.86458	 
530.0	1.0	0.0	8.226	7.16835	-9.11082	14.48846	18.73041	1.05055	0.95189	181.38227	172.78197	68.44421	0.32504	 	3.04289E13	 	1.28824E-13	 	5740.74481	28.8163	 
525.0	1.0	0.0	8.22805	7.16657	-9.13342	14.46389	18.65635	1.04815	0.95406	181.69516	172.93988	68.56961	0.3249	 	3.92171E13	 	9.93335E-14	 	5596.90402	28.76816	 
520.0	1.0	0.0	8.23009	7.16479	-9.15597	14.43932	18.58226	1.04574	0.95626	182.00739	173.09694	68.6948	0.32475	 	5.07053E13	 	7.63465E-14	 	5453.30324	28.72016	 
515.0	1.0	0.0	8.23213	7.16302	-9.17844	14.41475	18.50815	1.04331	0.95849	182.31896	173.25315	68.81975	0.32461	 	6.57729E13	 	5.84856E-14	 	5309.94182	28.67228	 
510.0	1.0	0.0	8.23416	7.16125	-9.20085	14.39019	18.43402	1.04086	0.96075	182.62988	173.40852	68.94449	0.32447	 	8.56018E13	 	4.46528E-14	 	5166.8191	28.62455	 
505.0	1.0	0.0	8.23619	7.15949	-9.22319	14.36563	18.35986	1.03839	0.96303	182.94013	173.56305	69.069	0.32433	 	1.11787E14	 	3.3975E-14	 	5023.93439	28.57694	 
500.0	1.0	0.0	8.23821	7.15773	-9.24547	14.34108	18.28569	1.0359	0.96534	183.24973	173.71674	69.19328	0.32419	 	1.46486E14	 	2.57605E-14	 	4881.28707	28.52946	 
495.0	1.0	0.0	8.24022	7.15598	-9.26768	14.31653	18.21149	1.0334	0.96768	183.55866	173.86959	69.31735	0.32405	 	1.92633E14	 	1.94627E-14	 	4738.87647	28.48212	 
490.0	1.0	0.0	8.24224	7.15423	-9.28982	14.29198	18.13727	1.03087	0.97005	183.86694	174.02161	69.44118	0.3239	 	2.5422799999999997E14	 	1.46512E-14	 	4596.70194	28.43491	 
485.0	1.0	0.0	8.24424	7.15249	-9.3119	14.26744	18.06303	1.02833	0.97245	184.17456	174.1728	69.5648	0.32376	 	3.36749E14	 	1.09884E-14	 	4454.76286	28.38781	 
480.0	1.0	0.0	8.24624	7.15075	-9.33391	14.2429	17.98876	1.02576	0.97489	184.48152	174.32315	69.68819	0.32362	 	4.47723E14	 	8.2103E-15	 	4313.05859	28.34085	 
475.0	1.0	0.0	8.24824	7.14902	-9.35586	14.21837	17.91447	1.02318	0.97735	184.78782	174.47268	69.81135	0.32348	 	5.97539E14	 	6.11096E-15	 	4171.58851	28.29402	 
470.0	1.0	0.0	8.25023	7.1473	-9.37774	14.19384	17.84015	1.02057	0.97984	185.09346	174.62138	69.9343	0.32334	 	8.00589E14	 	4.53058E-15	 	4030.35201	28.2473	 
465.0	1.0	0.0	8.25222	7.14558	-9.39955	14.16932	17.76581	1.01795	0.98237	185.39845	174.76925	70.05701	0.3232	 	1.0769E15	 	3.34547E-15	 	3889.34845	28.20071	 
460.0	1.0	0.0	8.2542	7.14386	-9.4213	14.1448	17.69144	1.0153	0.98493	185.70277	174.91631	70.17951	0.32306	 	1.45444E15	 	2.46028E-15	 	3748.57725	28.15424	 
455.0	1.0	0.0	8.25618	7.14215	-9.44298	14.12028	17.61704	1.01264	0.98752	186.00644	175.06254	70.30177	0.32291	 	1.97246E15	 	1.80177E-15	 	3608.0378	28.10789	 
450.0	1.0	0.0	8.25815	7.14045	-9.4646	14.09577	17.54262	1.00995	0.99015	186.30945	175.20795	70.42382	0.32277	 	2.68628E15	 	1.3139E-15	 	3467.72952	28.06166	 
445.0	1.0	0.0	8.26011	7.13875	-9.48615	14.07126	17.46817	1.00724	0.99281	186.6118	175.35255	70.54564	0.32263	 	3.6742E15	 	9.53979E-16	 	3327.65182	28.01554	 
440.0	1.0	0.0	8.26207	7.13705	-9.50764	14.04676	17.39369	1.00451	0.99551	186.91349	175.49634	70.66723	0.32249	 	5.04756E15	 	6.89583E-16	 	3187.80413	27.96954	 
435.0	1.0	0.0	8.26403	7.13536	-9.52906	14.02226	17.31919	1.00176	0.99824	187.21453	175.63931	70.7886	0.32235	 	6.96542E15	 	4.96209E-16	 	3048.18589	27.92365	 
430.0	1.0	0.0	8.26598	7.13368	-9.55041	13.99777	17.24465	0.99899	1.00101	187.5149	175.78147	70.90974	0.32221	 	9.65611E15	 	3.55412E-16	 	2908.79652	27.87787	 
425.0	1.0	0.0	8.26793	7.132	-9.5717	13.97328	17.17008	0.99619	1.00382	187.81462	175.92283	71.03066	0.32207	 	1.3449E16	 	2.53365E-16	 	2769.63556	27.83219	 
420.0	1.0	0.0	8.26987	7.13033	-9.59292	13.94879	17.09549	0.99337	1.00667	188.11368	176.06338	71.15136	0.32193	 	1.88214E16	 	1.79747E-16	 	2630.70237	27.78664	 
415.0	1.0	0.0	8.2718	7.12866	-9.61408	13.92431	17.02086	0.99053	1.00956	188.41208	176.20312	71.27183	0.32179	 	2.64689E16	 	1.26892E-16	 	2491.99661	27.74115	 
410.0	1.0	0.0	8.27373	7.127	-9.63517	13.89983	16.9462	0.98767	1.01249	188.70983	176.34207	71.39207	0.32164	 	3.74099E16	 	8.91284E-17	 	2353.51809	27.6957	 
405.0	1.0	0.0	8.27566	7.12534	-9.65619	13.87535	16.8715	0.98478	1.01546	189.00691	176.48021	71.51209	0.3215	 	5.31439E16	 	6.22814E-17	 	2215.26657	27.6503	 
400.0	1.0	0.0	8.27758	7.12368	-9.67715	13.85089	16.79678	0.98187	1.01847	189.30334	176.61756	71.63188	0.32136	 	7.58902E16	 	4.32925E-17	 	2077.24183	27.60495	 
395.0	1.0	0.0	8.2795	7.12204	-9.69804	13.82642	16.72202	0.97893	1.02152	189.59911	176.75411	71.75145	0.32122	 	1.08952E17	 	2.99314E-17	 	1939.44368	27.55963	 
390.0	1.0	0.0	8.28141	7.12039	-9.71887	13.80196	16.64722	0.97597	1.02462	189.89422	176.88986	71.87079	0.32108	 	1.57271E17	 	2.05802E-17	 	1801.87194	27.51435	 
385.0	1.0	0.0	8.28331	7.11876	-9.73963	13.7775	16.57239	0.97298	1.02777	190.18867	177.02483	71.98991	0.32094	 	2.28291E17	 	1.4071E-17	 	1664.52641	27.4691	 
380.0	1.0	0.0	8.28521	7.11712	-9.76033	13.75305	16.49752	0.96997	1.03095	190.48246	177.159	72.1088	0.3208	 	3.33276E17	 	9.56523E-18	 	1527.40696	27.42389	 
375.0	1.0	0.0	8.2871	7.1155	-9.78096	13.7286	16.42262	0.96694	1.03419	190.7756	177.29239	72.22747	0.32066	 	4.8939E17	 	6.46408E-18	 	1390.51342	27.37871	 
370.0	1.0	0.0	8.28899	7.11387	-9.80152	13.70416	16.34767	0.96388	1.03747	191.06808	177.42499	72.34591	0.32052	 	7.22937E17	 	4.34208E-18	 	1253.84565	27.33355	 
365.0	1.0	0.0	8.29088	7.11226	-9.82202	13.67972	16.27269	0.96079	1.04081	191.3599	177.55681	72.46412	0.32038	 	1.07449E18	 	2.89873E-18	 	1117.40354	27.28842	 
360.0	1.0	0.0	8.29276	7.11065	-9.84246	13.65528	16.19767	0.95768	1.04419	191.65106	177.68785	72.58211	0.32024	 	1.60702E18	 	1.92297E-18	 	981.18697	27.24331	 
355.0	1.0	0.0	8.29463	7.10904	-9.86282	13.63085	16.1226	0.95454	1.04762	191.94157	177.8181	72.69987	0.3201	 	2.41892E18	 	1.26744E-18	 	845.19586	27.19822	 
350.0	1.0	0.0	8.2965	7.10744	-9.88313	13.60642	16.0475	0.95137	1.05111	192.23141	177.94758	72.81741	0.31996	 	3.665E18	 	8.2986E-19	 	709.43011	27.15315	 
345.0	1.0	0.0	8.29836	7.10584	-9.90336	13.582	15.97235	0.94818	1.05465	192.5206	178.07628	72.93472	0.31981	 	5.59044E18	 	5.39678E-19	 	573.88968	27.10809	 
340.0	1.0	0.0	8.30022	7.10425	-9.92353	13.55758	15.89716	0.94496	1.05825	192.80914	178.20421	73.05181	0.31967	 	8.58633E18	 	3.48534E-19	 	438.57452	27.06303	 
335.0	1.0	0.0	8.30207	7.10267	-9.94364	13.53316	15.82192	0.94171	1.0619	193.09701	178.33136	73.16866	0.31953	 	1.32811E19	 	2.23493E-19	 	303.4846	27.01798	 
330.0	1.0	0.0	8.30392	7.10109	-9.96368	13.50875	15.74664	0.93843	1.06561	193.38423	178.45775	73.2853	0.31939	 	2.06919E19	 	1.42269E-19	 	168.61991	26.97294	 
325.0	1.0	0.0	8.30577	7.09951	-9.98366	13.48434	15.67131	0.93513	1.06937	193.67078	178.58336	73.4017	0.31925	 	3.24779E19	 	8.98896E-20	 	33.98045	26.92789	 
320.0	1.0	0.0	8.3076	7.09794	-10.00357	13.45994	15.59593	0.93179	1.0732	193.95668	178.70821	73.51788	0.31911	 	5.13658E19	 	5.63608E-20	 	-100.43372	26.88283	 
315.0	1.0	0.0	8.30944	7.09637	-10.02341	13.43554	15.5205	0.92843	1.07709	194.24193	178.8323	73.63383	0.31897	 	8.18741E19	 	3.50613E-20	 	-234.62258	26.83777	 
310.0	1.0	0.0	8.31126	7.09481	-10.04319	13.41115	15.44502	0.92503	1.08104	194.52651	178.95562	73.74956	0.31883	 	1.3154999999999998E20	 	2.1636E-20	 	-368.58603	26.79269	 
305.0	1.0	0.0	8.31308	7.09326	-10.0629	13.38676	15.36949	0.92161	1.08506	194.81044	179.07818	73.86506	0.31869	 	2.1310699999999997E20	 	1.32413E-20	 	-502.324	26.74759	 
300.0	1.0	0.0	8.3149	7.09171	-10.08255	13.36237	15.29391	0.91815	1.08914	195.09371	179.19998	73.98033	0.31855	 	3.48144E20	 	8.0352E-21	 	-635.83636	26.70247	 
295.0	1.0	0.0	8.31671	7.09017	-10.10213	13.33799	15.21827	0.91467	1.09329	195.37633	179.32102	74.09538	0.31841	 	5.7368299999999997E20	 	4.83368E-21	 	-769.12296	26.65732	 
290.0	1.0	0.0	8.31852	7.08863	-10.12165	13.31362	15.14258	0.91115	1.09751	195.65828	179.44131	74.2102	0.31827	 	9.537559999999999E20	 	2.88186E-21	 	-902.18365	26.61214	 
285.0	1.0	0.0	8.32032	7.08709	-10.1411	13.28924	15.06683	0.9076	1.10181	195.93958	179.56084	74.32479	0.31813	 	1.6001400000000001E21	 	1.70247E-21	 	-1035.01822	26.56691	 
280.0	1.0	0.0	8.32211	7.08556	-10.16049	13.26487	14.99101	0.90402	1.10617	196.22022	179.67963	74.43915	0.31799	 	2.70982E21	 	9.96297E-22	 	-1167.62645	26.52165	 
275.0	1.0	0.0	8.3239	7.08404	-10.17981	13.24051	14.91514	0.90041	1.11061	196.5002	179.79766	74.55329	0.31785	 	4.63338E21	 	5.77415E-22	 	-1300.00808	26.47633	 
270.0	1.0	0.0	8.32569	7.08252	-10.19906	13.21615	14.83921	0.89676	1.11513	196.77953	179.91494	74.6672	0.31771	 	8.00099E21	 	3.31332E-22	 	-1432.16284	26.43095	 
265.0	1.0	0.0	8.32747	7.08101	-10.21826	13.19179	14.76321	0.89308	1.11973	197.0582	180.03148	74.78089	0.31757	 	1.39572E22	 	1.88188E-22	 	-1564.0904	26.38551	 
260.0	1.0	0.0	8.32924	7.0795	-10.23738	13.16744	14.68715	0.88936	1.1244	197.33621	180.14728	74.89434	0.31743	 	2.4602799999999996E22	 	1.05767E-22	 	-1695.79043	26.34	 
255.0	1.0	0.0	8.33101	7.078	-10.25644	13.14309	14.61102	0.88561	1.12916	197.61356	180.26233	75.00757	0.31729	 	4.38362E22	 	5.88045E-23	 	-1827.26253	26.29442	 
250.0	1.0	0.0	8.33278	7.0765	-10.27544	13.11875	14.53482	0.88183	1.13401	197.89026	180.37664	75.12057	0.31715	 	7.897259999999999E22	 	3.23323E-23	 	-1958.50629	26.24875	 
245.0	1.0	0.0	8.33453	7.075	-10.29437	13.09441	14.45855	0.878	1.13895	198.1663	180.49021	75.23335	0.31701	 	1.43898E23	 	1.75747E-23	 	-2089.52123	26.20299	 
240.0	1.0	0.0	8.33629	7.07352	-10.31323	13.07008	14.3822	0.87415	1.14397	198.44168	180.60304	75.3459	0.31687	 	2.6528199999999997E23	 	9.4411E-24	 	-2220.30689	26.15713	 
235.0	1.0	0.0	8.33803	7.07203	-10.33203	13.04574	14.30578	0.87025	1.14909	198.71641	180.71514	75.45821	0.31673	 	4.94984E23	 	5.01057E-24	 	-2350.86269	26.11116	 
230.0	1.0	0.0	8.33978	7.07056	-10.35076	13.02142	14.22928	0.86632	1.1543	198.99048	180.8265	75.57031	0.31659	 	9.350999999999999E23	 	2.62619E-24	 	-2481.18805	26.06507	 
225.0	1.0	0.0	8.34151	7.06908	-10.36943	12.9971	14.15271	0.86236	1.15961	199.26389	180.93713	75.68217	0.31645	 	1.78925E24	 	1.35887E-24	 	-2611.28237	26.01886	 
220.0	1.0	0.0	8.34325	7.06762	-10.38804	12.97278	14.07605	0.85835	1.16503	199.53664	181.04704	75.79381	0.31631	 	3.46894E24	 	6.93854E-25	 	-2741.14492	25.97251	 
215.0	1.0	0.0	8.34497	7.06615	-10.40658	12.94846	13.9993	0.85431	1.17054	199.80874	181.15621	75.90521	0.31617	 	6.81733E24	 	3.49483E-25	 	-2870.775	25.92602	 
210.0	1.0	0.0	8.34669	7.0647	-10.42505	12.92415	13.92247	0.85022	1.17616	200.08018	181.26466	76.01639	0.31603	 	1.35864E25	 	1.73566E-25	 	-3000.17181	25.87936	 
205.0	1.0	0.0	8.34841	7.06325	-10.44346	12.89985	13.84555	0.8461	1.1819	200.35097	181.37238	76.12735	0.31589	 	2.747E25	 	8.49557E-26	 	-3129.33451	25.83254	 
200.0	1.0	0.0	8.35012	7.0618	-10.4618	12.87555	13.76853	0.84193	1.18774	200.62109	181.47938	76.23807	0.31575	 	5.63734E25	 	4.09649E-26	 	-3258.26219	25.78554	 
195.0	1.0	0.0	8.35182	7.06036	-10.48008	12.85125	13.69143	0.83773	1.19371	200.89056	181.58565	76.34857	0.31561	 	1.17479E26	 	1.94497E-26	 	-3386.95388	25.73834	 
190.0	1.0	0.0	8.35352	7.05892	-10.4983	12.82696	13.61422	0.83348	1.19979	201.15938	181.69121	76.45883	0.31548	 	2.4873000000000003E26	 	9.08823E-27	 	-3515.40856	25.69094	 
185.0	1.0	0.0	8.35522	7.05749	-10.51644	12.80267	13.53691	0.82919	1.206	201.42753	181.79605	76.56887	0.31534	 	5.3531500000000005E26	 	4.1772E-27	 	-3643.62511	25.64331	 
180.0	1.0	0.0	8.35691	7.05606	-10.53453	12.77838	13.45949	0.82486	1.21233	201.69503	181.90017	76.67868	0.3152	 	1.17175E27	 	1.88752E-27	 	-3771.60235	25.59545	 
175.0	1.0	0.0	8.35859	7.05464	-10.55255	12.7541	13.38197	0.82048	1.21879	201.96188	182.00358	76.78827	0.31506	 	2.61008E27	 	8.38023E-28	 	-3899.33904	25.54734	 
170.0	1.0	0.0	8.36027	7.05323	-10.5705	12.72983	13.30434	0.81606	1.2254	202.22806	182.10627	76.89762	0.31492	 	5.92E27	 	3.65356E-28	 	-4026.83382	25.49896	 
165.0	1.0	0.0	8.36194	7.05182	-10.58839	12.70555	13.22659	0.8116	1.23214	202.49359	182.20826	77.00675	0.31478	 	1.36806E28	 	1.56316E-28	 	-4154.08528	25.45029	 
160.0	1.0	0.0	8.36361	7.05041	-10.60621	12.68129	13.14872	0.80709	1.23902	202.75847	182.30953	77.11564	0.31464	 	3.22321E28	 	6.55897E-29	 	-4281.09189	25.40132	 
155.0	1.0	0.0	8.36527	7.04901	-10.62397	12.65702	13.07073	0.80253	1.24606	203.02269	182.4101	77.22431	0.3145	 	7.74756E28	 	2.69723E-29	 	-4407.85205	25.35203	 
150.0	1.0	0.0	8.36693	7.04761	-10.64167	12.63276	12.99261	0.79793	1.25324	203.28625	182.50996	77.33275	0.31436	 	1.9012600000000002E29	 	1.08627E-29	 	-4534.36401	25.30239	 
145.0	1.0	0.0	8.36858	7.04622	-10.6593	12.60851	12.91435	0.79328	1.26059	203.54915	182.60912	77.44096	0.31422	 	4.76697E29	 	4.2813E-30	 	-4660.62597	25.25239	 
140.0	1.0	0.0	8.37022	7.04484	-10.67686	12.58426	12.83597	0.78858	1.2681	203.8114	182.70757	77.54895	0.31408	 	1.2221E30	 	1.65002E-30	 	-4786.63596	25.202	 
135.0	1.0	0.0	8.37186	7.04346	-10.69436	12.56001	12.75743	0.78383	1.27578	204.07299	182.80533	77.6567	0.31394	 	3.20617E30	 	6.21327E-31	 	-4912.39192	25.15119	 
130.0	1.0	0.0	8.3735	7.04208	-10.7118	12.53577	12.67876	0.77903	1.28364	204.33393	182.90238	77.76423	0.3138	 	8.61504E30	 	2.284E-31	 	-5037.89165	25.09995	 
125.0	1.0	0.0	8.37513	7.04071	-10.72917	12.51153	12.59993	0.77419	1.29168	204.59421	182.99874	77.87152	0.31367	 	2.37307E31	 	8.18887E-32	 	-5163.13281	25.04823	 
120.0	1.0	0.0	8.37675	7.03935	-10.74647	12.4873	12.52094	0.76929	1.29991	204.85384	183.0944	77.97859	0.31353	 	6.70741E31	 	2.86082E-32	 	-5288.11291	24.99602	 
115.0	1.0	0.0	8.37837	7.03799	-10.76371	12.46307	12.44179	0.76433	1.30833	205.11281	183.18936	78.08543	0.31339	 	1.94727E32	 	9.72882E-33	 	-5412.8293	24.94328	 
110.0	1.0	0.0	8.37998	7.03663	-10.78089	12.43884	12.36246	0.75933	1.31695	205.37112	183.28364	78.19203	0.31325	 	5.8127E32	 	3.2172E-33	 	-5537.27918	24.88998	 
105.0	1.0	0.0	8.38159	7.03528	-10.798	12.41462	12.28297	0.75427	1.32578	205.62878	183.37722	78.29841	0.31311	 	1.78603E33	 	1.03338E-33	 	-5661.45955	24.83607	 
100.0	1.0	0.0	8.38319	7.03394	-10.81505	12.3904	12.20328	0.74916	1.33483	205.88578	183.47012	78.40456	0.31297	 	5.65543E33	 	3.22036E-34	 	-5785.36722	24.78153	 
95.0	1.0	0.0	8.38479	7.0326	-10.83203	12.36619	12.12341	0.74399	1.34411	206.14213	183.56232	78.51048	0.31283	 	1.8477300000000001E34	 	9.72462E-35	 	-5908.99881	24.72632	 
90.0	1.0	0.0	8.38638	7.03127	-10.84894	12.34198	12.04334	0.73876	1.35361	206.39782	183.65384	78.61618	0.31269	 	6.236930000000001E34	 	2.84185E-35	 	-6032.35072	24.67038	 
85.0	1.0	0.0	8.38797	7.02994	-10.8658	12.31777	11.96306	0.73348	1.36336	206.65286	183.74468	78.72164	0.31255	 	2.17798E35	 	8.02596E-36	 	-6155.4191	24.61368	 
80.0	1.0	0.0	8.38955	7.02861	-10.88258	12.29357	11.88256	0.72814	1.37336	206.90724	183.83483	78.82687	0.31242	 	7.879829999999999E35	 	2.18741E-36	 	-6278.19986	24.55615	 
75.0	1.0	0.0	8.39112	7.02729	-10.89931	12.26938	11.80184	0.72274	1.38362	207.16096	183.92431	78.93188	0.31228	 	2.95815E36	 	5.74425E-37	 	-6400.68866	24.49776	 
70.0	1.0	0.0	8.39269	7.02598	-10.91597	12.24518	11.72089	0.71728	1.39415	207.41404	184.0131	79.03665	0.31214	 	1.15416E37	 	1.45113E-37	 	-6522.88085	24.43844	 
65.0	1.0	0.0	8.39425	7.02467	-10.93256	12.221	11.63969	0.71176	1.40497	207.66645	184.10122	79.14119	0.312	 	4.688069999999999E37	 	3.52048E-38	 	-6644.77148	24.37813	 
60.0	1.0	0.0	8.39581	7.02337	-10.94909	12.19681	11.55823	0.70618	1.41607	207.91822	184.18866	79.24551	0.31186	 	1.98607E38	 	8.18712E-39	 	-6766.35526	24.31676	 
55.0	1.0	0.0	8.39736	7.02207	-10.96555	12.17263	11.47651	0.70053	1.42748	208.16932	184.27543	79.3496	0.31172	 	8.79234E38	 	1.82161E-39	 	-6887.62656	24.25426	 
50.0	1.0	0.0	8.39891	7.02078	-10.98195	12.14846	11.39451	0.69482	1.43921	208.41978	184.36152	79.45345	0.31158	 	4.0757500000000005E39	 	3.86976E-40	 	-7008.57936	24.19056	 
45.0	1.0	0.0	8.40045	7.01949	-10.99829	12.12429	11.31221	0.68905	1.45127	208.66958	184.44695	79.55708	0.31145	 	1.98265E40	 	7.83199E-41	 	-7129.20722	24.12557	 
40.0	1.0	0.0	8.40199	7.0182	-11.01456	12.10012	11.22961	0.68321	1.46368	208.91873	184.5317	79.66048	0.31131	 	1.01444E41	 	1.50665E-41	 	-7249.50325	24.05921	 
35.0	1.0	0.0	8.40352	7.01693	-11.03077	12.07596	11.14669	0.6773	1.47645	209.16722	184.61579	79.76364	0.31117	 	5.4728400000000004E41	 	2.74812E-42	 	-7369.4601	23.99137	 
30.0	1.0	0.0	8.40504	7.01565	-11.04691	12.0518	11.06343	0.67133	1.48959	209.41506	184.69921	79.86658	0.31103	 	3.12137E42	 	4.74023E-43	 	-7489.06986	23.92195	 
25.0	1.0	0.0	8.40656	7.01438	-11.06299	 	10.97982	0.66528	1.50312	209.66225	184.78197	79.96929	0.31089	 	1.8872900000000001E43	 	7.7105E-44	 	-7608.32407	 	 
