T (C)	Fraction solid (wt)-TOTAL	Fraction liquid (wt)-LIQUID	Density (g/(cm)^3)-TOTAL	Molar volume (cm^3)-TOTAL	Volume change (%)-  	Average expansion coeff. (10e-6 1/K)-  	Thermal conductivity (W/(m*K))-TOTAL	Electrical resistivity (10e-6 Ohm*m)-TOTAL	Electrical conductivity (10e6 1/(Ohm*m))-TOTAL	Young's modulus (GPa)-TOTAL	Bulk modulus (GPa)-TOTAL	Shear modulus(GPa)-TOTAL	Poisson's ratio-TOTAL	Liquid viscosity (mPa s)-  	Total viscosity (mPa s)-  	Liquid diffusivity (10e-9 (m^2)/s)-  	Total diffusivity (10e-9 (m^2)/s)-  	Surface Tension (mN/m)-  	Enthalpy (J/mole)-TOTAL	Specific heat (J/(mole K))-TOTAL	Latent heat (J/mole)-TOTAL
1400.0	0.0	1.0	7.46351	7.72153	0.0	28.09684	30.80864	1.33054	0.75157	0.0	128.28884	0.0	0.5	7.13318	7.13318	1.14482	1.14482	1770.33987	59426.224	 	0.0
1395.0	0.0	1.0	7.46747	7.71743	-0.0531245	28.05514	30.72453	1.3302	0.75177	0.0	128.45012	0.0	0.5	7.20931	7.20931	1.12935	1.12935	1772.70408	59221.363	40.9722	0.0
1390.0	0.0	1.0	7.47143	7.71334	-0.10609	28.01357	30.64043	1.32985	0.75196	0.0	128.6114	0.0	0.5	7.28671	7.28671	1.114	1.114	1775.07936	59016.976	40.8774	0.0
1385.0	0.0	1.0	7.47538	7.70926	-0.1589	27.97212	30.55633	1.3295	0.75216	0.0	128.77269	0.0	0.5	7.36543	7.36543	1.09878	1.09878	1777.46549	58813.061	40.783	0.0
1380.0	0.0	1.0	7.47933	7.70519	-0.21156	27.93079	30.47222	1.32915	0.75236	0.0	128.93397	0.0	0.5	7.44547	7.44547	1.08369	1.08369	1779.86224	58609.615	40.6892	0.0
1375.0	0.0	1.0	7.48327	7.70114	-0.26406	27.88959	30.38812	1.3288	0.75256	0.0	129.09525	0.0	0.5	7.52688	7.52688	1.06873	1.06873	1782.26935	58406.636	40.5958	0.0
1370.0	0.0	1.0	7.4872	7.6971	-0.3164	27.84852	30.30402	1.32844	0.75276	0.0	129.25653	0.0	0.5	7.60969	7.60969	1.05389	1.05389	1784.68658	58204.122	40.5028	0.0
1365.0	0.0	1.0	7.49112	7.69307	-0.36858	27.80758	30.21991	1.32809	0.75296	0.0	129.41781	0.0	0.5	7.69392	7.69392	1.03919	1.03919	1787.11366	58002.07	40.4104	0.0
1360.0	0.0	1.0	7.49503	7.68905	-0.42061	27.76676	30.13581	1.32773	0.75317	0.0	129.5791	0.0	0.5	7.7796	7.7796	1.0246	1.0246	1789.55031	57800.477	40.3186	0.0
1358.69	0.0	1.0	7.49606	7.688	-0.43425	27.75606	30.11371	1.32763	0.75322	0.0	129.62148	0.0	0.5	7.80236	7.80236	1.02079	1.02079	1790.19214	57747.581	40.26061	0.0
1355.0	0.11052	0.88948	7.52389	7.65959	-0.80215	26.80408	30.45768	1.30968	0.76355	0.0151883	129.91524	0.00511553	0.48453	7.88618	16.39106	1.00766	0.48481	1789.35928	55831.898	519.69611	1767.445
1350.0	0.23529	0.76471	7.55577	7.62728	-1.22055	25.73065	30.84374	1.28931	0.77561	0.31822	130.30862	0.10847	0.46688	7.9991	169.63372	0.99038	0.0467018	1788.33071	53649.479	436.4838	3749.183
1345.0	0.33599	0.66401	7.58203	7.60085	-1.56293	24.8633	31.15163	1.27264	0.78577	1.3457	130.70474	0.46325	0.45247	8.11153	715.10676	0.97365	0.0110442	1787.41657	51863.079	357.28	5335.355
1340.0	0.41844	0.58156	7.60402	7.57884	-1.848	24.15149	31.39891	1.25871	0.79446	3.28457	131.10499	1.14004	0.44055	8.22357	1813.51955	0.95742	0.00434149	1786.6127	50376.714	297.273	6621.942
1335.0	0.48682	0.51318	7.62271	7.56024	-2.08885	23.55979	31.59803	1.2469	0.80199	6.09422	131.51011	2.12998	0.43058	8.33516	3526.62988	0.94167	0.00222563	1785.9143	49121.386	251.0656	7677.938
1330.0	0.54414	0.45586	7.63879	7.5443	-2.29526	23.06172	31.75767	1.23678	0.80855	9.62045	131.92015	3.38236	0.42215	8.44647	5856.3509	0.92637	0.00133608	1785.31656	48046.567	214.9638	8553.872
1325.0	0.59267	0.40733	7.6528	7.53047	-2.47443	22.63777	31.8845	1.22802	0.81432	13.67699	132.33411	4.833	0.41496	8.55749	8777.89513	0.9115	8.88615E-4	1784.8145	47114.633	186.3868	9287.364
1320.0	0.6341	0.3659	7.66514	7.51828	-2.63223	22.27193	31.98387	1.22037	0.81942	18.0887	132.75137	6.42005	0.40877	8.66828	12259.69709	0.89704	6.34255E-4	1784.40348	46297.147	163.4972	9906.849
1315.0	0.66977	0.33023	7.67613	7.50749	-2.772	21.95522	32.06023	1.21364	0.82397	22.70658	133.17235	8.08987	0.4034	8.77886	16273.4189	0.88296	4.76321E-4	1784.07817	45572.319	144.9656	10434.115
1310.0	0.70067	0.29933	7.686	7.4978	-2.89747	21.67747	32.11687	1.20769	0.82803	27.4118	133.59561	9.79899	0.39871	8.88928	20797.28505	0.86924	3.71537E-4	1783.83434	44923.247	129.8144	10886.062
1305.0	0.72761	0.27239	7.69494	7.48905	-3.01075	21.43294	32.15676	1.20238	0.83168	32.11503	134.02121	11.51419	0.39458	8.99966	25820.03099	0.85587	2.98317E-4	1783.66714	44336.669	117.3156	11275.948
1300.0	0.75126	0.24874	7.70311	7.48108	-3.11397	21.21585	32.18229	1.19762	0.83499	36.75001	134.44845	13.21048	0.39094	9.10991	31338.25193	0.84284	2.45009E-4	1783.57239	43802.077	106.9184	11614.281
1295.0	0.77208	0.22792	7.71063	7.47376	-3.20888	21.0214	32.1955	1.19332	0.838	41.27396	134.87697	14.87135	0.3877	9.22016	37360.85559	0.83011	2.0486E-4	1783.54615	43311.055	98.2044	11909.473
1294.78	0.77294	0.22706	7.71094	7.47344	-3.21295	21.01314	32.19567	1.19315	0.83812	41.4668	134.89575	14.94226	0.38757	9.22514	37635.0764	0.82955	2.03339E-4	1783.54659	43290.51	 	11921.382
1290.0	0.81322	0.18678	7.72326	7.46123	-3.37107	20.62759	32.28517	1.18622	0.84302	51.45503	135.60171	18.6272	0.38118	9.46858	49309.70176	0.80575	1.54723E-4	1784.46242	42493.186	163.5738	12531.94
1285.0	0.84661	0.15339	7.7339	7.45062	-3.50854	20.30361	32.34346	1.18029	0.84725	61.11724	136.26538	22.21104	0.37583	9.72766	62116.32303	0.78179	1.22431E-4	1785.36288	41800.055	138.6262	13030.095
1280.0	0.87315	0.12685	7.74279	7.44167	-3.62438	20.04117	32.37344	1.17541	0.85076	69.81245	136.87275	25.45057	0.37153	9.99089	75368.34208	0.75875	1.0058E-4	1786.21049	41215.497	116.9116	13420.099
1275.0	0.89453	0.10547	7.75039	7.43397	-3.72413	19.82451	32.3816	1.17133	0.85373	77.54588	137.43871	28.34221	0.36803	10.25811	89038.03365	0.7366	8.48641E-5	1787.01106	40712.215	100.6564	13729.249
1270.0	0.91194	0.0880648	7.75699	7.42722	-3.81156	19.64292	32.37269	1.16787	0.85626	84.37801	137.97362	30.90448	0.36514	10.52906	103148.1708	0.71533	7.30186E-5	1787.77002	40270.68	88.307	13977.07
1265.0	0.92625	0.0737506	7.76282	7.4212	-3.88947	19.48842	32.35042	1.16489	0.85845	90.40526	138.48515	33.17051	0.36274	10.80351	117769.2843	0.6949	6.37461E-5	1788.49236	39876.708	78.7944	14177.746
1260.0	0.93813	0.0618665	7.76807	7.41575	-3.96016	19.3544	32.31744	1.16229	0.86037	95.72395	138.97824	35.17434	0.36071	11.08149	132986.2072	0.67526	5.62684E-5	1789.18377	39519.826	71.3764	14341.747
1255.0	0.94808	0.0519159	7.77286	7.41075	-4.02488	19.23736	32.27594	1.15999	0.86208	100.4277	139.45734	36.94964	0.35898	11.36268	148902.0902	0.65641	5.00901E-5	1789.84804	39192.206	65.524	14476.899
1250.0	0.95648	0.0435152	7.77728	7.4061	-4.08501	19.13328	32.22751	1.15793	0.86361	104.6029	139.92496	38.52787	0.3575	11.64696	165629.9927	0.63829	4.48839E-5	1790.49049	38887.927	60.8558	14589.12
1245.0	0.96363	0.0363712	7.7814	7.40175	-4.14136	19.03989	32.17344	1.15607	0.865	108.3225	140.38349	39.93575	0.35621	11.93451	183288.6605	0.62086	4.04265E-5	1791.1147	38602.452	57.095	14682.946
1240.0	0.96974	0.0302559	7.78529	7.39763	-4.19472	18.95488	32.11473	1.15437	0.86628	111.65356	140.83441	41.19804	0.35508	12.22474	202009.2275	0.60413	3.65593E-5	1791.72509	38332.272	54.036	14761.883
1235.0	0.97501	0.0249866	7.78899	7.39371	-4.24549	18.87715	32.05223	1.1528	0.86746	114.64937	141.27927	42.33443	0.35409	12.51774	221925.5191	0.58804	3.31684E-5	1792.32431	38074.642	51.526	14828.676
1233.31	0.97658	0.0234194	7.79019	7.39244	-4.26199	18.85268	32.03021	1.1523	0.86783	115.57152	141.42783	42.68445	0.35379	12.61747	228894.1099	0.58274	3.21226E-5	1792.52679	37990.788	 	14848.283
1230.0	0.98323	0.0167672	7.79375	7.38893	-4.30749	18.7641	31.99573	1.151	0.86881	119.20429	141.81703	44.06357	0.35264	12.70921	246679.0033	0.57726	2.97411E-5	1792.38309	37769.831	60.9622	14943.052
1225.0	0.9907	0.00929571	7.79851	7.3843	-4.36744	18.65643	31.93711	1.14928	0.87011	123.5089	142.36182	45.69959	0.35131	12.83752	273388.865	0.56959	2.67461E-5	1792.26072	37475.78	58.8102	15047.068
1220.0	0.99602	0.0039759	7.80273	7.38023	-4.42006	18.57072	31.87239	1.14777	0.87125	126.78807	142.87091	46.94724	0.35033	12.95903	300518.4345	0.56236	2.42504E-5	1792.2612	37214.166	52.3228	15119.047
1215.0	1.0	0.0	7.80662	7.37653	-4.46801	18.49887	31.80344	1.14641	0.87229	129.40986	143.35743	47.9456	0.34955	 	328733.6822	 	2.20948E-5	 	36972.767	48.2798	15171.206
1210.0	1.0	0.0	7.80928	7.37401	-4.50068	18.47438	31.71615	1.1457	0.87283	129.91317	143.76955	48.13751	0.3494	 	354184.574	 	2.04382E-5	 	36790.01476	36.55045	 
1205.0	1.0	0.0	7.81193	7.37151	-4.53302	18.45069	31.62885	1.14499	0.87337	130.41556	144.17984	48.32911	0.34924	 	381809.8396	 	1.88955E-5	 	36607.47973	36.507	 
1200.0	1.0	0.0	7.81457	7.36902	-4.5653	18.42703	31.54154	1.14427	0.87392	130.91708	144.58836	48.52044	0.34909	 	411799.6694	 	1.74601E-5	 	36425.24774	36.4464	 
1195.0	1.0	0.0	7.81721	7.36653	-4.59751	18.40338	31.45423	1.14356	0.87447	131.41773	144.99512	48.71148	0.34894	 	444373.903	 	1.61253E-5	 	36243.31816	36.38591	 
1190.0	1.0	0.0	7.81984	7.36405	-4.62964	18.37977	31.36693	1.14283	0.87502	131.91751	145.40012	48.90224	0.34879	 	479774.3952	 	1.48846E-5	 	36061.69041	36.32555	 
1185.0	1.0	0.0	7.82247	7.36157	-4.66171	18.35617	31.27962	1.14211	0.87557	132.41642	145.80339	49.09273	0.34864	 	518267.3862	 	1.3732E-5	 	35880.3639	36.2653	 
1180.0	1.0	0.0	7.8251	7.3591	-4.6937	18.3326	31.19231	1.14138	0.87613	132.91446	146.20491	49.28293	0.34848	 	560146.1342	 	1.26618E-5	 	35699.33805	36.20517	 
1175.0	1.0	0.0	7.82772	7.35664	-4.72562	18.30906	31.105	1.14064	0.8767	133.41163	146.60469	49.47285	0.34833	 	605733.8508	 	1.16686E-5	 	35518.61227	36.14516	 
1170.0	1.0	0.0	7.83034	7.35418	-4.75747	18.28553	31.0177	1.1399	0.87727	133.90793	147.00275	49.66249	0.34818	 	655386.9755	 	1.07473E-5	 	35338.18596	36.08526	 
1165.0	1.0	0.0	7.83295	7.35173	-4.78926	18.26204	30.93039	1.13916	0.87784	134.40336	147.39908	49.85185	0.34803	 	709498.8321	 	9.89326E-6	 	35158.05855	36.02548	 
1160.0	1.0	0.0	7.83556	7.34928	-4.82096	18.23857	30.84308	1.13841	0.87842	134.89792	147.79369	50.04093	0.34788	 	768503.7129	 	9.10191E-6	 	34978.22944	35.96582	 
1155.0	1.0	0.0	7.83816	7.34683	-4.8526	18.21512	30.75577	1.13766	0.879	135.39161	148.18659	50.22973	0.34772	 	832881.4448	 	8.36907E-6	 	34798.69805	35.90628	 
1150.0	1.0	0.0	7.84077	7.3444	-4.88417	18.19171	30.66846	1.13691	0.87958	135.88443	148.57778	50.41824	0.34757	 	903162.4974	 	7.6908E-6	 	34619.46381	35.84685	 
1145.0	1.0	0.0	7.84336	7.34197	-4.91567	18.16831	30.58115	1.13615	0.88017	136.37638	148.96727	50.60648	0.34742	 	979933.7005	 	7.06337E-6	 	34440.5261	35.78754	 
1143.67	1.0	0.0	7.84405	7.34132	-4.92404	18.16209	30.55792	1.13594	0.88033	136.50713	149.07062	50.65651	0.34738	 	1001534.486	 	6.90455E-6	 	34392.96686	 	 
1140.0	1.0	0.0	7.84595	7.33954	-4.94705	18.14511	30.4938	1.13538	0.88076	136.87381	149.36054	50.79684	0.34727	 	1064257.404	 	6.4808E-6	 	34260.23631	36.05796	 
1135.0	1.0	0.0	7.84854	7.33713	-4.97834	18.12198	30.40644	1.13462	0.88135	137.37254	149.75397	50.98775	0.34711	 	1156666.713	 	5.94193E-6	 	34079.68662	36.10994	 
1130.0	1.0	0.0	7.85112	7.33472	-5.00956	18.09887	30.31908	1.13385	0.88195	137.87025	150.14557	51.17833	0.34696	 	1257830.949	 	5.44463E-6	 	33899.48284	36.04076	 
1125.0	1.0	0.0	7.85369	7.33231	-5.04072	18.07579	30.23172	1.13307	0.88256	138.36693	150.53535	51.36856	0.34681	 	1368647.355	 	4.98596E-6	 	33719.62369	35.97183	 
1120.0	1.0	0.0	7.85626	7.32991	-5.0718	18.05273	30.14436	1.13229	0.88317	138.86258	150.9233	51.55845	0.34665	 	1490112.028	 	4.56316E-6	 	33540.10785	35.90317	 
1115.0	1.0	0.0	7.85883	7.32751	-5.10282	18.0297	30.057	1.13151	0.88378	139.35721	151.30943	51.74799	0.3465	 	1623331.504	 	4.17365E-6	 	33360.93402	35.83477	 
1110.0	1.0	0.0	7.8614	7.32512	-5.13376	18.0067	29.96964	1.13072	0.88439	139.85082	151.69375	51.93721	0.34635	 	1769535.824	 	3.81502E-6	 	33182.1009	35.76662	 
1105.0	1.0	0.0	7.86395	7.32274	-5.16464	17.98372	29.88227	1.12992	0.88502	140.3434	152.07628	52.12608	0.34619	 	1930093.176	 	3.48502E-6	 	33003.6072	35.69874	 
1100.0	1.0	0.0	7.86651	7.32036	-5.19545	17.96077	29.79491	1.12912	0.88564	140.83497	152.45701	52.31461	0.34604	 	2106526.703	 	3.18154E-6	 	32825.45159	35.63112	 
1095.0	1.0	0.0	7.86906	7.31799	-5.22619	17.93784	29.70755	1.12832	0.88627	141.32551	152.83594	52.5028	0.34589	 	2300532.983	 	2.90263E-6	 	32647.63278	35.56376	 
1090.0	1.0	0.0	7.87161	7.31562	-5.25685	17.91494	29.62019	1.12751	0.88691	141.81504	153.2131	52.69066	0.34573	 	2514003.297	 	2.64645E-6	 	32470.14948	35.49666	 
1085.0	1.0	0.0	7.87415	7.31326	-5.28745	17.89207	29.53283	1.1267	0.88755	142.30355	153.58848	52.87818	0.34558	 	2749047.341	 	2.41131E-6	 	32293.00037	35.42982	 
1080.0	1.0	0.0	7.87669	7.3109	-5.31798	17.86922	29.44547	1.12588	0.88819	142.79105	153.9621	53.06536	0.34543	 	3008020.314	 	2.19559E-6	 	32116.18414	35.36324	 
1075.0	1.0	0.0	7.87923	7.30855	-5.34844	17.84641	29.35811	1.12506	0.88884	143.27753	154.33395	53.2522	0.34527	 	3293553.33	 	1.99784E-6	 	31939.69952	35.29692	 
1070.0	1.0	0.0	7.88176	7.3062	-5.37884	17.82362	29.27074	1.12423	0.88949	143.76301	154.70404	53.43871	0.34512	 	3608587.815	 	1.81666E-6	 	31763.54519	35.23087	 
1065.0	1.0	0.0	7.88428	7.30386	-5.40916	17.80087	29.18338	1.1234	0.89015	144.24747	155.07239	53.62489	0.34497	 	3956414.803	 	1.65078E-6	 	31587.71985	35.16507	 
1060.0	1.0	0.0	7.88681	7.30152	-5.43941	17.77814	29.09602	1.12257	0.89082	144.73093	155.439	53.81073	0.34481	 	4340719.094	 	1.49901E-6	 	31412.22221	35.09953	 
1055.0	1.0	0.0	7.88932	7.29919	-5.46959	17.75544	29.00866	1.12172	0.89149	145.21338	155.80387	53.99623	0.34466	 	4765629.497	 	1.36023E-6	 	31237.05099	35.03424	 
1050.0	1.0	0.0	7.89184	7.29687	-5.4997	17.73278	28.9213	1.12088	0.89216	145.69483	156.16702	54.1814	0.34451	 	5235775.953	 	1.23343E-6	 	31062.20488	34.96922	 
1045.0	1.0	0.0	7.89435	7.29455	-5.52975	17.71014	28.83393	1.12002	0.89284	146.17527	156.52844	54.36624	0.34436	 	5756354.724	 	1.11765E-6	 	30887.6826	34.90446	 
1040.0	1.0	0.0	7.89685	7.29223	-5.55972	17.68754	28.74657	1.11917	0.89352	146.65471	156.88815	54.55074	0.3442	 	6333201.759	 	1.01199E-6	 	30713.48286	34.83995	 
1035.0	1.0	0.0	7.89935	7.28993	-5.58963	17.66496	28.65921	1.1183	0.89421	147.13316	157.24615	54.73491	0.34405	 	6972876.808	 	9.15656E-7	 	30539.60436	34.7757	 
1030.0	1.0	0.0	7.90185	7.28762	-5.61946	17.64243	28.57184	1.11743	0.89491	147.61061	157.60245	54.91875	0.3439	 	7682759.72	 	8.27873E-7	 	30366.04586	34.7117	 
1025.0	1.0	0.0	7.90434	7.28532	-5.64923	17.61992	28.48448	1.11656	0.89561	148.08706	157.95705	55.10226	0.34375	 	8471158.453	 	7.47943E-7	 	30192.80605	34.64796	 
1020.0	1.0	0.0	7.90683	7.28303	-5.67892	17.59745	28.39712	1.11568	0.89631	148.56252	158.30997	55.28544	0.3436	 	9347435.47	 	6.75217E-7	 	30019.88365	34.58448	 
1015.0	1.0	0.0	7.90932	7.28074	-5.70855	17.57501	28.30975	1.1148	0.89702	149.03699	158.6612	55.46829	0.34344	 	1.032214832E7	 	6.09092E-7	 	29847.27743	34.52125	 
1010.0	1.0	0.0	7.9118	7.27846	-5.73811	17.55261	28.22239	1.11391	0.89774	149.51046	159.01077	55.65081	0.34329	 	1.140721412E7	 	5.49015E-7	 	29674.98609	34.45827	 
1005.0	1.0	0.0	7.91427	7.27618	-5.76759	17.53024	28.13502	1.11301	0.89846	149.98296	159.35866	55.833	0.34314	 	1.261609392E7	 	4.94474E-7	 	29503.00838	34.39554	 
1000.0	1.0	0.0	7.91674	7.27391	-5.79701	17.50791	28.04766	1.11211	0.89919	150.45446	159.70489	56.01486	0.34299	 	1.39640085E7	 	4.44996E-7	 	29331.34303	34.33307	 
995.0	1.0	0.0	7.91921	7.27165	-5.82636	17.48561	27.96029	1.11121	0.89992	150.92498	160.04947	56.1964	0.34284	 	1.546818159E7	 	4.00146E-7	 	29159.98881	34.27084	 
990.0	1.0	0.0	7.92167	7.26939	-5.85564	17.46335	27.87293	1.1103	0.90066	151.39452	160.3924	56.3776	0.34268	 	1.714812102E7	 	3.59522E-7	 	28988.94444	34.20887	 
985.0	1.0	0.0	7.92413	7.26713	-5.88485	17.44113	27.78556	1.10938	0.90141	151.86308	160.73369	56.55849	0.34253	 	1.902594222E7	 	3.22755E-7	 	28818.20871	34.14715	 
980.0	1.0	0.0	7.92659	7.26488	-5.91399	17.41895	27.69819	1.10845	0.90216	152.33067	161.07334	56.73904	0.34238	 	2.112673777E7	 	2.89506E-7	 	28647.78036	34.08567	 
975.0	1.0	0.0	7.92904	7.26263	-5.94306	17.3968	27.61083	1.10752	0.90291	152.79727	161.41136	56.91927	0.34223	 	2.34790065E7	 	2.59462E-7	 	28477.65817	34.02444	 
970.0	1.0	0.0	7.93148	7.2604	-5.97206	17.37469	27.52346	1.10659	0.90368	153.2629	161.74776	57.09918	0.34208	 	2.611514397E7	 	2.32337E-7	 	28307.8409	33.96345	 
965.0	1.0	0.0	7.93392	7.25816	-6.00099	17.35263	27.43609	1.10565	0.90445	153.72757	162.08255	57.27876	0.34192	 	2.907201061E7	 	2.07867E-7	 	28138.32733	33.90271	 
960.0	1.0	0.0	7.93636	7.25593	-6.02985	17.3306	27.34872	1.1047	0.90522	154.19126	162.41573	57.45802	0.34177	 	3.239158653E7	 	1.85811E-7	 	27969.11625	33.84222	 
957.96	1.0	0.0	7.93735	7.25503	-6.04161	17.32162	27.31307	1.10431	0.90554	154.3802	162.55123	57.53108	0.34171	 	3.386123548E7	 	1.77452E-7	 	27900.15237	 	 
955.0	1.0	0.0	7.93936	7.25319	-6.06536	17.28176	27.24181	1.10454	0.90535	154.72663	162.78993	57.66545	0.34159	 	3.626810786E7	 	1.65277E-7	 	27761.69225	41.4848	 
950.0	1.0	0.0	7.94272	7.25012	-6.10515	17.21517	27.12262	1.10488	0.90508	155.30809	163.19011	57.89102	0.34138	 	4.075626411E7	 	1.46478E-7	 	27529.52939	46.43257	 
945.0	1.0	0.0	7.94606	7.24708	-6.14453	17.14952	27.0051	1.10515	0.90486	155.88493	163.58651	58.11485	0.34118	 	4.583846681E7	 	1.29705E-7	 	27299.51454	46.00297	 
940.0	1.0	0.0	7.94936	7.24407	-6.18351	17.08478	26.88915	1.10536	0.90468	156.45729	163.97923	58.33698	0.34098	 	5.159848804E7	 	1.14753E-7	 	27071.58971	45.58497	 
935.0	1.0	0.0	7.95263	7.24109	-6.22209	17.02093	26.77467	1.10551	0.90456	157.0253	164.36837	58.55749	0.34078	 	5.813264907E7	 	1.01435E-7	 	26845.69873	45.1782	 
930.0	1.0	0.0	7.95587	7.23814	-6.2603	16.95793	26.6616	1.1056	0.90448	157.5891	164.754	58.7764	0.34058	 	6.555181209E7	 	8.95822E-8	 	26621.78729	44.78229	 
925.0	1.0	0.0	7.95908	7.23522	-6.29814	16.89577	26.54988	1.10564	0.90445	158.1488	165.13622	58.99377	0.34039	 	7.398370417E7	 	7.90427E-8	 	26399.80284	44.39689	 
920.0	1.0	0.0	7.96227	7.23232	-6.33561	16.83441	26.43946	1.10563	0.90446	158.70453	165.51512	59.20965	0.34019	 	8.35756294E7	 	6.9679E-8	 	26179.69448	44.02167	 
915.0	1.0	0.0	7.96542	7.22946	-6.37273	16.77384	26.33027	1.10556	0.90452	159.2564	165.89076	59.42409	0.34	 	9.449765866E7	 	6.13673E-8	 	25961.41303	43.65629	 
910.39	1.0	0.0	7.96831	7.22684	-6.40665	16.71867	26.23066	1.10545	0.90461	159.76186	166.23426	59.62053	0.33982	 	1.05914186E8	 	5.45401E-8	 	25761.7555	 	 
910.0	1.0	0.0	7.96905	7.22616	-6.41538	16.68937	26.22216	1.10545	0.90461	159.82496	166.25212	59.64613	0.33978	 	1.070782947E8	 	5.39293E-8	 	25726.13034	47.05654	 
909.16	1.0	0.0	7.97065	7.22472	-6.43411	16.62641	26.20395	1.10543	0.90463	159.95957	166.28965	59.70076	0.33968	 	1.096252092E8	 	5.2639E-8	 	25649.6129	 	 
905.0	1.0	0.0	7.97324	7.22237	-6.4645	16.57655	26.1155	1.10527	0.90476	160.41477	166.59796	59.87775	0.33952	 	1.216407505E8	 	4.72725E-8	 	25470.07572	51.21092	 
900.0	1.0	0.0	7.97633	7.21957	-6.50072	16.51729	26.01016	1.10504	0.90495	160.95851	166.96568	60.0892	0.33933	 	1.379570782E8	 	4.15046E-8	 	25255.88055	42.83903	 
895.0	1.0	0.0	7.97939	7.2168	-6.53662	16.45876	25.90584	1.10476	0.90518	161.49869	167.33039	60.29932	0.33914	 	1.566123433E8	 	3.64049E-8	 	25043.37903	42.5003	 
890.0	1.0	0.0	7.98243	7.21406	-6.5722	16.40091	25.8025	1.10443	0.90544	162.03541	167.69215	60.50814	0.33896	 	1.779636744E8	 	3.19E-8	 	24832.52701	42.1704	 
885.0	1.0	0.0	7.98544	7.21133	-6.60746	16.34373	25.70009	1.10407	0.90574	162.56876	168.05101	60.7157	0.33877	 	2.024261171E8	 	2.79245E-8	 	24623.28184	41.84903	 
880.0	1.0	0.0	7.98844	7.20863	-6.64242	16.28721	25.59859	1.10366	0.90607	163.09884	168.40705	60.92203	0.33859	 	2.304825402E8	 	2.44194E-8	 	24415.60237	41.53589	 
875.0	1.0	0.0	7.9914	7.20596	-6.67709	16.23131	25.49794	1.10321	0.90644	163.62573	168.76033	61.12717	0.3384	 	2.626954105E8	 	2.13321E-8	 	24209.44823	41.23083	 
870.0	1.0	0.0	7.99435	7.2033	-6.71147	16.17602	25.39813	1.10273	0.90684	164.14952	169.11089	61.33115	0.33822	 	2.997206405E8	 	1.86154E-8	 	24004.78154	40.93334	 
865.0	1.0	0.0	7.99727	7.20067	-6.74556	16.12133	25.2991	1.1022	0.90728	164.6703	169.4588	61.53401	0.33804	 	3.423240383E8	 	1.62274E-8	 	23801.56509	40.64329	 
860.0	1.0	0.0	8.00017	7.19806	-6.77938	16.0672	25.20084	1.10164	0.90774	165.18815	169.80411	61.73578	0.33786	 	3.914007701E8	 	1.41303E-8	 	23599.76294	40.36043	 
855.0	1.0	0.0	8.00305	7.19547	-6.81293	16.01363	25.10331	1.10104	0.90823	165.70313	170.14686	61.93647	0.33769	 	4.479985591E8	 	1.22907E-8	 	23399.34033	40.08452	 
850.0	1.0	0.0	8.00591	7.1929	-6.84622	15.9606	25.00647	1.1004	0.90876	166.21532	170.48711	62.13613	0.33751	 	5.13345095E8	 	1.06786E-8	 	23200.26358	39.81535	 
845.0	1.0	0.0	8.00825	7.1908	-6.87336	15.9348	24.92252	1.09919	0.90976	166.65121	170.78018	62.30591	0.33736	 	5.856843051E8	 	9.31801E-9	 	23041.2889	31.79494	 
840.0	1.0	0.0	8.01057	7.18871	-6.90044	15.90901	24.83857	1.09798	0.91077	167.08625	171.07187	62.4754	0.33722	 	6.690092143E8	 	8.12098E-9	 	22879.32804	32.39217	 
835.0	1.0	0.0	8.0129	7.18663	-6.92744	15.88322	24.75461	1.09675	0.91178	167.52044	171.36219	62.64461	0.33707	 	7.651065473E8	 	7.06909E-9	 	22717.62741	32.34013	 
830.0	1.0	0.0	8.01522	7.18455	-6.95437	15.85744	24.67065	1.09552	0.91281	167.95379	171.65114	62.81355	0.33692	 	8.760726691E8	 	6.14584E-9	 	22556.18641	32.2882	 
825.0	1.0	0.0	8.01753	7.18247	-6.98123	15.83166	24.58669	1.09428	0.91384	168.38629	171.93873	62.9822	0.33678	 	1.00437052E9	 	5.33647E-9	 	22395.00444	32.23639	 
820.0	1.0	0.0	8.01984	7.1804	-7.00802	15.80588	24.50272	1.09303	0.91489	168.81795	172.22496	63.15057	0.33663	 	1.152897623E9	 	4.62781E-9	 	22234.08093	32.1847	 
815.0	1.0	0.0	8.02215	7.17834	-7.03474	15.78011	24.41875	1.09177	0.91594	169.24877	172.50983	63.31867	0.33648	 	1.325067421E9	 	4.00809E-9	 	22073.41526	32.13313	 
810.0	1.0	0.0	8.02445	7.17628	-7.06139	15.75434	24.33478	1.0905	0.91701	169.67874	172.79335	63.48648	0.33634	 	1.524906719E9	 	3.46683E-9	 	21913.00684	32.08168	 
805.0	1.0	0.0	8.02674	7.17423	-7.08797	15.72857	24.25081	1.08923	0.91808	170.10787	173.07553	63.65402	0.33619	 	1.75717256E9	 	2.99469E-9	 	21752.85505	32.03036	 
800.0	1.0	0.0	8.02903	7.17218	-7.11448	15.70281	24.16683	1.08794	0.91916	170.53615	173.35635	63.82127	0.33604	 	2.027492655E9	 	2.58338E-9	 	21592.95931	31.97915	 
795.0	1.0	0.0	8.03132	7.17014	-7.14092	15.67706	24.08284	1.08665	0.92026	170.96359	173.63584	63.98825	0.3359	 	2.342534337E9	 	2.22553E-9	 	21433.31898	31.92806	 
790.0	1.0	0.0	8.0336	7.16811	-7.16729	15.65131	23.99886	1.08535	0.92136	171.39018	173.91399	64.15494	0.33575	 	2.710208164E9	 	1.9146E-9	 	21273.93347	31.8771	 
785.0	1.0	0.0	8.03588	7.16608	-7.19358	15.62556	23.91487	1.08404	0.92248	171.81593	174.19081	64.32136	0.33561	 	3.139913648E9	 	1.64481E-9	 	21114.80216	31.82626	 
780.0	1.0	0.0	8.03815	7.16405	-7.21981	15.59982	23.83087	1.08272	0.9236	172.24084	174.4663	64.48749	0.33546	 	3.642836286E9	 	1.41103E-9	 	20955.92441	31.77555	 
775.0	1.0	0.0	8.04042	7.16203	-7.24597	15.57408	23.74688	1.08139	0.92473	172.66491	174.74046	64.65335	0.33531	 	4.232307195E9	 	1.20874E-9	 	20797.29962	31.72496	 
770.0	1.0	0.0	8.04268	7.16002	-7.27206	15.54834	23.66288	1.08005	0.92588	173.08813	175.0133	64.81892	0.33517	 	4.924239217E9	 	1.03394E-9	 	20638.92714	31.67449	 
765.0	1.0	0.0	8.04494	7.15801	-7.29808	15.52261	23.57887	1.07871	0.92704	173.5105	175.28482	64.98421	0.33502	 	5.737656649E9	 	8.83105E-10	 	20480.80636	31.62416	 
760.0	1.0	0.0	8.04719	7.156	-7.32403	15.49689	23.49486	1.07735	0.9282	173.93204	175.55503	65.14923	0.33487	 	6.695339741E9	 	7.53143E-10	 	20322.93661	31.57395	 
755.0	1.0	0.0	8.04944	7.154	-7.34991	15.47116	23.41085	1.07598	0.92938	174.35272	175.82392	65.31396	0.33473	 	7.824610154E9	 	6.41328E-10	 	20165.31726	31.52387	 
750.0	1.0	0.0	8.05168	7.15201	-7.37572	15.44545	23.32683	1.07461	0.93057	174.77257	176.09151	65.47841	0.33458	 	9.158289835E9	 	5.4527E-10	 	20007.94765	31.47392	 
745.0	1.0	0.0	8.05392	7.15002	-7.40146	15.41973	23.24281	1.07322	0.93177	175.19158	176.3578	65.64258	0.33444	 	1.07359E10	 	4.62872E-10	 	19850.82714	31.4241	 
740.0	1.0	0.0	8.05615	7.14804	-7.42713	15.39402	23.15879	1.07183	0.93299	175.60974	176.62278	65.80647	0.33429	 	1.2604999999999998E10	 	3.923E-10	 	19693.95503	31.37442	 
735.0	1.0	0.0	8.05838	7.14607	-7.45273	15.36832	23.07476	1.07042	0.93421	176.02705	176.88647	65.97008	0.33414	 	1.4822999999999998E10	 	3.31951E-10	 	19537.33068	31.32487	 
730.0	1.0	0.0	8.0606	7.14409	-7.47826	15.34262	22.99072	1.069	0.93545	176.44353	177.14887	66.13341	0.334	 	1.74596E10	 	2.80426E-10	 	19380.95339	31.27546	 
725.0	1.0	0.0	8.06282	7.14213	-7.50372	15.31692	22.90668	1.06758	0.9367	176.85916	177.40997	66.29646	0.33385	 	2.05989E10	 	2.36504E-10	 	19224.82247	31.22618	 
720.0	1.0	0.0	8.06503	7.14017	-7.52911	15.29123	22.82264	1.06614	0.93796	177.27395	177.6698	66.45922	0.3337	 	2.4343199999999996E10	 	1.99124E-10	 	19068.93722	31.17705	 
715.0	1.0	0.0	8.06724	7.13821	-7.55442	15.26554	22.73859	1.0647	0.93924	177.6879	177.92833	66.62171	0.33356	 	2.8816699999999996E10	 	1.67365E-10	 	18913.29693	31.12806	 
710.0	1.0	0.0	8.06945	7.13626	-7.57967	15.23985	22.65454	1.06324	0.94052	178.101	178.18559	66.78391	0.33341	 	3.4170899999999996E10	 	1.40427E-10	 	18757.90087	31.07921	 
705.0	1.0	0.0	8.07165	7.13432	-7.60486	15.21417	22.57048	1.06177	0.94182	178.51327	178.44158	66.94584	0.33327	 	4.05905E10	 	1.17616E-10	 	18602.74831	31.03051	 
700.0	1.0	0.0	8.07384	7.13238	-7.62997	15.1885	22.48642	1.06029	0.94314	178.92469	178.69629	67.10748	0.33312	 	4.830159999999999E10	 	9.83342E-11	 	18447.83851	30.98196	 
695.0	1.0	0.0	8.07603	7.13045	-7.65501	15.16282	22.40235	1.0588	0.94446	179.33527	178.94974	67.26884	0.33297	 	5.758099999999999E10	 	8.20636E-11	 	18293.17069	30.93356	 
690.0	1.0	0.0	8.07821	7.12852	-7.67998	15.13716	22.31828	1.0573	0.9458	179.745	179.20192	67.42992	0.33283	 	6.87683E10	 	6.83584E-11	 	18138.74409	30.88532	 
685.0	1.0	0.0	8.08039	7.1266	-7.70488	15.11149	22.2342	1.05579	0.94716	180.1539	179.45284	67.59072	0.33268	 	8.22816E10	 	5.68352E-11	 	17984.55791	30.83724	 
680.0	1.0	0.0	8.08257	7.12468	-7.72971	15.08583	22.15012	1.05427	0.94852	180.56195	179.7025	67.75123	0.33254	 	9.863579999999998E10	 	4.71643E-11	 	17830.61134	30.78931	 
675.0	1.0	0.0	8.08474	7.12277	-7.75447	15.06018	22.06603	1.05273	0.94991	180.96916	179.95091	67.91147	0.33239	 	1.18467E11	 	3.90631E-11	 	17676.90356	30.74156	 
670.0	1.0	0.0	8.0869	7.12086	-7.77916	15.03453	21.98194	1.05119	0.9513	181.37553	180.19807	68.07142	0.33224	 	1.42562E11	 	3.22898E-11	 	17523.43371	30.69397	 
665.0	1.0	0.0	8.08906	7.11896	-7.80379	15.00888	21.89784	1.04963	0.95271	181.78106	180.44398	68.2311	0.3321	 	1.71896E11	 	2.66375E-11	 	17370.20091	30.64656	 
660.0	1.0	0.0	8.09122	7.11706	-7.82834	14.98324	21.81373	1.04806	0.95414	182.18574	180.68864	68.39049	0.33195	 	2.07682E11	 	2.193E-11	 	17217.20545	30.59909	 
655.0	1.0	0.0	8.09337	7.11517	-7.85282	14.9576	21.72962	1.04648	0.95558	182.58959	180.93207	68.54959	0.33181	 	2.5143E11	 	1.80172E-11	 	17064.45331	30.55043	 
650.0	1.0	0.0	8.09551	7.11329	-7.87723	14.93197	21.64551	1.04489	0.95704	182.99259	181.17426	68.70842	0.33166	 	3.05025E11	 	1.47715E-11	 	16911.95261	30.50014	 
645.0	1.0	0.0	8.09765	7.11141	-7.90158	14.90634	21.56138	1.04329	0.95851	183.39475	181.41521	68.86696	0.33151	 	3.70824E11	 	1.20846E-11	 	16759.70275	30.44997	 
640.0	1.0	0.0	8.09979	7.10953	-7.92585	14.88071	21.47725	1.04167	0.96	183.79607	181.65494	69.02523	0.33137	 	4.51781E11	 	9.86508E-12	 	16607.70316	30.39992	 
635.0	1.0	0.0	8.10192	7.10766	-7.95006	14.85509	21.39312	1.04004	0.9615	184.19655	181.89344	69.18321	0.33122	 	5.51612E11	 	8.03546E-12	 	16455.95326	30.34998	 
630.0	1.0	0.0	8.10404	7.1058	-7.97419	14.82947	21.30898	1.0384	0.96302	184.59619	182.13071	69.3409	0.33108	 	6.74992E11	 	6.53052E-12	 	16304.45245	30.30016	 
625.0	1.0	0.0	8.10616	7.10394	-7.99826	14.80386	21.22483	1.03674	0.96456	184.99499	182.36676	69.49832	0.33093	 	8.27828E11	 	5.29536E-12	 	16153.19997	30.2505	 
620.0	1.0	0.0	8.10828	7.10209	-8.02225	14.77825	21.14067	1.03507	0.96611	185.39295	182.6016	69.65545	0.33079	 	1.01759E12	 	4.28388E-12	 	16002.19468	30.20106	 
615.0	1.0	0.0	8.11039	7.10024	-8.04618	14.75264	21.05651	1.03339	0.96769	185.79006	182.83522	69.8123	0.33064	 	1.25377E12	 	3.45745E-12	 	15851.43629	30.15168	 
610.0	1.0	0.0	8.11249	7.0984	-8.07004	14.72704	20.97234	1.0317	0.96927	186.18634	183.06763	69.96887	0.33049	 	1.54841E12	 	2.78378E-12	 	15700.92426	30.10241	 
605.0	1.0	0.0	8.11459	7.09656	-8.09382	14.70145	20.88817	1.02999	0.97088	186.58177	183.29884	70.12516	0.33035	 	1.9169E12	 	2.23592E-12	 	15550.65803	30.05325	 
600.0	1.0	0.0	8.11669	7.09473	-8.11754	14.67586	20.80398	1.02827	0.9725	186.97636	183.52884	70.28116	0.3302	 	2.37889E12	 	1.79143E-12	 	15400.63704	30.0042	 
595.0	1.0	0.0	8.11877	7.09291	-8.14119	14.65027	20.71979	1.02654	0.97415	187.37012	183.75764	70.43688	0.33006	 	2.95958E12	 	1.4317E-12	 	15250.86076	29.95526	 
590.0	1.0	0.0	8.12086	7.09108	-8.16477	14.62468	20.6356	1.02479	0.97581	187.76303	183.98524	70.59232	0.32991	 	3.69134E12	 	1.14127E-12	 	15101.32865	29.90642	 
585.0	1.0	0.0	8.12294	7.08927	-8.18828	14.5991	20.55139	1.02303	0.97749	188.1551	184.21165	70.74748	0.32977	 	4.6159E12	 	9.07389E-13	 	14952.04015	29.8577	 
580.0	1.0	0.0	8.12501	7.08746	-8.21172	14.57353	20.46718	1.02125	0.97919	188.54634	184.43686	70.90235	0.32962	 	5.78717E12	 	7.19525E-13	 	14802.99474	29.80908	 
575.0	1.0	0.0	8.12708	7.08566	-8.23509	14.54796	20.38296	1.01946	0.98091	188.93673	184.66089	71.05694	0.32947	 	7.27503E12	 	5.69016E-13	 	14654.19189	29.76057	 
570.0	1.0	0.0	8.12915	7.08386	-8.25839	14.52239	20.29873	1.01766	0.98265	189.32628	184.88374	71.21125	0.32933	 	9.17025E12	 	4.48756E-13	 	14505.63106	29.71217	 
565.0	1.0	0.0	8.13121	7.08206	-8.28162	14.49683	20.21449	1.01584	0.98441	189.71499	185.1054	71.36527	0.32918	 	1.15912E13	 	3.52924E-13	 	14357.31172	29.66387	 
560.0	1.0	0.0	8.13326	7.08027	-8.30479	14.47127	20.13025	1.01401	0.98619	190.10286	185.32588	71.51901	0.32904	 	1.46925E13	 	2.76767E-13	 	14209.23338	29.61567	 
555.0	1.0	0.0	8.13531	7.07849	-8.32788	14.44571	20.04599	1.01216	0.98799	190.48989	185.54519	71.67247	0.32889	 	1.86769E13	 	2.16416E-13	 	14061.39549	29.56758	 
550.0	1.0	0.0	8.13735	7.07671	-8.3509	14.42016	19.96173	1.01029	0.98981	190.87609	185.76333	71.82564	0.32875	 	2.38113E13	 	1.68726E-13	 	13913.79755	29.51959	 
545.0	1.0	0.0	8.13939	7.07494	-8.37386	14.39462	19.87746	1.00841	0.99166	191.26144	185.98029	71.97853	0.3286	 	3.04473E13	 	1.31151E-13	 	13766.43904	29.4717	 
540.0	1.0	0.0	8.14142	7.07317	-8.39674	14.36907	19.79318	1.00652	0.99353	191.64595	186.19609	72.13114	0.32846	 	3.90506E13	 	1.01632E-13	 	13619.31949	29.42391	 
535.0	1.0	0.0	8.14345	7.07141	-8.41956	14.34354	19.70889	1.00461	0.99541	192.02962	186.41073	72.28346	0.32831	 	5.02393E13	 	7.85118E-14	 	13472.43836	29.37623	 
530.0	1.0	0.0	8.14548	7.06965	-8.44231	14.318	19.62459	1.00268	0.99733	192.41245	186.62421	72.4355	0.32816	 	6.48369E13	 	6.0459E-14	 	13325.79517	29.32864	 
525.0	1.0	0.0	8.14749	7.0679	-8.46499	14.29247	19.54029	1.00074	0.99926	192.79445	186.83653	72.58725	0.32802	 	8.39439E13	 	4.64068E-14	 	13179.38944	29.28115	 
520.0	1.0	0.0	8.14951	7.06616	-8.4876	14.26695	19.45597	0.99878	1.00122	193.1756	187.0477	72.73873	0.32787	 	1.09036E14	 	3.55036E-14	 	13033.22068	29.23375	 
515.0	1.0	0.0	8.15151	7.06442	-8.51013	14.24143	19.37164	0.9968	1.00321	193.55592	187.25772	72.88991	0.32773	 	1.42099E14	 	2.7071E-14	 	12887.28841	29.18645	 
510.0	1.0	0.0	8.15352	7.06268	-8.53261	14.21591	19.2873	0.99481	1.00522	193.93539	187.46659	73.04082	0.32758	 	1.85816E14	 	2.05707E-14	 	12741.59214	29.13925	 
505.0	1.0	0.0	8.15551	7.06095	-8.55501	14.1904	19.20295	0.9928	1.00725	194.31403	187.67431	73.19144	0.32744	 	2.43821E14	 	1.55769E-14	 	12596.13142	29.09215	 
500.0	1.0	0.0	8.15751	7.05923	-8.57734	14.16489	19.1186	0.99077	1.00931	194.69182	187.88089	73.34178	0.32729	 	3.21058E14	 	1.17535E-14	 	12450.90578	29.04513	 
495.0	1.0	0.0	8.15949	7.05751	-8.5996	14.13939	19.03423	0.98873	1.0114	195.06878	188.08634	73.49183	0.32715	 	4.24281E14	 	8.83647E-15	 	12305.91477	28.9982	 
490.0	1.0	0.0	8.16148	7.0558	-8.6218	14.11389	18.94985	0.98667	1.01351	195.4449	188.29065	73.6416	0.327	 	5.6274299999999994E14	 	6.61892E-15	 	12161.15791	28.95137	 
485.0	1.0	0.0	8.16345	7.05409	-8.64392	14.08839	18.86545	0.98459	1.01565	195.82018	188.49382	73.79108	0.32686	 	7.49176E14	 	4.93922E-15	 	12016.63479	28.90462	 
480.0	1.0	0.0	8.16542	7.05238	-8.66598	14.0629	18.78105	0.98249	1.01782	196.19462	188.69587	73.94028	0.32671	 	1.00117E15	 	3.67164E-15	 	11872.34495	28.85797	 
475.0	1.0	0.0	8.16739	7.05069	-8.68796	14.03741	18.69664	0.98037	1.02002	196.56822	188.89679	74.08919	0.32656	 	1.34312E15	 	2.7187E-15	 	11728.28797	28.8114	 
470.0	1.0	0.0	8.16935	7.04899	-8.70988	14.01193	18.61221	0.97824	1.02225	196.94098	189.09659	74.23782	0.32642	 	1.809E15	 	2.00505E-15	 	11584.4634	28.76491	 
465.0	1.0	0.0	8.17131	7.04731	-8.73173	13.98645	18.52777	0.97608	1.0245	197.3129	189.29526	74.38617	0.32627	 	2.44633E15	 	1.47271E-15	 	11440.87085	28.71851	 
460.0	1.0	0.0	8.17326	7.04563	-8.75351	13.96097	18.44332	0.97391	1.02679	197.68399	189.49282	74.53423	0.32613	 	3.32184E15	 	1.07721E-15	 	11297.50989	28.67219	 
455.0	1.0	0.0	8.1752	7.04395	-8.77522	13.9355	18.35885	0.97172	1.0291	198.05423	189.68926	74.68201	0.32598	 	4.52968E15	 	7.84584E-16	 	11154.38011	28.62595	 
450.0	1.0	0.0	8.17714	7.04228	-8.79686	13.91004	18.27438	0.96951	1.03145	198.42364	189.88459	74.8295	0.32584	 	6.20325E15	 	5.68979E-16	 	11011.48113	28.5798	 
445.0	1.0	0.0	8.17908	7.04061	-8.81844	13.88457	18.18989	0.96728	1.03383	198.79221	190.07882	74.9767	0.32569	 	8.53241E15	 	4.108E-16	 	10868.81255	28.53372	 
440.0	1.0	0.0	8.18101	7.03895	-8.83994	13.85911	18.10538	0.96503	1.03624	199.15994	190.27193	75.12363	0.32555	 	1.17887E16	 	2.95258E-16	 	10726.374	28.48771	 
435.0	1.0	0.0	8.18293	7.0373	-8.86138	13.83366	18.02086	0.96275	1.03869	199.52683	190.46394	75.27026	0.3254	 	1.63622E16	 	2.11237E-16	 	10584.1651	28.44178	 
430.0	1.0	0.0	8.18485	7.03565	-8.88274	13.80821	17.93633	0.96046	1.04116	199.89288	190.65485	75.41661	0.32526	 	2.28162E16	 	1.50415E-16	 	10442.18549	28.39592	 
425.0	1.0	0.0	8.18676	7.034	-8.90404	13.78277	17.85178	0.95815	1.04368	200.2581	190.84467	75.56268	0.32511	 	3.19679E16	 	1.06591E-16	 	10300.43483	28.35013	 
420.0	1.0	0.0	8.18867	7.03236	-8.92527	13.75732	17.76722	0.95581	1.04623	200.62247	191.03339	75.70846	0.32497	 	4.50087E16	 	7.51652E-17	 	10158.91274	28.30442	 
415.0	1.0	0.0	8.19057	7.03073	-8.94643	13.73189	17.68265	0.95346	1.04881	200.98601	191.22101	75.85395	0.32482	 	6.36853E16	 	5.27389E-17	 	10017.61896	28.25876	 
410.0	1.0	0.0	8.19247	7.0291	-8.96752	13.70645	17.59805	0.95108	1.05144	201.34871	191.40755	75.99916	0.32468	 	9.05707E16	 	3.68142E-17	 	9876.55327	28.21314	 
405.0	1.0	0.0	8.19436	7.02748	-8.98854	13.68102	17.51345	0.94868	1.0541	201.71057	191.593	76.14409	0.32453	 	1.29477E17	 	2.55635E-17	 	9735.71543	28.16757	 
400.0	1.0	0.0	8.19625	7.02586	-9.00949	13.6556	17.42882	0.94626	1.05679	202.0716	191.77737	76.28873	0.32439	 	1.86081E17	 	1.76562E-17	 	9595.10526	28.12204	 
395.0	1.0	0.0	8.19813	7.02425	-9.03038	13.63018	17.34418	0.94381	1.05953	202.43178	191.96065	76.43308	0.32424	 	2.68886E17	 	1.21281E-17	 	9454.72254	28.07654	 
390.0	1.0	0.0	8.20001	7.02264	-9.05119	13.60476	17.25952	0.94135	1.06231	202.79113	192.14286	76.57715	0.3241	 	3.90703E17	 	8.28423E-18	 	9314.56709	28.03109	 
385.0	1.0	0.0	8.20188	7.02104	-9.07194	13.57935	17.17485	0.93885	1.06513	203.14964	192.32399	76.72093	0.32395	 	5.70939E17	 	5.62628E-18	 	9174.63874	27.98567	 
380.0	1.0	0.0	8.20375	7.01944	-9.09262	13.55394	17.09016	0.93634	1.06799	203.50731	192.50405	76.86442	0.32381	 	8.39181E17	 	3.79878E-18	 	9034.93733	27.94028	 
375.0	1.0	0.0	8.20561	7.01785	-9.11323	13.52854	17.00544	0.9338	1.07089	203.86415	192.68304	77.00763	0.32366	 	1.2408E18	 	2.54953E-18	 	8895.4627	27.89493	 
370.0	1.0	0.0	8.20746	7.01626	-9.13377	13.50314	16.92072	0.93124	1.07384	204.22014	192.86097	77.15056	0.32352	 	1.84582E18	 	1.70063E-18	 	8756.21473	27.84959	 
365.0	1.0	0.0	8.20931	7.01468	-9.15424	13.47774	16.83597	0.92865	1.07684	204.5753	193.03783	77.29319	0.32337	 	2.76299E18	 	1.12727E-18	 	8617.19329	27.80429	 
360.0	1.0	0.0	8.21115	7.01311	-9.17465	13.45235	16.7512	0.92603	1.07987	204.92962	193.21362	77.43554	0.32323	 	4.16233E18	 	7.42431E-19	 	8478.39828	27.759	 
355.0	1.0	0.0	8.21299	7.01154	-9.19498	13.42697	16.66641	0.92339	1.08296	205.2831	193.38836	77.57761	0.32308	 	6.31142E18	 	4.85761E-19	 	8339.82961	27.71373	 
350.0	1.0	0.0	8.21483	7.00997	-9.21525	13.40158	16.5816	0.92073	1.08609	205.63575	193.56204	77.71939	0.32294	 	9.63427E18	 	3.1569E-19	 	8201.48719	27.66848	 
345.0	1.0	0.0	8.21665	7.00841	-9.23545	13.37621	16.49677	0.91804	1.08928	205.98755	193.73467	77.86088	0.32279	 	1.48075E19	 	2.03751E-19	 	8063.37098	27.62324	 
340.0	1.0	0.0	8.21848	7.00686	-9.25558	13.35083	16.41192	0.91532	1.09251	206.33852	193.90625	78.00208	0.32265	 	2.29187E19	 	1.30576E-19	 	7925.48094	27.57801	 
335.0	1.0	0.0	8.22029	7.00531	-9.27564	13.32546	16.32705	0.91258	1.0958	206.68866	194.07678	78.143	0.3225	 	3.57286E19	 	8.30771E-20	 	7787.81702	27.53278	 
330.0	1.0	0.0	8.22211	7.00377	-9.29563	13.30009	16.24215	0.9098	1.09914	207.03795	194.24626	78.28363	0.32236	 	5.61099E19	 	5.24653E-20	 	7650.37925	27.48755	 
325.0	1.0	0.0	8.22391	7.00223	-9.31555	13.27473	16.15723	0.907	1.10253	207.38641	194.4147	78.42398	0.32221	 	8.87853E19	 	3.28818E-20	 	7513.16761	27.44233	 
320.0	1.0	0.0	8.22571	7.00069	-9.33541	13.24938	16.07229	0.90418	1.10598	207.73403	194.5821	78.56404	0.32207	 	1.4157999999999998E20	 	2.04479E-20	 	7376.18215	27.39709	 
315.0	1.0	0.0	8.22751	6.99917	-9.35519	13.22402	15.98732	0.90132	1.10949	208.08081	194.74847	78.70381	0.32192	 	2.2756699999999997E20	 	1.26144E-20	 	7239.42292	27.35184	 
310.0	1.0	0.0	8.2293	6.99764	-9.37491	13.19867	15.90233	0.89843	1.11305	208.42676	194.91379	78.84329	0.32178	 	3.6876499999999997E20	 	7.71822E-21	 	7102.88999	27.30659	 
305.0	1.0	0.0	8.23108	6.99613	-9.39456	13.17333	15.81731	0.89552	1.11667	208.77187	195.07809	78.98249	0.32163	 	6.025829999999999E20	 	4.68285E-21	 	6966.58348	27.2613	 
300.0	1.0	0.0	8.23286	6.99461	-9.41414	13.14799	15.73227	0.89257	1.12036	209.11614	195.24135	79.12139	0.32149	 	9.931279999999999E20	 	2.81676E-21	 	6830.5035	27.216	 
295.0	1.0	0.0	8.23464	6.99311	-9.43365	13.12265	15.6472	0.8896	1.12411	209.45957	195.40359	79.26002	0.32134	 	1.65125E21	 	1.67933E-21	 	6694.65017	27.17066	 
290.0	1.0	0.0	8.23641	6.99161	-9.4531	13.09732	15.5621	0.88659	1.12792	209.80217	195.56481	79.39835	0.3212	 	2.77039E21	 	9.92133E-22	 	6559.02371	27.12529	 
285.0	1.0	0.0	8.23817	6.99011	-9.47247	13.07199	15.47697	0.88355	1.1318	210.14393	195.725	79.5364	0.32106	 	4.69133E21	 	5.80687E-22	 	6423.62428	27.07989	 
280.0	1.0	0.0	8.23993	6.98862	-9.49178	13.04667	15.39181	0.88048	1.13574	210.48485	195.88417	79.67416	0.32091	 	8.02021E21	 	3.36623E-22	 	6288.45212	27.03443	 
275.0	1.0	0.0	8.24168	6.98713	-9.51102	13.02135	15.30662	0.87738	1.13976	210.82494	196.04232	79.81163	0.32077	 	1.3845999999999998E22	 	1.93224E-22	 	6153.50749	26.98893	 
270.0	1.0	0.0	8.24342	6.98565	-9.53019	12.99603	15.22141	0.87424	1.14385	211.16419	196.19946	79.94881	0.32062	 	2.4145099999999997E22	 	1.09794E-22	 	6018.79067	26.94336	 
265.0	1.0	0.0	8.24516	6.98418	-9.5493	12.97072	15.13616	0.87107	1.14801	211.5026	196.35559	80.08571	0.32048	 	4.25424E22	 	6.17402E-23	 	5884.30199	26.89774	 
260.0	1.0	0.0	8.2469	6.98271	-9.56833	12.94541	15.05087	0.86787	1.15225	211.84017	196.51071	80.22232	0.32033	 	7.5758E22	 	3.43485E-23	 	5750.04177	26.85204	 
255.0	1.0	0.0	8.24863	6.98124	-9.5873	12.92011	14.96556	0.86463	1.15656	212.17691	196.66482	80.35864	0.32019	 	1.3638899999999998E23	 	1.89001E-23	 	5616.01044	26.80627	 
250.0	1.0	0.0	8.25035	6.97978	-9.60619	12.89481	14.88021	0.86136	1.16096	212.51281	196.81793	80.49467	0.32004	 	2.4831999999999997E23	 	1.02825E-23	 	5482.20839	26.76041	 
245.0	1.0	0.0	8.25207	6.97833	-9.62502	12.86951	14.79482	0.85805	1.16543	212.84788	196.97004	80.63041	0.3199	 	4.5736899999999995E23	 	5.52936E-24	 	5348.63609	26.71446	 
240.0	1.0	0.0	8.25379	6.97688	-9.64378	12.84422	14.70939	0.8547	1.17	213.18211	197.12114	80.76587	0.31975	 	8.52493E23	 	2.93792E-24	 	5215.29405	26.66841	 
235.0	1.0	0.0	8.2555	6.97544	-9.66248	12.81894	14.62393	0.85132	1.17464	213.5155	197.27125	80.90103	0.31961	 	1.6085600000000001E24	 	1.54185E-24	 	5082.18281	26.62225	 
230.0	1.0	0.0	8.2572	6.974	-9.6811	12.79365	14.53843	0.8479	1.17938	213.84805	197.42037	81.03591	0.31946	 	3.07371E24	 	7.98954E-25	 	4949.30294	26.57597	 
225.0	1.0	0.0	8.25889	6.97257	-9.69966	12.76838	14.45289	0.84445	1.18421	214.17977	197.56849	81.1705	0.31932	 	5.95023E24	 	4.08614E-25	 	4816.65511	26.52957	 
220.0	1.0	0.0	8.26059	6.97114	-9.71815	12.7431	14.36731	0.84095	1.18913	214.51066	197.71562	81.3048	0.31918	 	1.16741E25	 	2.06178E-25	 	4684.23997	26.48303	 
215.0	1.0	0.0	8.26227	6.96972	-9.73657	12.71783	14.28168	0.83741	1.19415	214.8407	197.86177	81.43882	0.31903	 	2.32224E25	 	1.02597E-25	 	4552.05826	26.43634	 
210.0	1.0	0.0	8.26395	6.9683	-9.75492	12.69257	14.19602	0.83384	1.19927	215.16991	198.00693	81.57254	0.31889	 	4.68569E25	 	5.03263E-26	 	4420.11078	26.3895	 
205.0	1.0	0.0	8.26563	6.96689	-9.7732	12.66731	14.1103	0.83022	1.2045	215.49828	198.15111	81.70598	0.31874	 	9.59436E25	 	2.4324E-26	 	4288.39837	26.34248	 
200.0	1.0	0.0	8.2673	6.96548	-9.79142	12.64205	14.02454	0.82656	1.20983	215.82582	198.29431	81.83912	0.3186	 	1.99451E26	 	1.15784E-26	 	4156.92193	26.29529	 
195.0	1.0	0.0	8.26896	6.96408	-9.80956	12.6168	13.93873	0.82286	1.21527	216.15252	198.43653	81.97198	0.31845	 	4.211590000000001E26	 	5.42533E-27	 	4025.68242	26.2479	 
190.0	1.0	0.0	8.27062	6.96269	-9.82764	12.59155	13.85287	0.81912	1.22082	216.47838	198.57778	82.10455	0.31831	 	9.037830000000001E26	 	2.50118E-27	 	3894.68087	26.20031	 
185.0	1.0	0.0	8.27227	6.96129	-9.84566	12.5663	13.76696	0.81533	1.22649	216.80341	198.71805	82.23683	0.31816	 	1.97206E27	 	1.1339E-27	 	3763.91841	26.15249	 
180.0	1.0	0.0	8.27392	6.95991	-9.8636	12.54106	13.681	0.8115	1.23228	217.1276	198.85736	82.36882	0.31802	 	4.37779E27	 	5.05213E-28	 	3633.39618	26.10445	 
175.0	1.0	0.0	8.27556	6.95853	-9.88148	12.51583	13.59498	0.80763	1.2382	217.45095	198.99569	82.50052	0.31788	 	9.89274E27	 	2.21102E-28	 	3503.11545	26.05615	 
170.0	1.0	0.0	8.27719	6.95715	-9.89928	12.4906	13.50891	0.8037	1.24424	217.77347	199.13306	82.63193	0.31773	 	2.27703E28	 	9.4988E-29	 	3373.07754	26.00758	 
165.0	1.0	0.0	8.27882	6.95578	-9.91702	12.46537	13.42277	0.79974	1.25041	218.09516	199.26947	82.76305	0.31759	 	5.341750000000001E28	 	4.00337E-29	 	3243.28389	25.95873	 
160.0	1.0	0.0	8.28045	6.95442	-9.93469	12.44014	13.33658	0.79572	1.25672	218.416	199.40492	82.89388	0.31744	 	1.2780500000000001E29	 	1.65416E-29	 	3113.73597	25.90958	 
155.0	1.0	0.0	8.28207	6.95306	-9.9523	12.41492	13.25032	0.79165	1.26318	218.73601	199.53941	83.02442	0.3173	 	3.1207700000000002E29	 	6.69609E-30	 	2984.43544	25.86011	 
150.0	1.0	0.0	8.28368	6.95171	-9.96983	12.38971	13.164	0.78754	1.26978	219.05519	199.67294	83.15467	0.31716	 	7.78282E29	 	2.65365E-30	 	2855.38397	25.81029	 
145.0	1.0	0.0	8.28529	6.95036	-9.9873	12.3645	13.07761	0.78338	1.27653	219.37352	199.80552	83.28463	0.31701	 	1.9838299999999998E30	 	1.02876E-30	 	2726.58339	25.76012	 
140.0	1.0	0.0	8.28689	6.94901	-10.0047	12.33929	12.99115	0.77916	1.28343	219.69103	199.93715	83.41431	0.31687	 	5.17258E30	 	3.89841E-31	 	2598.03562	25.70955	 
135.0	1.0	0.0	8.28848	6.94768	-10.02203	12.31409	12.90462	0.77489	1.2905	220.00769	200.06783	83.54369	0.31672	 	1.3807299999999999E31	 	1.44278E-31	 	2469.74272	25.65858	 
130.0	1.0	0.0	8.29007	6.94634	-10.0393	12.28889	12.81801	0.77057	1.29774	220.32352	200.19756	83.67278	0.31658	 	3.77645E31	 	5.21038E-32	 	2341.70687	25.60717	 
125.0	1.0	0.0	8.29166	6.94501	-10.05649	12.2637	12.73132	0.76619	1.30515	220.63852	200.32634	83.80158	0.31643	 	1.0593399999999999E32	 	1.83441E-32	 	2213.93038	25.5553	 
120.0	1.0	0.0	8.29324	6.94369	-10.07362	12.23851	12.64456	0.76176	1.31274	220.95268	200.45419	83.93009	0.31629	 	3.05058E32	 	6.29017E-33	 	2086.41571	25.50293	 
115.0	1.0	0.0	8.29481	6.94238	-10.09068	12.21332	12.55771	0.75728	1.32052	221.266	200.58109	84.05831	0.31615	 	9.0274E32	 	2.09857E-33	 	1959.16548	25.45005	 
110.0	1.0	0.0	8.29638	6.94106	-10.10767	12.18814	12.47077	0.75273	1.32849	221.57849	200.70706	84.18624	0.316	 	2.7481500000000003E33	 	6.8048E-34	 	1832.18246	25.3966	 
105.0	1.0	0.0	8.29794	6.93976	-10.1246	12.16296	12.38375	0.74813	1.33666	221.89014	200.83209	84.31388	0.31586	 	8.615960000000001E33	 	2.14214E-34	 	1705.46961	25.34257	 
100.0	1.0	0.0	8.2995	6.93845	-10.14146	12.13779	12.29662	0.74347	1.34504	222.20095	200.95619	84.44123	0.31571	 	2.7852600000000004E34	 	6.53889E-35	 	1579.03007	25.28791	 
95.0	1.0	0.0	8.30105	6.93716	-10.15824	12.11262	12.20941	0.73875	1.35364	222.51093	201.07936	84.56829	0.31557	 	9.295430000000001E34	 	1.93305E-35	 	1452.86717	25.23258	 
90.0	1.0	0.0	8.3026	6.93587	-10.17497	12.08745	12.12208	0.73396	1.36246	222.82008	201.2016	84.69506	0.31543	 	3.2069E35	 	5.52697E-36	 	1326.98446	25.17654	 
85.0	1.0	0.0	8.30414	6.93458	-10.19162	12.06229	12.03466	0.72912	1.37152	223.12839	201.32291	84.82153	0.31528	 	1.1453E36	 	1.52627E-36	 	1201.38573	25.11975	 
80.0	1.0	0.0	8.30567	6.9333	-10.20821	12.03714	11.94712	0.72421	1.38082	223.43586	201.4433	84.94772	0.31514	 	4.24039E36	 	4.0648E-37	 	1076.07498	25.06215	 
75.0	1.0	0.0	8.3072	6.93202	-10.22473	12.01198	11.85947	0.71923	1.39038	223.7425	201.56277	85.07361	0.31499	 	1.63013E37	 	1.04239E-37	 	951.05648	25.0037	 
70.0	1.0	0.0	8.30872	6.93075	-10.24118	11.98684	11.7717	0.71419	1.4002	224.0483	201.68131	85.19921	0.31485	 	6.5175E37	 	2.56974E-38	 	826.3348	24.94434	 
65.0	1.0	0.0	8.31024	6.92949	-10.25756	11.96169	11.6838	0.70907	1.41029	224.35327	201.79894	85.32453	0.31471	 	2.7147999999999998E38	 	6.07936E-39	 	701.91479	24.884	 
60.0	1.0	0.0	8.31175	6.92823	-10.27387	11.93655	11.59577	0.70389	1.42067	224.6574	201.91566	85.44955	0.31456	 	1.18031E39	 	1.37762E-39	 	577.80161	24.82264	 
55.0	1.0	0.0	8.31325	6.92698	-10.29012	11.91142	11.50761	0.69864	1.43135	224.96069	202.03146	85.57427	0.31442	 	5.3666500000000006E39	 	2.98439E-40	 	454.00078	24.76017	 
50.0	1.0	0.0	8.31475	6.92573	-10.3063	11.88629	11.4193	0.69332	1.44235	225.26315	202.14635	85.69871	0.31427	 	2.55719E40	 	6.16776E-41	 	330.51817	24.69652	 
45.0	1.0	0.0	8.31625	6.92448	-10.32242	11.86116	11.33084	0.68792	1.45366	225.56478	202.26033	85.82286	0.31413	 	1.27978E41	 	1.21334E-41	 	207.36006	24.63162	 
40.0	1.0	0.0	8.31774	6.92324	-10.33846	11.83604	11.24223	0.68244	1.46532	225.86557	202.3734	85.94671	0.31399	 	6.74284E41	 	2.26671E-42	 	84.53318	24.56538	 
35.0	1.0	0.0	8.31922	6.92201	-10.35444	11.81092	11.15345	0.67689	1.47734	226.16552	202.48557	86.07027	0.31384	 	3.7494699999999996E42	 	4.01124E-43	 	-37.95534	24.4977	 
30.0	1.0	0.0	8.32069	6.92078	-10.37035	11.7858	11.0645	0.67126	1.48973	226.46464	202.59684	86.19354	0.3137	 	2.20636E43	 	6.70606E-44	 	-160.09781	24.4285	 
25.0	1.0	0.0	8.32217	6.91956	-10.38619	 	10.97537	0.66555	1.50251	226.76293	202.7072	86.31652	0.31355	 	1.37784E44	 	1.05614E-44	 	-281.88604	 	 
