T (C)	Fraction solid (wt)-TOTAL	Fraction liquid (wt)-LIQUID	Density (g/(cm)^3)-TOTAL	Molar volume (cm^3)-TOTAL	Volume change (%)-  	Average expansion coeff. (10e-6 1/K)-  	Thermal conductivity (W/(m*K))-TOTAL	Electrical resistivity (10e-6 Ohm*m)-TOTAL	Electrical conductivity (10e6 1/(Ohm*m))-TOTAL	Young's modulus (GPa)-TOTAL	Bulk modulus (GPa)-TOTAL	Shear modulus(GPa)-TOTAL	Poisson's ratio-TOTAL	Liquid viscosity (mPa s)-  	Total viscosity (mPa s)-  	Liquid diffusivity (10e-9 (m^2)/s)-  	Total diffusivity (10e-9 (m^2)/s)-  	Surface Tension (mN/m)-  	Enthalpy (J/mole)-TOTAL	Specific heat (J/(mole K))-TOTAL	Latent heat (J/mole)-TOTAL
1400.0	0.0	1.0	7.63267	7.93242	0.0	28.69987	27.17247	1.50859	0.66287	0.0	126.61797	0.0	0.5	8.63159	8.63159	0.94609	0.94609	1849.68272	53773.097	 	0.0
1395.0	0.0	1.0	7.63673	7.9282	-0.0531813	28.6599	27.10579	1.50778	0.66323	0.0	126.77897	0.0	0.5	8.72771	8.72771	0.93287	0.93287	1853.68442	53569.668	40.6858	0.0
1390.0	0.0	1.0	7.64079	7.92399	-0.10621	28.62006	27.03912	1.50697	0.66358	0.0	126.93997	0.0	0.5	8.82548	8.82548	0.91977	0.91977	1857.71907	53366.701	40.5934	0.0
1385.0	0.0	1.0	7.64483	7.9198	-0.15908	28.58034	26.97244	1.50615	0.66394	0.0	127.10098	0.0	0.5	8.92495	8.92495	0.90679	0.90679	1861.78647	53164.195	40.5012	0.0
1380.0	0.0	1.0	7.64887	7.91562	-0.21181	28.54075	26.90577	1.50533	0.6643	0.0	127.26198	0.0	0.5	9.02615	9.02615	0.89392	0.89392	1865.88637	52962.148	40.4094	0.0
1375.0	0.0	1.0	7.6529	7.91145	-0.26438	28.50129	26.83909	1.50451	0.66467	0.0	127.42299	0.0	0.5	9.12912	9.12912	0.88116	0.88116	1870.0185	52760.556	40.3184	0.0
1370.0	0.0	1.0	7.65693	7.90729	-0.31679	28.46196	26.77242	1.50368	0.66503	0.0	127.58399	0.0	0.5	9.23391	9.23391	0.86852	0.86852	1874.18258	52559.418	40.2276	0.0
1365.0	0.0	1.0	7.66095	7.90314	-0.36905	28.42277	26.70575	1.50285	0.6654	0.0	127.74499	0.0	0.5	9.34054	9.34054	0.85599	0.85599	1878.37831	52358.73	40.1376	0.0
1360.0	0.0	1.0	7.66495	7.89901	-0.42116	28.38371	26.63907	1.50201	0.66577	0.0	127.906	0.0	0.5	9.44908	9.44908	0.84357	0.84357	1882.60541	52158.491	40.0478	0.0
1355.0	0.0	1.0	7.66896	7.89489	-0.47312	28.34478	26.5724	1.50117	0.66615	0.0	128.067	0.0	0.5	9.55955	9.55955	0.83127	0.83127	1886.86354	51958.698	39.9586	0.0
1350.0	0.0	1.0	7.67295	7.89078	-0.52492	28.30599	26.50572	1.50032	0.66652	0.0	128.228	0.0	0.5	9.67201	9.67201	0.81908	0.81908	1891.15239	51759.348	39.87	0.0
1345.0	0.0	1.0	7.67694	7.88668	-0.57657	28.26734	26.43905	1.49947	0.6669	0.0	128.38901	0.0	0.5	9.7865	9.7865	0.80701	0.80701	1895.47161	51560.44	39.7816	0.0
1343.2	0.0	1.0	7.67837	7.88521	-0.59515	28.25344	26.41502	1.49917	0.66704	0.0	128.44704	0.0	0.5	9.82827	9.82827	0.80268	0.80268	1897.03597	51488.851	39.71937	0.0
1340.0	0.0943916	0.90561	7.70303	7.85996	-0.91346	27.41977	26.70382	1.48002	0.67567	0.00843925	129.46912	0.00283786	0.4869	9.91938	13.58179	0.79374	0.5797	1896.69817	49947.427	482.05202	1414.542
1335.0	0.22148	0.77852	7.7367	7.82571	-1.34524	26.29567	27.09682	1.45403	0.68774	0.26091	130.85792	0.0888029	0.46906	10.06311	88.23554	0.77998	0.0889549	1896.12941	47855.053	418.4748	3308.883
1330.0	0.32556	0.67444	7.76482	7.79732	-1.70315	25.374	27.42166	1.43234	0.69816	1.23884	132.0259	0.42593	0.45427	10.20884	384.08868	0.76645	0.0203718	1895.54757	46116.395	347.7316	4849.942
1325.99	0.39525	0.60475	7.78404	7.77807	-1.94579	24.75684	27.64025	1.41746	0.70549	2.72284	132.83458	0.94264	0.44427	10.32722	854.13483	0.75577	0.00913793	1895.08541	44933.413	 	5874.901
1325.0	0.41673	0.58327	7.79016	7.77199	-2.02251	24.55577	27.71208	1.41291	0.70776	3.35326	133.10641	1.16341	0.44113	10.34953	1059.25359	0.75367	0.00736384	1894.02228	44562.758	310.7274	6206.413
1320.0	0.51637	0.48363	7.81874	7.74361	-2.38028	23.62066	28.05513	1.39127	0.71877	7.90211	134.27043	2.77001	0.42637	10.46654	2585.99776	0.74292	0.00300687	1888.73307	42837.279	345.0958	7735.156
1315.0	0.59549	0.40451	7.84202	7.72068	-2.66933	22.87689	28.32835	1.37352	0.72805	14.13164	135.16208	4.99539	0.41447	10.58925	4806.9497	0.732	0.00161253	1883.59386	41439.928	279.4702	8936.198
1314.89	0.59698	0.40302	7.84247	7.72024	-2.67478	22.8631	28.33335	1.37319	0.72823	14.27686	135.17989	5.04752	0.41424	10.59205	4860.78564	0.73176	0.00159456	1883.48082	41413.166	 	8958.574
1310.0	0.66354	0.33646	7.86255	7.70071	-2.92108	22.23553	28.56261	1.35797	0.73639	21.98839	135.91542	7.82927	0.40424	10.64312	7787.19292	0.72601	9.92265E-4	1876.15198	40215.222	244.9412	9965.021
1305.0	0.71804	0.28196	7.87965	7.68423	-3.12878	21.71747	28.74356	1.34516	0.74341	30.48848	136.50599	10.92052	0.39593	10.70251	11284.50493	0.7197	6.82578E-4	1869.08315	39203.643	202.3158	10781.139
1300.0	0.76191	0.23809	7.89405	7.67052	-3.3016	21.29735	28.88046	1.33454	0.74932	39.07132	136.98525	14.06323	0.38913	10.7688	15169.51464	0.713	5.06157E-4	1862.45719	38357.468	169.235	11432.275
1295.11	0.79684	0.20316	7.90609	7.65916	-3.44481	20.95902	28.97961	1.32584	0.75424	47.20148	137.37973	17.05703	0.38364	10.84015	19262.37701	0.7061	3.97369E-4	1856.4059	37652.937	 	11946.378
1295.11	0.79684	0.20316	7.90609	7.65916	-3.44481	20.95902	28.97961	1.32584	0.75424	47.20148	137.37973	17.05703	0.38364	10.84015	19262.37701	0.7061	3.97369E-4	1856.4059	37652.938	 	11946.377
1295.0	0.79793	0.20207	7.90644	7.65883	-3.44903	20.9484	28.98295	1.3256	0.75438	47.47361	137.39288	17.15746	0.38347	10.84315	19393.05717	0.70586	3.94664E-4	1856.25455	37632.464	145.0008	11962.658
1290.0	0.84451	0.15549	7.92172	7.64459	-3.62851	20.5023	29.12485	1.31493	0.7605	60.44299	137.91128	21.96162	0.3761	10.98751	25944.36233	0.69437	2.94066E-4	1859.73327	36738.30737	178.83133	12661.247
1285.0	0.87858	0.12142	7.93044	7.63414	-3.76022	20.19395	29.20337	1.3072	0.76499	71.51895	138.12672	26.09079	0.37058	11.14233	32451.13739	0.68253	2.34351E-4	1863.23847	36034.67515	140.72644	13166.919
1280.0	0.90399	0.0960071	7.93797	7.62571	-3.86653	19.95862	29.24577	1.30112	0.76857	80.83494	138.33702	29.58007	0.36637	11.30677	38881.84038	0.67044	1.94963E-4	1866.77137	35463.63771	114.20749	13540.526
1275.0	0.92332	0.0766812	7.94474	7.61869	-3.95499	19.77464	29.26217	1.2962	0.77148	88.6054	138.55799	32.50103	0.36312	11.48033	45265.68934	0.65818	1.66929E-4	1870.33029	34985.41575	95.64439	13821.844
1270.0	0.93826	0.0617407	7.95097	7.61267	-4.0309	19.62676	29.25953	1.29213	0.77391	95.08365	138.79395	34.94325	0.36054	11.66229	51659.79527	0.64582	1.45795E-4	1873.91726	34573.48899	82.38535	14037.39
1265.0	0.95	0.0499999	7.95682	7.6074	-4.09741	19.50594	29.24274	1.28868	0.77598	100.50807	139.04577	36.9929	0.35848	11.8522	58133.60611	0.63341	1.29139E-4	1877.52794	34209.83814	72.73017	14205.178
1260.0	0.95936	0.0406378	7.96237	7.60266	-4.15716	19.40453	29.21522	1.28571	0.77778	105.08382	139.31145	38.72516	0.35679	12.04955	64757.83521	0.62101	1.15552E-4	1881.16613	33881.99091	65.56945	14337.675
1255.0	0.96693	0.0330721	7.96769	7.59833	-4.21164	19.31829	29.17942	1.28308	0.77937	108.97548	139.589	40.20077	0.35539	12.25406	71600.55838	0.60866	1.04168E-4	1884.82816	33581.15903	60.16638	14443.666
1250.0	0.97577	0.0242275	7.97386	7.59358	-4.27155	19.21483	29.14546	1.28038	0.78102	113.74731	140.0164	42.01112	0.35378	12.43379	79628.79897	0.5979	9.33596E-5	1888.56613	33256.85026	64.86175	14573.64
1245.0	0.98362	0.0163767	7.97987	7.58909	-4.32819	19.12051	29.10541	1.27793	0.78252	118.21338	140.48799	43.70759	0.35232	12.59819	88206.07112	0.58816	8.40046E-5	1892.37458	32946.32536	62.10498	14690.331
1240.0	0.9895	0.0104978	7.98523	7.58515	-4.3779	19.04668	29.05589	1.27589	0.78377	121.739	140.91859	45.04887	0.35119	12.76039	96921.47162	0.57877	7.61989E-5	1896.19875	32666.30913	56.00325	14777.01
1235.0	1.0	0.0	7.99351	7.57972	-4.44627	18.91472	29.02177	1.27317	0.78544	128.01004	141.54874	47.43662	0.34927	 	108634.9802	 	6.77582E-5	 	32304.6483	72.33217	14945.825
1230.0	1.0	0.0	7.9962	7.57717	-4.47847	18.89358	28.94731	1.27221	0.78603	128.39291	141.8051	47.58476	0.3491	 	116549.6864	 	6.29474E-5	 	32130.78617	34.77243	 
1225.0	1.0	0.0	7.99889	7.57462	-4.51059	18.87254	28.87282	1.27125	0.78663	128.77521	142.06064	47.73271	0.34892	 	125098.2959	 	5.84508E-5	 	31951.32864	35.89151	 
1220.0	1.0	0.0	8.00157	7.57208	-4.54262	18.85158	28.7983	1.27029	0.78722	129.15695	142.31533	47.88048	0.34874	 	134336.0524	 	5.42497E-5	 	31772.24576	35.81658	 
1215.0	1.0	0.0	8.00425	7.56955	-4.57457	18.83071	28.72374	1.26932	0.78782	129.53812	142.56917	48.02807	0.34857	 	144323.4176	 	5.03265E-5	 	31593.53489	35.74217	 
1210.0	1.0	0.0	8.00693	7.56702	-4.60643	18.80992	28.64915	1.26835	0.78843	129.91871	142.82216	48.17546	0.34839	 	155126.5933	 	4.66644E-5	 	31415.19345	35.66829	 
1205.0	1.0	0.0	8.00959	7.5645	-4.63821	18.78922	28.57453	1.26738	0.78903	130.29872	143.07428	48.32266	0.34822	 	166818.0774	 	4.32476E-5	 	31237.21852	35.59498	 
1200.0	1.0	0.0	8.01226	7.56198	-4.66991	18.7686	28.49988	1.2664	0.78964	130.67814	143.32553	48.46967	0.34804	 	179477.3342	 	4.00612E-5	 	31059.60827	35.52205	 
1195.0	1.0	0.0	8.01492	7.55947	-4.70153	18.74807	28.4252	1.26542	0.79025	131.05696	143.5759	48.61648	0.34787	 	193191.4983	 	3.7091E-5	 	30882.3598	35.44969	 
1190.0	1.0	0.0	8.01757	7.55697	-4.73306	18.72762	28.35049	1.26443	0.79087	131.43518	143.82538	48.76309	0.34769	 	208056.1722	 	3.43238E-5	 	30705.47061	35.37784	 
1185.0	1.0	0.0	8.02022	7.55448	-4.76452	18.70726	28.27574	1.26344	0.79149	131.8128	144.07397	48.9095	0.34752	 	224176.2999	 	3.17467E-5	 	30528.93823	35.30648	 
1180.0	1.0	0.0	8.02286	7.55199	-4.79589	18.68697	28.20097	1.26244	0.79211	132.1898	144.32166	49.05572	0.34734	 	241667.1577	 	2.93481E-5	 	30352.7602	35.23561	 
1175.0	1.0	0.0	8.0255	7.54951	-4.82718	18.66678	28.12617	1.26145	0.79274	132.5662	144.56844	49.20173	0.34717	 	260655.447	 	2.71165E-5	 	30176.93408	35.16522	 
1170.0	1.0	0.0	8.02813	7.54703	-4.8584	18.64666	28.05134	1.26045	0.79337	132.94197	144.81431	49.34753	0.347	 	281280.4918	 	2.50414E-5	 	30001.45746	35.09532	 
1165.0	1.0	0.0	8.03076	7.54456	-4.88953	18.62662	27.97648	1.25944	0.794	133.31712	145.05926	49.49313	0.34682	 	303695.5941	 	2.31128E-5	 	29826.32796	35.0259	 
1160.0	1.0	0.0	8.03338	7.5421	-4.92059	18.60667	27.9016	1.25843	0.79464	133.69164	145.30329	49.63852	0.34665	 	328069.5505	 	2.13212E-5	 	29651.54321	34.95695	 
1155.0	1.0	0.0	8.036	7.53964	-4.95157	18.5868	27.82668	1.25741	0.79528	134.06553	145.54639	49.7837	0.34648	 	354588.3083	 	1.96579E-5	 	29477.10089	34.88846	 
1150.0	1.0	0.0	8.03861	7.53719	-4.98247	18.56701	27.75174	1.2564	0.79593	134.43879	145.78856	49.92867	0.34631	 	383456.8487	 	1.81143E-5	 	29302.99868	34.82044	 
1145.0	1.0	0.0	8.04122	7.53474	-5.01329	18.5473	27.67677	1.25537	0.79658	134.81141	146.02979	50.07343	0.34614	 	414901.2658	 	1.66826E-5	 	29129.23429	34.75288	 
1140.0	1.0	0.0	8.04383	7.53231	-5.04404	18.52768	27.60178	1.25435	0.79723	135.18339	146.27008	50.21798	0.34597	 	449171.1016	 	1.53555E-5	 	28955.80548	34.68576	 
1135.0	1.0	0.0	8.04642	7.52987	-5.07471	18.50813	27.52676	1.25331	0.79788	135.55472	146.50942	50.36231	0.3458	 	486541.9301	 	1.41259E-5	 	28782.71002	34.61909	 
1130.0	1.0	0.0	8.04902	7.52745	-5.1053	18.48867	27.45171	1.25228	0.79854	135.92542	146.74782	50.50644	0.34562	 	527318.3015	 	1.29873E-5	 	28609.9457	34.55286	 
1125.0	1.0	0.0	8.05161	7.52502	-5.13582	18.46928	27.37664	1.25124	0.79921	136.29546	146.98527	50.65034	0.34545	 	571836.995	 	1.19335E-5	 	28437.51034	34.48707	 
1120.0	1.0	0.0	8.05419	7.52261	-5.16626	18.44998	27.30154	1.25019	0.79988	136.66485	147.22176	50.79403	0.34528	 	620470.6356	 	1.09588E-5	 	28265.40181	34.42171	 
1115.0	1.0	0.0	8.05677	7.5202	-5.19663	18.43076	27.22642	1.24914	0.80055	137.03359	147.45729	50.9375	0.34511	 	673631.8001	 	1.00577E-5	 	28093.61798	34.35677	 
1110.0	1.0	0.0	8.05935	7.5178	-5.22692	18.41161	27.15127	1.24809	0.80123	137.40167	147.69186	51.08075	0.34495	 	731777.6313	 	9.22522E-6	 	27922.15677	34.29224	 
1105.0	1.0	0.0	8.06192	7.5154	-5.25713	18.39255	27.0761	1.24703	0.80191	137.76909	147.92547	51.22379	0.34478	 	795414.9687	 	8.45648E-6	 	27751.0161	34.22813	 
1100.0	1.0	0.0	8.06448	7.51301	-5.28728	18.37357	27.00091	1.24596	0.80259	138.13586	148.15812	51.36661	0.34461	 	865106.0854	 	7.74703E-6	 	27580.19396	34.16443	 
1095.0	1.0	0.0	8.06704	7.51063	-5.31734	18.35467	26.92569	1.2449	0.80328	138.50196	148.3898	51.5092	0.34444	 	941475.2684	 	7.0927E-6	 	27409.68832	34.10113	 
1090.0	1.0	0.0	8.0696	7.50825	-5.34734	18.33585	26.85045	1.24382	0.80397	138.86741	148.62051	51.65158	0.34427	 	1025216.018	 	6.48956E-6	 	27239.49723	34.03822	 
1089.59	1.0	0.0	8.06981	7.50805	-5.34979	18.3343	26.84429	1.24373	0.80403	138.89725	148.63932	51.66321	0.34426	 	1032411.323	 	6.44239E-6	 	27225.59669	 	 
1085.0	1.0	0.0	8.07215	7.50588	-5.37718	18.31737	26.77519	1.24274	0.80467	139.2325	148.85076	51.79384	0.3441	 	1117122.638	 	5.93381E-6	 	27069.44953	34.00954	 
1080.0	1.0	0.0	8.07469	7.50352	-5.40695	18.29901	26.6999	1.24166	0.80537	139.59694	149.08006	51.93589	0.34394	 	1218035.504	 	5.42216E-6	 	26899.70573	33.94876	 
1075.0	1.0	0.0	8.07722	7.50116	-5.43665	18.2807	26.6246	1.24057	0.80608	139.9607	149.30837	52.07771	0.34377	 	1328907.405	 	4.95142E-6	 	26730.28064	33.88502	 
1070.0	1.0	0.0	8.07975	7.49881	-5.46628	18.26247	26.54927	1.23948	0.80679	140.32378	149.53567	52.21931	0.3436	 	1450802.711	 	4.51859E-6	 	26561.1719	33.82175	 
1065.0	1.0	0.0	8.08228	7.49647	-5.49584	18.24431	26.47392	1.23838	0.80751	140.68617	149.76197	52.36067	0.34343	 	1584908.153	 	4.12086E-6	 	26392.3772	33.75894	 
1060.0	1.0	0.0	8.0848	7.49413	-5.52533	18.22621	26.39855	1.23727	0.80823	141.04788	149.98727	52.50181	0.34327	 	1732547.721	 	3.75561E-6	 	26223.89432	33.69658	 
1055.0	1.0	0.0	8.08732	7.49179	-5.55476	18.20819	26.32316	1.23616	0.80896	141.40891	150.21157	52.64272	0.3431	 	1895199.864	 	3.42042E-6	 	26055.72103	33.63466	 
1050.0	1.0	0.0	8.08984	7.48946	-5.58411	18.19024	26.24775	1.23505	0.80969	141.76925	150.43487	52.7834	0.34293	 	2074516.55	 	3.113E-6	 	25887.85518	33.57317	 
1045.0	1.0	0.0	8.09235	7.48714	-5.6134	18.17236	26.17231	1.23393	0.81042	142.12891	150.65718	52.92386	0.34277	 	2272345.096	 	2.83124E-6	 	25720.29465	33.51211	 
1040.0	1.0	0.0	8.09485	7.48482	-5.64262	18.15455	26.09686	1.2328	0.81116	142.48788	150.87849	53.06408	0.3426	 	2490752.758	 	2.57318E-6	 	25553.03736	33.45146	 
1035.0	1.0	0.0	8.09736	7.48251	-5.67178	18.13682	26.02138	1.23167	0.81191	142.84617	151.0988	53.20408	0.34244	 	2732055.076	 	2.33698E-6	 	25386.08128	33.39122	 
1030.0	1.0	0.0	8.09985	7.4802	-5.70086	18.11917	25.94589	1.23053	0.81266	143.20378	151.31812	53.34385	0.34227	 	2998847.123	 	2.12093E-6	 	25219.42441	33.33137	 
1025.0	1.0	0.0	8.10235	7.4779	-5.72988	18.10159	25.87037	1.22939	0.81341	143.56071	151.53644	53.48339	0.34211	 	3294040.047	 	1.92346E-6	 	25053.06483	33.27192	 
1020.0	1.0	0.0	8.10484	7.47561	-5.75883	18.08409	25.79484	1.22824	0.81418	143.91695	151.75377	53.62271	0.34194	 	3620902.149	 	1.74309E-6	 	24887.00059	33.21285	 
1015.0	1.0	0.0	8.10732	7.47331	-5.78771	18.06666	25.71928	1.22708	0.81494	144.27251	151.97012	53.7618	0.34178	 	3983105.277	 	1.57845E-6	 	24721.22985	33.15415	 
1010.0	1.0	0.0	8.1098	7.47103	-5.81652	18.04932	25.64371	1.22592	0.81571	144.62739	152.18548	53.90066	0.34161	 	4384778.413	 	1.42829E-6	 	24555.75078	33.09581	 
1007.54	1.0	0.0	8.11102	7.46991	-5.83066	18.04082	25.60655	1.22535	0.81609	144.80157	152.29097	53.96883	0.34153	 	4598068.673	 	1.35943E-6	 	24474.5204	 	 
1005.0	1.0	0.0	8.11331	7.4678	-5.85723	17.98656	25.53443	1.22637	0.81541	145.12774	152.42306	54.09924	0.34131	 	4859558.727	 	1.28372E-6	 	24338.71984	43.40619	 
1000.0	1.0	0.0	8.11775	7.46371	-5.90874	17.88184	25.39684	1.22819	0.81421	145.75504	152.67634	54.35016	0.34089	 	5421066.947	 	1.14626E-6	 	24075.20101	52.70377	 
995.0	1.0	0.0	8.12211	7.4597	-5.95932	17.77964	25.26406	1.2298	0.81314	146.36458	152.92161	54.5941	0.34048	 	6052063.893	 	1.02271E-6	 	23816.18941	51.80232	 
990.0	1.0	0.0	8.12641	7.45576	-6.009	17.67982	25.13392	1.23129	0.81216	146.95754	153.15948	54.83154	0.34008	 	6761731.614	 	9.11767E-7	 	23561.45393	50.9471	 
985.0	1.0	0.0	8.13063	7.45189	-6.05784	17.58224	25.00755	1.23261	0.81128	147.53499	153.3905	55.06287	0.3397	 	7560546.714	 	8.12205E-7	 	23310.77525	50.13574	 
980.0	1.0	0.0	8.13479	7.44808	-6.10588	17.48678	24.88465	1.23378	0.81052	148.09791	153.61516	55.2885	0.33932	 	8460473.644	 	7.22928E-7	 	23063.94551	49.36595	 
975.0	1.0	0.0	8.13889	7.44433	-6.15315	17.39332	24.76492	1.2348	0.80985	148.64721	153.83392	55.50876	0.33895	 	9475190.7	 	6.42933E-7	 	22820.7679	48.63552	 
970.0	1.0	0.0	8.14293	7.44063	-6.19969	17.30174	24.64808	1.23568	0.80927	149.18374	154.04717	55.72399	0.3386	 	1.062034999E7	 	5.71309E-7	 	22581.05621	47.94234	 
965.0	1.0	0.0	8.14691	7.437	-6.24555	17.21192	24.53391	1.23644	0.80877	149.70826	154.25526	55.9345	0.33825	 	1.191388148E7	 	5.07232E-7	 	22344.63444	47.28435	 
960.0	1.0	0.0	8.15084	7.43341	-6.29074	17.12376	24.42221	1.23708	0.80836	150.2215	154.45853	56.14056	0.33791	 	1.337634462E7	 	4.49951E-7	 	22111.33625	46.65964	 
955.0	1.0	0.0	8.15472	7.42988	-6.33531	17.03716	24.31279	1.23761	0.80801	150.72411	154.65726	56.34243	0.33757	 	1.503133904E7	 	3.98786E-7	 	21881.00458	46.06633	 
950.0	1.0	0.0	8.15855	7.42639	-6.37929	16.95202	24.20549	1.23803	0.80773	151.21671	154.85172	56.54036	0.33725	 	1.690598283E7	 	3.53123E-7	 	21653.49116	45.50268	 
945.0	1.0	0.0	8.16233	7.42294	-6.4227	16.86826	24.10017	1.23836	0.80752	151.69986	155.04216	56.73457	0.33693	 	1.903146913E7	 	3.12403E-7	 	21428.65601	44.96703	 
940.0	1.0	0.0	8.16607	7.41954	-6.46556	16.78577	23.99669	1.23859	0.80737	152.17409	155.22879	56.92526	0.33661	 	2.144371832E7	 	2.76122E-7	 	21206.36708	44.45779	 
935.0	1.0	0.0	8.16977	7.41618	-6.50792	16.70448	23.89495	1.23874	0.80727	152.63989	155.41182	57.11263	0.33631	 	2.418413887E7	 	2.43824E-7	 	20986.49972	43.97347	 
930.0	1.0	0.0	8.17343	7.41286	-6.54979	16.62431	23.79482	1.23881	0.80723	153.09771	155.59142	57.29685	0.336	 	2.730051948E7	 	2.15098E-7	 	20768.93633	43.51268	 
925.0	1.0	0.0	8.17706	7.40958	-6.59119	16.54518	23.69622	1.23879	0.80724	153.54796	155.76777	57.4781	0.33571	 	3.084807286E7	 	1.8957E-7	 	20553.56594	43.07408	 
920.0	1.0	0.0	8.18064	7.40633	-6.63214	16.46702	23.59904	1.2387	0.8073	153.99105	155.94103	57.65652	0.33542	 	3.489066187E7	 	1.66906E-7	 	20340.2838	42.65643	 
915.0	1.0	0.0	8.1842	7.40312	-6.67267	16.38976	23.50321	1.23854	0.8074	154.42734	156.11133	57.83227	0.33513	 	3.950224062E7	 	1.46803E-7	 	20128.99104	42.25855	 
910.0	1.0	0.0	8.18772	7.39993	-6.7128	16.31334	23.40864	1.23831	0.80755	154.85716	156.27881	58.00548	0.33485	 	4.476854631E7	 	1.28989E-7	 	19919.59434	41.87934	 
905.0	1.0	0.0	8.19121	7.39678	-6.75254	16.23768	23.31527	1.23802	0.80774	155.28084	156.4436	58.17627	0.33457	 	5.078909496E7	 	1.13218E-7	 	19712.00555	41.51776	 
900.0	1.0	0.0	8.19467	7.39366	-6.79191	16.16273	23.22302	1.23766	0.80798	155.69868	156.60582	58.34476	0.3343	 	5.767953153E7	 	9.92701E-8	 	19506.14142	41.17282	 
895.0	1.0	0.0	8.1981	7.39056	-6.83092	16.08844	23.13185	1.23724	0.80825	156.11095	156.76556	58.51106	0.33403	 	6.55744107E7	 	8.69463E-8	 	19301.92333	40.84362	 
890.0	1.0	0.0	8.2015	7.38749	-6.8696	16.01474	23.04169	1.23677	0.80856	156.51791	156.92294	58.67529	0.33376	 	7.463047314E7	 	7.60687E-8	 	19099.27696	40.52928	 
885.0	1.0	0.0	8.20488	7.38445	-6.90795	15.94159	22.95249	1.23624	0.80891	156.91981	157.07805	58.83752	0.3335	 	8.503053678E7	 	6.64778E-8	 	18898.13207	40.22898	 
880.0	1.0	0.0	8.20824	7.38143	-6.946	15.86893	22.8642	1.23565	0.80929	157.31689	157.23098	58.99786	0.33324	 	9.698808733E7	 	5.80302E-8	 	18698.42226	39.94196	 
875.0	1.0	0.0	8.21157	7.37844	-6.98375	15.79672	22.77679	1.23502	0.80971	157.70935	157.38183	59.1564	0.33299	 	1.107527676E8	 	5.05977E-8	 	18500.0845	39.66755	 
870.0	1.0	0.0	8.21488	7.37547	-7.02121	15.72491	22.6902	1.23433	0.81016	158.09741	157.53068	59.3132	0.33273	 	1.266168298E8	 	4.40655E-8	 	18303.05977	39.40495	 
865.0	1.0	0.0	8.21816	7.37252	-7.0584	15.65346	22.6044	1.2336	0.81064	158.48126	157.67761	59.46836	0.33248	 	1.449228934E8	 	3.83309E-8	 	18107.29196	39.15356	 
860.0	1.0	0.0	8.22143	7.36959	-7.09533	15.58232	22.51936	1.23281	0.81115	158.86109	157.8227	59.62194	0.33224	 	1.660731303E8	 	3.33023E-8	 	17912.72797	38.9128	 
855.0	1.0	0.0	8.22468	7.36668	-7.13201	15.51145	22.43504	1.23199	0.8117	159.23706	157.96602	59.77402	0.33199	 	1.905402393E8	 	2.88979E-8	 	17719.31757	38.68208	 
850.0	1.0	0.0	8.22791	7.36379	-7.16845	15.44081	22.35142	1.23112	0.81227	159.60935	158.10766	59.92465	0.33175	 	2.188805566E8	 	2.50448E-8	 	17527.01327	38.46086	 
845.0	1.0	0.0	8.23023	7.36171	-7.19463	15.41594	22.28233	1.22944	0.81338	159.93894	158.30316	60.05467	0.33161	 	2.487931779E8	 	2.19355E-8	 	17373.6364	30.67537	 
840.0	1.0	0.0	8.23254	7.35964	-7.22074	15.39108	22.21322	1.22775	0.8145	160.26798	158.49785	60.18451	0.33147	 	2.831193255E8	 	1.91898E-8	 	17217.36898	31.25348	 
835.0	1.0	0.0	8.23485	7.35757	-7.24678	15.36622	22.1441	1.22605	0.81563	160.59646	158.69174	60.31417	0.33133	 	3.225574609E8	 	1.67679E-8	 	17061.34282	31.20523	 
830.0	1.0	0.0	8.23716	7.35551	-7.27276	15.34136	22.07497	1.22434	0.81677	160.9244	158.88483	60.44364	0.33119	 	3.679239722E8	 	1.4634E-8	 	16905.55719	31.15713	 
825.0	1.0	0.0	8.23946	7.35346	-7.29867	15.31651	22.00582	1.22262	0.81792	161.25178	159.07712	60.57293	0.33105	 	4.201743228E8	 	1.27561E-8	 	16750.01132	31.10918	 
820.0	1.0	0.0	8.24176	7.35141	-7.32451	15.29167	21.93666	1.22089	0.81908	161.57861	159.26862	60.70203	0.33092	 	4.804282128E8	 	1.11055E-8	 	16594.70441	31.06138	 
815.0	1.0	0.0	8.24405	7.34936	-7.35028	15.26682	21.86748	1.21915	0.82025	161.90489	159.45931	60.83095	0.33078	 	5.499995587E8	 	9.65635E-9	 	16439.63569	31.01374	 
810.0	1.0	0.0	8.24634	7.34733	-7.37599	15.24199	21.79829	1.2174	0.82142	162.23061	159.64922	60.95969	0.33064	 	6.30432261E8	 	8.38565E-9	 	16284.80433	30.96627	 
805.0	1.0	0.0	8.24862	7.34529	-7.40163	15.21715	21.72908	1.21564	0.82261	162.55579	159.83833	61.08824	0.3305	 	7.235429425E8	 	7.2728E-9	 	16130.20952	30.91896	 
800.0	1.0	0.0	8.2509	7.34326	-7.4272	15.19233	21.65985	1.21387	0.82381	162.88041	160.02666	61.21661	0.33036	 	8.314720855E8	 	6.2994E-9	 	15975.8504	30.87182	 
795.0	1.0	0.0	8.25318	7.34124	-7.4527	15.1675	21.59061	1.21209	0.82502	163.20448	160.2142	61.3448	0.33022	 	9.567453127E8	 	5.44907E-9	 	15821.72612	30.82486	 
790.0	1.0	0.0	8.25545	7.33922	-7.47814	15.14268	21.52135	1.21029	0.82625	163.528	160.40096	61.4728	0.33008	 	1.102346929E9	 	4.7072E-9	 	15667.83576	30.77807	 
785.0	1.0	0.0	8.25771	7.33721	-7.50351	15.11787	21.45208	1.20849	0.82748	163.85096	160.58694	61.60062	0.32995	 	1.271808317E9	 	4.06081E-9	 	15514.17847	30.73146	 
780.0	1.0	0.0	8.25997	7.3352	-7.52881	15.09306	21.38279	1.20668	0.82872	164.17338	160.77214	61.72825	0.32981	 	1.469314337E9	 	3.49834E-9	 	15360.75328	30.68504	 
775.0	1.0	0.0	8.26222	7.3332	-7.55404	15.06825	21.31348	1.20486	0.82997	164.49524	160.95656	61.85571	0.32967	 	1.699831615E9	 	3.00957E-9	 	15207.55923	30.63881	 
770.0	1.0	0.0	8.26447	7.33121	-7.57921	15.04345	21.24415	1.20302	0.83124	164.81656	161.14021	61.98297	0.32953	 	1.969263448E9	 	2.58541E-9	 	15054.59536	30.59277	 
765.0	1.0	0.0	8.26672	7.32921	-7.6043	15.01866	21.17481	1.20118	0.83252	165.13732	161.32308	62.11006	0.32939	 	2.284637155E9	 	2.21784E-9	 	14901.86066	30.54694	 
760.0	1.0	0.0	8.26896	7.32723	-7.62934	14.99386	21.10545	1.19932	0.83381	165.45753	161.50518	62.23696	0.32925	 	2.654331036E9	 	1.89974E-9	 	14749.35409	30.50131	 
755.0	1.0	0.0	8.27119	7.32525	-7.6543	14.96908	21.03606	1.19745	0.83511	165.77719	161.68652	62.36367	0.32912	 	3.08834976E9	 	1.62486E-9	 	14597.07458	30.4559	 
750.0	1.0	0.0	8.27342	7.32327	-7.6792	14.9443	20.96667	1.19557	0.83642	166.0963	161.86709	62.4902	0.32898	 	3.598659076E9	 	1.38767E-9	 	14445.02102	30.41071	 
745.0	1.0	0.0	8.27565	7.3213	-7.70403	14.91952	20.89725	1.19368	0.83774	166.41485	162.0469	62.61655	0.32884	 	4.199593301E9	 	1.18329E-9	 	14293.19227	30.36575	 
740.0	1.0	0.0	8.27787	7.31934	-7.72879	14.89474	20.82781	1.19178	0.83908	166.73286	162.22594	62.74271	0.3287	 	4.908352267E9	 	1.00745E-9	 	14141.58716	30.32102	 
735.0	1.0	0.0	8.28009	7.31738	-7.75348	14.86997	20.75835	1.18987	0.84043	167.05032	162.40423	62.86869	0.32857	 	5.745608409E9	 	8.56398E-10	 	13990.20446	30.27654	 
730.0	1.0	0.0	8.2823	7.31543	-7.77811	14.84521	20.68887	1.18794	0.84179	167.36722	162.58175	62.99448	0.32843	 	6.736249709E9	 	7.26833E-10	 	13839.04291	30.23231	 
725.0	1.0	0.0	8.2845	7.31348	-7.80267	14.82045	20.61938	1.186	0.84317	167.68358	162.75852	63.12009	0.32829	 	7.910290524E9	 	6.15871E-10	 	13688.1012	30.18834	 
720.0	1.0	0.0	8.28671	7.31154	-7.82716	14.7957	20.54986	1.18406	0.84455	167.99938	162.93454	63.24552	0.32815	 	9.303990232E9	 	5.20994E-10	 	13537.37797	30.14465	 
715.0	1.0	0.0	8.2889	7.3096	-7.85159	14.77094	20.48032	1.18209	0.84596	168.31464	163.10981	63.37076	0.32802	 	1.09612E10	 	4.39998E-10	 	13386.87181	30.10123	 
710.0	1.0	0.0	8.29109	7.30767	-7.87594	14.7462	20.41076	1.18012	0.84737	168.62934	163.28433	63.49582	0.32788	 	1.2935199999999998E10	 	3.70965E-10	 	13236.58124	30.05811	 
705.0	1.0	0.0	8.29328	7.30574	-7.90024	14.72146	20.34117	1.17814	0.8488	168.9435	163.4581	63.62069	0.32774	 	1.5290499999999998E10	 	3.12226E-10	 	13086.50473	30.0153	 
700.0	1.0	0.0	8.29546	7.30382	-7.92446	14.69672	20.27157	1.17614	0.85024	169.2571	163.63113	63.74537	0.3276	 	1.81058E10	 	2.6233E-10	 	12936.64068	29.97281	 
695.0	1.0	0.0	8.29764	7.3019	-7.94862	14.67199	20.20194	1.17413	0.8517	169.57015	163.80341	63.86988	0.32747	 	2.14769E10	 	2.20017E-10	 	12786.98743	29.93065	 
690.0	1.0	0.0	8.29981	7.29999	-7.9727	14.64726	20.13229	1.17211	0.85317	169.88266	163.97496	63.9942	0.32733	 	2.5520899999999996E10	 	1.84198E-10	 	12637.54322	29.88884	 
685.0	1.0	0.0	8.30198	7.29809	-7.99673	14.62254	20.06262	1.17007	0.85465	170.19461	164.14576	64.11833	0.32719	 	3.0380999999999996E10	 	1.53928E-10	 	12488.30625	29.84739	 
680.0	1.0	0.0	8.30414	7.29619	-8.02068	14.59782	19.99292	1.16802	0.85615	170.50602	164.31583	64.24228	0.32705	 	3.62328E10	 	1.28394E-10	 	12339.27459	29.80633	 
675.0	1.0	0.0	8.3063	7.29429	-8.04457	14.5731	19.9232	1.16596	0.85766	170.81687	164.48516	64.36604	0.32692	 	4.32922E10	 	1.06894E-10	 	12190.44625	29.76567	 
670.0	1.0	0.0	8.30845	7.2924	-8.06839	14.54839	19.85345	1.16389	0.85919	171.12718	164.65376	64.48962	0.32678	 	5.182459999999999E10	 	8.88242E-11	 	12041.81912	29.72543	 
665.0	1.0	0.0	8.3106	7.29052	-8.09214	14.52369	19.78368	1.1618	0.86073	171.43693	164.82163	64.61301	0.32664	 	6.215779999999999E10	 	7.36654E-11	 	11893.39102	29.68562	 
660.0	1.0	0.0	8.31274	7.28864	-8.11583	14.49899	19.71388	1.1597	0.86229	171.74614	164.98877	64.73622	0.32651	 	7.46966E10	 	6.09729E-11	 	11745.16483	29.64524	 
655.0	1.0	0.0	8.31488	7.28676	-8.13945	14.47429	19.64406	1.15759	0.86387	172.0548	165.15518	64.85925	0.32637	 	8.99428E10	 	5.03661E-11	 	11597.16939	29.59909	 
650.0	1.0	0.0	8.31701	7.2849	-8.163	14.4496	19.57421	1.15546	0.86546	172.3629	165.32087	64.98209	0.32623	 	1.08519E11	 	4.15196E-11	 	11449.44306	29.54527	 
645.0	1.0	0.0	8.31914	7.28303	-8.18649	14.42491	19.50434	1.15332	0.86706	172.67046	165.48583	65.10474	0.3261	 	1.312E11	 	3.4156E-11	 	11301.98487	29.49164	 
640.0	1.0	0.0	8.32126	7.28118	-8.20991	14.40023	19.43443	1.15116	0.86869	172.97747	165.65008	65.22721	0.32596	 	1.58951E11	 	2.80392E-11	 	11154.79388	29.4382	 
635.0	1.0	0.0	8.32338	7.27932	-8.23326	14.37555	19.3645	1.14899	0.87033	173.28393	165.8136	65.34949	0.32582	 	1.92979E11	 	2.29686E-11	 	11007.86916	29.38494	 
630.0	1.0	0.0	8.32549	7.27748	-8.25654	14.35088	19.29454	1.14681	0.87198	173.58984	165.97641	65.47159	0.32569	 	2.34796E11	 	1.8774E-11	 	10861.20975	29.33188	 
625.0	1.0	0.0	8.3276	7.27563	-8.27976	14.32621	19.22456	1.14461	0.87366	173.8952	166.13851	65.59351	0.32555	 	2.86299E11	 	1.53114E-11	 	10714.81456	29.27904	 
620.0	1.0	0.0	8.3297	7.2738	-8.30291	14.30155	19.15454	1.1424	0.87535	174.20002	166.29989	65.71523	0.32542	 	3.49875E11	 	1.24594E-11	 	10568.68226	29.22646	 
615.0	1.0	0.0	8.3318	7.27197	-8.326	14.27689	19.08449	1.14018	0.87706	174.50428	166.46055	65.83678	0.32528	 	4.28535E11	 	1.01155E-11	 	10422.81213	29.17403	 
610.0	1.0	0.0	8.33389	7.27014	-8.34902	14.25224	19.01441	1.13794	0.87878	174.808	166.62051	65.95813	0.32514	 	5.26087E11	 	8.1934E-12	 	10277.20324	29.12178	 
605.0	1.0	0.0	8.33598	7.26832	-8.37197	14.22758	18.94431	1.13568	0.88053	175.11116	166.77976	66.07931	0.32501	 	6.47355E11	 	6.62084E-12	 	10131.85467	29.06971	 
600.0	1.0	0.0	8.33806	7.2665	-8.39485	14.20294	18.87417	1.13341	0.88229	175.41378	166.93831	66.20029	0.32487	 	7.98472E11	 	5.33723E-12	 	9986.7655	29.01783	 
595.0	1.0	0.0	8.34014	7.26469	-8.41767	14.1783	18.80399	1.13113	0.88408	175.71585	167.09615	66.32109	0.32474	 	9.87247E11	 	4.29196E-12	 	9841.93482	28.96614	 
590.0	1.0	0.0	8.34221	7.26289	-8.44042	14.15366	18.73379	1.12883	0.88588	176.01737	167.25329	66.44171	0.3246	 	1.22366E12	 	3.44281E-12	 	9697.36172	28.91462	 
585.0	1.0	0.0	8.34428	7.26109	-8.4631	14.12903	18.66355	1.12651	0.8877	176.31834	167.40973	66.56214	0.32446	 	1.52048E12	 	2.75466E-12	 	9553.04529	28.86329	 
580.0	1.0	0.0	8.34634	7.2593	-8.48572	14.1044	18.59328	1.12418	0.88954	176.61877	167.56547	66.68238	0.32433	 	1.89412E12	 	2.19839E-12	 	9408.98461	28.81214	 
575.0	1.0	0.0	8.3484	7.25751	-8.50827	14.07978	18.52298	1.12183	0.8914	176.91864	167.72052	66.80244	0.32419	 	2.3657E12	 	1.74985E-12	 	9265.1788	28.76116	 
570.0	1.0	0.0	8.35045	7.25572	-8.53075	14.05516	18.45264	1.11947	0.89328	177.21797	167.87487	66.92231	0.32406	 	2.96248E12	 	1.38911E-12	 	9121.62694	28.71037	 
565.0	1.0	0.0	8.35249	7.25395	-8.55317	14.03055	18.38226	1.11709	0.89518	177.51675	168.02853	67.042	0.32392	 	3.71978E12	 	1.09974E-12	 	8978.32815	28.65976	 
560.0	1.0	0.0	8.35454	7.25217	-8.57552	14.00594	18.31185	1.1147	0.8971	177.81498	168.18149	67.1615	0.32379	 	4.68346E12	 	8.68247E-13	 	8835.28154	28.60932	 
555.0	1.0	0.0	8.35657	7.25041	-8.5978	13.98133	18.24139	1.11229	0.89905	178.11266	168.33377	67.28081	0.32365	 	5.91321E12	 	6.83553E-13	 	8692.4862	28.55907	 
550.0	1.0	0.0	8.35861	7.24864	-8.62001	13.95673	18.17091	1.10986	0.90101	178.40979	168.48536	67.39994	0.32352	 	7.48705E12	 	5.36606E-13	 	8549.94126	28.50899	 
545.0	1.0	0.0	8.36063	7.24689	-8.64216	13.93214	18.10038	1.10742	0.903	178.70638	168.63627	67.51888	0.32338	 	9.50715E12	 	4.20019E-13	 	8407.64583	28.45908	 
540.0	1.0	0.0	8.36265	7.24514	-8.66425	13.90755	18.02981	1.10496	0.90501	179.00242	168.78649	67.63763	0.32325	 	1.21078E13	 	3.27787E-13	 	8265.59905	28.40936	 
535.0	1.0	0.0	8.36467	7.24339	-8.68626	13.88296	17.95921	1.10248	0.90705	179.29791	168.93603	67.7562	0.32311	 	1.54661E13	 	2.55034E-13	 	8123.80002	28.35981	 
530.0	1.0	0.0	8.36668	7.24165	-8.70821	13.85838	17.88856	1.09999	0.9091	179.59285	169.08489	67.87459	0.32298	 	1.98161E13	 	1.97817E-13	 	7982.24789	28.31043	 
525.0	1.0	0.0	8.36869	7.23991	-8.7301	13.8338	17.81787	1.09748	0.91118	179.88725	169.23307	67.99278	0.32284	 	2.54687E13	 	1.52955E-13	 	7840.94178	28.26122	 
520.0	1.0	0.0	8.37069	7.23818	-8.75191	13.80923	17.74714	1.09495	0.91329	180.18109	169.38057	68.11079	0.32271	 	3.28373E13	 	1.17889E-13	 	7699.88083	28.21219	 
515.0	1.0	0.0	8.37268	7.23646	-8.77366	13.78466	17.67637	1.0924	0.91542	180.47439	169.5274	68.22862	0.32257	 	4.24746E13	 	9.05662E-14	 	7559.06419	28.16333	 
510.0	1.0	0.0	8.37467	7.23474	-8.79535	13.7601	17.60555	1.08984	0.91757	180.76714	169.67356	68.34625	0.32244	 	5.51211E13	 	6.93447E-14	 	7418.49101	28.11464	 
505.0	1.0	0.0	8.37666	7.23302	-8.81697	13.73554	17.53468	1.08726	0.91975	181.05935	169.81904	68.46371	0.3223	 	7.17731E13	 	5.29162E-14	 	7278.16043	28.06612	 
500.0	1.0	0.0	8.37864	7.23131	-8.83852	13.71098	17.46377	1.08466	0.92195	181.351	169.96386	68.58097	0.32217	 	9.37751E13	 	4.02405E-14	 	7138.07162	28.01776	 
495.0	1.0	0.0	8.38061	7.22961	-8.86	13.68643	17.39282	1.08204	0.92418	181.64211	170.10801	68.69805	0.32203	 	1.22949E14	 	3.04935E-14	 	6998.22373	27.96958	 
490.0	1.0	0.0	8.38258	7.22791	-8.88142	13.66189	17.32181	1.0794	0.92644	181.93267	170.25149	68.81494	0.3219	 	1.61773E14	 	2.30246E-14	 	6858.61593	27.92156	 
485.0	1.0	0.0	8.38455	7.22621	-8.90277	13.63735	17.25076	1.07675	0.92872	182.22269	170.3943	68.93164	0.32176	 	2.13627E14	 	1.73215E-14	 	6719.24739	27.87371	 
480.0	1.0	0.0	8.38651	7.22453	-8.92406	13.61281	17.17966	1.07407	0.93104	182.51215	170.53646	69.04816	0.32163	 	2.83146E14	 	1.29825E-14	 	6580.1173	27.82602	 
475.0	1.0	0.0	8.38846	7.22284	-8.94528	13.58828	17.1085	1.07138	0.93338	182.80107	170.67795	69.16449	0.3215	 	3.76704E14	 	9.69337E-15	 	6441.22483	27.77849	 
470.0	1.0	0.0	8.39041	7.22116	-8.96643	13.56375	17.0373	1.06867	0.93575	183.08944	170.81878	69.28063	0.32136	 	5.0310599999999994E14	 	7.20948E-15	 	6302.56917	27.73113	 
465.0	1.0	0.0	8.39236	7.21949	-8.98751	13.53923	16.96604	1.06593	0.93814	183.37727	170.95896	69.39659	0.32123	 	6.74559E14	 	5.34086E-15	 	6164.14952	27.68393	 
460.0	1.0	0.0	8.3943	7.21782	-9.00853	13.51471	16.89473	1.06318	0.94057	183.66454	171.09848	69.51236	0.32109	 	9.08067E14	 	3.94059E-15	 	6025.96509	27.63689	 
455.0	1.0	0.0	8.39623	7.21616	-9.02949	13.4902	16.82336	1.06041	0.94303	183.95127	171.23734	69.62794	0.32096	 	1.22741E15	 	2.89547E-15	 	5888.01506	27.59	 
450.0	1.0	0.0	8.39816	7.21451	-9.05038	13.46569	16.75194	1.05762	0.94552	184.23746	171.37555	69.74333	0.32082	 	1.66598E15	 	2.11858E-15	 	5750.29868	27.54328	 
445.0	1.0	0.0	8.40008	7.21285	-9.0712	13.44118	16.68045	1.05481	0.94804	184.52309	171.51311	69.85854	0.32069	 	2.2709E15	 	1.54349E-15	 	5612.81513	27.49671	 
440.0	1.0	0.0	8.402	7.21121	-9.09195	13.41668	16.60891	1.05198	0.95059	184.80818	171.65002	69.97356	0.32056	 	3.10894E15	 	1.11958E-15	 	5475.56367	27.45029	 
435.0	1.0	0.0	8.40391	7.20957	-9.11264	13.39219	16.53731	1.04912	0.95318	185.09272	171.78629	70.08839	0.32042	 	4.27517E15	 	8.0846E-16	 	5338.54353	27.40403	 
430.0	1.0	0.0	8.40582	7.20793	-9.13326	13.3677	16.46565	1.04625	0.9558	185.37672	171.9219	70.20304	0.32029	 	5.90557E15	 	5.8113E-16	 	5201.75394	27.35792	 
425.0	1.0	0.0	8.40772	7.2063	-9.15382	13.34321	16.39393	1.04335	0.95845	185.66016	172.05688	70.3175	0.32016	 	8.19558E15	 	4.15772E-16	 	5065.19424	27.31194	 
420.0	1.0	0.0	8.40962	7.20467	-9.17431	13.31873	16.32214	1.04044	0.96113	185.94306	172.19121	70.43177	0.32002	 	1.14275E16	 	2.96048E-16	 	4928.86356	27.26614	 
415.0	1.0	0.0	8.41151	7.20305	-9.19473	13.29425	16.25028	1.0375	0.96386	186.22542	172.32489	70.54585	0.31989	 	1.60111E16	 	2.09773E-16	 	4792.76149	27.22041	 
410.0	1.0	0.0	8.41339	7.20144	-9.21509	13.26978	16.17836	1.03454	0.96661	186.50723	172.45794	70.65975	0.31976	 	2.25441E16	 	1.479E-16	 	4656.88771	27.17475	 
405.0	1.0	0.0	8.41527	7.19983	-9.23538	13.24531	16.10637	1.03156	0.96941	186.78849	172.59035	70.77345	0.31962	 	3.19035E16	 	1.03747E-16	 	4521.24196	27.12915	 
400.0	1.0	0.0	8.41715	7.19823	-9.25561	13.22085	16.03431	1.02856	0.97224	187.0692	172.72213	70.88697	0.31949	 	4.5382E16	 	7.23961E-17	 	4385.82397	27.0836	 
395.0	1.0	0.0	8.41902	7.19663	-9.27577	13.19639	15.96218	1.02553	0.97511	187.34937	172.85326	71.00031	0.31936	 	6.48962E16	 	5.02506E-17	 	4250.63345	27.0381	 
390.0	1.0	0.0	8.42089	7.19503	-9.29586	13.17194	15.88998	1.02248	0.97801	187.62899	172.98377	71.11345	0.31922	 	9.33033E16	 	3.46898E-17	 	4115.67015	26.99266	 
385.0	1.0	0.0	8.42275	7.19344	-9.31589	13.14749	15.8177	1.01941	0.98096	187.90806	173.11364	71.22641	0.31909	 	1.34887E17	 	2.38145E-17	 	3980.93385	26.94726	 
380.0	1.0	0.0	8.4246	7.19186	-9.33585	13.12304	15.74534	1.01631	0.98395	188.18659	173.24289	71.33917	0.31896	 	1.96108E17	 	1.62556E-17	 	3846.42429	26.90191	 
375.0	1.0	0.0	8.42645	7.19028	-9.35575	13.0986	15.67291	1.01319	0.98698	188.46457	173.3715	71.45175	0.31882	 	2.86766E17	 	1.10315E-17	 	3712.14125	26.85661	 
370.0	1.0	0.0	8.42829	7.18871	-9.37558	13.07417	15.60039	1.01005	0.99005	188.742	173.49949	71.56415	0.31869	 	4.21819E17	 	7.44172E-18	 	3578.08453	26.81134	 
365.0	1.0	0.0	8.43013	7.18714	-9.39534	13.04973	15.52779	1.00688	0.99316	189.01889	173.62685	71.67635	0.31856	 	6.24238E17	 	4.98953E-18	 	3444.25392	26.76612	 
360.0	1.0	0.0	8.43196	7.18558	-9.41504	13.02531	15.45511	1.00369	0.99632	189.29523	173.75359	71.78836	0.31843	 	9.2953E17	 	3.32453E-18	 	3310.64922	26.72094	 
355.0	1.0	0.0	8.43379	7.18402	-9.43467	13.00089	15.38235	1.00048	0.99952	189.57103	173.8797	71.90019	0.31829	 	1.39293E18	 	2.20101E-18	 	3177.27029	26.67579	 
350.0	1.0	0.0	8.43561	7.18247	-9.45423	12.97647	15.30949	0.99724	1.00277	189.84628	174.00519	72.01183	0.31816	 	2.10094E18	 	1.44766E-18	 	3044.11694	26.63067	 
345.0	1.0	0.0	8.43743	7.18092	-9.47373	12.95206	15.23654	0.99397	1.00607	190.12098	174.13007	72.12328	0.31803	 	3.18996E18	 	9.4579E-19	 	2911.18902	26.58558	 
340.0	1.0	0.0	8.43924	7.17938	-9.49317	12.92765	15.1635	0.99068	1.00941	190.39514	174.25432	72.23454	0.3179	 	4.87658E18	 	6.13674E-19	 	2778.48642	26.54052	 
335.0	1.0	0.0	8.44105	7.17785	-9.51254	12.90324	15.09037	0.98736	1.0128	190.66875	174.37796	72.34562	0.31776	 	7.50718E18	 	3.95385E-19	 	2646.00901	26.49548	 
330.0	1.0	0.0	8.44285	7.17631	-9.53184	12.87884	15.01714	0.98402	1.01624	190.94181	174.50099	72.4565	0.31763	 	1.16398E19	 	2.52911E-19	 	2513.75668	26.45046	 
325.0	1.0	0.0	8.44465	7.17479	-9.55107	12.85445	14.94381	0.98065	1.01973	191.21433	174.6234	72.5672	0.3175	 	1.81801E19	 	1.60583E-19	 	2381.72935	26.40547	 
320.0	1.0	0.0	8.44644	7.17327	-9.57024	12.83006	14.87037	0.97726	1.02327	191.4863	174.7452	72.6777	0.31737	 	2.86097E19	 	1.0119E-19	 	2249.92697	26.36048	 
315.0	1.0	0.0	8.44822	7.17175	-9.58935	12.80567	14.79683	0.97384	1.02687	191.75772	174.86639	72.78802	0.31723	 	4.53709E19	 	6.32699E-20	 	2118.34946	26.3155	 
310.0	1.0	0.0	8.45	7.17024	-9.60839	12.78129	14.72319	0.97039	1.03052	192.0286	174.98697	72.89815	0.3171	 	7.25231E19	 	3.92456E-20	 	1986.9968	26.27053	 
305.0	1.0	0.0	8.45178	7.16874	-9.62736	12.75691	14.64943	0.96691	1.03422	192.29894	175.10694	73.00809	0.31697	 	1.1686899999999998E20	 	2.41451E-20	 	1855.86898	26.22557	 
300.0	1.0	0.0	8.45354	7.16724	-9.64627	12.73254	14.57556	0.96341	1.03798	192.56873	175.22631	73.11785	0.31684	 	1.89905E20	 	1.47306E-20	 	1724.96601	26.18059	 
295.0	1.0	0.0	8.45531	7.16574	-9.66511	12.70817	14.50157	0.95987	1.0418	192.83797	175.34507	73.22741	0.31671	 	3.11232E20	 	8.90974E-21	 	1594.2879	26.13562	 
290.0	1.0	0.0	8.45706	7.16425	-9.68389	12.68381	14.42746	0.95631	1.04568	193.10666	175.46323	73.33678	0.31657	 	5.1456799999999993E20	 	5.34156E-21	 	1463.83471	26.09064	 
285.0	1.0	0.0	8.45882	7.16277	-9.7026	12.65945	14.35323	0.95272	1.04962	193.37481	175.58078	73.44597	0.31644	 	8.584469999999999E20	 	3.1734E-21	 	1333.60651	26.04564	 
280.0	1.0	0.0	8.46056	7.16129	-9.72124	12.6351	14.27888	0.94911	1.05362	193.64242	175.69774	73.55496	0.31631	 	1.44545E21	 	1.86779E-21	 	1203.60341	26.00062	 
275.0	1.0	0.0	8.46231	7.15982	-9.73982	12.61075	14.20439	0.94546	1.05769	193.90948	175.8141	73.66377	0.31618	 	2.4570800000000003E21	 	1.08885E-21	 	1073.82552	25.95558	 
270.0	1.0	0.0	8.46404	7.15835	-9.75834	12.58641	14.12977	0.94178	1.06182	194.17599	175.92986	73.77239	0.31605	 	4.21773E21	 	6.28533E-22	 	944.27298	25.91051	 
265.0	1.0	0.0	8.46577	7.15688	-9.77678	12.56207	14.05502	0.93808	1.06601	194.44195	176.04502	73.88081	0.31592	 	7.313040000000001E21	 	3.59163E-22	 	814.94597	25.8654	 
260.0	1.0	0.0	8.4675	7.15543	-9.79517	12.53773	13.98012	0.93434	1.07028	194.70738	176.1596	73.98905	0.31579	 	1.28115E22	 	2.03112E-22	 	685.8447	25.82026	 
255.0	1.0	0.0	8.46922	7.15397	-9.81348	12.5134	13.90508	0.93057	1.07461	194.97225	176.27357	74.0971	0.31565	 	2.26837E22	 	1.1364E-22	 	556.96939	25.77506	 
250.0	1.0	0.0	8.47093	7.15253	-9.83174	12.48907	13.82989	0.92677	1.07901	195.23658	176.38696	74.20496	0.31552	 	4.06042E22	 	6.28843E-23	 	428.32032	25.72982	 
245.0	1.0	0.0	8.47264	7.15108	-9.84992	12.46475	13.75454	0.92294	1.08349	195.50037	176.49975	74.31263	0.31539	 	7.35033E22	 	3.44061E-23	 	299.89776	25.68451	 
240.0	1.0	0.0	8.47434	7.14965	-9.86804	12.44043	13.67904	0.91908	1.08804	195.76361	176.61196	74.42011	0.31526	 	1.34606E23	 	1.86065E-23	 	171.70207	25.63914	 
235.0	1.0	0.0	8.47604	7.14821	-9.8861	12.41612	13.60337	0.91519	1.09267	196.0263	176.72358	74.5274	0.31513	 	2.4945699999999998E23	 	9.94223E-24	 	43.73361	25.59369	 
230.0	1.0	0.0	8.47773	7.14679	-9.90409	12.39181	13.52754	0.91127	1.09738	196.28845	176.83461	74.6345	0.315	 	4.6800399999999997E23	 	5.24729E-24	 	-84.00723	25.54817	 
225.0	1.0	0.0	8.47942	7.14536	-9.92201	12.36751	13.45154	0.90731	1.10216	196.55005	176.94506	74.74141	0.31487	 	8.8918E23	 	2.73437E-24	 	-211.51999	25.50255	 
220.0	1.0	0.0	8.4811	7.14395	-9.93987	12.34321	13.37535	0.90332	1.10703	196.81111	177.05493	74.84813	0.31474	 	1.71152E24	 	1.40632E-24	 	-338.8042	25.45684	 
215.0	1.0	0.0	8.48278	7.14254	-9.95766	12.31892	13.29898	0.89929	1.11199	197.07162	177.16421	74.95466	0.31461	 	3.33887E24	 	7.13576E-25	 	-465.85932	25.41102	 
210.0	1.0	0.0	8.48445	7.14113	-9.97539	12.29463	13.22243	0.89523	1.11703	197.33159	177.27291	75.061	0.31447	 	6.60427E24	 	3.57062E-25	 	-592.68476	25.36509	 
205.0	1.0	0.0	8.48611	7.13973	-9.99305	12.27034	13.14568	0.89114	1.12215	197.59101	177.38104	75.16715	0.31434	 	1.32509E25	 	1.76119E-25	 	-719.27994	25.31903	 
200.0	1.0	0.0	8.48777	7.13833	-10.01065	12.24606	13.06872	0.88702	1.12737	197.84989	177.48858	75.27311	0.31421	 	2.69809E25	 	8.55911E-26	 	-845.64414	25.27284	 
195.0	1.0	0.0	8.48943	7.13694	-10.02818	12.22178	12.99156	0.88286	1.13269	198.10822	177.59555	75.37888	0.31408	 	5.577830000000001E25	 	4.09644E-26	 	-971.77666	25.2265	 
190.0	1.0	0.0	8.49108	7.13556	-10.04565	12.19751	12.91419	0.87866	1.1381	198.366	177.70195	75.48446	0.31395	 	1.1713400000000001E26	 	1.92986E-26	 	-1097.6767	25.18001	 
185.0	1.0	0.0	8.49272	7.13418	-10.06305	12.17324	12.83659	0.87443	1.1436	198.62325	177.80777	75.58985	0.31382	 	2.49997E26	 	8.94458E-27	 	-1223.34342	25.13334	 
180.0	1.0	0.0	8.49436	7.1328	-10.08038	12.14898	12.75877	0.87016	1.14921	198.87994	177.91302	75.69505	0.31369	 	5.425650000000001E26	 	4.0764E-27	 	-1348.77592	25.0865	 
175.0	1.0	0.0	8.49599	7.13143	-10.09765	12.12472	12.6807	0.86586	1.15493	199.13609	178.0177	75.80006	0.31356	 	1.19806E27	 	1.82571E-27	 	-1473.97322	25.03946	 
170.0	1.0	0.0	8.49761	7.13007	-10.11486	12.10047	12.60239	0.86152	1.16074	199.3917	178.1218	75.90488	0.31343	 	2.69319E27	 	8.03101E-28	 	-1598.93429	24.99221	 
165.0	1.0	0.0	8.49923	7.12871	-10.132	12.07622	12.52383	0.85714	1.16667	199.64676	178.22535	76.00951	0.3133	 	6.16717E27	 	3.46756E-28	 	-1723.65799	24.94474	 
160.0	1.0	0.0	8.50085	7.12735	-10.14907	12.05198	12.44501	0.85273	1.17271	199.90128	178.32832	76.11395	0.31317	 	1.4395E28	 	1.46863E-28	 	-1848.14316	24.89703	 
155.0	1.0	0.0	8.50246	7.126	-10.16608	12.02774	12.36591	0.84827	1.17887	200.15525	178.43073	76.2182	0.31304	 	3.42716E28	 	6.09745E-29	 	-1972.38849	24.84907	 
150.0	1.0	0.0	8.50406	7.12466	-10.18303	12.0035	12.28654	0.84378	1.18514	200.40868	178.53257	76.32225	0.31291	 	8.32839E28	 	2.47982E-29	 	-2096.39263	24.80083	 
145.0	1.0	0.0	8.50566	7.12332	-10.19991	11.97927	12.20687	0.83925	1.19153	200.66156	178.63385	76.42612	0.31278	 	2.06733E29	 	9.8721E-30	 	-2220.15412	24.7523	 
140.0	1.0	0.0	8.50725	7.12199	-10.21672	11.95504	12.1269	0.83469	1.19805	200.9139	178.73457	76.52979	0.31265	 	5.24584E29	 	3.84397E-30	 	-2343.67141	24.70346	 
135.0	1.0	0.0	8.50884	7.12066	-10.23347	11.93082	12.04661	0.83008	1.2047	201.1657	178.83473	76.63328	0.31252	 	1.36185E30	 	1.46278E-30	 	-2466.94284	24.65429	 
130.0	1.0	0.0	8.51042	7.11933	-10.25015	11.90661	11.96601	0.82544	1.21148	201.41695	178.93433	76.73657	0.31239	 	3.6200899999999996E30	 	5.43543E-31	 	-2589.96663	24.60476	 
125.0	1.0	0.0	8.512	7.11802	-10.26677	11.88239	11.88506	0.82075	1.2184	201.66765	179.03337	76.83968	0.31226	 	9.8622E30	 	1.97042E-31	 	-2712.74091	24.55486	 
120.0	1.0	0.0	8.51357	7.1167	-10.28333	11.85819	11.80376	0.81603	1.22545	201.91781	179.13186	76.94259	0.31213	 	2.75613E31	 	6.96218E-32	 	-2835.26364	24.50455	 
115.0	1.0	0.0	8.51514	7.11539	-10.29982	11.83398	11.7221	0.81126	1.23265	202.16743	179.22979	77.04531	0.312	 	7.90905E31	 	2.39531E-32	 	-2957.5327	24.45381	 
110.0	1.0	0.0	8.51669	7.11409	-10.31624	11.80978	11.64006	0.80645	1.24	202.41651	179.32717	77.14784	0.31187	 	2.33291E32	 	8.016E-33	 	-3079.54579	24.40262	 
105.0	1.0	0.0	8.51825	7.11279	-10.3326	11.78559	11.55762	0.80161	1.24749	202.66503	179.424	77.25018	0.31174	 	7.080989999999999E32	 	2.60649E-33	 	-3201.30046	24.35094	 
100.0	1.0	0.0	8.5198	7.1115	-10.34889	11.7614	11.47478	0.79672	1.25515	202.91302	179.52027	77.35233	0.31162	 	2.2141800000000002E33	 	8.22541E-34	 	-3322.79414	24.29874	 
95.0	1.0	0.0	8.52134	7.11021	-10.36512	11.73721	11.3915	0.79179	1.26296	203.16046	179.616	77.45428	0.31149	 	7.14135E33	 	2.51612E-34	 	-3444.02405	24.24598	 
90.0	1.0	0.0	8.52288	7.10893	-10.38128	11.71303	11.30778	0.78682	1.27094	203.40736	179.71117	77.55605	0.31136	 	2.37877E34	 	7.4511E-35	 	-3564.98721	24.19263	 
85.0	1.0	0.0	8.52441	7.10766	-10.39738	11.68886	11.2236	0.78181	1.27909	203.65371	179.8058	77.65762	0.31123	 	8.194360000000001E34	 	2.13322E-35	 	-3685.6805	24.13866	 
80.0	1.0	0.0	8.52593	7.10638	-10.41342	11.66469	11.13894	0.77675	1.28741	203.89953	179.89989	77.75901	0.3111	 	2.9233999999999996E35	 	5.896E-36	 	-3806.10054	24.08401	 
75.0	1.0	0.0	8.52745	7.10512	-10.42939	11.64052	11.05376	0.77165	1.29592	204.14479	179.99342	77.8602	0.31097	 	1.08175E36	 	1.57082E-36	 	-3926.24374	24.02864	 
70.0	1.0	0.0	8.52897	7.10386	-10.44529	11.61636	10.96806	0.76651	1.30461	204.38952	180.08642	77.9612	0.31084	 	4.1583999999999994E36	 	4.02758E-37	 	-4046.10628	23.97251	 
65.0	1.0	0.0	8.53048	7.1026	-10.46113	11.5922	10.88181	0.76133	1.31349	204.6337	180.17888	78.06201	0.31071	 	1.66349E37	 	9.92148E-38	 	-4165.68406	23.91556	 
60.0	1.0	0.0	8.53198	7.10135	-10.4769	11.56805	10.79498	0.75611	1.32256	204.87734	180.27079	78.16263	0.31058	 	6.937219999999999E37	 	2.34391E-38	 	-4284.97271	23.85773	 
55.0	1.0	0.0	8.53348	7.1001	-10.49261	11.5439	10.70755	0.75084	1.33184	205.12043	180.36216	78.26306	0.31046	 	3.02169E38	 	5.30041E-39	 	-4403.96758	23.79897	 
50.0	1.0	0.0	8.53497	7.09886	-10.50826	11.51975	10.61948	0.74553	1.34132	205.36298	180.453	78.36329	0.31033	 	1.3775000000000002E39	 	1.14499E-39	 	-4522.66366	23.73921	 
45.0	1.0	0.0	8.53645	7.09762	-10.52384	11.49561	10.53075	0.74018	1.35102	205.60499	180.5433	78.46334	0.3102	 	6.58627E39	 	2.35765E-40	 	-4641.05559	23.67839	 
40.0	1.0	0.0	8.53794	7.09639	-10.53935	11.47148	10.44132	0.73479	1.36093	205.84646	180.63307	78.56319	0.31007	 	3.31046E40	 	4.6169E-41	 	-4759.13768	23.61642	 
35.0	1.0	0.0	8.53941	7.09517	-10.5548	11.44735	10.35116	0.72936	1.37107	206.08739	180.7223	78.66285	0.30994	 	1.75346E41	 	8.57736E-42	 	-4876.90379	23.55322	 
30.0	1.0	0.0	8.54088	7.09395	-10.57019	11.42322	10.26024	0.72388	1.38145	206.32777	180.811	78.76232	0.30981	 	9.8126E41	 	1.50786E-42	 	-4994.34734	23.48871	 
25.0	1.0	0.0	8.54234	7.09273	-10.58551	 	10.16851	0.71836	1.39205	206.56761	180.89916	78.8616	0.30968	 	5.81778E42	 	2.50129E-43	 	-5111.46129	 	 
