T (C)	Fraction solid (wt)-TOTAL	Fraction liquid (wt)-LIQUID	Density (g/(cm)^3)-TOTAL	Molar volume (cm^3)-TOTAL	Volume change (%)-  	Average expansion coeff. (10e-6 1/K)-  	Thermal conductivity (W/(m*K))-TOTAL	Electrical resistivity (10e-6 Ohm*m)-TOTAL	Electrical conductivity (10e6 1/(Ohm*m))-TOTAL	Young's modulus (GPa)-TOTAL	Bulk modulus (GPa)-TOTAL	Shear modulus(GPa)-TOTAL	Poisson's ratio-TOTAL	Liquid viscosity (mPa s)-  	Total viscosity (mPa s)-  	Liquid diffusivity (10e-9 (m^2)/s)-  	Total diffusivity (10e-9 (m^2)/s)-  	Surface Tension (mN/m)-  	Enthalpy (J/mole)-TOTAL	Specific heat (J/(mole K))-TOTAL	Latent heat (J/mole)-TOTAL
1400.0	0.0	1.0	7.42721	7.92558	0.0	28.93864	28.2196	1.45261	0.68841	0.0	125.01856	0.0	0.5	7.89481	7.89481	1.03438	1.03438	1757.66392	54615.097	 	0.0
1395.0	0.0	1.0	7.43108	7.92145	-0.0521366	28.90226	28.14243	1.45224	0.68859	0.0	125.18092	0.0	0.5	7.9803	7.9803	1.02024	1.02024	1760.0829	54411.604	40.6986	0.0
1390.0	0.0	1.0	7.43495	7.91733	-0.10412	28.86602	28.06526	1.45187	0.68877	0.0	125.34328	0.0	0.5	8.06724	8.06724	1.00622	1.00622	1762.52894	54208.572	40.6064	0.0
1385.0	0.0	1.0	7.43881	7.91322	-0.15596	28.82994	27.98808	1.4515	0.68894	0.0	125.50565	0.0	0.5	8.15566	8.15566	0.99232	0.99232	1765.0025	54005.999	40.5146	0.0
1380.0	0.0	1.0	7.44266	7.90912	-0.20764	28.794	27.91091	1.45112	0.68912	0.0	125.66801	0.0	0.5	8.24559	8.24559	0.97854	0.97854	1767.50397	53803.882	40.4234	0.0
1375.0	0.0	1.0	7.44651	7.90504	-0.25917	28.75822	27.83374	1.45075	0.6893	0.0	125.83037	0.0	0.5	8.33707	8.33707	0.96487	0.96487	1770.03375	53602.22	40.3324	0.0
1370.0	0.0	1.0	7.45034	7.90096	-0.31055	28.72259	27.75657	1.45037	0.68948	0.0	125.99273	0.0	0.5	8.43013	8.43013	0.95133	0.95133	1772.59225	53401.01	40.242	0.0
1365.0	0.0	1.0	7.45417	7.8969	-0.36178	28.68712	27.6794	1.44998	0.68966	0.0	126.1551	0.0	0.5	8.52481	8.52481	0.9379	0.9379	1775.17984	53200.249	40.1522	0.0
1360.0	0.0	1.0	7.458	7.89286	-0.41286	28.6518	27.60223	1.4496	0.68985	0.0	126.31746	0.0	0.5	8.62114	8.62114	0.92459	0.92459	1777.7969	52999.936	40.0626	0.0
1355.0	0.0	1.0	7.46181	7.88882	-0.46378	28.61664	27.52506	1.44921	0.69003	0.0	126.47982	0.0	0.5	8.71916	8.71916	0.91139	0.91139	1780.44382	52800.068	39.9736	0.0
1350.0	0.0	1.0	7.46562	7.8848	-0.51456	28.58165	27.44788	1.44882	0.69021	0.0	126.64218	0.0	0.5	8.8189	8.8189	0.89832	0.89832	1783.12094	52600.643	39.885	0.0
1345.0	0.0	1.0	7.46942	7.88078	-0.56518	28.54681	27.37071	1.44843	0.6904	0.0	126.80455	0.0	0.5	8.92042	8.92042	0.88536	0.88536	1785.82864	52401.66	39.7966	0.0
1340.0	0.0	1.0	7.47322	7.87678	-0.61566	28.51214	27.29354	1.44804	0.69059	0.0	126.96691	0.0	0.5	9.02375	9.02375	0.87252	0.87252	1788.56725	52203.115	39.709	0.0
1335.0	0.0	1.0	7.477	7.8728	-0.66598	28.47764	27.21637	1.44765	0.69078	0.0	127.12927	0.0	0.5	9.12892	9.12892	0.85979	0.85979	1791.3371	52005.006	39.6218	0.0
1330.0	0.0	1.0	7.48078	7.86882	-0.71615	28.4433	27.1392	1.44725	0.69097	0.0	127.29163	0.0	0.5	9.23599	9.23599	0.84718	0.84718	1794.13851	51807.332	39.5348	0.0
1325.0	0.0	1.0	7.48455	7.86485	-0.76617	28.40914	27.06203	1.44685	0.69116	0.0	127.454	0.0	0.5	9.345	9.345	0.83469	0.83469	1796.97181	51610.091	39.4482	0.0
1320.0	0.0	1.0	7.48831	7.8609	-0.81603	28.37514	26.98485	1.44645	0.69135	0.0	127.61636	0.0	0.5	9.45599	9.45599	0.82231	0.82231	1799.83728	51413.279	39.3624	0.0
1315.0	0.0	1.0	7.49207	7.85696	-0.86575	28.34132	26.90768	1.44604	0.69154	0.0	127.77872	0.0	0.5	9.56901	9.56901	0.81005	0.81005	1802.73521	51216.896	39.2766	0.0
1311.46	0.0	1.0	7.49472	7.85418	-0.90082	28.31751	26.85311	1.44576	0.69168	0.0	127.89354	0.0	0.5	9.65018	9.65018	0.80145	0.80145	1804.80433	51078.276	39.20326	0.0
1310.0	0.03109	0.96891	7.50234	7.84618	-1.00174	28.05673	26.95602	1.43891	0.69497	9.58093E-5	128.07273	3.20295E-5	0.49564	9.69197	10.14844	0.79725	0.76139	1804.63921	50576.262	342.88934	444.675
1305.0	0.13001	0.86999	7.52672	7.82071	-1.32313	27.22946	27.28461	1.41709	0.70567	0.0297608	128.6577	0.010043	0.48167	9.835	26.52598	0.78318	0.29038	1804.12555	48972.966	320.6592	1852.439
1300.0	0.21533	0.78467	7.54812	7.79862	-1.60187	26.52053	27.56641	1.39816	0.71523	0.22704	129.20554	0.0772495	0.46951	9.97949	132.07283	0.76939	0.0581358	1803.69873	47571.198	280.3536	3059.096
1295.0	0.28934	0.71066	7.56698	7.77913	-1.8478	25.90238	27.80884	1.38156	0.72382	0.74942	129.71949	0.25685	0.45887	10.12543	427.13537	0.75589	0.0179188	1803.35709	46336.341	246.9714	4099.262
1290.0	0.35389	0.64611	7.58376	7.76192	-2.06499	25.36415	28.01833	1.36686	0.7316	1.69596	130.20785	0.58501	0.44951	10.27285	999.05139	0.74267	0.00763659	1803.09669	45240.679	219.1324	5000.65
1285.0	0.41045	0.58955	7.59875	7.74663	-2.25788	24.89361	28.1993	1.35375	0.73869	3.10105	130.67506	1.07582	0.44125	10.42177	1913.30034	0.72972	0.00397478	1802.9142	44261.844	195.767	5785.628
1280.0	0.46026	0.53974	7.61223	7.73288	-2.43131	24.47714	28.35518	1.34198	0.74517	4.94938	131.12311	1.72583	0.43391	10.57219	3214.92433	0.71703	0.00235792	1802.80706	43381.654	176.038	6472.374
1278.01	0.47812	0.52188	7.61717	7.72786	-2.49468	24.32727	28.40942	1.33771	0.74755	5.78391	131.29685	2.02055	0.43127	10.63271	3838.27154	0.71203	0.00197246	1802.78541	43059.545	 	6717.675
1275.0	0.51642	0.48358	7.62743	7.71744	-2.62611	23.99358	28.5345	1.32926	0.7523	7.93487	131.74097	2.7832	0.4255	10.76989	5438.49441	0.7016	0.00138938	1802.69521	42388.694	198.592	7272.302
1270.0	0.57276	0.42724	7.64271	7.70207	-2.82008	23.50862	28.71532	1.31662	0.75952	12.15618	132.41244	4.28958	0.41694	10.99913	8804.74926	0.68476	8.55417E-4	1802.55849	41386.488	200.4412	8081.886
1265.0	0.62026	0.37974	7.6559	7.68879	-2.98769	23.09907	28.8608	1.30574	0.76585	16.90853	133.01258	5.99735	0.40967	11.23042	12964.64781	0.66848	5.79061E-4	1802.44994	40517.382	173.8212	8758.777
1260.0	0.66064	0.33936	7.66741	7.67722	-3.13363	22.75167	28.97654	1.2963	0.77143	21.9822	133.55884	7.83159	0.40343	11.46371	17870.32619	0.65275	4.18735E-4	1802.37219	39755.076	152.4612	9329.275
1255.0	0.69522	0.30478	7.67758	7.66705	-3.26197	22.45482	29.06713	1.28804	0.77637	27.20651	134.06314	9.7302	0.39804	11.6991	23484.05884	0.63753	3.17599E-4	1802.3275	39079.314	135.1524	9813.634
1250.0	0.72504	0.27496	7.68664	7.65798	-3.37639	22.19795	29.13622	1.28078	0.78077	32.4495	134.53358	11.64433	0.39336	11.93648	29776.91407	0.62281	2.4966E-4	1802.31813	38474.32	120.9988	10227.625
1245.0	0.75091	0.24909	7.69478	7.64986	-3.47887	21.97552	29.18698	1.27436	0.78471	37.61403	134.97767	13.53738	0.38927	12.17595	36735.30174	0.60855	2.01706E-4	1802.34474	37927.685	109.327	10583.658
1240.18	0.77268	0.22732	7.70192	7.64276	-3.56845	21.78763	29.22097	1.26884	0.78812	42.45287	135.38576	15.31724	0.38579	12.40882	44071.02445	0.59524	1.67597E-4	1802.40584	37447.104	 	10880.881
1240.0	0.77433	0.22567	7.70244	7.64223	-3.57514	21.7703	29.22413	1.26855	0.7883	42.833	135.42385	15.45728	0.38553	12.41105	44552.21421	0.59506	1.65768E-4	1802.35234	37414.785	102.58	10906.354
1235.0	0.81401	0.18599	7.71519	7.62956	-3.73494	21.36749	29.29601	1.26125	0.79286	52.85062	136.39588	19.15821	0.37932	12.47005	58125.69954	0.59029	1.26638E-4	1804.6296	36612.53185	160.45063	11517.532
1230.0	0.84268	0.15732	7.7247	7.6203	-3.85181	21.09426	29.32808	1.2557	0.79637	61.22372	137.16467	22.2665	0.37479	12.53192	71495.05465	0.58543	1.02616E-4	1806.92539	35984.18205	125.66996	11955.044
1225.0	0.86438	0.13562	7.73251	7.61258	-3.94923	20.87926	29.33692	1.25114	0.79927	68.28634	137.82788	24.8978	0.37133	12.59748	84864.80654	0.58044	8.61617E-5	1809.23926	35465.63617	103.70918	12283.178
1220.0	0.88139	0.11861	7.7392	7.60589	-4.03362	20.7031	29.32959	1.24728	0.80175	74.30881	138.42035	27.14801	0.36859	12.66723	98449.40245	0.57532	7.40248E-5	1811.57137	35020.95211	88.93681	12537.877
1215.0	0.89508	0.10492	7.74515	7.59995	-4.10861	20.55496	29.31063	1.24391	0.80392	79.50719	138.96378	29.09481	0.36635	12.74159	112448.0251	0.57005	6.45924E-5	1813.92071	34628.41632	78.50716	12740.847
1210.0	0.90634	0.0936605	7.75057	7.59452	-4.17705	20.4262	29.28284	1.2409	0.80586	84.0449	139.47082	30.79754	0.36447	12.82106	127030.2761	0.56461	5.69855E-5	1816.28852	34274.12321	70.85862	12905.997
1205.0	0.91576	0.0842444	7.75562	7.58951	-4.24028	20.31282	29.24834	1.23818	0.80764	88.0479	139.95105	32.30214	0.36288	12.90559	142359.4851	0.55902	5.06779E-5	1818.67369	33948.74224	65.07619	13042.649
1200.0	0.92375	0.076255	7.7604	7.58482	-4.29952	20.21115	29.20848	1.23567	0.80927	91.61255	140.41035	33.64395	0.3615	12.99555	158585.0371	0.55327	4.5339E-5	1821.07658	33645.77984	60.59248	13157.298
1195.0	0.93061	0.0693947	7.76498	7.58035	-4.35585	20.11787	29.1643	1.23335	0.8108	94.81426	140.85289	34.85076	0.36029	13.09116	175855.0237	0.54737	4.07476E-5	1823.49855	33360.57348	57.04127	13254.602
1190.0	0.93656	0.0634424	7.76941	7.5761	-4.40952	20.03231	29.11663	1.23116	0.81224	97.71095	141.28228	35.94388	0.35922	13.19242	194319.4541	0.54132	3.67502E-5	1825.9381	33089.68959	54.17678	13337.993
1185.0	0.94581	0.0541937	7.77525	7.57053	-4.47974	19.89281	29.07288	1.2288	0.8138	101.19575	141.82009	37.26883	0.35765	13.29807	217813.2542	0.53518	3.26742E-5	1828.4101	32736.99065	70.53979	13503.607
1180.0	0.95929	0.0407063	7.783	7.56325	-4.57158	19.68223	29.03061	1.22637	0.81542	105.50189	142.51633	38.91801	0.35544	13.42585	248564.619	0.52827	2.85337E-5	1830.94178	32272.18509	92.96111	13781.732
1175.0	1.0	0.0	7.80101	7.54612	-4.78779	19.06629	29.00226	1.22334	0.81743	130.87102	144.30049	48.51228	0.34884	 	317425.7853	 	2.22668E-5	 	31171.39241	220.15854	14696.246
1170.0	1.0	0.0	7.80354	7.54368	-4.81855	19.0493	28.92507	1.22237	0.81808	131.30991	144.62514	48.68098	0.34868	 	342772.3906	 	2.05491E-5	 	31005.79695	33.11909	 
1165.0	1.0	0.0	7.80605	7.54125	-4.84925	19.03238	28.84787	1.2214	0.81874	131.748	144.94828	48.84942	0.34851	 	370338.8403	 	1.89536E-5	 	30841.48845	32.8617	 
1160.0	1.0	0.0	7.80857	7.53882	-4.87988	19.01553	28.77067	1.22042	0.81939	132.18529	145.26992	49.0176	0.34835	 	400335.9706	 	1.74724E-5	 	30677.46738	32.80421	 
1155.0	1.0	0.0	7.81108	7.5364	-4.91044	18.99874	28.69346	1.21943	0.82006	132.62179	145.59007	49.18553	0.34818	 	432996.5909	 	1.60982E-5	 	30513.73246	32.74698	 
1150.0	1.0	0.0	7.81358	7.53398	-4.94094	18.98203	28.61625	1.21844	0.82072	133.05748	145.90873	49.35319	0.34801	 	468577.4404	 	1.48237E-5	 	30350.28266	32.68996	 
1145.0	1.0	0.0	7.81608	7.53157	-4.97138	18.96538	28.53902	1.21744	0.82139	133.49237	146.22591	49.5206	0.34785	 	507361.9091	 	1.36424E-5	 	30187.11701	32.63313	 
1140.0	1.0	0.0	7.81858	7.52916	-5.00174	18.94881	28.4618	1.21644	0.82207	133.92647	146.54161	49.68775	0.34768	 	549663.0105	 	1.25481E-5	 	30024.23455	32.57649	 
1135.0	1.0	0.0	7.82108	7.52676	-5.03204	18.93231	28.38456	1.21544	0.82275	134.35977	146.85585	49.85464	0.34752	 	595826.6938	 	1.15349E-5	 	29861.6343	32.52005	 
1130.0	1.0	0.0	7.82357	7.52436	-5.06228	18.91588	28.30732	1.21443	0.82343	134.79228	147.16862	50.02128	0.34735	 	646235.5755	 	1.05974E-5	 	29699.3153	32.4638	 
1125.0	1.0	0.0	7.82606	7.52197	-5.09245	18.89953	28.23007	1.21341	0.82412	135.22399	147.47994	50.18766	0.34718	 	701313.0282	 	9.73035E-6	 	29537.27658	32.40774	 
1120.0	1.0	0.0	7.82854	7.51959	-5.12255	18.88325	28.15282	1.21239	0.82482	135.65491	147.7898	50.35378	0.34702	 	761527.944	 	8.92892E-6	 	29375.51719	32.35188	 
1115.0	1.0	0.0	7.83102	7.51721	-5.15259	18.86705	28.07555	1.21136	0.82552	136.08504	148.09822	50.51965	0.34685	 	827399.8811	 	8.18856E-6	 	29214.03617	32.2962	 
1110.0	1.0	0.0	7.83349	7.51483	-5.18256	18.85093	27.99828	1.21033	0.82622	136.51438	148.4052	50.68525	0.34669	 	899504.9076	 	7.50503E-6	 	29052.83259	32.24072	 
1105.0	1.0	0.0	7.83596	7.51246	-5.21246	18.83489	27.92101	1.20929	0.82693	136.94293	148.71075	50.85061	0.34652	 	978482.2517	 	6.87433E-6	 	28891.90548	32.18542	 
1100.0	1.0	0.0	7.83843	7.51009	-5.2423	18.81892	27.84372	1.20825	0.82764	137.37069	149.01487	51.0157	0.34636	 	1065041.664	 	6.29272E-6	 	28731.25393	32.13031	 
1095.0	1.0	0.0	7.8409	7.50774	-5.27208	18.80304	27.76643	1.2072	0.82836	137.79766	149.31757	51.18055	0.34619	 	1159971.747	 	5.75669E-6	 	28570.87698	32.07539	 
1090.0	1.0	0.0	7.84336	7.50538	-5.30178	18.78723	27.68913	1.20615	0.82909	138.22384	149.61885	51.34513	0.34603	 	1264149.298	 	5.26298E-6	 	28410.77373	32.02065	 
1085.0	1.0	0.0	7.84581	7.50303	-5.33142	18.77151	27.61182	1.20509	0.82981	138.64924	149.91872	51.50946	0.34586	 	1378549.975	 	4.80853E-6	 	28250.9432	31.96611	 
1080.0	1.0	0.0	7.84826	7.50069	-5.361	18.75587	27.5345	1.20402	0.83055	139.07385	150.21719	51.67354	0.3457	 	1504259.949	 	4.39046E-6	 	28091.38453	31.91173	 
1075.0	1.0	0.0	7.85071	7.49835	-5.39051	18.74032	27.45718	1.20295	0.83129	139.49768	150.51426	51.83736	0.34553	 	1642489.684	 	4.0061E-6	 	27932.09674	31.85756	 
1070.0	1.0	0.0	7.85316	7.49601	-5.41995	18.72486	27.37985	1.20188	0.83203	139.92072	150.80994	52.00093	0.34537	 	1794588.574	 	3.65297E-6	 	27773.07897	31.80355	 
1069.41	1.0	0.0	7.85344	7.49574	-5.42345	18.72298	27.3707	1.20175	0.83212	139.97067	150.84477	52.02025	0.34535	 	1813552.09	 	3.61318E-6	 	27754.2996	 	 
1065.0	1.0	0.0	7.85756	7.49181	-5.473	18.62458	27.23542	1.20375	0.83074	140.63984	151.27085	52.28067	0.34505	 	1978069.651	 	3.30179E-6	 	27498.69577	54.87664	 
1060.0	1.0	0.0	7.86215	7.48744	-5.52819	18.51557	27.088	1.20578	0.82934	141.37566	151.73389	52.56731	0.34471	 	2184243.038	 	2.97896E-6	 	27214.39966	56.85922	 
1055.0	1.0	0.0	7.86666	7.48315	-5.58229	18.4095	26.94587	1.20759	0.82809	142.09328	152.1831	52.84701	0.34438	 	2413630.333	 	2.68573E-6	 	26935.76621	55.72669	 
1050.0	1.0	0.0	7.87108	7.47895	-5.63531	18.30627	26.80848	1.20921	0.82698	142.79493	152.62089	53.1206	0.34406	 	2669013.828	 	2.41961E-6	 	26662.5316	54.64692	 
1045.0	1.0	0.0	7.87542	7.47483	-5.68731	18.2058	26.67575	1.21064	0.82601	143.48193	153.0485	53.38858	0.34375	 	2953530.76	 	2.17826E-6	 	26394.44215	53.61789	 
1040.0	1.0	0.0	7.87968	7.47078	-5.73832	18.10795	26.54657	1.21191	0.82514	144.15526	153.46673	53.65131	0.34345	 	3270721.509	 	1.95956E-6	 	26131.2545	52.63753	 
1035.0	1.0	0.0	7.88387	7.46681	-5.78839	18.01262	26.42114	1.21303	0.82438	144.81574	153.87625	53.90912	0.34315	 	3624584.48	 	1.76151E-6	 	25872.73582	51.70374	 
1030.0	1.0	0.0	7.88798	7.46292	-5.83757	17.91967	26.29918	1.214	0.82372	145.46411	154.27762	54.16227	0.34285	 	4019639.213	 	1.58232E-6	 	25618.66372	50.81442	 
1027.97	1.0	0.0	7.88964	7.46136	-5.85727	17.8826	26.25065	1.21435	0.82349	145.7238	154.43818	54.26369	0.34274	 	4192755.703	 	1.51463E-6	 	25516.83215	 	 
1025.0	1.0	0.0	7.89203	7.45909	-5.88586	17.82909	26.18046	1.21482	0.82316	146.10119	154.6715	54.41108	0.34257	 	4461035.714	 	1.42029E-6	 	25368.76689	49.97936	 
1020.0	1.0	0.0	7.89601	7.45533	-5.9333	17.74077	26.06477	1.21552	0.8227	146.72757	155.05831	54.65578	0.34229	 	4954568.325	 	1.27388E-6	 	25122.86737	49.1799	 
1015.0	1.0	0.0	7.89993	7.45163	-5.97996	17.6545	25.95189	1.21608	0.82231	147.34373	155.43828	54.89655	0.34201	 	5506767.795	 	1.14171E-6	 	24880.81613	48.41025	 
1010.0	1.0	0.0	7.90379	7.44799	-6.02588	17.57019	25.84164	1.21653	0.82201	147.95023	155.81179	55.13361	0.34174	 	6125076.153	 	1.02247E-6	 	24642.43078	47.67707	 
1005.0	1.0	0.0	7.90759	7.44441	-6.07108	17.48773	25.73385	1.21687	0.82178	148.54759	156.17919	55.36716	0.34148	 	6817941.577	 	9.14988E-7	 	24407.53844	46.97847	 
1000.0	1.0	0.0	7.91134	7.44088	-6.1156	17.40703	25.62835	1.2171	0.82163	149.13629	156.54079	55.59738	0.34122	 	7594962.047	 	8.18165E-7	 	24175.97543	46.3126	 
997.72	1.0	0.0	7.91303	7.43929	-6.13565	17.37085	25.58102	1.21717	0.82158	149.40162	156.70361	55.70117	0.3411	 	7979585.188	 	7.77336E-7	 	24071.58976	 	 
995.56	1.0	0.0	7.91556	7.43692	-6.16561	17.2944	25.53748	1.21717	0.82158	149.73651	156.81432	55.83617	0.34086	 	8378134.568	 	7.39097E-7	 	23935.89553	 	 
995.0	1.0	0.0	7.91597	7.43653	-6.17049	17.2856	25.52608	1.21717	0.82158	149.80137	156.85395	55.86155	0.34083	 	8481181.175	 	7.29795E-7	 	23910.41874	53.11134	 
990.0	1.0	0.0	7.91962	7.4331	-6.21376	17.20786	25.42524	1.21718	0.82157	150.37659	157.20524	56.08668	0.34057	 	9464057.862	 	6.51425E-7	 	23684.47457	45.18883	 
985.0	1.0	0.0	7.92323	7.42972	-6.25643	17.13165	25.32626	1.2171	0.82162	150.94432	157.55159	56.30894	0.34032	 	1.056909761E7	 	5.81007E-7	 	23461.46021	44.60287	 
980.0	1.0	0.0	7.92679	7.42638	-6.29852	17.05689	25.22901	1.21694	0.82173	151.50496	157.89323	56.52847	0.34008	 	1.181251667E7	 	5.17782E-7	 	23241.24096	44.04385	 
975.0	1.0	0.0	7.9303	7.42309	-6.34006	16.98352	25.13341	1.21669	0.8219	152.05885	158.23039	56.74541	0.33983	 	1.321282427E7	 	4.6106E-7	 	23023.68984	43.51022	 
970.0	1.0	0.0	7.93378	7.41984	-6.38107	16.91146	25.03933	1.21637	0.82212	152.60633	158.56325	56.95989	0.33959	 	1.479116667E7	 	4.10211E-7	 	22808.68711	43.00055	 
965.0	1.0	0.0	7.93721	7.41663	-6.42157	16.84065	24.94669	1.21598	0.82238	153.14769	158.89202	57.17202	0.33936	 	1.657172509E7	 	3.64663E-7	 	22596.11986	42.51345	 
960.0	1.0	0.0	7.94061	7.41346	-6.46159	16.77101	24.8554	1.21552	0.82269	153.68324	159.21685	57.38192	0.33913	 	1.858218013E7	 	3.23896E-7	 	22385.88154	42.04766	 
955.0	1.0	0.0	7.94397	7.41033	-6.50114	16.70251	24.76539	1.21499	0.82305	154.21323	159.53792	57.5897	0.3389	 	2.085424756E7	 	2.87438E-7	 	22177.87164	41.60198	 
950.0	1.0	0.0	7.94729	7.40723	-6.54024	16.63506	24.67657	1.2144	0.82345	154.73793	159.85536	57.79545	0.33867	 	2.342430196E7	 	2.54859E-7	 	21971.99527	41.17527	 
945.0	1.0	0.0	7.95058	7.40416	-6.57891	16.56864	24.58888	1.21375	0.82389	155.25756	160.16933	57.99926	0.33844	 	2.633410554E7	 	2.25771E-7	 	21768.16284	40.76649	 
940.0	1.0	0.0	7.95384	7.40113	-6.61716	16.50317	24.50225	1.21304	0.82438	155.77235	160.47995	58.20122	0.33822	 	2.963165093E7	 	1.99823E-7	 	21566.28966	40.37463	 
935.0	1.0	0.0	7.95706	7.39813	-6.65502	16.43861	24.41663	1.21228	0.8249	156.2825	160.78734	58.40141	0.338	 	3.33721516E7	 	1.76695E-7	 	21366.29573	39.99879	 
930.0	1.0	0.0	7.96026	7.39516	-6.6925	16.37492	24.33195	1.21146	0.82545	156.78821	161.09162	58.5999	0.33779	 	3.761919314E7	 	1.56098E-7	 	21168.10536	39.63808	 
925.0	1.0	0.0	7.96342	7.39222	-6.72961	16.31206	24.24816	1.21059	0.82604	157.28966	161.39288	58.79677	0.33757	 	4.244607609E7	 	1.37772E-7	 	20971.64693	39.29169	 
920.0	1.0	0.0	7.96656	7.3893	-6.76636	16.24997	24.16522	1.20968	0.82667	157.78703	161.69124	58.99208	0.33736	 	4.793739772E7	 	1.21481E-7	 	20776.85262	38.95886	 
915.0	1.0	0.0	7.96968	7.38642	-6.80277	16.18862	24.08309	1.20872	0.82732	158.28047	161.98677	59.1859	0.33715	 	5.419089081E7	 	1.07012E-7	 	20583.6582	38.63889	 
910.0	1.0	0.0	7.97276	7.38356	-6.83884	16.12798	24.00171	1.20771	0.82801	158.77013	162.27958	59.37828	0.33694	 	6.131959432E7	 	9.41732E-8	 	20392.00274	38.33109	 
905.0	1.0	0.0	7.97582	7.38073	-6.8746	16.068	23.92104	1.20666	0.82873	159.25615	162.56973	59.56928	0.33673	 	6.945439035E7	 	8.27919E-8	 	20201.82849	38.03485	 
900.0	1.0	0.0	7.97886	7.37792	-6.91005	16.00866	23.84106	1.20557	0.82948	159.73867	162.85731	59.75896	0.33652	 	7.87469925E7	 	7.2712E-8	 	20013.08058	37.74958	 
895.0	1.0	0.0	7.98187	7.37513	-6.9452	15.94991	23.76172	1.20444	0.83026	160.21781	163.14238	59.94735	0.33632	 	8.937345761E7	 	6.37935E-8	 	19825.70695	37.47473	 
890.0	1.0	0.0	7.98487	7.37237	-6.98006	15.89173	23.683	1.20328	0.83106	160.69369	163.42502	60.13451	0.33612	 	1.015383348E8	 	5.59104E-8	 	19639.65806	37.20978	 
885.0	1.0	0.0	7.98784	7.36963	-7.01464	15.83409	23.60486	1.20207	0.8319	161.16642	163.70528	60.32047	0.33592	 	1.154795553E8	 	4.89493E-8	 	19454.88684	36.95424	 
880.0	1.0	0.0	7.99078	7.36691	-7.04895	15.77695	23.52727	1.20083	0.83276	161.6361	163.98322	60.50529	0.33572	 	1.314741797E8	 	4.28087E-8	 	19271.34835	36.7077	 
875.0	1.0	0.0	7.99371	7.36421	-7.083	15.7203	23.45021	1.19955	0.83365	162.10284	164.25891	60.68899	0.33552	 	1.49845274E8	 	3.73975E-8	 	19088.99964	36.46974	 
870.0	1.0	0.0	7.99662	7.36153	-7.11679	15.66409	23.37365	1.19824	0.83456	162.56672	164.53239	60.87162	0.33532	 	1.709699389E8	 	3.2634E-8	 	18907.80058	36.23981	 
865.0	1.0	0.0	7.99951	7.35887	-7.15034	15.60832	23.29756	1.19689	0.8355	163.02783	164.80372	61.0532	0.33513	 	1.952889341E8	 	2.84452E-8	 	18727.71244	36.01763	 
860.0	1.0	0.0	8.00238	7.35623	-7.18365	15.55294	23.22193	1.19552	0.83646	163.48626	165.07293	61.23377	0.33494	 	2.233180494E8	 	2.47657E-8	 	18548.69827	35.80283	 
855.0	1.0	0.0	8.00523	7.35361	-7.21672	15.49795	23.14674	1.19411	0.83745	163.94207	165.34008	61.41337	0.33474	 	2.556616294E8	 	2.15371E-8	 	18370.72276	35.5951	 
850.0	1.0	0.0	8.00807	7.35101	-7.24957	15.44331	23.07196	1.19267	0.83846	164.39536	165.60521	61.59201	0.33455	 	2.930286852E8	 	1.87074E-8	 	18193.75225	35.3941	 
845.0	1.0	0.0	8.01032	7.34894	-7.27561	15.41902	23.002	1.19097	0.83965	164.77376	165.84035	61.74052	0.33441	 	3.33528138E8	 	1.63627E-8	 	18049.04609	28.94123	 
840.0	1.0	0.0	8.01256	7.34689	-7.30157	15.39473	22.93204	1.18926	0.84086	165.15151	166.07446	61.88882	0.33426	 	3.800667662E8	 	1.42949E-8	 	17901.61231	29.48676	 
835.0	1.0	0.0	8.0148	7.34483	-7.32747	15.37046	22.86206	1.18754	0.84207	165.5286	166.30754	62.03691	0.33411	 	4.336099341E8	 	1.24734E-8	 	17754.40576	29.44131	 
830.0	1.0	0.0	8.01703	7.34279	-7.35331	15.34619	22.79207	1.18582	0.8433	165.90505	166.53959	62.18478	0.33397	 	4.952875632E8	 	1.08709E-8	 	17607.42581	29.39599	 
825.0	1.0	0.0	8.01927	7.34074	-7.37907	15.32192	22.72206	1.18408	0.84454	166.28084	166.77061	62.33243	0.33382	 	5.66423915E8	 	9.46252E-9	 	17460.67186	29.35079	 
820.0	1.0	0.0	8.02149	7.33871	-7.40477	15.29766	22.65205	1.18233	0.84579	166.65598	167.0006	62.47988	0.33368	 	6.485730764E8	 	8.22636E-9	 	17314.14324	29.30572	 
815.0	1.0	0.0	8.02371	7.33667	-7.43041	15.27341	22.58202	1.18057	0.84705	167.03047	167.22957	62.6271	0.33353	 	7.435612982E8	 	7.14264E-9	 	17167.83936	29.26078	 
810.0	1.0	0.0	8.02593	7.33465	-7.45598	15.24916	22.51198	1.1788	0.84832	167.4043	167.45753	62.77412	0.33339	 	8.535375839E8	 	6.19374E-9	 	17021.75952	29.21597	 
805.0	1.0	0.0	8.02814	7.33263	-7.48148	15.22492	22.44193	1.17702	0.8496	167.77748	167.68446	62.92092	0.33324	 	9.810342215E8	 	5.36391E-9	 	16875.9031	29.17129	 
800.0	1.0	0.0	8.03035	7.33061	-7.50691	15.20069	22.37187	1.17523	0.85089	168.15001	167.91038	63.06751	0.3331	 	1.129039321E9	 	4.63915E-9	 	16730.26941	29.12674	 
795.0	1.0	0.0	8.03255	7.3286	-7.53228	15.17646	22.30179	1.17343	0.8522	168.52189	168.13529	63.21388	0.33295	 	1.301083867E9	 	4.00695E-9	 	16584.85776	29.08233	 
790.0	1.0	0.0	8.03475	7.3266	-7.55758	15.15224	22.2317	1.17162	0.85352	168.89312	168.3592	63.36004	0.3328	 	1.501346344E9	 	3.45621E-9	 	16439.66747	29.03806	 
785.0	1.0	0.0	8.03694	7.3246	-7.58282	15.12803	22.16159	1.1698	0.85485	169.26369	168.58209	63.50598	0.33266	 	1.734778685E9	 	2.97708E-9	 	16294.69784	28.99393	 
780.0	1.0	0.0	8.03913	7.3226	-7.60799	15.10382	22.09148	1.16797	0.85619	169.63361	168.80399	63.65171	0.33251	 	2.007258108E9	 	2.56079E-9	 	16149.94814	28.94994	 
775.0	1.0	0.0	8.04132	7.32061	-7.6331	15.07961	22.02135	1.16613	0.85754	170.00288	169.02488	63.79722	0.33237	 	2.325770458E9	 	2.1996E-9	 	16005.41764	28.9061	 
770.0	1.0	0.0	8.0435	7.31863	-7.65814	15.05542	21.9512	1.16427	0.85891	170.3715	169.24478	63.94252	0.33222	 	2.698631942E9	 	1.88664E-9	 	15861.10559	28.86241	 
765.0	1.0	0.0	8.04568	7.31665	-7.68311	15.03123	21.88104	1.16241	0.86028	170.73946	169.46368	64.08761	0.33208	 	3.135757722E9	 	1.61586E-9	 	15717.01123	28.81887	 
760.0	1.0	0.0	8.04785	7.31467	-7.70801	15.00704	21.81087	1.16053	0.86168	171.10677	169.68159	64.23248	0.33193	 	3.648987814E9	 	1.3819E-9	 	15573.13377	28.77549	 
755.0	1.0	0.0	8.05001	7.3127	-7.73285	14.98287	21.74068	1.15864	0.86308	171.47343	169.89851	64.37713	0.33179	 	4.252483144E9	 	1.18005E-9	 	15429.47242	28.73227	 
750.0	1.0	0.0	8.05218	7.31074	-7.75763	14.95869	21.67048	1.15674	0.8645	171.83944	170.11445	64.52157	0.33164	 	4.963207712E9	 	1.00615E-9	 	15286.02634	28.68922	 
745.0	1.0	0.0	8.05433	7.30878	-7.78234	14.93453	21.60027	1.15483	0.86593	172.20479	170.3294	64.6658	0.3315	 	5.801516535E9	 	8.56558E-10	 	15142.79471	28.64633	 
740.0	1.0	0.0	8.05649	7.30683	-7.80698	14.91037	21.53003	1.15291	0.86737	172.56949	170.54337	64.80981	0.33135	 	6.791873859E9	 	7.28066E-10	 	14999.77665	28.60361	 
735.0	1.0	0.0	8.05863	7.30488	-7.83156	14.88622	21.45979	1.15097	0.86883	172.93354	170.75636	64.9536	0.33121	 	7.963731989E9	 	6.17867E-10	 	14856.97127	28.56107	 
730.0	1.0	0.0	8.06078	7.30294	-7.85607	14.86207	21.38953	1.14903	0.8703	173.29694	170.96837	65.09718	0.33106	 	9.352608601E9	 	5.23504E-10	 	14714.37767	28.51872	 
725.0	1.0	0.0	8.06292	7.301	-7.88051	14.83793	21.31925	1.14707	0.87179	173.65968	171.17941	65.24054	0.33092	 	1.10014E10	 	4.42827E-10	 	14571.99488	28.47656	 
720.0	1.0	0.0	8.06505	7.29907	-7.90489	14.8138	21.24896	1.1451	0.87329	174.02177	171.38948	65.38369	0.33077	 	1.2962099999999998E10	 	3.73962E-10	 	14429.82195	28.43459	 
715.0	1.0	0.0	8.06718	7.29714	-7.9292	14.78967	21.17865	1.14312	0.8748	174.38321	171.59858	65.52662	0.33063	 	1.5297499999999998E10	 	3.15275E-10	 	14287.85786	28.39282	 
710.0	1.0	0.0	8.06931	7.29522	-7.95345	14.76555	21.10833	1.14112	0.87633	174.74399	171.80671	65.66933	0.33048	 	1.80842E10	 	2.65343E-10	 	14146.10159	28.35125	 
705.0	1.0	0.0	8.07143	7.2933	-7.97763	14.74143	21.03799	1.13911	0.87787	175.10412	172.01389	65.81183	0.33034	 	2.14151E10	 	2.22932E-10	 	14004.55206	28.30991	 
700.0	1.0	0.0	8.07354	7.29139	-8.00175	14.71732	20.96763	1.13709	0.87943	175.4636	172.2201	65.95412	0.33019	 	2.5403599999999996E10	 	1.8697E-10	 	13863.20815	28.26878	 
695.0	1.0	0.0	8.07565	7.28949	-8.0258	14.69322	20.89726	1.13506	0.88101	175.82242	172.42535	66.09619	0.33005	 	3.0188199999999996E10	 	1.56528E-10	 	13722.06869	28.22789	 
690.0	1.0	0.0	8.07776	7.28759	-8.04978	14.66912	20.82687	1.13302	0.8826	176.1806	172.62965	66.23804	0.32991	 	3.59383E10	 	1.30805E-10	 	13581.13251	28.18724	 
685.0	1.0	0.0	8.07986	7.28569	-8.0737	14.64503	20.75646	1.13096	0.88421	176.53811	172.83299	66.37967	0.32976	 	4.28615E10	 	1.09107E-10	 	13440.39834	28.14683	 
680.0	1.0	0.0	8.08196	7.2838	-8.09755	14.62094	20.68603	1.12889	0.88583	176.89498	173.03538	66.52109	0.32962	 	5.121299999999999E10	 	9.0838E-11	 	13299.86489	28.10669	 
675.0	1.0	0.0	8.08405	7.28191	-8.12134	14.59687	20.61559	1.1268	0.88747	177.25119	173.23683	66.66229	0.32947	 	6.130679999999999E10	 	7.5484E-11	 	13159.53081	28.06682	 
670.0	1.0	0.0	8.08614	7.28003	-8.14506	14.57279	20.54513	1.1247	0.88912	177.60675	173.43733	66.80328	0.32933	 	7.35301E10	 	6.2604E-11	 	13019.39467	28.02723	 
665.0	1.0	0.0	8.08822	7.27816	-8.16872	14.54873	20.47465	1.12259	0.8908	177.96166	173.63688	66.94404	0.32918	 	8.83616E10	 	5.18198E-11	 	12879.45501	27.98793	 
660.0	1.0	0.0	8.0903	7.27629	-8.19231	14.52467	20.40416	1.12047	0.89249	178.31591	173.8355	67.08459	0.32904	 	1.06394E11	 	4.28076E-11	 	12739.71345	27.94831	 
655.0	1.0	0.0	8.09237	7.27443	-8.21583	14.50061	20.33364	1.11833	0.89419	178.66951	174.03317	67.22493	0.32889	 	1.28363E11	 	3.52911E-11	 	12600.18737	27.90522	 
650.0	1.0	0.0	8.09444	7.27257	-8.23929	14.47657	20.26311	1.11618	0.89592	179.02245	174.22991	67.36505	0.32875	 	1.55183E11	 	2.90345E-11	 	12460.8999	27.85749	 
645.0	1.0	0.0	8.09651	7.27071	-8.26269	14.45253	20.19255	1.11401	0.89766	179.37474	174.42572	67.50495	0.3286	 	1.87996E11	 	2.3837E-11	 	12321.85033	27.80991	 
640.0	1.0	0.0	8.09857	7.26886	-8.28601	14.42849	20.12198	1.11183	0.89942	179.72638	174.6206	67.64463	0.32846	 	2.28225E11	 	1.95283E-11	 	12183.03797	27.76247	 
635.0	1.0	0.0	8.10062	7.26702	-8.30928	14.40446	20.05139	1.10963	0.9012	180.07737	174.81455	67.78409	0.32832	 	2.77655E11	 	1.59639E-11	 	12044.46209	27.71517	 
630.0	1.0	0.0	8.10267	7.26518	-8.33247	14.38044	19.98078	1.10742	0.903	180.4277	175.00757	67.92334	0.32817	 	3.38525E11	 	1.30213E-11	 	11906.12201	27.66802	 
625.0	1.0	0.0	8.10472	7.26335	-8.35561	14.35642	19.91014	1.1052	0.90481	180.77737	175.19966	68.06237	0.32803	 	4.13652E11	 	1.05974E-11	 	11768.01673	27.62106	 
620.0	1.0	0.0	8.10676	7.26152	-8.37867	14.33241	19.83949	1.10296	0.90665	181.1264	175.39084	68.20118	0.32788	 	5.06586E11	 	8.60513E-12	 	11630.14483	27.57438	 
615.0	1.0	0.0	8.10879	7.2597	-8.40167	14.30841	19.76882	1.10071	0.90851	181.47477	175.5811	68.33978	0.32774	 	6.21818E11	 	6.97124E-12	 	11492.50598	27.52777	 
610.0	1.0	0.0	8.11082	7.25788	-8.42461	14.28441	19.69812	1.09844	0.91038	181.82248	175.77044	68.47816	0.32759	 	7.65033E11	 	5.63431E-12	 	11355.09953	27.48129	 
605.0	1.0	0.0	8.11285	7.25607	-8.44748	14.26042	19.62741	1.09615	0.91228	182.16954	175.95886	68.61632	0.32745	 	9.43458E11	 	4.5429E-12	 	11217.92478	27.43495	 
600.0	1.0	0.0	8.11487	7.25426	-8.47029	14.23644	19.55667	1.09386	0.9142	182.51595	176.14638	68.75426	0.32731	 	1.16629E12	 	3.65399E-12	 	11080.98106	27.38874	 
595.0	1.0	0.0	8.11689	7.25246	-8.49303	14.21246	19.48591	1.09154	0.91614	182.8617	176.33298	68.89198	0.32716	 	1.44529E12	 	2.93176E-12	 	10944.26771	27.34267	 
590.0	1.0	0.0	8.1189	7.25066	-8.5157	14.18848	19.41513	1.08921	0.9181	183.2068	176.51868	69.02948	0.32702	 	1.79547E12	 	2.34636E-12	 	10807.78408	27.29673	 
585.0	1.0	0.0	8.12091	7.24887	-8.53831	14.16452	19.34432	1.08687	0.92008	183.55125	176.70347	69.16677	0.32687	 	2.23615E12	 	1.87305E-12	 	10671.52947	27.25092	 
580.0	1.0	0.0	8.12291	7.24708	-8.56086	14.14056	19.27349	1.0845	0.92208	183.89504	176.88736	69.30384	0.32673	 	2.79217E12	 	1.49132E-12	 	10535.50324	27.20525	 
575.0	1.0	0.0	8.12491	7.2453	-8.58334	14.1166	19.20264	1.08213	0.92411	184.23817	177.07035	69.44068	0.32659	 	3.49558E12	 	1.18424E-12	 	10399.70474	27.1597	 
570.0	1.0	0.0	8.1269	7.24352	-8.60575	14.09266	19.13177	1.07973	0.92616	184.58065	177.25244	69.57731	0.32644	 	4.38787E12	 	9.3786E-13	 	10264.1333	27.11429	 
565.0	1.0	0.0	8.12889	7.24175	-8.6281	14.06871	19.06087	1.07732	0.92823	184.92248	177.43363	69.71373	0.3263	 	5.52288E12	 	7.407E-13	 	10128.7883	27.069	 
560.0	1.0	0.0	8.13087	7.23998	-8.65039	14.04478	18.98995	1.07489	0.93032	185.26365	177.61393	69.84992	0.32616	 	6.97072E12	 	5.83354E-13	 	9993.66906	27.02385	 
555.0	1.0	0.0	8.13285	7.23822	-8.67261	14.02085	18.919	1.07245	0.93244	185.60417	177.79334	69.98589	0.32601	 	8.82288E12	 	4.58126E-13	 	9858.77496	26.97882	 
550.0	1.0	0.0	8.13482	7.23647	-8.69476	13.99693	18.84803	1.06999	0.93459	185.94403	177.97186	70.12164	0.32587	 	1.11992E13	 	3.5874E-13	 	9724.10536	26.93392	 
545.0	1.0	0.0	8.13679	7.23472	-8.71685	13.97301	18.77703	1.06751	0.93676	186.28324	178.1495	70.25718	0.32572	 	1.4257E13	 	2.80086E-13	 	9589.65962	26.88915	 
540.0	1.0	0.0	8.13875	7.23297	-8.73888	13.9491	18.706	1.06502	0.93895	186.62179	178.32625	70.39249	0.32558	 	1.82037E13	 	2.18021E-13	 	9455.43712	26.8445	 
535.0	1.0	0.0	8.14071	7.23123	-8.76084	13.9252	18.63495	1.0625	0.94117	186.95969	178.50211	70.52759	0.32544	 	2.33133E13	 	1.6919E-13	 	9321.43723	26.79998	 
530.0	1.0	0.0	8.14267	7.2295	-8.78273	13.9013	18.56388	1.05997	0.94342	187.29693	178.6771	70.66247	0.32529	 	2.99493E13	 	1.30887E-13	 	9187.65932	26.75558	 
525.0	1.0	0.0	8.14462	7.22777	-8.80456	13.8774	18.49277	1.05742	0.9457	187.63352	178.85121	70.79712	0.32515	 	3.8595E13	 	1.00935E-13	 	9054.10279	26.71131	 
520.0	1.0	0.0	8.14656	7.22604	-8.82632	13.85352	18.42164	1.05486	0.948	187.96945	179.02444	70.93156	0.32501	 	4.9896E13	 	7.75848E-14	 	8920.76701	26.66716	 
515.0	1.0	0.0	8.1485	7.22432	-8.84802	13.82964	18.35048	1.05227	0.95033	188.30473	179.1968	71.06578	0.32486	 	6.47164E13	 	5.94403E-14	 	8787.65139	26.62312	 
510.0	1.0	0.0	8.15043	7.22261	-8.86966	13.80577	18.27929	1.04967	0.95268	188.63935	179.36829	71.19977	0.32472	 	8.42182E13	 	4.53864E-14	 	8654.75531	26.57921	 
505.0	1.0	0.0	8.15236	7.2209	-8.89123	13.7819	18.20808	1.04705	0.95507	188.97332	179.53891	71.33355	0.32458	 	1.09968E14	 	3.45369E-14	 	8522.0782	26.53542	 
500.0	1.0	0.0	8.15429	7.21919	-8.91274	13.75804	18.13683	1.0444	0.95748	189.30663	179.70866	71.4671	0.32443	 	1.44088E14	 	2.61893E-14	 	8389.61945	26.49175	 
495.0	1.0	0.0	8.15621	7.21749	-8.93418	13.73418	18.06555	1.04174	0.95993	189.63928	179.87754	71.60044	0.32429	 	1.89459E14	 	1.97887E-14	 	8257.37847	26.4482	 
490.0	1.0	0.0	8.15812	7.2158	-8.95555	13.71034	17.99425	1.03906	0.9624	189.97129	180.04557	71.73356	0.32415	 	2.50012E14	 	1.48983E-14	 	8125.35468	26.40476	 
485.0	1.0	0.0	8.16003	7.21411	-8.97687	13.68649	17.92291	1.03636	0.96491	190.30263	180.21273	71.86645	0.324	 	3.31127E14	 	1.1175E-14	 	7993.54751	26.36143	 
480.0	1.0	0.0	8.16194	7.21243	-8.99811	13.66266	17.85154	1.03365	0.96745	190.63332	180.37904	71.99913	0.32386	 	4.40199E14	 	8.35063E-15	 	7861.9564	26.31822	 
475.0	1.0	0.0	8.16384	7.21075	-9.0193	13.63883	17.78014	1.03091	0.97002	190.96335	180.54448	72.13158	0.32372	 	5.8743E14	 	6.21611E-15	 	7730.58076	26.27513	 
470.0	1.0	0.0	8.16573	7.20907	-9.04041	13.615	17.70871	1.02815	0.97262	191.29273	180.70908	72.26381	0.32357	 	7.86955E14	 	4.60907E-15	 	7599.42006	26.23214	 
465.0	1.0	0.0	8.16762	7.2074	-9.06147	13.59119	17.63724	1.02537	0.97526	191.62145	180.87282	72.39582	0.32343	 	1.05843E15	 	3.40383E-15	 	7468.47375	26.18926	 
460.0	1.0	0.0	8.16951	7.20574	-9.08246	13.56738	17.56575	1.02257	0.97793	191.94952	181.03571	72.52761	0.32329	 	1.42933E15	 	2.50349E-15	 	7337.74126	26.1465	 
455.0	1.0	0.0	8.17139	7.20408	-9.10338	13.54357	17.49421	1.01975	0.98064	192.27693	181.19776	72.65918	0.32314	 	1.93818E15	 	1.83363E-15	 	7207.22207	26.10384	 
450.0	1.0	0.0	8.17327	7.20243	-9.12424	13.51977	17.42265	1.0169	0.98338	192.60368	181.35895	72.79053	0.323	 	2.63928E15	 	1.3373E-15	 	7076.91566	26.06128	 
445.0	1.0	0.0	8.17514	7.20078	-9.14503	13.49598	17.35104	1.01404	0.98615	192.92978	181.51931	72.92166	0.32286	 	3.60946E15	 	9.71089E-16	 	6946.82149	26.01883	 
440.0	1.0	0.0	8.177	7.19914	-9.16576	13.47219	17.2794	1.01116	0.98897	193.25522	181.67882	73.05256	0.32271	 	4.958E15	 	7.02038E-16	 	6816.93904	25.97649	 
435.0	1.0	0.0	8.17886	7.1975	-9.18643	13.44841	17.20773	1.00825	0.99182	193.58001	181.8375	73.18325	0.32257	 	6.84097E15	 	5.05236E-16	 	6687.26783	25.93424	 
430.0	1.0	0.0	8.18072	7.19587	-9.20703	13.42464	17.13602	1.00532	0.99471	193.90413	181.99533	73.31371	0.32243	 	9.48236E15	 	3.61925E-16	 	6557.80734	25.8921	 
425.0	1.0	0.0	8.18257	7.19424	-9.22757	13.40087	17.06427	1.00237	0.99764	194.22761	182.15233	73.44395	0.32228	 	1.32053E16	 	2.58041E-16	 	6428.55713	25.85004	 
420.0	1.0	0.0	8.18442	7.19262	-9.24804	13.37711	16.99248	0.99939	1.00061	194.55042	182.3085	73.57397	0.32214	 	1.84779E16	 	1.83089E-16	 	6299.51665	25.8081	 
415.0	1.0	0.0	8.18626	7.191	-9.26845	13.35336	16.92065	0.9964	1.00362	194.87258	182.46383	73.70376	0.322	 	2.59823E16	 	1.29268E-16	 	6170.6856	25.76621	 
410.0	1.0	0.0	8.18809	7.18939	-9.2888	13.32961	16.84879	0.99338	1.00667	195.19408	182.61834	73.83333	0.32186	 	3.67172E16	 	9.08099E-17	 	6042.06381	25.72436	 
405.0	1.0	0.0	8.18992	7.18778	-9.30908	13.30586	16.77688	0.99033	1.00976	195.51493	182.77202	73.96269	0.32171	 	5.21527E16	 	6.34652E-17	 	5913.65106	25.68255	 
400.0	1.0	0.0	8.19175	7.18618	-9.32929	13.28213	16.70493	0.98726	1.0129	195.83512	182.92487	74.09182	0.32157	 	7.44642E16	 	4.41215E-17	 	5785.44718	25.64078	 
395.0	1.0	0.0	8.19357	7.18458	-9.34944	13.2584	16.63294	0.98417	1.01608	196.15465	183.0769	74.22072	0.32143	 	1.06889E17	 	3.05089E-17	 	5657.45199	25.59904	 
390.0	1.0	0.0	8.19539	7.18299	-9.36953	13.23467	16.5609	0.98106	1.01931	196.47353	183.22811	74.34941	0.32129	 	1.54272E17	 	2.09803E-17	 	5529.66535	25.55733	 
385.0	1.0	0.0	8.1972	7.1814	-9.38956	13.21095	16.48882	0.97792	1.02258	196.79175	183.3785	74.47787	0.32114	 	2.23904E17	 	1.43466E-17	 	5402.08708	25.51565	 
380.0	1.0	0.0	8.199	7.17982	-9.40951	13.18724	16.4167	0.97475	1.0259	197.10931	183.52808	74.60611	0.321	 	3.26823E17	 	9.75409E-18	 	5274.71706	25.474	 
375.0	1.0	0.0	8.20081	7.17824	-9.42941	13.16354	16.34453	0.97156	1.02927	197.42622	183.67683	74.73412	0.32086	 	4.79842E17	 	6.59271E-18	 	5147.55517	25.43238	 
370.0	1.0	0.0	8.2026	7.17667	-9.44924	13.13984	16.27232	0.96834	1.03269	197.74246	183.82478	74.86191	0.32071	 	7.08724E17	 	4.42916E-18	 	5020.60128	25.39078	 
365.0	1.0	0.0	8.20439	7.1751	-9.46901	13.11614	16.20006	0.9651	1.03616	198.05806	183.97191	74.98948	0.32057	 	1.0532E18	 	2.95733E-18	 	4893.8553	25.3492	 
360.0	1.0	0.0	8.20618	7.17354	-9.48871	13.09246	16.12775	0.96183	1.03968	198.37299	184.11823	75.11683	0.32043	 	1.57493E18	 	1.96215E-18	 	4767.31714	25.30763	 
355.0	1.0	0.0	8.20796	7.17199	-9.50835	13.06878	16.05539	0.95854	1.04326	198.68727	184.26375	75.24395	0.32029	 	2.37024E18	 	1.29347E-18	 	4640.98672	25.26608	 
350.0	1.0	0.0	8.20973	7.17043	-9.52792	13.0451	15.98298	0.95521	1.04688	199.00089	184.40846	75.37085	0.32014	 	3.59065E18	 	8.47044E-19	 	4514.864	25.22454	 
345.0	1.0	0.0	8.21151	7.16889	-9.54743	13.02143	15.91051	0.95187	1.05057	199.31385	184.55237	75.49753	0.32	 	5.47611E18	 	5.50945E-19	 	4388.94891	25.18302	 
340.0	1.0	0.0	8.21327	7.16735	-9.56688	12.99777	15.838	0.94849	1.05431	199.62615	184.69547	75.62398	0.31986	 	8.40932E18	 	3.55871E-19	 	4263.24145	25.14149	 
335.0	1.0	0.0	8.21503	7.16581	-9.58626	12.97412	15.76543	0.94509	1.05811	199.9378	184.83778	75.75021	0.31972	 	1.30051E19	 	2.28236E-19	 	4137.74158	25.09997	 
330.0	1.0	0.0	8.21679	7.16428	-9.60558	12.95047	15.69281	0.94165	1.06196	200.24879	184.97929	75.87622	0.31958	 	2.02583E19	 	1.45314E-19	 	4012.44933	25.05845	 
325.0	1.0	0.0	8.21854	7.16275	-9.62484	12.92682	15.62013	0.93819	1.06588	200.55913	185.12	76.002	0.31943	 	3.17917E19	 	9.18298E-20	 	3887.36471	25.01692	 
320.0	1.0	0.0	8.22028	7.16123	-9.64403	12.90319	15.5474	0.9347	1.06986	200.8688	185.25992	76.12756	0.31929	 	5.02715E19	 	5.75877E-20	 	3762.48776	24.97539	 
315.0	1.0	0.0	8.22202	7.15972	-9.66316	12.87956	15.4746	0.93118	1.0739	201.17782	185.39904	76.25289	0.31915	 	8.01151E19	 	3.58311E-20	 	3637.81856	24.93384	 
310.0	1.0	0.0	8.22376	7.15821	-9.68222	12.85593	15.40175	0.92763	1.07801	201.48618	185.53738	76.378	0.31901	 	1.2869999999999998E20	 	2.21151E-20	 	3513.35716	24.89228	 
305.0	1.0	0.0	8.22549	7.1567	-9.70122	12.83231	15.32884	0.92405	1.08219	201.79388	185.67493	76.50288	0.31886	 	2.0845E20	 	1.35371E-20	 	3389.10368	24.8507	 
300.0	1.0	0.0	8.22722	7.1552	-9.72016	12.8087	15.25586	0.92044	1.08643	202.10093	185.81169	76.62755	0.31872	 	3.4047E20	 	8.2163E-21	 	3265.05824	24.80909	 
295.0	1.0	0.0	8.22894	7.1537	-9.73903	12.78509	15.18282	0.9168	1.09075	202.40732	185.94767	76.75198	0.31858	 	5.6092699999999997E20	 	4.9436E-21	 	3141.22099	24.76745	 
290.0	1.0	0.0	8.23065	7.15221	-9.75784	12.76149	15.10972	0.91313	1.09513	202.71305	186.08287	76.87619	0.31844	 	9.323629999999999E20	 	2.94799E-21	 	3017.59209	24.72578	 
285.0	1.0	0.0	8.23236	7.15073	-9.77658	12.7379	15.03655	0.90943	1.09959	203.01812	186.21728	77.00018	0.3183	 	1.56393E21	 	1.74189E-21	 	2894.17174	24.68407	 
280.0	1.0	0.0	8.23407	7.14925	-9.79526	12.71431	14.96331	0.90569	1.10413	203.32254	186.35092	77.12394	0.31815	 	2.64795E21	 	1.01958E-21	 	2770.96017	24.64231	 
275.0	1.0	0.0	8.23577	7.14777	-9.81388	12.69073	14.89	0.90193	1.10874	203.62629	186.48378	77.24748	0.31801	 	4.52663E21	 	5.91032E-22	 	2647.95761	24.60051	 
270.0	1.0	0.0	8.23746	7.1463	-9.83243	12.66716	14.81661	0.89813	1.11343	203.92939	186.61587	77.37079	0.31787	 	7.81498E21	 	3.39218E-22	 	2525.16434	24.55865	 
265.0	1.0	0.0	8.23915	7.14483	-9.85093	12.64359	14.74316	0.89429	1.1182	204.23184	186.74718	77.49388	0.31773	 	1.3629699999999998E22	 	1.9271E-22	 	2402.58066	24.51673	 
260.0	1.0	0.0	8.24083	7.14337	-9.86935	12.62003	14.66963	0.89042	1.12306	204.53362	186.87773	77.61675	0.31759	 	2.4020199999999998E22	 	1.08333E-22	 	2280.20692	24.47475	 
255.0	1.0	0.0	8.24251	7.14192	-9.88772	12.59647	14.59602	0.88652	1.12801	204.83475	187.0075	77.73938	0.31745	 	4.27884E22	 	6.02445E-23	 	2158.04348	24.43269	 
250.0	1.0	0.0	8.24419	7.14047	-9.90602	12.57292	14.52233	0.88258	1.13304	205.13522	187.13651	77.8618	0.3173	 	7.70671E22	 	3.31317E-23	 	2036.09073	24.39055	 
245.0	1.0	0.0	8.24586	7.13902	-9.92425	12.54938	14.44857	0.87861	1.13816	205.43503	187.26475	77.98398	0.31716	 	1.4039199999999999E23	 	1.80135E-23	 	1914.34913	24.34832	 
240.0	1.0	0.0	8.24752	7.13758	-9.94242	12.52584	14.37472	0.8746	1.14338	205.73419	187.39222	78.10595	0.31702	 	2.5875799999999998E23	 	9.67915E-24	 	1792.81914	24.306	 
235.0	1.0	0.0	8.24918	7.13615	-9.96053	12.50231	14.30078	0.87056	1.14869	206.03268	187.51894	78.22768	0.31688	 	4.8269199999999994E23	 	5.13817E-24	 	1671.50128	24.26357	 
230.0	1.0	0.0	8.25083	7.13472	-9.97858	12.47878	14.22676	0.86648	1.1541	206.33052	187.6449	78.3492	0.31674	 	9.11649E23	 	2.69374E-24	 	1550.39609	24.22104	 
225.0	1.0	0.0	8.25248	7.13329	-9.99656	12.45526	14.15264	0.86236	1.15961	206.62771	187.7701	78.47048	0.3166	 	1.74393E24	 	1.39418E-24	 	1429.50418	24.17838	 
220.0	1.0	0.0	8.25413	7.13187	-10.01448	12.43175	14.07844	0.8582	1.16522	206.92423	187.89454	78.59154	0.31645	 	3.38021E24	 	7.1207E-25	 	1308.8262	24.1356	 
215.0	1.0	0.0	8.25576	7.13046	-10.03234	12.40824	14.00414	0.85401	1.17095	207.2201	188.01823	78.71238	0.31631	 	6.641170000000001E24	 	3.58753E-25	 	1188.36281	24.09268	 
210.0	1.0	0.0	8.2574	7.12905	-10.05013	12.38474	13.92974	0.84978	1.17678	207.51531	188.14116	78.83299	0.31617	 	1.32317E25	 	1.78218E-25	 	1068.11479	24.04961	 
205.0	1.0	0.0	8.25902	7.12764	-10.06786	12.36125	13.85524	0.84551	1.18273	207.80987	188.26335	78.95337	0.31603	 	2.6745500000000004E25	 	8.72571E-26	 	948.08289	24.00638	 
200.0	1.0	0.0	8.26065	7.12624	-10.08553	12.33776	13.78064	0.84119	1.18879	208.10376	188.38479	79.07353	0.31589	 	5.487100000000001E25	 	4.20865E-26	 	828.26799	23.96298	 
195.0	1.0	0.0	8.26226	7.12485	-10.10313	12.31428	13.70593	0.83684	1.19497	208.397	188.50548	79.19346	0.31575	 	1.14315E26	 	1.9988E-26	 	708.67098	23.9194	 
190.0	1.0	0.0	8.26388	7.12346	-10.12067	12.2908	13.63111	0.83245	1.20128	208.68959	188.62543	79.31317	0.3156	 	2.4196000000000004E26	 	9.34253E-27	 	589.29283	23.87563	 
185.0	1.0	0.0	8.26548	7.12207	-10.13815	12.26733	13.55618	0.82801	1.20771	208.98151	188.74463	79.43265	0.31546	 	5.2058700000000005E26	 	4.29537E-27	 	470.13455	23.83165	 
180.0	1.0	0.0	8.26709	7.12069	-10.15556	12.24387	13.48114	0.82353	1.21428	209.27278	188.86309	79.5519	0.31532	 	1.13916E27	 	1.94152E-27	 	351.19727	23.78746	 
175.0	1.0	0.0	8.26868	7.11932	-10.17291	12.22041	13.40597	0.81901	1.22098	209.5634	188.98082	79.67093	0.31518	 	2.5366899999999996E27	 	8.62269E-28	 	232.48215	23.74302	 
170.0	1.0	0.0	8.27027	7.11795	-10.1902	12.19696	13.33068	0.81445	1.22782	209.85335	189.09781	79.78973	0.31504	 	5.75168E27	 	3.76048E-28	 	113.99043	23.69834	 
165.0	1.0	0.0	8.27186	7.11658	-10.20742	12.17352	13.25527	0.80984	1.23481	210.14265	189.21406	79.90831	0.3149	 	1.32873E28	 	1.60944E-28	 	-4.27656	23.6534	 
160.0	1.0	0.0	8.27344	7.11522	-10.22458	12.15008	13.17972	0.80519	1.24194	210.4313	189.32958	80.02666	0.31476	 	3.12948E28	 	6.75543E-29	 	-122.31741	23.60817	 
155.0	1.0	0.0	8.27502	7.11387	-10.24168	12.12665	13.10404	0.80049	1.24923	210.71929	189.44436	80.14478	0.31462	 	7.51966E28	 	2.77897E-29	 	-240.13063	23.56264	 
150.0	1.0	0.0	8.27659	7.11252	-10.25871	12.10322	13.02822	0.79575	1.25668	211.00662	189.55842	80.26268	0.31448	 	1.8446800000000002E29	 	1.11959E-29	 	-357.7146	23.51679	 
145.0	1.0	0.0	8.27815	7.11117	-10.27569	12.0798	12.95225	0.79096	1.26429	211.2933	189.67175	80.38035	0.31433	 	4.6234400000000006E29	 	4.41422E-30	 	-475.06764	23.47061	 
140.0	1.0	0.0	8.27972	7.10983	-10.2926	12.05639	12.87613	0.78612	1.27207	211.57932	189.78436	80.4978	0.31419	 	1.18486E30	 	1.70187E-30	 	-592.18795	23.42406	 
135.0	1.0	0.0	8.28127	7.10849	-10.30944	12.03298	12.79987	0.78123	1.28003	211.86469	189.89624	80.61502	0.31405	 	3.1073E30	 	6.41097E-31	 	-709.07359	23.37713	 
130.0	1.0	0.0	8.28282	7.10716	-10.32622	12.00958	12.72344	0.7763	1.28817	212.14941	190.0074	80.73201	0.31391	 	8.34612E30	 	2.35759E-31	 	-825.72257	23.32979	 
125.0	1.0	0.0	8.28436	7.10584	-10.34294	11.98619	12.64684	0.77131	1.29649	212.43347	190.11783	80.84878	0.31377	 	2.29807E31	 	8.45609E-32	 	-942.13268	23.28202	 
120.0	1.0	0.0	8.2859	7.10452	-10.3596	11.9628	12.57008	0.76628	1.30501	212.71687	190.22756	80.96532	0.31363	 	6.49279E31	 	2.95538E-32	 	-1058.30164	23.23379	 
115.0	1.0	0.0	8.28744	7.1032	-10.3762	11.93942	12.49314	0.76119	1.31373	212.99962	190.33656	81.08164	0.31349	 	1.88417E32	 	1.00546E-32	 	-1174.22701	23.18507	 
110.0	1.0	0.0	8.28897	7.10189	-10.39273	11.91604	12.41601	0.75605	1.32266	213.28172	190.44485	81.19773	0.31335	 	5.62192E32	 	3.32637E-33	 	-1289.90618	23.13583	 
105.0	1.0	0.0	8.29049	7.10059	-10.4092	11.89267	12.33869	0.75086	1.3318	213.56317	190.55243	81.3136	0.31321	 	1.72665E33	 	1.06892E-33	 	-1405.33641	23.08605	 
100.0	1.0	0.0	8.29201	7.09929	-10.4256	11.86931	12.26118	0.74562	1.34117	213.84396	190.6593	81.42924	0.31307	 	5.46492E33	 	3.33262E-34	 	-1520.51474	23.03567	 
95.0	1.0	0.0	8.29352	7.09799	-10.44195	11.84595	12.18346	0.74032	1.35076	214.1241	190.76547	81.54465	0.31293	 	1.7846600000000001E34	 	1.00683E-34	 	-1635.43806	22.98466	 
90.0	1.0	0.0	8.29503	7.0967	-10.45823	11.8226	12.10553	0.73497	1.3606	214.40359	190.87092	81.65984	0.31278	 	6.021140000000001E34	 	2.9437E-35	 	-1750.10304	22.933	 
85.0	1.0	0.0	8.29653	7.09542	-10.47445	11.79925	12.02737	0.72956	1.37069	214.68243	190.97568	81.7748	0.31264	 	2.10159E35	 	8.3177E-36	 	-1864.50615	22.88062	 
80.0	1.0	0.0	8.29803	7.09414	-10.4906	11.77591	11.94898	0.72409	1.38104	214.96062	191.07973	81.88954	0.3125	 	7.599599999999999E35	 	2.26806E-36	 	-1978.64362	22.82749	 
75.0	1.0	0.0	8.29952	7.09286	-10.50669	11.75258	11.87036	0.71857	1.39165	215.23816	191.18308	82.00405	0.31236	 	2.85146E36	 	5.95917E-37	 	-2092.51144	22.77356	 
70.0	1.0	0.0	8.30101	7.09159	-10.52272	11.72926	11.79148	0.71299	1.40255	215.51505	191.28574	82.11834	0.31222	 	1.11193E37	 	1.50623E-37	 	-2206.10532	22.71878	 
65.0	1.0	0.0	8.30249	7.09033	-10.53869	11.70593	11.71234	0.70735	1.41374	215.79129	191.3877	82.2324	0.31208	 	4.51408E37	 	3.65617E-38	 	-2319.42074	22.66308	 
60.0	1.0	0.0	8.30397	7.08906	-10.5546	11.68262	11.63293	0.70164	1.42522	216.06688	191.48897	82.34624	0.31194	 	1.91128E38	 	8.50751E-39	 	-2432.45282	22.60642	 
55.0	1.0	0.0	8.30544	7.08781	-10.57044	11.65931	11.55324	0.69588	1.43703	216.34183	191.58955	82.45985	0.3118	 	8.456259999999999E38	 	1.894E-39	 	-2545.19638	22.54871	 
50.0	1.0	0.0	8.3069	7.08656	-10.58622	11.63601	11.47325	0.69006	1.44916	216.61613	191.68944	82.57324	0.31166	 	3.9175900000000004E39	 	4.02599E-40	 	-2657.64588	22.4899	 
45.0	1.0	0.0	8.30837	7.08531	-10.60194	11.61272	11.39295	0.68417	1.46163	216.88979	191.78864	82.68641	0.31152	 	1.90453E40	 	8.15325E-41	 	-2769.7954	22.4299	 
40.0	1.0	0.0	8.30982	7.08407	-10.61759	11.58943	11.31232	0.67821	1.47446	217.1628	191.88717	82.79935	0.31138	 	9.7384E40	 	1.56946E-41	 	-2881.63861	22.36864	 
35.0	1.0	0.0	8.31127	7.08284	-10.63319	11.56614	11.23136	0.6722	1.48766	217.43516	191.98501	82.91207	0.31124	 	5.25032E41	 	2.86459E-42	 	-2993.16875	22.30603	 
30.0	1.0	0.0	8.31272	7.08161	-10.64872	11.54287	11.15003	0.66611	1.50125	217.70689	192.08217	83.02457	0.3111	 	2.99241E42	 	4.94451E-43	 	-3104.37857	22.24196	 
25.0	1.0	0.0	8.31415	7.08038	-10.66418	 	11.06834	0.65996	1.51524	217.97797	192.17866	83.13684	0.31096	 	1.80804E43	 	8.04849E-44	 	-3215.2603	 	 
