T (C)	Fraction solid (wt)-TOTAL	Fraction liquid (wt)-LIQUID	Density (g/(cm)^3)-TOTAL	Molar volume (cm^3)-TOTAL	Volume change (%)-  	Average expansion coeff. (10e-6 1/K)-  	Thermal conductivity (W/(m*K))-TOTAL	Electrical resistivity (10e-6 Ohm*m)-TOTAL	Electrical conductivity (10e6 1/(Ohm*m))-TOTAL	Young's modulus (GPa)-TOTAL	Bulk modulus (GPa)-TOTAL	Shear modulus(GPa)-TOTAL	Poisson's ratio-TOTAL	Liquid viscosity (mPa s)-  	Total viscosity (mPa s)-  	Liquid diffusivity (10e-9 (m^2)/s)-  	Total diffusivity (10e-9 (m^2)/s)-  	Surface Tension (mN/m)-  	Enthalpy (J/mole)-TOTAL	Specific heat (J/(mole K))-TOTAL	Latent heat (J/mole)-TOTAL
1400.0	0.0	1.0	7.41558	7.80623	0.0	25.99172	26.7254	1.53383	0.65196	0.0	125.49527	0.0	0.5	8.56349	8.56349	0.95361	0.95361	1807.64568	60176.374	 	0.0
1395.0	0.0	1.0	7.41944	7.80217	-0.0520297	25.94641	26.67206	1.5323	0.65261	0.0	125.67299	0.0	0.5	8.65754	8.65754	0.94043	0.94043	1810.68485	59968.685	41.5378	0.0
1390.0	0.0	1.0	7.42329	7.79812	-0.10391	25.90119	26.61873	1.53077	0.65327	0.0	125.85072	0.0	0.5	8.7532	8.7532	0.92737	0.92737	1813.74765	59761.477	41.4416	0.0
1385.0	0.0	1.0	7.42713	7.79408	-0.15563	25.85605	26.5654	1.52923	0.65392	0.0	126.02844	0.0	0.5	8.8505	8.8505	0.91441	0.91441	1816.83411	59554.747	41.346	0.0
1380.0	0.0	1.0	7.43097	7.79005	-0.2072	25.81099	26.51207	1.52769	0.65458	0.0	126.20617	0.0	0.5	8.94948	8.94948	0.90157	0.90157	1819.94422	59348.495	41.2504	0.0
1375.0	0.0	1.0	7.4348	7.78604	-0.25862	25.76602	26.45874	1.52614	0.65525	0.0	126.38389	0.0	0.5	9.05018	9.05018	0.88885	0.88885	1823.07797	59142.717	41.1556	0.0
1370.0	0.0	1.0	7.43863	7.78204	-0.30988	25.72114	26.40541	1.52458	0.65592	0.0	126.56162	0.0	0.5	9.15264	9.15264	0.87623	0.87623	1826.23535	58937.411	41.0612	0.0
1365.0	0.0	1.0	7.44244	7.77805	-0.36099	25.67634	26.35208	1.52302	0.65659	0.0	126.73934	0.0	0.5	9.25689	9.25689	0.86372	0.86372	1829.41634	58732.576	40.967	0.0
1360.0	0.0	1.0	7.44625	7.77407	-0.41195	25.63163	26.29875	1.52145	0.65727	0.0	126.91707	0.0	0.5	9.36298	9.36298	0.85133	0.85133	1832.62091	58528.21	40.8732	0.0
1355.0	0.0	1.0	7.45005	7.77011	-0.46275	25.587	26.24542	1.51987	0.65795	0.0	127.09479	0.0	0.5	9.47095	9.47095	0.83905	0.83905	1835.84902	58324.31	40.78	0.0
1350.0	0.0	1.0	7.45384	7.76615	-0.51341	25.54247	26.19209	1.51829	0.65864	0.0	127.27252	0.0	0.5	9.58084	9.58084	0.82688	0.82688	1839.10063	58120.875	40.687	0.0
1345.0	0.0	1.0	7.45763	7.76221	-0.5639	25.49803	26.13876	1.5167	0.65933	0.0	127.45024	0.0	0.5	9.69269	9.69269	0.81482	0.81482	1842.37569	57917.902	40.5946	0.0
1340.0	0.0	1.0	7.46141	7.75828	-0.61425	25.45368	26.08543	1.51511	0.66002	0.0	127.62797	0.0	0.5	9.80656	9.80656	0.80287	0.80287	1845.67415	57715.389	40.5026	0.0
1335.0	0.0	1.0	7.46518	7.75436	-0.66444	25.40943	26.0321	1.5135	0.66072	0.0	127.80569	0.0	0.5	9.92249	9.92249	0.79103	0.79103	1848.99595	57513.335	40.4108	0.0
1330.0	0.0	1.0	7.46894	7.75046	-0.71448	25.36526	25.97877	1.5119	0.66142	0.0	127.98342	0.0	0.5	10.04052	10.04052	0.7793	0.7793	1852.34103	57311.738	40.3194	0.0
1326.59	0.0	1.0	7.4715	7.7478	-0.74851	25.33521	25.94241	1.51079	0.6619	0.0	128.10459	0.0	0.5	10.12222	10.12222	0.77137	0.77137	1854.63495	57174.556	40.24219	0.0
1325.0	0.03761	0.96239	7.47824	7.74084	-0.83759	25.1133	26.06605	1.50213	0.66572	1.96841E-4	127.62332	6.58631E-5	0.49432	10.17234	10.80527	0.7668	0.72189	1854.61358	56559.037	386.85367	551.556
1320.0	0.14476	0.85524	7.49754	7.7209	-1.09307	24.48217	26.4177	1.4775	0.67682	0.0437153	126.25004	0.0147883	0.47804	10.32991	37.93505	0.75274	0.20498	1854.57278	54792.351	353.3372	2117.552
1315.0	0.23442	0.76558	7.51405	7.70392	-1.31062	23.95465	26.7098	1.45676	0.68646	0.30398	125.13079	0.1038	0.4643	10.48876	200.47986	0.73902	0.0386641	1854.57833	53287.358	300.9986	3422.306
1310.0	0.31024	0.68976	7.52835	7.68926	-1.49846	23.50834	26.95417	1.439	0.69492	0.94148	124.21766	0.32407	0.45261	10.6489	624.41889	0.72561	0.0123746	1854.63647	51989.967	259.4782	4519.905
1305.0	0.37494	0.62506	7.54088	7.67643	-1.66272	23.12654	27.15949	1.42362	0.70244	2.02599	123.47321	0.70222	0.44256	10.81039	1401.02374	0.71251	0.00549781	1854.75152	50859.156	226.1622	5451.372
1300.0	0.43063	0.56937	7.55199	7.66517	-1.807	22.7996	27.33229	1.41013	0.70915	3.5531	122.86954	1.239	0.43386	10.9734	2586.1168	0.69971	0.00296899	1854.92527	49863.416	199.148	6248.215
1295.0	0.47892	0.52108	7.56192	7.65506	-1.93658	22.51279	27.47741	1.39823	0.71519	5.47535	122.38089	1.91948	0.42626	11.1379	4210.545	0.68718	0.00181776	1855.16102	48978.263	177.0306	6934.911
1290.0	0.52109	0.47891	7.57091	7.64592	-2.05362	22.26029	27.59884	1.38764	0.72065	7.72535	121.99002	2.72098	0.41959	11.30401	6290.19672	0.67492	0.00121289	1855.45911	48184.468	158.759	7530.692
1285.0	0.55814	0.44186	7.57909	7.63764	-2.15961	22.03816	27.69991	1.37815	0.72561	10.23272	121.68217	3.61914	0.4137	11.47181	8835.05547	0.66292	8.60769E-4	1855.81858	47466.773	143.539	8050.811
1280.0	0.5909	0.4091	7.58661	7.63004	-2.257	21.83957	27.78329	1.36961	0.73014	12.93054	121.44472	4.59032	0.40846	11.64132	11852.50072	0.65118	6.39573E-4	1856.24001	46812.963	130.762	8507.484
1275.0	0.62	0.38	7.59356	7.62302	-2.34698	21.66125	27.85115	1.36187	0.73428	15.75978	121.26736	5.61334	0.40378	11.81269	15351.39261	0.63966	4.92212E-4	1856.72233	46213.169	119.9588	8910.576
1271.73	0.6372	0.3628	7.59783	7.61869	-2.40242	21.55391	27.88771	1.35722	0.7368	17.64643	121.18177	6.29782	0.401	11.92597	17894.352	0.63225	4.21372E-4	1857.06762	45847.697	 	9147.734
1270.0	0.64939	0.35061	7.60079	7.61569	-2.44082	21.47007	27.94134	1.35309	0.73905	19.06564	121.19033	6.81371	0.39907	11.96809	19749.89798	0.62932	3.81355E-4	1857.06025	45606.374	121.359	9321.104
1265.0	0.68144	0.31856	7.60886	7.60757	-2.54489	21.2469	28.07584	1.34225	0.74502	23.24277	121.25111	8.33684	0.39398	12.0884	25587.89463	0.62104	2.93394E-4	1857.11938	44955.499	130.175	9776.143
1261.24	0.70255	0.29745	7.61444	7.60196	-2.61671	21.09717	28.1581	1.33505	0.74904	26.3813	121.32803	9.48549	0.39061	12.17859	30404.18865	0.61493	2.46313E-4	1857.24028	44509.444	 	10075.054
1260.0	0.71292	0.28708	7.61728	7.59912	-2.65317	21.00931	28.20046	1.33197	0.75077	28.04741	121.38657	10.09706	0.38889	12.22643	32792.67633	0.61203	2.28189E-4	1856.80204	44292.811	132.5376	10243.425
1255.0	0.75054	0.24946	7.62784	7.58842	-2.79018	20.68362	28.34619	1.3208	0.75712	34.84041	121.63403	12.59962	0.3826	12.42128	43200.3379	0.60046	1.7265E-4	1855.27413	43488.995	160.7632	10852.264
1252.45	0.76676	0.23324	7.6326	7.58361	-2.85176	20.54135	28.40366	1.31593	0.75992	38.15689	121.76817	13.82622	0.37987	12.52152	48772.07102	0.59466	1.52671E-4	1854.61039	43128.064	 	11114.062
1252.45	0.76676	0.23324	7.6326	7.58361	-2.85176	20.54135	28.40366	1.31593	0.75992	38.15689	121.76817	13.82622	0.37987	12.52152	48772.07782	0.59466	1.52671E-4	1854.61039	43127.639	 	11114.487
1250.0	0.79221	0.20779	7.63884	7.57726	-2.93313	20.33736	28.51548	1.30866	0.76414	43.81415	121.91757	15.92415	0.37571	12.66371	57571.07498	0.58704	1.29129E-4	1855.02411	42635.912	170.6166	11510.795
1245.0	0.83396	0.16604	7.64953	7.56633	-3.0732	19.99697	28.68505	1.29666	0.77121	54.51156	122.22583	19.91139	0.36885	12.95267	76019.19293	0.57206	9.74716E-5	1855.71653	41794.735	168.2354	12157.846
1244.2	0.83927	0.16073	7.65098	7.56484	-3.09229	19.95233	28.70446	1.2951	0.77214	56.01076	122.27577	20.47214	0.36798	12.99917	78881.95927	0.56971	9.38846E-5	1855.82698	41681.435	 	12240.071
1244.2	0.83927	0.16073	7.65098	7.56484	-3.09229	19.95233	28.70446	1.2951	0.77214	56.01076	122.27577	20.47214	0.36798	12.99917	78881.94814	0.56971	9.38846E-5	1855.82699	41681.824	 	12239.681
1240.0	0.86798	0.13202	7.65939	7.55631	-3.20159	19.68926	28.72482	1.2906	0.77483	64.87834	123.05051	23.795	0.36328	13.19562	95801.06604	0.55968	7.70901E-5	1855.04108	41060.488	146.8494	12698.392
1235.0	0.8927	0.1073	7.66737	7.54816	-3.30597	19.45222	28.7251	1.28632	0.77741	73.43772	123.82028	27.01523	0.35919	13.42947	115166.4796	0.54812	6.39153E-5	1854.49217	40475.466	117.0044	13090.132
1230.0	0.91055	0.0894497	7.67386	7.5415	-3.39124	19.27178	28.70877	1.28278	0.77955	80.23195	124.47439	29.57964	0.3562	13.66152	134001.3997	0.53702	5.47494E-5	1854.26819	40001.402	94.8128	13371.334
1225.0	0.92394	0.07606	7.67938	7.53582	-3.46404	19.12819	28.68137	1.27974	0.78141	85.71847	125.05129	31.6555	0.35393	13.89191	152767.8553	0.52636	4.78641E-5	1854.31198	39599.396	80.4012	13580.896
1220.0	0.93433	0.0656728	7.68425	7.5308	-3.52833	19.00966	28.64625	1.27703	0.78307	90.24198	125.57498	33.37022	0.35213	14.1211	171863.8688	0.51609	4.24039E-5	1854.57579	39245.959	70.6874	13742.304
1215.0	0.94261	0.0573899	7.68866	7.52625	-3.58661	18.90878	28.60549	1.27457	0.78458	94.04716	126.06087	34.81484	0.35068	14.34993	191616.1922	0.50615	3.79054E-5	1855.02104	38926.585	63.8748	13870.064
1210.0	0.94937	0.0506265	7.69274	7.52205	-3.6404	18.82101	28.56048	1.27229	0.78599	97.3078	126.51925	36.05426	0.34946	14.57897	212303.8357	0.49653	3.40968E-5	1855.61485	38631.777	58.9616	13973.671
1205.0	0.95501	0.0449921	7.69657	7.51811	-3.69093	18.74272	28.51216	1.27015	0.78731	100.14801	126.95671	37.13502	0.34843	14.80927	234172.8447	0.48716	3.08084E-5	1856.33195	38355.35	55.2854	14059.308
1200.0	0.95978	0.040217	7.70021	7.51436	-3.73889	18.67183	28.45975	1.26818	0.78853	102.6586	127.37795	38.09124	0.34754	15.04125	257455.4384	0.47802	2.79275E-5	1857.14894	38092.942	52.4816	14131.334
1195.0	0.96389	0.0361083	7.7037	7.51078	-3.78481	18.60678	28.40628	1.26626	0.78973	104.90731	127.78647	38.9484	0.34675	15.27578	282377.9412	0.46909	2.53762E-5	1858.04553	37841.544	50.2796	14192.759
1190.0	0.96747	0.032527	7.70708	7.50732	-3.82908	18.5464	28.35122	1.2644	0.79089	106.94423	128.18471	39.72539	0.34604	15.51328	309165.9087	0.46033	2.30985E-5	1859.00342	37598.916	48.5256	14245.818
1185.0	0.97063	0.0293688	7.71036	7.50389	-3.87306	18.48642	28.29514	1.26257	0.79203	108.81785	128.57836	40.44073	0.3454	15.7545	338055.4333	0.45174	2.10524E-5	1862.14016	37360.21634	47.73993	14292.192
1180.0	0.97345	0.0265539	7.7139	7.50076	-3.9131	18.43849	28.23585	1.26089	0.79309	110.55122	128.98066	41.10237	0.34483	15.9998	369668.9225	0.44328	1.9186E-5	1865.28779	37127.03511	46.63625	14333.078
1175.0	0.97598	0.0240183	7.71734	7.49769	-3.95252	18.39215	28.17581	1.25922	0.79414	112.1672	129.37543	41.71957	0.3443	16.24991	403930.7949	0.43496	1.74982E-5	1868.44769	36898.77749	45.65152	14369.551
1170.0	0.97829	0.021714	7.72069	7.49465	-3.99138	18.34721	28.11515	1.25758	0.79518	113.68547	129.76356	42.29978	0.34381	16.50516	441134.5577	0.42675	1.59671E-5	1871.6181	36674.82373	44.79075	14402.228
1165.0	0.9804	0.0196014	7.72395	7.49165	-4.02983	18.30319	28.05628	1.25586	0.79627	115.1225	130.14559	42.84924	0.34334	16.76621	481599.3245	0.41865	1.45749E-5	1874.80015	36454.4811	44.06853	14431.795
1160.0	0.98235	0.0176463	7.72713	7.48868	-4.06793	18.25992	27.99493	1.25423	0.7973	116.49182	130.52225	43.3731	0.3429	17.03364	525674.9307	0.41065	1.33064E-5	1877.99281	36237.20493	43.45523	14458.794
1155.0	0.98424	0.0157562	7.73025	7.4857	-4.10602	18.21632	27.93358	1.2526	0.79834	117.84072	130.89602	43.88943	0.34247	17.30875	573911.8727	0.40271	1.21455E-5	1881.18631	36021.04261	43.23246	14485.174
1150.0	0.98692	0.0130798	7.73325	7.48244	-4.14785	18.16006	27.8765	1.25077	0.79951	119.62242	131.29243	44.57193	0.3419	17.60289	628961.4995	0.3946	1.10437E-5	1884.27796	35793.50258	45.50801	14523.421
1145.0	0.98938	0.0106178	7.73618	7.47918	-4.18963	18.10344	27.81899	1.24896	0.80067	121.30962	131.68016	45.21866	0.34137	17.90563	688992.0955	0.38656	1.0046E-5	1887.37689	35569.82228	44.73606	14558.293
1140.0	0.99167	0.00832942	7.73903	7.47591	-4.23152	18.04597	27.76118	1.24714	0.80183	122.92123	132.06009	45.83682	0.34086	18.21803	754567.7859	0.37859	9.14064E-6	1890.48359	35349.79421	44.00561	14589.995
1135.0	0.99381	0.00619014	7.74182	7.47262	-4.27357	17.98745	27.70292	1.24534	0.80299	124.46714	132.43304	46.43017	0.34037	18.54014	826273.6045	0.3707	8.31786E-6	1893.59747	35133.00696	43.35745	14618.934
1125.0	0.99806	0.00194209	7.74748	7.46575	-4.3616	17.85561	27.59105	1.24151	0.80547	127.52807	133.1233	47.60671	0.33939	19.13966	991966.2427	0.35654	6.87929E-6	1899.85367	34700.17123	43.28357	14677.487
1120.0	1.0	0.0	7.75022	7.46229	-4.40593	17.78773	27.53432	1.23962	0.8067	128.97723	133.45787	48.16433	0.33893	 	1086906.233	 	6.25594E-6	 	34487.76907	42.48043	14703.447
1115.0	1.0	0.0	7.75281	7.4598	-4.43783	17.76132	27.46529	1.23828	0.80757	129.39746	133.77603	48.32633	0.33879	 	1182665.299	 	5.72877E-6	 	34318.29653	33.89451	 
1110.0	1.0	0.0	7.75539	7.45732	-4.46963	17.73499	27.39623	1.23693	0.80845	129.81692	134.09294	48.48807	0.33865	 	1287629.011	 	5.24282E-6	 	34152.64953	33.1294	 
1105.0	1.0	0.0	7.75797	7.45484	-4.50133	17.70875	27.32715	1.23557	0.80934	130.23559	134.40862	48.64954	0.33851	 	1402754.772	 	4.79514E-6	 	33987.3728	33.05535	 
1100.0	1.0	0.0	7.76053	7.45238	-4.53295	17.68259	27.25805	1.23421	0.81023	130.65349	134.72306	48.81076	0.33837	 	1529107.149	 	4.38295E-6	 	33822.4636	32.98184	 
1095.0	1.0	0.0	7.7631	7.44992	-4.56446	17.65651	27.18893	1.23284	0.81113	131.07062	135.03627	48.97171	0.33823	 	1667870.356	 	4.00367E-6	 	33657.91929	32.90886	 
1090.0	1.0	0.0	7.76565	7.44746	-4.59588	17.63051	27.11979	1.23147	0.81204	131.48698	135.34827	49.13241	0.33809	 	1820363.062	 	3.65487E-6	 	33493.73723	32.83641	 
1085.0	1.0	0.0	7.76821	7.44502	-4.62721	17.60459	27.05063	1.23009	0.81295	131.90258	135.65906	49.29285	0.33795	 	1988054.257	 	3.33431E-6	 	33329.91481	32.76448	 
1080.0	1.0	0.0	7.77075	7.44258	-4.65845	17.57875	26.98144	1.2287	0.81387	132.31743	135.96864	49.45304	0.33781	 	2172581.919	 	3.03988E-6	 	33166.44947	32.69307	 
1075.0	1.0	0.0	7.77329	7.44015	-4.68959	17.55298	26.91224	1.22731	0.81479	132.73153	136.27702	49.61298	0.33767	 	2375773.548	 	2.76962E-6	 	33003.3387	32.62216	 
1070.0	1.0	0.0	7.77582	7.43772	-4.72065	17.5273	26.84302	1.22591	0.81572	133.14488	136.58422	49.77266	0.33753	 	2599669.741	 	2.5217E-6	 	32840.57998	32.55174	 
1065.0	1.0	0.0	7.77835	7.43531	-4.75161	17.50169	26.77377	1.22451	0.81666	133.5575	136.89023	49.93211	0.33739	 	2846550.487	 	2.29442E-6	 	32678.17089	32.48182	 
1060.0	1.0	0.0	7.78087	7.4329	-4.78248	17.47616	26.70451	1.2231	0.8176	133.96938	137.19506	50.0913	0.33725	 	3118965.63	 	2.0862E-6	 	32516.10896	32.41238	 
1055.0	1.0	0.0	7.78339	7.4305	-4.81326	17.45071	26.63522	1.22168	0.81855	134.38053	137.49872	50.25025	0.33711	 	3419768.389	 	1.89556E-6	 	32354.39185	32.34342	 
1050.0	1.0	0.0	7.7859	7.4281	-4.84395	17.42533	26.56592	1.22025	0.8195	134.79096	137.80122	50.40896	0.33697	 	3752154.284	 	1.72114E-6	 	32193.01717	32.27494	 
1045.0	1.0	0.0	7.7884	7.42571	-4.87455	17.40003	26.49656	1.21883	0.82046	135.20066	138.10257	50.56743	0.33684	 	4119704.888	 	1.56166E-6	 	32031.98261	32.20691	 
1040.0	1.0	0.0	7.7909	7.42333	-4.90506	17.37481	26.42722	1.21739	0.82143	135.60965	138.40276	50.72566	0.3367	 	4526437.614	 	1.41594E-6	 	31871.2859	32.13934	 
1035.0	1.0	0.0	7.79339	7.42095	-4.93548	17.34966	26.35787	1.21594	0.82241	136.01793	138.70182	50.88365	0.33656	 	4976862.227	 	1.28289E-6	 	31710.92478	32.07222	 
1030.0	1.0	0.0	7.79588	7.41859	-4.96581	17.32458	26.28849	1.21449	0.82339	136.42551	138.99973	51.04141	0.33642	 	5476045.147	 	1.16149E-6	 	31550.89702	32.00555	 
1025.0	1.0	0.0	7.79836	7.41623	-4.99605	17.29958	26.21909	1.21303	0.82438	136.83238	139.29651	51.19893	0.33628	 	6029683.141	 	1.05079E-6	 	31391.20046	31.93931	 
1020.0	1.0	0.0	7.80084	7.41387	-5.02621	17.27465	26.14968	1.21157	0.82538	137.23856	139.59217	51.35622	0.33614	 	6644186.798	 	9.49935E-7	 	31231.83294	31.8735	 
1015.0	1.0	0.0	7.80331	7.41152	-5.05628	17.2498	26.08025	1.2101	0.82638	137.64404	139.88671	51.51328	0.33601	 	7326775.744	 	8.58105E-7	 	31072.79234	31.80812	 
1010.0	1.0	0.0	7.80578	7.40918	-5.08626	17.22502	26.0108	1.20862	0.82739	138.04883	140.18014	51.67011	0.33587	 	8085587.58	 	7.74556E-7	 	30914.07659	31.74315	 
1005.0	1.0	0.0	7.80824	7.40685	-5.11616	17.20032	25.94133	1.20713	0.82841	138.45294	140.47246	51.82671	0.33573	 	8929802.754	 	6.98597E-7	 	30755.68363	31.67859	 
1000.0	1.0	0.0	7.81069	7.40452	-5.14597	17.17568	25.87185	1.20564	0.82943	138.85636	140.76368	51.98309	0.33559	 	9869786.575	 	6.29591E-7	 	30597.61146	31.61443	 
995.0	1.0	0.0	7.81314	7.4022	-5.17569	17.15113	25.80234	1.20414	0.83047	139.25911	141.0538	52.13924	0.33545	 	1.091725259E7	 	5.66949E-7	 	30439.85809	31.55067	 
990.0	1.0	0.0	7.81558	7.39989	-5.20533	17.12664	25.73282	1.20263	0.83151	139.66119	141.34284	52.29517	0.33532	 	1.208544952E7	 	5.10128E-7	 	30282.42155	31.48731	 
985.0	1.0	0.0	7.81802	7.39758	-5.23488	17.10223	25.66329	1.20112	0.83256	140.0626	141.63079	52.45088	0.33518	 	1.338937531E7	 	4.58626E-7	 	30125.29994	31.42432	 
980.0	1.0	0.0	7.82045	7.39528	-5.26435	17.07789	25.59373	1.1996	0.83361	140.46334	141.91767	52.60637	0.33504	 	1.484602375E7	 	4.11983E-7	 	29968.49138	31.36171	 
975.0	1.0	0.0	7.82288	7.39299	-5.29373	17.05362	25.52416	1.19807	0.83468	140.86342	142.20347	52.76163	0.3349	 	1.647466698E7	 	3.69774E-7	 	29811.99401	31.29947	 
970.0	1.0	0.0	7.8253	7.3907	-5.32303	17.02942	25.45458	1.19653	0.83575	141.26284	142.4882	52.91668	0.33477	 	1.82971824E7	 	3.31609E-7	 	29655.806	31.2376	 
965.79	1.0	0.0	7.82733	7.38878	-5.34764	17.0091	25.39596	1.19523	0.83666	141.59869	142.72716	53.04708	0.33465	 	2.000049818E7	 	3.0234E-7	 	29524.51579	 	 
965.0	1.0	0.0	7.8279	7.38825	-5.35447	16.99657	25.38251	1.1951	0.83675	141.68494	142.78199	53.08087	0.33461	 	2.03646264E7	 	2.96745E-7	 	29488.75799	33.4096	 
960.0	1.0	0.0	7.83144	7.3849	-5.39729	16.91843	25.29813	1.19425	0.83735	142.2258	143.12592	53.29278	0.33438	 	2.283934844E7	 	2.63523E-7	 	29264.54351	44.8429	 
955.0	1.0	0.0	7.83493	7.38162	-5.43939	16.8423	25.21456	1.19335	0.83798	142.75773	143.46433	53.50121	0.33415	 	2.563331835E7	 	2.33848E-7	 	29044.06154	44.09639	 
950.0	1.0	0.0	7.83836	7.37838	-5.48082	16.76804	25.13202	1.19239	0.83865	143.28139	143.79759	53.70642	0.33393	 	2.879048951E7	 	2.07356E-7	 	28827.06893	43.39852	 
945.0	1.0	0.0	7.84174	7.3752	-5.52161	16.69553	25.05084	1.19136	0.83937	143.79737	144.12605	53.90865	0.33371	 	3.236126322E7	 	1.83722E-7	 	28613.34467	42.74485	 
940.0	1.0	0.0	7.84508	7.37206	-5.56181	16.62462	24.97092	1.19027	0.84014	144.30618	144.44999	54.10809	0.3335	 	3.640348337E7	 	1.62652E-7	 	28402.68748	42.13144	 
935.0	1.0	0.0	7.84838	7.36897	-5.60145	16.55522	24.89216	1.18912	0.84096	144.80832	144.76968	54.30493	0.33329	 	4.098361144E7	 	1.43879E-7	 	28194.91362	41.55477	 
932.92	1.0	0.0	7.84974	7.36769	-5.61779	16.52673	24.85968	1.18862	0.84131	145.01556	144.90163	54.38618	0.3332	 	4.306742214E7	 	1.36681E-7	 	28109.19646	 	 
930.0	1.0	0.0	7.85163	7.36592	-5.64054	16.48725	24.81447	1.1879	0.84182	145.30408	145.08533	54.4993	0.33308	 	4.617836027E7	 	1.27165E-7	 	27989.79781	41.02316	 
925.0	1.0	0.0	7.85484	7.3629	-5.67913	16.42061	24.73775	1.18663	0.84272	145.79391	145.39715	54.69137	0.33288	 	5.207571734E7	 	1.12296E-7	 	27787.20737	40.51809	 
920.0	1.0	0.0	7.85802	7.35993	-5.71724	16.35518	24.6619	1.18532	0.84366	146.27823	145.70537	54.88131	0.33268	 	5.877693528E7	 	9.90774E-8	 	27587.04245	40.03298	 
915.0	1.0	0.0	7.86116	7.35699	-5.7549	16.29087	24.5903	1.18379	0.84475	146.75737	146.01018	55.06924	0.33248	 	6.639904675E7	 	8.73366E-8	 	27389.17244	39.574	 
910.0	1.0	0.0	7.86426	7.35408	-5.79214	16.22762	24.51803	1.18228	0.84582	147.23161	146.31173	55.25528	0.33229	 	7.507722708E7	 	7.69163E-8	 	27193.47681	39.13912	 
905.0	1.0	0.0	7.86734	7.35121	-5.82897	16.16536	24.44404	1.18085	0.84685	147.70123	146.61017	55.43953	0.33209	 	8.496778596E7	 	6.76757E-8	 	26999.84426	38.72651	 
900.0	1.0	0.0	7.87038	7.34836	-5.86541	16.10402	24.37065	1.17938	0.84791	148.16647	146.90564	55.6221	0.3319	 	9.625166364E7	 	5.94884E-8	 	26808.17162	38.33453	 
895.0	1.0	0.0	7.8734	7.34555	-5.90149	16.04354	24.29781	1.17787	0.84899	148.62757	147.19825	55.80307	0.33171	 	1.091385502E8	 	5.22405E-8	 	26618.36323	37.96168	 
890.0	1.0	0.0	7.87639	7.34276	-5.93721	15.98387	24.22549	1.17633	0.8501	149.08472	147.48812	55.98252	0.33153	 	1.238717484E8	 	4.583E-8	 	26430.33015	37.60662	 
885.0	1.0	0.0	7.87936	7.34	-5.97259	15.92495	24.15365	1.17476	0.85124	149.53811	147.77535	56.16053	0.33135	 	1.407338687E8	 	4.01655E-8	 	26243.98953	37.26812	 
880.0	1.0	0.0	7.88229	7.33726	-6.00765	15.86674	24.08226	1.17315	0.8524	149.98793	148.06004	56.33717	0.33116	 	1.600535893E8	 	3.51647E-8	 	26059.26412	36.94508	 
875.0	1.0	0.0	7.88521	7.33455	-6.0424	15.80919	24.01129	1.17152	0.85359	150.43434	148.34226	56.5125	0.33098	 	1.822136159E8	 	3.07542E-8	 	25876.08144	36.63654	 
870.0	1.0	0.0	7.8881	7.33186	-6.07685	15.75226	23.94071	1.16986	0.85481	150.87748	148.62211	56.68658	0.3308	 	2.076600919E8	 	2.68681E-8	 	25694.37413	36.34146	 
865.0	1.0	0.0	7.89097	7.32919	-6.11102	15.6959	23.87051	1.16816	0.85604	151.3175	148.89966	56.85947	0.33063	 	2.369137836E8	 	2.34475E-8	 	25514.07875	36.05908	 
860.0	1.0	0.0	7.89382	7.32654	-6.14491	15.64009	23.80065	1.16645	0.8573	151.75452	149.17496	57.03122	0.33045	 	2.705833015E8	 	2.04396E-8	 	25335.13574	35.7886	 
855.0	1.0	0.0	7.89665	7.32392	-6.17854	15.58477	23.73111	1.1647	0.85859	152.18867	149.4481	57.20187	0.33028	 	3.093808026E8	 	1.77975E-8	 	25157.48905	35.52934	 
853.09	1.0	0.0	7.89773	7.32292	-6.19133	15.56374	23.7046	1.16403	0.85909	152.35395	149.55198	57.26685	0.33021	 	3.257431882E8	 	1.68749E-8	 	25089.88804	 	 
850.0	1.0	0.0	7.89931	7.32145	-6.21017	15.53772	23.66745	1.16266	0.8601	152.58458	149.6825	57.35823	0.3301	 	3.539707287E8	 	1.54866E-8	 	24973.92724	36.71236	 
845.0	1.0	0.0	7.9016	7.31933	-6.23732	15.51028	23.60022	1.16078	0.86149	152.96281	149.93934	57.506	0.32997	 	4.032091984E8	 	1.35349E-8	 	24828.20666	29.14411	 
840.0	1.0	0.0	7.90388	7.31722	-6.26439	15.48284	23.53298	1.15889	0.86289	153.34052	150.1953	57.65361	0.32984	 	4.598346012E8	 	1.18151E-8	 	24679.77084	29.68716	 
835.0	1.0	0.0	7.90616	7.31511	-6.29138	15.45543	23.46572	1.15699	0.86431	153.71771	150.4504	57.80105	0.32971	 	5.250345431E8	 	1.03014E-8	 	24531.5955	29.63507	 
830.0	1.0	0.0	7.90843	7.31301	-6.3183	15.42802	23.39845	1.15508	0.86574	154.09438	150.70462	57.94832	0.32958	 	6.002001833E8	 	8.97068E-9	 	24383.6798	29.58314	 
825.0	1.0	0.0	7.9107	7.31091	-6.34513	15.40063	23.33117	1.15316	0.86718	154.47053	150.95798	58.09542	0.32946	 	6.869632691E8	 	7.80216E-9	 	24236.02296	29.53137	 
820.0	1.0	0.0	7.91296	7.30882	-6.37189	15.37326	23.26388	1.15123	0.86863	154.84616	151.21047	58.24236	0.32933	 	7.872402981E8	 	6.77734E-9	 	24088.62416	29.47976	 
815.0	1.0	0.0	7.91521	7.30674	-6.39858	15.34589	23.19657	1.14929	0.8701	155.22126	151.4621	58.38912	0.3292	 	9.03285252E8	 	5.87964E-9	 	23941.48257	29.42832	 
810.0	1.0	0.0	7.91747	7.30466	-6.42518	15.31855	23.12925	1.14734	0.87158	155.59584	151.71287	58.53571	0.32907	 	1.037752658E9	 	5.09426E-9	 	23794.59737	29.37704	 
805.0	1.0	0.0	7.91971	7.30259	-6.45171	15.29121	23.06192	1.14538	0.87307	155.96991	151.96277	58.68214	0.32894	 	1.193773112E9	 	4.40803E-9	 	23647.96773	29.32593	 
800.0	1.0	0.0	7.92195	7.30053	-6.47817	15.2639	22.99457	1.14341	0.87458	156.34345	152.21183	58.8284	0.32881	 	1.37504385E9	 	3.80917E-9	 	23501.59281	29.27498	 
795.0	1.0	0.0	7.92419	7.29847	-6.50454	15.23659	22.92721	1.14142	0.8761	156.71647	152.46003	58.97448	0.32868	 	1.585937541E9	 	3.28725E-9	 	23355.47177	29.22421	 
790.0	1.0	0.0	7.92642	7.29642	-6.53084	15.2093	22.85984	1.13943	0.87763	157.08897	152.70737	59.1204	0.32855	 	1.831633159E9	 	2.83298E-9	 	23209.60374	29.1736	 
785.0	1.0	0.0	7.92864	7.29437	-6.55706	15.18203	22.79245	1.13742	0.87918	157.46094	152.95387	59.26615	0.32842	 	2.118273649E9	 	2.4381E-9	 	23063.98788	29.12317	 
780.0	1.0	0.0	7.93086	7.29233	-6.58321	15.15476	22.72505	1.13541	0.88074	157.8324	153.19952	59.41173	0.32829	 	2.453156183E9	 	2.09533E-9	 	22918.62332	29.07291	 
775.0	1.0	0.0	7.93307	7.29029	-6.60927	15.12752	22.65763	1.13338	0.88232	158.20334	153.44432	59.55714	0.32816	 	2.844962086E9	 	1.79818E-9	 	22773.50917	29.02283	 
770.0	1.0	0.0	7.93528	7.28827	-6.63526	15.10028	22.5902	1.13134	0.88391	158.57375	153.68828	59.70239	0.32804	 	3.304035166E9	 	1.54095E-9	 	22628.64455	28.97292	 
765.0	1.0	0.0	7.93748	7.28624	-6.66118	15.07307	22.52275	1.12929	0.88551	158.94365	153.93139	59.84746	0.32791	 	3.842719164E9	 	1.31859E-9	 	22484.02855	28.9232	 
760.0	1.0	0.0	7.93968	7.28423	-6.68702	15.04586	22.45529	1.12723	0.88713	159.31302	154.17367	59.99236	0.32778	 	4.475767563E9	 	1.12663E-9	 	22339.66029	28.87365	 
755.0	1.0	0.0	7.94187	7.28221	-6.71278	15.01867	22.38782	1.12515	0.88877	159.68188	154.41511	60.1371	0.32765	 	5.220842102E9	 	9.61175E-10	 	22195.53882	28.82429	 
750.0	1.0	0.0	7.94406	7.28021	-6.73846	14.9915	22.32033	1.12306	0.89042	160.05021	154.65572	60.28166	0.32752	 	6.099120199E9	 	8.18764E-10	 	22051.66322	28.77512	 
745.0	1.0	0.0	7.94624	7.27821	-6.76407	14.96433	22.25282	1.12097	0.89209	160.41802	154.89549	60.42606	0.32739	 	7.136036369E9	 	6.96372E-10	 	21908.03255	28.72613	 
740.0	1.0	0.0	7.94842	7.27622	-6.7896	14.93719	22.1853	1.11886	0.89377	160.78531	155.13443	60.57028	0.32726	 	8.362188731E9	 	5.91344E-10	 	21764.64583	28.67734	 
735.0	1.0	0.0	7.95059	7.27423	-6.81506	14.91005	22.11776	1.11673	0.89547	161.15208	155.37254	60.71434	0.32713	 	9.814449343E9	 	5.01356E-10	 	21621.50211	28.62874	 
730.0	1.0	0.0	7.95276	7.27225	-6.84044	14.88293	22.05021	1.1146	0.89718	161.51833	155.60982	60.85822	0.327	 	1.15373E10	 	4.24373E-10	 	21478.60038	28.58035	 
725.0	1.0	0.0	7.95492	7.27027	-6.86574	14.85583	21.98264	1.11245	0.89891	161.88407	155.84628	61.00194	0.32688	 	1.3584599999999998E10	 	3.5862E-10	 	21335.93963	28.53215	 
720.0	1.0	0.0	7.95707	7.2683	-6.89097	14.82874	21.91505	1.1103	0.90066	162.24928	156.08191	61.14549	0.32675	 	1.6021599999999998E10	 	3.02549E-10	 	21193.51883	28.48416	 
715.0	1.0	0.0	7.95922	7.26634	-6.91612	14.80166	21.84745	1.10812	0.90243	162.61397	156.31673	61.28887	0.32662	 	1.89273E10	 	2.54813E-10	 	21051.33693	28.43638	 
710.0	1.0	0.0	7.96137	7.26438	-6.9412	14.7746	21.77983	1.10594	0.90421	162.97814	156.55072	61.43207	0.32649	 	2.23979E10	 	2.1424E-10	 	20909.39287	28.38881	 
705.0	1.0	0.0	7.96351	7.26243	-6.9662	14.74756	21.71219	1.10374	0.90601	163.34178	156.7839	61.57511	0.32636	 	2.6550499999999996E10	 	1.79812E-10	 	20767.68555	28.34146	 
700.0	1.0	0.0	7.96564	7.26049	-6.99112	14.72052	21.64454	1.10153	0.90783	163.70491	157.01626	61.71798	0.32623	 	3.1528099999999996E10	 	1.5065E-10	 	20626.21384	28.29434	 
695.0	1.0	0.0	7.96777	7.25855	-7.01597	14.6935	21.57687	1.09931	0.90966	164.06752	157.24781	61.86068	0.32611	 	3.75054E10	 	1.2599E-10	 	20484.97659	28.24745	 
690.0	1.0	0.0	7.96989	7.25661	-7.04074	14.6665	21.50918	1.09707	0.91152	164.42961	157.47854	62.00321	0.32598	 	4.46964E10	 	1.05174E-10	 	20343.97265	28.20079	 
685.0	1.0	0.0	7.97201	7.25469	-7.06543	14.63951	21.44147	1.09483	0.91339	164.79118	157.70847	62.14556	0.32585	 	5.336379999999999E10	 	8.76342E-11	 	20203.2008	28.15437	 
680.0	1.0	0.0	7.97412	7.25276	-7.09005	14.61253	21.37375	1.09256	0.91528	165.15223	157.93759	62.28775	0.32572	 	6.383049999999999E10	 	7.28819E-11	 	20062.6598	28.1082	 
675.0	1.0	0.0	7.97623	7.25085	-7.1146	14.58557	21.30601	1.09029	0.91719	165.51276	158.1659	62.42977	0.32559	 	7.64944E10	 	6.0497E-11	 	19922.34837	28.06228	 
670.0	1.0	0.0	7.97833	7.24894	-7.13907	14.55862	21.23824	1.088	0.91912	165.87277	158.39341	62.57162	0.32546	 	9.1847E10	 	5.0119E-11	 	19782.26521	28.01663	 
665.0	1.0	0.0	7.98043	7.24703	-7.16346	14.53169	21.17046	1.0857	0.92107	166.23226	158.62012	62.7133	0.32534	 	1.10496E11	 	4.14393E-11	 	19642.40897	27.97125	 
660.0	1.0	0.0	7.98252	7.24513	-7.18778	14.50477	21.10266	1.08338	0.92304	166.59123	158.84603	62.8548	0.32521	 	1.33195E11	 	3.41939E-11	 	19502.78032	27.92573	 
655.0	1.0	0.0	7.98461	7.24324	-7.21202	14.47787	21.03484	1.08105	0.92503	166.94967	159.07114	62.99614	0.32508	 	1.60881E11	 	2.81578E-11	 	19363.39033	27.878	 
650.0	1.0	0.0	7.98669	7.24136	-7.23619	14.45098	20.96701	1.0787	0.92704	167.3076	159.29546	63.13731	0.32495	 	1.9472E11	 	2.31392E-11	 	19224.25383	27.8273	 
645.0	1.0	0.0	7.98876	7.23947	-7.26028	14.4241	20.89915	1.07634	0.92907	167.66501	159.51898	63.2783	0.32482	 	2.36167E11	 	1.8975E-11	 	19085.36998	27.77677	 
640.0	1.0	0.0	7.99083	7.2376	-7.2843	14.39724	20.83127	1.07397	0.93112	168.0219	159.74171	63.41913	0.32469	 	2.87041E11	 	1.55269E-11	 	18946.73793	27.72641	 
635.0	1.0	0.0	7.99289	7.23573	-7.30824	14.37039	20.76337	1.07158	0.9332	168.37827	159.96365	63.55978	0.32457	 	3.49625E11	 	1.26777E-11	 	18808.35685	27.67622	 
630.0	1.0	0.0	7.99495	7.23387	-7.33211	14.34356	20.69545	1.06918	0.9353	168.73412	160.1848	63.70027	0.32444	 	4.26786E11	 	1.03285E-11	 	18670.22591	27.62619	 
625.0	1.0	0.0	7.99701	7.23201	-7.3559	14.31674	20.62751	1.06676	0.93741	169.08945	160.40516	63.84058	0.32431	 	5.22133E11	 	8.39565E-12	 	18532.34416	27.57635	 
620.0	1.0	0.0	7.99905	7.23016	-7.37962	14.28994	20.55955	1.06433	0.93956	169.44426	160.62474	63.98073	0.32418	 	6.40226E11	 	6.80891E-12	 	18394.71055	27.52672	 
615.0	1.0	0.0	8.0011	7.22831	-7.40326	14.26315	20.49156	1.06188	0.94172	169.79855	160.84354	64.1207	0.32405	 	7.86832E11	 	5.50923E-12	 	18257.32438	27.47724	 
610.0	1.0	0.0	8.00313	7.22647	-7.42683	14.23637	20.42356	1.05942	0.94391	170.15232	161.06155	64.2605	0.32393	 	9.69271E11	 	4.44709E-12	 	18120.18481	27.42791	 
605.0	1.0	0.0	8.00516	7.22464	-7.45032	14.20961	20.35553	1.05695	0.94612	170.50557	161.27879	64.40013	0.3238	 	1.19685E12	 	3.5811E-12	 	17983.29104	27.37875	 
600.0	1.0	0.0	8.00719	7.22281	-7.47374	14.18286	20.28748	1.05445	0.94836	170.8583	161.49525	64.53959	0.32367	 	1.48143E12	 	2.87669E-12	 	17846.64223	27.32976	 
595.0	1.0	0.0	8.00921	7.22099	-7.49708	14.15613	20.2194	1.05194	0.95062	171.21051	161.71093	64.67888	0.32354	 	1.8382E12	 	2.3051E-12	 	17710.2376	27.28093	 
590.0	1.0	0.0	8.01123	7.21917	-7.52035	14.12941	20.15131	1.04942	0.95291	171.5622	161.92584	64.818	0.32341	 	2.28659E12	 	1.8424E-12	 	17574.07632	27.23226	 
585.0	1.0	0.0	8.01324	7.21736	-7.54354	14.1027	20.08319	1.04688	0.95522	171.91337	162.13998	64.95694	0.32329	 	2.8516E12	 	1.46879E-12	 	17438.1576	27.18374	 
580.0	1.0	0.0	8.01524	7.21556	-7.56666	14.07601	20.01504	1.04432	0.95756	172.26402	162.35335	65.09572	0.32316	 	3.56545E12	 	1.16788E-12	 	17302.48062	27.1354	 
575.0	1.0	0.0	8.01724	7.21376	-7.58971	14.04934	19.94687	1.04175	0.95992	172.61415	162.56595	65.23433	0.32303	 	4.46974E12	 	9.2614E-13	 	17167.0446	27.08721	 
570.0	1.0	0.0	8.01923	7.21197	-7.61268	14.02267	19.87868	1.03916	0.96231	172.96377	162.77778	65.37276	0.3229	 	5.61844E12	 	7.32447E-13	 	17031.84873	27.03917	 
565.0	1.0	0.0	8.02122	7.21018	-7.63557	13.99603	19.81046	1.03656	0.96473	173.31286	162.98885	65.51102	0.32278	 	7.08164E12	 	5.77663E-13	 	16896.89223	26.9913	 
560.0	1.0	0.0	8.0232	7.2084	-7.65839	13.96939	19.74222	1.03394	0.96718	173.66143	163.19915	65.64911	0.32265	 	8.95073E12	 	4.54309E-13	 	16762.17431	26.94358	 
555.0	1.0	0.0	8.02518	7.20662	-7.68114	13.94277	19.67395	1.0313	0.96965	174.00948	163.40869	65.78703	0.32252	 	1.13452E13	 	3.56274E-13	 	16627.69418	26.89602	 
550.0	1.0	0.0	8.02715	7.20485	-7.70382	13.91617	19.60566	1.02864	0.97216	174.35702	163.61748	65.92478	0.32239	 	1.44216E13	 	2.78581E-13	 	16493.45108	26.84862	 
545.0	1.0	0.0	8.02912	7.20309	-7.72642	13.88958	19.53734	1.02597	0.97469	174.70403	163.8255	66.06235	0.32227	 	1.83862E13	 	2.17184E-13	 	16359.44421	26.80137	 
540.0	1.0	0.0	8.03108	7.20133	-7.74894	13.863	19.46899	1.02328	0.97725	175.05052	164.03277	66.19976	0.32214	 	2.35108E13	 	1.68807E-13	 	16225.67282	26.75428	 
535.0	1.0	0.0	8.03303	7.19958	-7.77139	13.83644	19.40061	1.02057	0.97985	175.39649	164.23929	66.33699	0.32201	 	3.01552E13	 	1.30803E-13	 	16092.13613	26.70734	 
530.0	1.0	0.0	8.03498	7.19783	-7.79377	13.80989	19.33221	1.01784	0.98247	175.74195	164.44505	66.47405	0.32188	 	3.87975E13	 	1.01037E-13	 	15958.83339	26.66055	 
525.0	1.0	0.0	8.03693	7.19609	-7.81607	13.78336	19.26378	1.0151	0.98512	176.08688	164.65006	66.61094	0.32176	 	5.00745E13	 	7.77955E-14	 	15825.76385	26.61391	 
520.0	1.0	0.0	8.03886	7.19435	-7.8383	13.75684	19.19532	1.01234	0.98781	176.4313	164.85433	66.74766	0.32163	 	6.48375E13	 	5.97057E-14	 	15692.92674	26.56742	 
515.0	1.0	0.0	8.0408	7.19262	-7.86046	13.73034	19.12683	1.00956	0.99053	176.77519	165.05784	66.8842	0.3215	 	8.42287E13	 	4.56705E-14	 	15560.32132	26.52108	 
510.0	1.0	0.0	8.04272	7.1909	-7.88254	13.70385	19.05831	1.00676	0.99328	177.11857	165.26061	67.02058	0.32137	 	1.09785E14	 	3.48167E-14	 	15427.94686	26.47489	 
505.0	1.0	0.0	8.04465	7.18918	-7.90455	13.67737	18.98977	1.00394	0.99607	177.46142	165.46264	67.15678	0.32125	 	1.43585E14	 	2.6451E-14	 	15295.80261	26.42885	 
500.0	1.0	0.0	8.04656	7.18747	-7.92648	13.65091	18.92119	1.00111	0.99889	177.80375	165.66392	67.29281	0.32112	 	1.88443E14	 	2.00249E-14	 	15163.88785	26.38295	 
495.0	1.0	0.0	8.04847	7.18576	-7.94835	13.62446	18.85258	0.99825	1.00175	178.14557	165.86447	67.42867	0.32099	 	2.48192E14	 	1.51059E-14	 	15032.20185	26.3372	 
490.0	1.0	0.0	8.05038	7.18406	-7.97013	13.59803	18.78394	0.99538	1.00464	178.48687	166.06427	67.56435	0.32087	 	3.28067E14	 	1.13536E-14	 	14900.74389	26.29159	 
485.0	1.0	0.0	8.05228	7.18237	-7.99185	13.57161	18.71526	0.99249	1.00757	178.82764	166.26334	67.69986	0.32074	 	4.35248E14	 	8.50169E-15	 	14769.51326	26.24613	 
480.0	1.0	0.0	8.05417	7.18068	-8.01349	13.5452	18.64656	0.98958	1.01053	179.1679	166.46167	67.8352	0.32061	 	5.79616E14	 	6.34202E-15	 	14638.50926	26.2008	 
475.0	1.0	0.0	8.05606	7.17899	-8.03506	13.51881	18.57782	0.98664	1.01354	179.50763	166.65927	67.97037	0.32048	 	7.74832E14	 	4.71268E-15	 	14507.73119	26.15561	 
470.0	1.0	0.0	8.05795	7.17732	-8.05655	13.49244	18.50905	0.98369	1.01658	179.84685	166.85613	68.10537	0.32036	 	1.03985E15	 	3.48813E-15	 	14377.17833	26.11057	 
465.0	1.0	0.0	8.05982	7.17564	-8.07798	13.46607	18.44024	0.98072	1.01966	180.18554	167.05227	68.24019	0.32023	 	1.40109E15	 	2.57138E-15	 	14246.85004	26.06566	 
460.0	1.0	0.0	8.0617	7.17398	-8.09932	13.43973	18.3714	0.97772	1.02278	180.52372	167.24767	68.37484	0.3201	 	1.89551E15	 	1.88779E-15	 	14116.7456	26.02089	 
455.0	1.0	0.0	8.06356	7.17232	-8.1206	13.41339	18.30252	0.97471	1.02594	180.86138	167.44235	68.50932	0.31998	 	2.57506E15	 	1.38013E-15	 	13986.86437	25.97625	 
450.0	1.0	0.0	8.06542	7.17066	-8.1418	13.38707	18.23361	0.97168	1.02915	181.19851	167.63631	68.64362	0.31985	 	3.5131E15	 	1.00467E-15	 	13857.20566	25.93174	 
445.0	1.0	0.0	8.06728	7.16901	-8.16293	13.36077	18.16466	0.96862	1.0324	181.53513	167.82953	68.77776	0.31972	 	4.81363E15	 	7.28164E-16	 	13727.76884	25.88737	 
440.0	1.0	0.0	8.06913	7.16737	-8.18399	13.33448	18.09567	0.96554	1.03569	181.87123	168.02204	68.91171	0.3196	 	6.62479E15	 	5.25407E-16	 	13598.55324	25.84312	 
435.0	1.0	0.0	8.07097	7.16573	-8.20497	13.3082	18.02665	0.96245	1.03902	182.2068	168.21383	69.0455	0.31947	 	9.15862E15	 	3.77383E-16	 	13469.55823	25.799	 
430.0	1.0	0.0	8.07281	7.1641	-8.22588	13.28194	17.95759	0.95933	1.0424	182.54186	168.40489	69.17911	0.31934	 	1.272E16	 	2.69803E-16	 	13340.78318	25.75501	 
425.0	1.0	0.0	8.07465	7.16247	-8.24672	13.25569	17.88848	0.95618	1.04582	182.8764	168.59524	69.31255	0.31922	 	1.7749700000000002E16	 	1.91975E-16	 	13212.22749	25.71114	 
420.0	1.0	0.0	8.07648	7.16085	-8.26749	13.22946	17.81934	0.95302	1.0493	183.21042	168.78488	69.44582	0.31909	 	2.48874E16	 	1.35936E-16	 	13083.89052	25.66739	 
415.0	1.0	0.0	8.0783	7.15923	-8.28818	13.20324	17.75016	0.94983	1.05282	183.54391	168.9738	69.57892	0.31896	 	3.5067300000000004E16	 	9.57783E-17	 	12955.77177	25.62375	 
410.0	1.0	0.0	8.08011	7.15763	-8.3088	13.17703	17.68093	0.94662	1.05639	183.87689	169.162	69.71184	0.31884	 	4.96598E16	 	6.71425E-17	 	12827.87083	25.58019	 
405.0	1.0	0.0	8.08193	7.15602	-8.32935	13.15084	17.61167	0.94339	1.06001	184.20935	169.3495	69.84458	0.31871	 	7.0686400000000008E16	 	4.68249E-17	 	12700.18729	25.53671	 
400.0	1.0	0.0	8.08373	7.15442	-8.34983	13.12467	17.54236	0.94013	1.06368	184.54129	169.53628	69.97716	0.31858	 	1.01145E17	 	3.24829E-17	 	12572.72075	25.49331	 
395.0	1.0	0.0	8.08553	7.15283	-8.37023	13.0985	17.473	0.93686	1.0674	184.87271	169.72236	70.10956	0.31846	 	1.45506E17	 	2.24119E-17	 	12445.47082	25.44999	 
390.0	1.0	0.0	8.08733	7.15124	-8.39056	13.07236	17.4036	0.93355	1.07118	185.2036	169.90773	70.24179	0.31833	 	2.10475E17	 	1.53779E-17	 	12318.43713	25.40674	 
385.0	1.0	0.0	8.08911	7.14966	-8.41082	13.04622	17.33416	0.93023	1.07501	185.53398	170.0924	70.37384	0.3182	 	3.06165E17	 	1.04919E-17	 	12191.6193	25.36356	 
380.0	1.0	0.0	8.0909	7.14809	-8.43101	13.0201	17.26467	0.92687	1.07889	185.86384	170.27636	70.50572	0.31808	 	4.47922E17	 	7.117E-18	 	12065.01701	25.32046	 
375.0	1.0	0.0	8.09268	7.14652	-8.45112	12.994	17.19513	0.9235	1.08284	186.19318	170.45962	70.63743	0.31795	 	6.59172E17	 	4.79914E-18	 	11938.62988	25.27742	 
370.0	1.0	0.0	8.09445	7.14495	-8.47116	12.96791	17.12554	0.9201	1.08684	186.522	170.64218	70.76896	0.31782	 	9.75897E17	 	3.21658E-18	 	11812.45761	25.23445	 
365.0	1.0	0.0	8.09621	7.14339	-8.49113	12.94183	17.0559	0.91667	1.0909	186.85029	170.82405	70.90032	0.3177	 	1.45372E18	 	2.14254E-18	 	11686.49988	25.19155	 
360.0	1.0	0.0	8.09797	7.14184	-8.51103	12.91577	16.98621	0.91322	1.09502	187.17807	171.00521	71.0315	0.31757	 	2.17916E18	 	1.41809E-18	 	11560.7564	25.1487	 
355.0	1.0	0.0	8.09973	7.14029	-8.53086	12.88972	16.91647	0.90974	1.09921	187.50533	171.18568	71.16252	0.31744	 	3.28774E18	 	9.32509E-19	 	11435.22687	25.1059	 
350.0	1.0	0.0	8.10148	7.13875	-8.55061	12.86369	16.84668	0.90624	1.10346	187.83207	171.36546	71.29335	0.31732	 	4.99311E18	 	6.09128E-19	 	11309.91104	25.06317	 
345.0	1.0	0.0	8.10322	7.13721	-8.5703	12.83767	16.77684	0.90271	1.10777	188.15829	171.54454	71.42402	0.31719	 	7.63451E18	 	3.95184E-19	 	11184.80866	25.02048	 
340.0	1.0	0.0	8.10496	7.13568	-8.58991	12.81166	16.70694	0.89916	1.11215	188.48399	171.72294	71.55451	0.31707	 	1.17543E19	 	2.54598E-19	 	11059.91949	24.97783	 
335.0	1.0	0.0	8.1067	7.13416	-8.60945	12.78567	16.63698	0.89558	1.1166	188.80917	171.90064	71.68482	0.31694	 	1.82263E19	 	1.62854E-19	 	10935.24332	24.93524	 
330.0	1.0	0.0	8.10842	7.13264	-8.62892	12.75969	16.56696	0.89197	1.12112	189.13383	172.07766	71.81496	0.31681	 	2.84679E19	 	1.03409E-19	 	10810.77994	24.89268	 
325.0	1.0	0.0	8.11014	7.13112	-8.64831	12.73373	16.49689	0.88833	1.12571	189.45796	172.25399	71.94493	0.31669	 	4.47972E19	 	6.51697E-20	 	10686.52917	24.85015	 
320.0	1.0	0.0	8.11186	7.12961	-8.66764	12.70778	16.42676	0.88466	1.13037	189.78158	172.42963	72.07472	0.31656	 	7.10339E19	 	4.07554E-20	 	10562.49086	24.80766	 
315.0	1.0	0.0	8.11357	7.12811	-8.68689	12.68185	16.35657	0.88097	1.13511	190.10468	172.6046	72.20434	0.31644	 	1.1352299999999998E20	 	2.52866E-20	 	10438.66487	24.7652	 
310.0	1.0	0.0	8.11528	7.12661	-8.70607	12.65593	16.28631	0.87725	1.13993	190.42726	172.77888	72.33378	0.31631	 	1.82892E20	 	1.55622E-20	 	10315.05107	24.72276	 
305.0	1.0	0.0	8.11697	7.12512	-8.72518	12.63003	16.21599	0.8735	1.14482	190.74932	172.95248	72.46305	0.31618	 	2.9709E20	 	9.49814E-21	 	10191.64938	24.68034	 
300.0	1.0	0.0	8.11867	7.12364	-8.74422	12.60413	16.1456	0.86972	1.14979	191.07086	173.1254	72.59215	0.31606	 	4.8669599999999993E20	 	5.74774E-21	 	10068.45973	24.63793	 
295.0	1.0	0.0	8.12036	7.12215	-8.76319	12.57826	16.07515	0.86591	1.15485	191.39188	173.29764	72.72107	0.31593	 	8.042659999999999E20	 	3.44786E-21	 	9945.48205	24.59554	 
290.0	1.0	0.0	8.12204	7.12068	-8.78209	12.5524	16.00463	0.86207	1.15999	191.71238	173.46921	72.84982	0.31581	 	1.34096E21	 	2.04972E-21	 	9822.71633	24.55315	 
285.0	1.0	0.0	8.12372	7.11921	-8.80092	12.52655	15.93404	0.85821	1.16522	192.03236	173.64011	72.97839	0.31568	 	2.25636E21	 	1.20734E-21	 	9700.16257	24.51075	 
280.0	1.0	0.0	8.12539	7.11775	-8.81967	12.50071	15.86338	0.85431	1.17054	192.35183	173.81033	73.10678	0.31555	 	3.83255E21	 	7.04436E-22	 	9577.8208	24.46835	 
275.0	1.0	0.0	8.12705	7.11629	-8.83835	12.47489	15.79264	0.85038	1.17595	192.67077	173.97988	73.235	0.31543	 	6.57301E21	 	4.07026E-22	 	9455.69108	24.42594	 
270.0	1.0	0.0	8.12871	7.11483	-8.85697	12.44909	15.72183	0.84641	1.18145	192.98919	174.14876	73.36305	0.3153	 	1.1385499999999999E22	 	2.32837E-22	 	9333.7735	24.38352	 
265.0	1.0	0.0	8.13037	7.11339	-8.87551	12.4233	15.65094	0.84242	1.18706	193.30709	174.31697	73.49092	0.31518	 	1.9924E22	 	1.3183E-22	 	9212.06817	24.34107	 
260.0	1.0	0.0	8.13201	7.11194	-8.89398	12.39752	15.57997	0.8384	1.19275	193.62447	174.48452	73.61862	0.31505	 	3.5233699999999997E22	 	7.38546E-23	 	9090.57525	24.29859	 
255.0	1.0	0.0	8.13366	7.11051	-8.91238	12.37176	15.50892	0.83434	1.19856	193.94134	174.6514	73.74614	0.31493	 	6.298369999999999E22	 	4.09276E-23	 	8969.29492	24.25607	 
250.0	1.0	0.0	8.13529	7.10908	-8.93071	12.34601	15.43778	0.83025	1.20446	194.25768	174.81762	73.87349	0.3148	 	1.13846E23	 	2.24282E-23	 	8848.22739	24.2135	 
245.0	1.0	0.0	8.13693	7.10765	-8.94897	12.32028	15.36657	0.82612	1.21047	194.57351	174.98317	74.00066	0.31467	 	2.0814799999999997E23	 	1.21498E-23	 	8727.37293	24.17089	 
240.0	1.0	0.0	8.13855	7.10623	-8.96716	12.29456	15.29526	0.82197	1.2166	194.88881	175.14807	74.12766	0.31455	 	3.85063E23	 	6.50428E-24	 	8606.73184	24.12822	 
235.0	1.0	0.0	8.14017	7.10482	-8.98528	12.26885	15.22386	0.81777	1.22283	195.2036	175.3123	74.25448	0.31442	 	7.21023E23	 	3.43977E-24	 	8486.30442	24.08548	 
230.0	1.0	0.0	8.14179	7.10341	-9.00333	12.24316	15.15237	0.81355	1.22918	195.51786	175.47588	74.38113	0.3143	 	1.36704E24	 	1.7964E-24	 	8366.09109	24.04267	 
225.0	1.0	0.0	8.14339	7.10201	-9.02131	12.21748	15.08079	0.80929	1.23566	195.83161	175.6388	74.5076	0.31417	 	2.62536E24	 	9.26099E-25	 	8246.09224	23.99977	 
220.0	1.0	0.0	8.145	7.10061	-9.03922	12.19182	15.00911	0.80499	1.24225	196.14484	175.80107	74.6339	0.31405	 	5.109110000000001E24	 	4.71108E-25	 	8126.30833	23.95678	 
215.0	1.0	0.0	8.1466	7.09922	-9.05705	12.16617	14.93732	0.80066	1.24897	196.45755	175.96268	74.76002	0.31392	 	1.00792E25	 	2.36383E-25	 	8006.73988	23.91369	 
210.0	1.0	0.0	8.14819	7.09783	-9.07482	12.14054	14.86544	0.79629	1.25583	196.76974	176.12364	74.88597	0.3138	 	2.0165600000000003E25	 	1.16939E-25	 	7887.38744	23.87049	 
205.0	1.0	0.0	8.14977	7.09645	-9.09252	12.11492	14.79345	0.79188	1.26281	197.08141	176.28395	75.01174	0.31367	 	4.09352E25	 	5.70104E-26	 	7768.25162	23.82717	 
200.0	1.0	0.0	8.15135	7.09507	-9.11014	12.08931	14.72135	0.78744	1.26994	197.39257	176.44362	75.13733	0.31355	 	8.43492E25	 	2.73782E-26	 	7649.33306	23.78371	 
195.0	1.0	0.0	8.15293	7.0937	-9.1277	12.06372	14.64913	0.78296	1.27721	197.7032	176.60263	75.26276	0.31342	 	1.76511E26	 	1.29449E-26	 	7530.6325	23.74011	 
190.0	1.0	0.0	8.1545	7.09234	-9.14519	12.03815	14.5768	0.77844	1.28462	198.01332	176.761	75.388	0.31329	 	3.7530700000000007E26	 	6.02311E-27	 	7412.15067	23.69637	 
185.0	1.0	0.0	8.15606	7.09098	-9.1626	12.01258	14.50435	0.77388	1.29218	198.32292	176.91873	75.51307	0.31317	 	8.11247E26	 	2.75639E-27	 	7293.8884	23.65245	 
180.0	1.0	0.0	8.15762	7.08962	-9.17995	11.98703	14.43178	0.76929	1.29991	198.632	177.07581	75.63797	0.31304	 	1.78364E27	 	1.24E-27	 	7175.84656	23.60837	 
175.0	1.0	0.0	8.15917	7.08827	-9.19723	11.9615	14.35908	0.76465	1.30779	198.94056	177.23225	75.76269	0.31292	 	3.99113E27	 	5.48043E-28	 	7058.02608	23.5641	 
170.0	1.0	0.0	8.16072	7.08693	-9.21444	11.93598	14.28625	0.75997	1.31584	199.24861	177.38805	75.88723	0.31279	 	9.094469999999999E27	 	2.37826E-28	 	6940.4279	23.51964	 
165.0	1.0	0.0	8.16226	7.08559	-9.23157	11.91047	14.21329	0.75526	1.32405	199.55613	177.54321	76.0116	0.31267	 	2.11165E28	 	1.01271E-28	 	6823.05306	23.47497	 
160.0	1.0	0.0	8.16379	7.08426	-9.24864	11.88498	14.14019	0.7505	1.33245	199.86314	177.69774	76.13579	0.31254	 	4.99935E28	 	4.22874E-29	 	6705.90261	23.43009	 
155.0	1.0	0.0	8.16532	7.08293	-9.26564	11.85951	14.06694	0.7457	1.34103	200.16963	177.85163	76.25981	0.31242	 	1.20767E29	 	1.73036E-29	 	6588.97764	23.38499	 
150.0	1.0	0.0	8.16685	7.08161	-9.28257	11.83404	13.99355	0.74085	1.34979	200.47561	178.00488	76.38365	0.31229	 	2.9787400000000002E29	 	6.93344E-30	 	6472.27925	23.33968	 
145.0	1.0	0.0	8.16836	7.08029	-9.29943	11.8086	13.92	0.73597	1.35875	200.78107	178.15751	76.50732	0.31217	 	7.50748E29	 	2.71847E-30	 	6355.80852	23.29414	 
140.0	1.0	0.0	8.16988	7.07898	-9.31622	11.78316	13.84629	0.73104	1.36792	201.08601	178.3095	76.63082	0.31204	 	1.93497E30	 	1.04213E-30	 	6239.56655	23.2484	 
135.0	1.0	0.0	8.17138	7.07768	-9.33294	11.75774	13.77242	0.72607	1.37729	201.39043	178.46087	76.75413	0.31192	 	5.10419E30	 	3.90283E-31	 	6123.53229	23.20685	 
130.0	1.0	0.0	8.17289	7.07638	-9.34959	11.73234	13.69838	0.72105	1.38687	201.69434	178.61161	76.87728	0.31179	 	1.3792099999999999E31	 	1.42667E-31	 	6007.68355	23.16975	 
125.0	1.0	0.0	8.17438	7.07508	-9.36617	11.70694	13.62417	0.71598	1.39668	201.99774	178.76172	77.00024	0.31167	 	3.82098E31	 	5.0858E-32	 	5892.08313	23.12008	 
120.0	1.0	0.0	8.17587	7.0738	-9.38269	11.68157	13.54977	0.71087	1.40672	202.30061	178.9112	77.12304	0.31154	 	1.08636E32	 	1.76632E-32	 	5776.73262	23.0701	 
115.0	1.0	0.0	8.17735	7.07251	-9.39913	11.65621	13.47518	0.70572	1.417	202.60298	179.06007	77.24565	0.31142	 	3.1729899999999998E32	 	5.9706E-33	 	5661.63387	23.01975	 
110.0	1.0	0.0	8.17883	7.07123	-9.41551	11.63086	13.4004	0.70051	1.42752	202.90482	179.20831	77.3681	0.3113	 	9.53039E32	 	1.96221E-33	 	5546.78898	22.96898	 
105.0	1.0	0.0	8.1803	7.06996	-9.43181	11.60552	13.32541	0.69526	1.4383	203.20615	179.35593	77.49036	0.31117	 	2.94702E33	 	6.26278E-34	 	5432.20029	22.91774	 
100.0	1.0	0.0	8.18177	7.06869	-9.44805	11.5802	13.25022	0.68996	1.44935	203.50697	179.50294	77.61246	0.31105	 	9.3928E33	 	1.93899E-34	 	5317.87041	22.86598	 
95.0	1.0	0.0	8.18323	7.06743	-9.46422	11.5549	13.1748	0.68462	1.46067	203.80728	179.64933	77.73437	0.31092	 	3.0894500000000003E34	 	5.81608E-35	 	5203.80217	22.81365	 
90.0	1.0	0.0	8.18469	7.06617	-9.48032	11.52961	13.09916	0.67922	1.47228	204.10707	179.7951	77.85612	0.3108	 	1.05004E35	 	1.68798E-35	 	5089.99872	22.76069	 
85.0	1.0	0.0	8.18614	7.06492	-9.49635	11.50433	13.02328	0.67377	1.48419	204.40635	179.94026	77.97769	0.31067	 	3.69289E35	 	4.73354E-36	 	4976.46344	22.70705	 
80.0	1.0	0.0	8.18758	7.06368	-9.51231	11.47907	12.94716	0.66827	1.49641	204.70511	180.08482	78.09908	0.31055	 	1.34583E36	 	1.28072E-36	 	4863.20004	22.65268	 
75.0	1.0	0.0	8.18902	7.06244	-9.5282	11.45382	12.87078	0.66272	1.50894	205.00337	180.22876	78.2203	0.31042	 	5.0903599999999997E36	 	3.33814E-37	 	4750.2125	22.59751	 
70.0	1.0	0.0	8.19045	7.0612	-9.54403	11.42858	12.79413	0.65711	1.52181	205.30111	180.37209	78.34135	0.3103	 	2.00144E37	 	8.36813E-38	 	4637.50514	22.54147	 
65.0	1.0	0.0	8.19188	7.05997	-9.55978	11.40336	12.71721	0.65145	1.53503	205.59834	180.51482	78.46222	0.31017	 	8.194449999999999E37	 	2.01408E-38	 	4525.0826	22.48451	 
60.0	1.0	0.0	8.1933	7.05875	-9.57547	11.37816	12.63999	0.64574	1.54861	205.89506	180.65694	78.58292	0.31005	 	3.50004E38	 	4.64573E-39	 	4412.94989	22.42654	 
55.0	1.0	0.0	8.19472	7.05753	-9.59109	11.35297	12.56247	0.63998	1.56256	206.19128	180.79846	78.70345	0.30993	 	1.56258E39	 	1.02499E-39	 	4301.11242	22.36749	 
50.0	1.0	0.0	8.19613	7.05631	-9.60664	11.32779	12.48464	0.63415	1.57691	206.48698	180.93938	78.8238	0.3098	 	7.30663E39	 	2.15861E-40	 	4189.57595	22.30729	 
45.0	1.0	0.0	8.19753	7.0551	-9.62212	11.30263	12.40647	0.62827	1.59166	206.78217	181.0797	78.94398	0.30968	 	3.5863199999999997E40	 	4.32982E-41	 	4078.34675	22.24584	 
40.0	1.0	0.0	8.19893	7.0539	-9.63754	11.27748	12.32796	0.62234	1.60684	207.07686	181.21943	79.06399	0.30955	 	1.85201E41	 	8.25269E-42	 	3967.43149	22.18305	 
35.0	1.0	0.0	8.20032	7.0527	-9.65288	11.25234	12.24909	0.61635	1.62247	207.37104	181.35856	79.18382	0.30943	 	1.00873E42	 	1.49098E-42	 	3856.83738	22.11882	 
30.0	1.0	0.0	8.20171	7.05151	-9.66816	11.22722	12.16983	0.61029	1.63855	207.66472	181.4971	79.30348	0.3093	 	5.810219999999999E42	 	2.54655E-43	 	3746.57217	22.05304	 
25.0	1.0	0.0	8.20309	7.05032	-9.68337	 	12.09018	0.60418	1.65513	207.95789	181.63505	79.42297	0.30918	 	3.5490600000000003E43	 	4.10023E-44	 	3636.64419	 	 
