T (C)	Fraction solid (wt)-TOTAL	Fraction liquid (wt)-LIQUID	Density (g/(cm)^3)-TOTAL	Molar volume (cm^3)-TOTAL	Volume change (%)-  	Average expansion coeff. (10e-6 1/K)-  	Thermal conductivity (W/(m*K))-TOTAL	Electrical resistivity (10e-6 Ohm*m)-TOTAL	Electrical conductivity (10e6 1/(Ohm*m))-TOTAL	Young's modulus (GPa)-TOTAL	Bulk modulus (GPa)-TOTAL	Shear modulus(GPa)-TOTAL	Poisson's ratio-TOTAL	Liquid viscosity (mPa s)-  	Total viscosity (mPa s)-  	Liquid diffusivity (10e-9 (m^2)/s)-  	Total diffusivity (10e-9 (m^2)/s)-  	Surface Tension (mN/m)-  	Enthalpy (J/mole)-TOTAL	Specific heat (J/(mole K))-TOTAL	Latent heat (J/mole)-TOTAL
1400.0	0.0	1.0	7.06318	7.90899	0.0	31.40694	28.30737	1.44811	0.69056	0.0	120.56271	0.0	0.5	6.60023	6.60023	1.23726	1.23726	1732.47712	48865.68	 	0.0
1395.0	0.0	1.0	7.06703	7.90468	-0.0544778	31.37184	28.22943	1.44777	0.69072	0.0	120.7133	0.0	0.5	6.6695	6.6695	1.22076	1.22076	1734.46622	48662.116	40.7128	0.0
1390.0	0.0	1.0	7.07087	7.90038	-0.1088	31.33691	28.15149	1.44743	0.69088	0.0	120.86388	0.0	0.5	6.73991	6.73991	1.20438	1.20438	1736.47607	48459.009	40.6214	0.0
1385.0	0.0	1.0	7.07471	7.8961	-0.16297	31.30216	28.07355	1.44708	0.69105	0.0	121.01447	0.0	0.5	6.8115	6.8115	1.18814	1.18814	1738.50712	48256.359	40.53	0.0
1380.0	0.0	1.0	7.07854	7.89183	-0.21698	31.26758	27.99561	1.44673	0.69121	0.0	121.16506	0.0	0.5	6.88429	6.88429	1.17203	1.17203	1740.55985	48054.162	40.4394	0.0
1375.0	0.0	1.0	7.08236	7.88757	-0.27083	31.23318	27.91768	1.44638	0.69138	0.0	121.31565	0.0	0.5	6.95831	6.95831	1.15606	1.15606	1742.63472	47852.416	40.3492	0.0
1370.0	0.0	1.0	7.08617	7.88332	-0.32453	31.19897	27.83974	1.44603	0.69155	0.0	121.46624	0.0	0.5	7.03358	7.03358	1.14022	1.14022	1744.73221	47651.119	40.2594	0.0
1365.0	0.0	1.0	7.08998	7.87908	-0.37808	31.16493	27.7618	1.44568	0.69172	0.0	121.61683	0.0	0.5	7.11013	7.11013	1.12451	1.12451	1746.85278	47450.27	40.1698	0.0
1360.0	0.0	1.0	7.09379	7.87486	-0.43147	31.13107	27.68386	1.44532	0.69189	0.0	121.76742	0.0	0.5	7.18799	7.18799	1.10893	1.10893	1748.99691	47249.865	40.081	0.0
1355.0	0.0	1.0	7.09758	7.87065	-0.4847	31.0974	27.60592	1.44497	0.69206	0.0	121.91801	0.0	0.5	7.26719	7.26719	1.09349	1.09349	1751.16508	47049.904	39.9922	0.0
1350.0	0.0	1.0	7.10137	7.86645	-0.53778	31.06392	27.52798	1.44461	0.69223	0.0	122.0686	0.0	0.5	7.34776	7.34776	1.07818	1.07818	1753.35775	46850.383	39.9042	0.0
1345.0	0.0	1.0	7.10515	7.86227	-0.5907	31.03063	27.45005	1.44425	0.6924	0.0	122.21919	0.0	0.5	7.42973	7.42973	1.063	1.063	1755.5754	46651.301	39.8164	0.0
1340.0	0.0	1.0	7.10892	7.85809	-0.64347	30.99753	27.37211	1.44388	0.69258	0.0	122.36978	0.0	0.5	7.51312	7.51312	1.04795	1.04795	1757.8185	46452.656	39.729	0.0
1335.0	0.0	1.0	7.11269	7.85393	-0.69608	30.96463	27.29417	1.44352	0.69275	0.0	122.52037	0.0	0.5	7.59799	7.59799	1.03303	1.03303	1760.08752	46254.445	39.6422	0.0
1330.0	0.0	1.0	7.11645	7.84978	-0.74854	30.93192	27.21623	1.44315	0.69293	0.0	122.67096	0.0	0.5	7.68435	7.68435	1.01825	1.01825	1762.38292	46056.667	39.5556	0.0
1325.0	0.0	1.0	7.1202	7.84565	-0.80084	30.89941	27.13829	1.44278	0.6931	0.0	122.82155	0.0	0.5	7.77224	7.77224	1.00359	1.00359	1764.70517	45859.319	39.4696	0.0
1320.0	0.0	1.0	7.12394	7.84152	-0.85299	30.8671	27.06036	1.44241	0.69328	0.0	122.97214	0.0	0.5	7.86169	7.86169	0.98907	0.98907	1767.05473	45662.401	39.3836	0.0
1315.0	0.0	1.0	7.12768	7.83741	-0.90498	30.83499	26.98242	1.44204	0.69346	0.0	123.12273	0.0	0.5	7.95275	7.95275	0.97468	0.97468	1769.43204	45465.908	39.2986	0.0
1311.04	0.0	1.0	7.13063	7.83417	-0.94601	30.80973	26.92073	1.44174	0.69361	0.0	123.24192	0.0	0.5	8.02598	8.02598	0.96338	0.96338	1771.33359	45310.692	39.22211	0.0
1310.0	0.02337	0.97663	7.13671	7.82744	-1.03106	30.58553	26.99552	1.4368	0.69599	2.73834E-5	123.36016	9.14691E-6	0.49686	8.04438	8.30664	0.96054	0.93021	1771.24639	44936.05	359.32057	333.79
1309.92	0.02502	0.97498	7.13714	7.82702	-1.03633	30.57189	27.00086	1.43645	0.69616	3.59482E-5	123.36971	1.20096E-5	0.49665	8.04572	8.3291	0.96034	0.92766	1771.24005	44909.633	 	357.263
1305.0	0.17549	0.82451	7.17623	7.78449	-1.57414	29.10752	27.4931	1.40634	0.71107	0.0879536	124.42588	0.029794	0.47603	8.17437	43.70346	0.94228	0.17625	1770.85606	42497.404	487.7292	2576.791
1300.0	0.29558	0.70442	7.20797	7.75015	-2.00833	27.93948	27.88913	1.38198	0.7236	0.72935	125.31038	0.24989	0.45934	8.30499	298.68191	0.92452	0.0257068	1770.54027	40547.615	389.9578	4331.354
1295.0	0.39157	0.60843	7.23381	7.72243	-2.35882	27.01037	28.2079	1.36202	0.7342	2.30331	126.06831	0.79653	0.44584	8.43607	953.58168	0.90726	0.00802632	1772.6231	38965.26175	316.47065	5718.772
1290.0	0.4696	0.5304	7.25451	7.70042	-2.63711	26.2888	28.4623	1.34554	0.7432	4.86421	126.68815	1.69516	0.43473	8.56792	2085.77361	0.89045	0.0036578	1774.71724	37655.17343	262.01766	6833.534
1285.0	0.53395	0.46605	7.27181	7.68218	-2.86767	25.70417	28.66663	1.33168	0.75093	8.27208	127.24368	2.90149	0.42549	8.70095	3704.02445	0.87404	0.00205316	1776.82226	36552.06224	220.62224	7741.756
1280.0	0.58769	0.41231	7.28656	7.66672	-3.06324	25.21983	28.83384	1.31971	0.75774	12.32029	127.75529	4.34517	0.4177	8.83537	5786.66822	0.85798	0.00131	1778.93872	35608.59483	188.69348	8490.769
1275.0	0.63305	0.36695	7.29932	7.65329	-3.23297	24.80945	28.96902	1.30932	0.76376	16.80211	128.23661	5.95372	0.41106	8.97144	8303.20404	0.84224	9.10026E-4	1781.06762	34790.18984	163.681	9115.152
1270.0	0.67171	0.32829	7.31056	7.64158	-3.38102	24.46136	29.07768	1.30021	0.7691	21.53931	128.69974	7.66329	0.40536	9.10952	11225.41257	0.8268	6.70954E-4	1783.20738	34071.12088	143.81379	9640.629
1265.0	0.70492	0.29508	7.32059	7.63116	-3.51282	24.15981	29.16408	1.29216	0.7739	26.39115	129.14996	9.42261	0.40042	9.24977	14532.41215	0.81162	5.16592E-4	1785.35901	33431.9356	127.83706	10086.651
1260.0	0.73366	0.26634	7.32964	7.62177	-3.63154	23.89567	29.23161	1.28498	0.77822	31.25364	129.59175	11.19319	0.3961	9.3925	18211.87267	0.79669	4.10882E-4	1787.52251	32857.71166	114.84479	10468.136
1255.0	0.75871	0.24129	7.33791	7.61321	-3.73975	23.66154	29.2831	1.27854	0.78214	36.04886	130.02789	12.94572	0.39231	9.53791	22258.3875	0.78199	3.35088E-4	1789.69807	32336.84868	104.1726	10796.683
1250.0	0.78068	0.21932	7.34553	7.60531	-3.83963	23.45115	29.32088	1.27272	0.78572	40.72758	130.46006	14.66129	0.38895	9.68621	26676.95981	0.76749	2.78672E-4	1791.88612	31860.22225	95.32529	11081.414
1245.0	0.80004	0.19996	7.35264	7.59798	-3.93225	23.2614	29.34702	1.26741	0.78901	45.25479	130.89052	16.32613	0.38596	9.83762	31478.12992	0.7532	2.35392E-4	1794.08617	31420.57421	87.92961	11329.585
1240.0	0.81719	0.18281	7.35929	7.59114	-4.01882	23.08886	29.36279	1.26256	0.79204	49.60625	131.31913	17.93053	0.38329	9.99235	36675.84924	0.7391	2.01367E-4	1796.29832	31012.07897	81.69905	11547.02
1235.0	0.83247	0.16753	7.36558	7.58466	-4.10071	22.92945	29.36977	1.25809	0.79486	53.7752	131.74671	19.47127	0.38089	10.1507	42295.56349	0.72516	1.74035E-4	1798.52353	30630.01143	76.41351	11738.441
1230.0	0.84611	0.15389	7.37155	7.57853	-4.17827	22.78225	29.36902	1.25395	0.79748	57.75625	132.17376	20.9457	0.37871	10.31277	48364.57559	0.7114	1.51692E-4	1800.76115	30270.51199	71.89989	11907.705
1225.0	0.85836	0.14164	7.37726	7.57267	-4.25229	22.64493	29.36153	1.25009	0.79994	61.5502	132.60045	22.35358	0.37674	10.47889	54916.4927	0.69779	1.33149E-4	1803.01171	29930.40359	68.02168	12057.988
1220.0	0.8702	0.1298	7.38282	7.56696	-4.32455	22.512	29.35185	1.24633	0.80235	65.41721	133.04418	23.79122	0.37482	10.6521	62228.96513	0.68416	1.17111E-4	1805.26371	29594.89362	67.10199	12204.08
1215.0	0.88292	0.11708	7.38844	7.56107	-4.39902	22.37096	29.34722	1.24236	0.80492	69.78069	133.52714	25.41657	0.37274	10.83582	70807.31511	0.6703	1.02578E-4	1807.50313	29245.59094	69.86054	12364.369
1210.0	0.89419	0.10581	7.39378	7.55545	-4.47006	22.23964	29.33531	1.23868	0.80731	73.8666	134.00253	26.94135	0.37088	11.02301	80010.71479	0.65671	9.0474E-5	1809.7535	28916.64717	65.78875	12504.703
1205.0	0.9042	0.0957995	7.39887	7.55005	-4.53836	22.11594	29.31705	1.23528	0.80954	77.69149	134.47114	28.37113	0.3692	11.21393	89892.58225	0.64335	8.02567E-5	1812.01563	28605.037	62.32203	12628.104
1200.0	0.91313	0.0868745	7.40376	7.54483	-4.60433	21.99864	29.29332	1.2321	0.81163	81.27442	134.93383	29.71251	0.36768	11.40855	100516.1743	0.63024	7.15316E-5	1814.28967	28308.27308	59.35278	12737.056
1195.0	0.92112	0.0788787	7.40846	7.53979	-4.66804	21.88765	29.26466	1.22912	0.81359	84.62866	135.39117	30.97003	0.3663	11.60713	111944.7189	0.61735	6.40108E-5	1816.57474	28024.2991	56.7948	12833.614
1190.0	0.9439	0.0561049	7.41896	7.52877	-4.80735	21.53134	29.21426	1.22704	0.81497	94.46013	136.48325	34.66146	0.36261	11.86278	132769.7825	0.60199	5.37869E-5	1818.85002	27390.57775	126.74427	13280.314
1185.0	0.98777	0.0122267	7.43804	7.50936	-5.05277	20.82754	29.15631	1.22528	0.81614	115.58413	138.47538	42.63147	0.35562	11.99343	171106.6435	0.5934	4.15932E-5	1821.01073	26264.08873	225.2978	14220.173
1180.0	1.0	0.0	7.44573	7.50174	-5.14921	20.60332	29.09134	1.22381	0.81712	122.42255	139.30066	45.22353	0.35353	 	193471.1733	 	3.6659E-5	 	25820.15472	88.7868	14477.866
1175.0	1.0	0.0	7.44822	7.49923	-5.18086	20.58929	29.01315	1.22288	0.81774	122.89214	139.66236	45.40307	0.35335	 	208471.6418	 	3.39042E-5	 	25644.04746	35.22145	 
1170.0	1.0	0.0	7.4507	7.49674	-5.21244	20.57536	28.93495	1.22195	0.81836	123.36085	140.02231	45.58233	0.35317	 	224750.8074	 	3.13399E-5	 	25476.53657	33.50218	 
1165.0	1.0	0.0	7.45318	7.49424	-5.24395	20.56152	28.85675	1.22102	0.81899	123.82869	140.3805	45.76131	0.35298	 	242427.2522	 	2.89541E-5	 	25309.30131	33.44705	 
1160.0	1.0	0.0	7.45565	7.49176	-5.27539	20.54779	28.77855	1.22008	0.81962	124.29566	140.73696	45.94002	0.3528	 	261631.4258	 	2.67355E-5	 	25142.34091	33.39208	 
1158.44	1.0	0.0	7.45643	7.49098	-5.28522	20.54347	28.75409	1.21979	0.81982	124.44147	140.84801	45.99583	0.35275	 	267970.7218	 	2.60746E-5	 	25090.20155	 	 
1155.0	1.0	0.0	7.46031	7.48707	-5.33458	20.44148	28.57786	1.22436	0.81675	125.2038	141.34715	46.29057	0.35237	 	284406.8208	 	2.45087E-5	 	24834.97348	61.47349	 
1150.0	1.0	0.0	7.46587	7.48151	-5.405	20.29667	28.3337	1.23059	0.81262	126.26634	142.02893	46.702	0.35183	 	310373.6224	 	2.23796E-5	 	24471.32623	72.72945	 
1145.0	1.0	0.0	7.4713	7.47607	-5.47374	20.15618	28.10191	1.23638	0.80881	127.28815	142.67587	47.09811	0.35131	 	339017.8683	 	2.04167E-5	 	24116.44386	70.97647	 
1140.0	1.0	0.0	7.47661	7.47076	-5.54086	20.01993	27.88124	1.24177	0.8053	128.27587	143.29589	47.48134	0.3508	 	370637.4053	 	1.86091E-5	 	23769.98299	69.29217	 
1135.0	1.0	0.0	7.4818	7.46558	-5.60639	19.88781	27.67086	1.24679	0.80206	129.23301	143.89297	47.85296	0.35031	 	405564.9637	 	1.69463E-5	 	23431.61186	67.67423	 
1130.0	1.0	0.0	7.48687	7.46051	-5.67041	19.75966	27.47007	1.25144	0.79908	130.16191	144.46965	48.21385	0.34984	 	444172.2716	 	1.54184E-5	 	23101.00901	66.12057	 
1125.0	1.0	0.0	7.49184	7.45557	-5.73297	19.63535	27.27825	1.25575	0.79634	131.06443	145.02778	48.56468	0.34938	 	486875.0849	 	1.4016E-5	 	22777.8615	64.6295	 
1120.0	1.0	0.0	7.49671	7.45073	-5.79412	19.51474	27.09485	1.25973	0.79382	131.9421	145.56883	48.90603	0.34894	 	534138.5655	 	1.27301E-5	 	22461.86428	63.19944	 
1115.0	1.0	0.0	7.50147	7.446	-5.85392	19.39768	26.91933	1.26339	0.79152	132.79634	146.09407	49.23841	0.3485	 	586483.5239	 	1.15523E-5	 	22152.71954	61.82895	 
1110.0	1.0	0.0	7.50613	7.44137	-5.91243	19.28403	26.75118	1.26675	0.78942	133.62842	146.60461	49.5623	0.34809	 	644493.4763	 	1.04746E-5	 	21850.13633	60.51664	 
1105.49	1.0	0.0	7.51026	7.43728	-5.96415	19.1843	26.60543	1.26954	0.78769	134.36102	147.05336	49.84758	0.34772	 	702224.7487	 	9.58211E-6	 	21582.57278	 	 
1105.0	1.0	0.0	7.5107	7.43684	-5.9697	19.17367	26.58994	1.26983	0.78751	134.43956	147.10147	49.87817	0.34768	 	708823.448	 	9.48954E-6	 	21553.82492	59.26228	 
1100.0	1.0	0.0	7.51518	7.43242	-6.02567	19.0668	26.43521	1.27263	0.78578	135.23108	147.58592	50.1865	0.34729	 	780221.5601	 	8.58987E-6	 	21263.45689	58.07361	 
1095.0	1.0	0.0	7.51957	7.42808	-6.08051	18.96291	26.2865	1.27517	0.78421	136.00384	148.0584	50.48762	0.3469	 	859500.2355	 	7.76917E-6	 	20978.82351	56.92668	 
1090.0	1.0	0.0	7.52387	7.42383	-6.13427	18.86188	26.14342	1.27746	0.7828	136.75889	148.51965	50.78193	0.34653	 	947586.3661	 	7.0212E-6	 	20699.6617	55.83236	 
1085.0	1.0	0.0	7.5281	7.41966	-6.187	18.76357	26.00557	1.27952	0.78154	137.49721	148.9704	51.0698	0.34617	 	1045522.452	 	6.34017E-6	 	20425.71627	54.78908	 
1080.0	1.0	0.0	7.53226	7.41557	-6.23873	18.66786	25.87261	1.28136	0.78042	138.21972	149.41132	51.35159	0.34582	 	1154481.959	 	5.72065E-6	 	20156.74038	53.79518	 
1075.0	1.0	0.0	7.53634	7.41155	-6.28953	18.57462	25.7442	1.28299	0.77943	138.92732	149.84301	51.62763	0.34547	 	1275786.835	 	5.15759E-6	 	19892.49578	52.84892	 
1070.0	1.0	0.0	7.54035	7.4076	-6.33942	18.48373	25.62003	1.28443	0.77855	139.62086	150.26606	51.89825	0.34514	 	1410927.601	 	4.64629E-6	 	19632.75324	51.94851	 
1065.0	1.0	0.0	7.5443	7.40372	-6.38845	18.39507	25.49981	1.28568	0.7778	140.30114	150.681	52.16375	0.34481	 	1561586.047	 	4.1824E-6	 	19377.29268	51.09211	 
1062.33	1.0	0.0	7.54638	7.40168	-6.41426	18.34868	25.43724	1.28628	0.77744	140.6586	150.89903	52.30329	0.34464	 	1648880.114	 	3.95309E-6	 	19242.79551	 	 
1062.3	1.0	0.0	7.54643	7.40164	-6.41485	18.3471	25.4361	1.2863	0.77742	140.66335	150.90183	52.30515	0.34464	 	1650046.763	 	3.9502E-6	 	19240.53363	 	 
1060.0	1.0	0.0	7.54821	7.39989	-6.43693	18.3076	25.38288	1.28678	0.77713	140.96934	151.08861	52.42461	0.3445	 	1729731.465	 	3.76172E-6	 	19125.22257	50.41402	 
1055.0	1.0	0.0	7.55204	7.39614	-6.48432	18.22321	25.26973	1.28769	0.77658	141.62557	151.4892	52.68083	0.34419	 	1917430.355	 	3.38076E-6	 	18877.52125	49.54026	 
1050.0	1.0	0.0	7.55581	7.39245	-6.53098	18.14071	25.15977	1.28845	0.77612	142.27067	151.88302	52.93275	0.34388	 	2127130.158	 	3.036E-6	 	18633.51244	48.80176	 
1045.0	1.0	0.0	7.55952	7.38882	-6.57694	18.06	25.05277	1.28907	0.77576	142.90527	152.27047	53.18062	0.34358	 	2361581.528	 	2.72426E-6	 	18393.01217	48.10005	 
1040.0	1.0	0.0	7.56319	7.38524	-6.62222	17.98098	24.94854	1.28954	0.77547	143.52997	152.65193	53.42468	0.34329	 	2623901.4	 	2.44261E-6	 	18155.84584	47.43327	 
1035.0	1.0	0.0	7.56681	7.3817	-6.66687	17.90356	24.84689	1.28989	0.77526	144.14533	153.02773	53.66513	0.34301	 	2917624.718	 	2.18834E-6	 	17921.84792	46.79958	 
1030.0	1.0	0.0	7.57038	7.37822	-6.7109	17.82765	24.74764	1.29011	0.77513	144.75188	153.39819	53.90218	0.34273	 	3246764.002	 	1.95898E-6	 	17690.86174	46.19724	 
1025.0	1.0	0.0	7.57391	7.37478	-6.75436	17.75317	24.65063	1.29022	0.77506	145.35011	153.76361	54.13602	0.34245	 	3615877.976	 	1.75226E-6	 	17462.73915	45.62452	 
1020.0	1.0	0.0	7.57739	7.37139	-6.79726	17.68004	24.55572	1.29022	0.77506	145.94049	154.12425	54.36684	0.34218	 	4030150.488	 	1.56608E-6	 	17237.34024	45.07978	 
1015.0	1.0	0.0	7.58084	7.36804	-6.83963	17.60819	24.46277	1.29011	0.77513	146.52344	154.48037	54.59479	0.34192	 	4495481.387	 	1.39855E-6	 	17014.53294	44.56146	 
1010.0	1.0	0.0	7.58425	7.36473	-6.88149	17.53754	24.37165	1.28991	0.77525	147.09937	154.8322	54.82003	0.34166	 	5018591.543	 	1.24791E-6	 	16794.19266	44.06806	 
1005.0	1.0	0.0	7.58762	7.36146	-6.92288	17.46804	24.28224	1.28961	0.77543	147.66865	155.17994	55.04271	0.3414	 	5607144.1	 	1.11257E-6	 	16576.20198	43.59813	 
1003.67	1.0	0.0	7.58851	7.36059	-6.9338	17.44974	24.25875	1.28952	0.77548	147.81892	155.27173	55.1015	0.34133	 	5775701.165	 	1.07898E-6	 	16518.63187	 	 
1003.4	1.0	0.0	7.58922	7.3599	-6.94252	17.42102	24.2511	1.28965	0.7754	147.8945	155.30635	55.13155	0.34129	 	5818519.575	 	1.07081E-6	 	16486.27355	 	 
1000.0	1.0	0.0	7.59149	7.3577	-6.97032	17.37441	24.19169	1.28938	0.77557	148.27762	155.54058	55.28144	0.34112	 	6278844.924	 	9.89661E-7	 	16339.49977	47.34044	 
995.0	1.0	0.0	7.5948	7.3545	-7.01083	17.30671	24.10556	1.2889	0.77585	148.83613	155.882	55.49997	0.34087	 	7027847.513	 	8.80714E-7	 	16125.40881	42.81819	 
990.0	1.0	0.0	7.59807	7.35133	-7.05091	17.23999	24.02083	1.28835	0.77619	149.38891	156.21984	55.71631	0.34062	 	7872788.839	 	7.83092E-7	 	15913.37958	42.40585	 
985.0	1.0	0.0	7.60132	7.34819	-7.09059	17.17418	23.93741	1.28772	0.77657	149.93626	156.55427	55.93055	0.34038	 	8826795.177	 	6.95691E-7	 	15703.31769	42.01238	 
980.0	1.0	0.0	7.60453	7.34509	-7.12987	17.10923	23.85523	1.28702	0.77699	150.47843	156.88543	56.14281	0.34014	 	9904904.687	 	6.17504E-7	 	15495.13432	41.63667	 
975.0	1.0	0.0	7.60772	7.34201	-7.16877	17.0451	23.77422	1.28625	0.77745	151.01568	157.21346	56.35318	0.3399	 	1.112436273E7	 	5.47619E-7	 	15288.74589	41.27768	 
970.0	1.0	0.0	7.61088	7.33896	-7.20731	16.98173	23.6943	1.28542	0.77795	151.54824	157.53848	56.56175	0.33967	 	1.250496559E7	 	4.85208E-7	 	15084.07371	40.93444	 
965.0	1.0	0.0	7.61401	7.33594	-7.2455	16.91909	23.61541	1.28453	0.7785	152.07632	157.86062	56.76861	0.33944	 	1.406946056E7	 	4.29519E-7	 	14881.04365	40.60601	 
960.0	1.0	0.0	7.61712	7.33295	-7.28335	16.85712	23.5375	1.28358	0.77907	152.60013	158.17996	56.97383	0.33921	 	1.584401183E7	 	3.79872E-7	 	14679.58588	40.29156	 
955.0	1.0	0.0	7.6202	7.32998	-7.32088	16.79581	23.46052	1.28257	0.77969	153.11985	158.49663	57.17749	0.33899	 	1.785874505E7	 	3.3565E-7	 	14479.63455	39.99026	 
950.0	1.0	0.0	7.62327	7.32703	-7.3581	16.73509	23.3844	1.2815	0.78033	153.63566	158.8107	57.37965	0.33876	 	2.014838209E7	 	2.96296E-7	 	14281.1276	39.70139	 
945.0	1.0	0.0	7.6263	7.32411	-7.39502	16.67494	23.30911	1.28039	0.78101	154.14772	159.12228	57.58038	0.33854	 	2.275298641E7	 	2.61306E-7	 	14084.00642	39.42424	 
940.0	1.0	0.0	7.62932	7.32122	-7.43165	16.61533	23.2346	1.27922	0.78173	154.65619	159.43142	57.77975	0.33833	 	2.571882966E7	 	2.30224E-7	 	13888.21574	39.15814	 
935.0	1.0	0.0	7.63232	7.31834	-7.468	16.55623	23.16083	1.27801	0.78247	155.1612	159.73822	57.97779	0.33811	 	2.909941607E7	 	2.02639E-7	 	13693.70334	38.90248	 
930.0	1.0	0.0	7.6353	7.31549	-7.50408	16.4976	23.08777	1.27674	0.78324	155.66289	160.04274	58.17458	0.33789	 	3.29566751E7	 	1.78182E-7	 	13500.41985	38.6567	 
925.0	1.0	0.0	7.63825	7.31266	-7.5399	16.43941	23.01537	1.27544	0.78404	156.16138	160.34504	58.37015	0.33768	 	3.736237021E7	 	1.56518E-7	 	13308.31863	38.42024	 
920.0	1.0	0.0	7.64119	7.30984	-7.57546	16.38164	22.94361	1.27409	0.78488	156.6568	160.64519	58.56455	0.33747	 	4.239974777E7	 	1.37347E-7	 	13117.35553	38.19262	 
915.0	1.0	0.0	7.64411	7.30705	-7.61078	16.32427	22.87245	1.2727	0.78573	157.14924	160.94324	58.75782	0.33726	 	4.816548976E7	 	1.20399E-7	 	12927.48878	37.97335	 
910.0	1.0	0.0	7.64702	7.30428	-7.64586	16.26726	22.80187	1.27126	0.78662	157.6388	161.23924	58.95001	0.33705	 	5.477200004E7	 	1.05431E-7	 	12738.67884	37.76199	 
905.0	1.0	0.0	7.6499	7.30152	-7.6807	16.2106	22.73184	1.26979	0.78753	158.12559	161.53325	59.14114	0.33685	 	6.235011907E7	 	9.22253E-8	 	12550.88822	37.55812	 
900.0	1.0	0.0	7.65277	7.29878	-7.71532	16.15425	22.66233	1.26828	0.78847	158.60969	161.82531	59.33126	0.33665	 	7.105231618E7	 	8.05864E-8	 	12364.0814	37.36136	 
895.0	1.0	0.0	7.65563	7.29606	-7.74972	16.09822	22.59332	1.26673	0.78943	159.09119	162.11547	59.5204	0.33644	 	8.105647843E7	 	7.03392E-8	 	12178.22471	37.17134	 
890.0	1.0	0.0	7.65847	7.29336	-7.78391	16.04246	22.52479	1.26515	0.79042	159.57016	162.40376	59.70859	0.33624	 	9.257038738E7	 	6.13268E-8	 	11993.28619	36.9877	 
885.0	1.0	0.0	7.66129	7.29067	-7.81789	15.98696	22.45671	1.26353	0.79144	160.04668	162.69022	59.89585	0.33604	 	1.058370381E8	 	5.34089E-8	 	11809.23551	36.81014	 
880.0	1.0	0.0	7.6641	7.288	-7.85167	15.93171	22.38908	1.26187	0.79247	160.5208	162.9749	60.08221	0.33584	 	1.211409415E8	 	4.64603E-8	 	11626.04355	36.63839	 
875.0	1.0	0.0	7.66689	7.28534	-7.88524	15.87669	22.32186	1.26019	0.79353	160.99261	163.25782	60.2677	0.33565	 	1.388156379E8	 	4.03689E-8	 	11443.68284	36.47214	 
870.0	1.0	0.0	7.66967	7.2827	-7.91863	15.82188	22.25504	1.25846	0.79462	161.46216	163.53901	60.45235	0.33545	 	1.592526084E8	 	3.50351E-8	 	11262.12806	36.31096	 
865.0	1.0	0.0	7.67244	7.28008	-7.95182	15.76726	22.18861	1.25671	0.79573	161.9295	163.81852	60.63616	0.33526	 	1.829119154E8	 	3.037E-8	 	11081.3546	36.15469	 
860.0	1.0	0.0	7.67519	7.27747	-7.98483	15.71283	22.12255	1.25493	0.79686	162.39468	164.09636	60.81917	0.33506	 	2.103349218E8	 	2.62944E-8	 	10901.33901	36.00312	 
855.0	1.0	0.0	7.67793	7.27487	-8.01766	15.65856	22.05684	1.25311	0.79801	162.85777	164.37257	61.00139	0.33487	 	2.42159429E8	 	2.2738E-8	 	10722.05905	35.85599	 
850.0	1.0	0.0	7.68065	7.27229	-8.05032	15.60444	21.99148	1.25127	0.79919	163.3188	164.64717	61.18285	0.33468	 	2.791378365E8	 	1.96384E-8	 	10543.49355	35.7131	 
845.0	1.0	0.0	7.68286	7.2702	-8.07669	15.57848	21.92665	1.24938	0.8004	163.70714	164.89726	61.33484	0.33454	 	3.176154938E8	 	1.71825E-8	 	10395.44761	29.60919	 
840.0	1.0	0.0	7.68506	7.26812	-8.103	15.55253	21.86182	1.24748	0.80162	164.09481	165.14629	61.48662	0.33439	 	3.618165879E8	 	1.50159E-8	 	10244.60494	30.16853	 
835.0	1.0	0.0	7.68725	7.26605	-8.12923	15.52658	21.79699	1.24557	0.80285	164.48182	165.39425	61.63818	0.33425	 	4.126538578E8	 	1.31069E-8	 	10093.98846	30.12329	 
830.0	1.0	0.0	7.68944	7.26398	-8.1554	15.50064	21.73214	1.24365	0.80408	164.86815	165.64116	61.78951	0.33411	 	4.711952793E8	 	1.14267E-8	 	9943.59748	30.0782	 
825.0	1.0	0.0	7.69163	7.26191	-8.18149	15.4747	21.66729	1.24172	0.80534	165.25381	165.88702	61.94063	0.33397	 	5.38692101E8	 	9.94965E-9	 	9793.4313	30.03324	 
820.0	1.0	0.0	7.69381	7.25985	-8.20752	15.44876	21.60243	1.23978	0.8066	165.63881	166.13182	62.09152	0.33383	 	6.166122359E8	 	8.65275E-9	 	9643.48917	29.98843	 
815.0	1.0	0.0	7.69598	7.2578	-8.23347	15.42283	21.53756	1.23782	0.80787	166.02314	166.37557	62.2422	0.33369	 	7.0668009E8	 	7.51541E-9	 	9493.77035	29.94376	 
810.0	1.0	0.0	7.69816	7.25575	-8.25936	15.39691	21.47269	1.23586	0.80916	166.4068	166.61828	62.39265	0.33354	 	8.109241342E8	 	6.51921E-9	 	9344.27408	29.89925	 
805.0	1.0	0.0	7.70032	7.25371	-8.28518	15.37098	21.40781	1.23388	0.81045	166.78979	166.85995	62.54288	0.3334	 	9.317338084E8	 	5.64773E-9	 	9194.99959	29.8549	 
800.0	1.0	0.0	7.70249	7.25168	-8.31092	15.34506	21.34292	1.23189	0.81176	167.17212	167.10058	62.6929	0.33326	 	1.071927687E9	 	4.88632E-9	 	9045.94608	29.8107	 
795.0	1.0	0.0	7.70464	7.24965	-8.3366	15.31915	21.27803	1.22989	0.81308	167.55377	167.34018	62.84269	0.33312	 	1.234835255E9	 	4.22192E-9	 	8897.11274	29.76667	 
790.0	1.0	0.0	7.7068	7.24762	-8.36221	15.29324	21.21312	1.22788	0.81441	167.93476	167.57874	62.99227	0.33298	 	1.424395165E9	 	3.64293E-9	 	8748.49873	29.7228	 
785.0	1.0	0.0	7.70894	7.2456	-8.38775	15.26734	21.14821	1.22586	0.81576	168.31509	167.81627	63.14162	0.33284	 	1.645273461E9	 	3.13903E-9	 	8600.10319	29.67911	 
780.0	1.0	0.0	7.71109	7.24359	-8.41321	15.24143	21.08329	1.22382	0.81711	168.69475	168.05278	63.29075	0.3327	 	1.90300607E9	 	2.70108E-9	 	8451.92525	29.63559	 
775.0	1.0	0.0	7.71323	7.24158	-8.43861	15.21554	21.01836	1.22177	0.81848	169.07374	168.28826	63.43966	0.33256	 	2.204170784E9	 	2.32095E-9	 	8303.96399	29.59225	 
770.0	1.0	0.0	7.71536	7.23957	-8.46394	15.18964	20.95342	1.21971	0.81986	169.45206	168.52273	63.58836	0.33241	 	2.556595188E9	 	1.99146E-9	 	8156.21848	29.5491	 
765.0	1.0	0.0	7.71749	7.23758	-8.4892	15.16375	20.88847	1.21764	0.82126	169.82972	168.75617	63.73683	0.33227	 	2.969608436E9	 	1.70627E-9	 	8008.68779	29.50614	 
760.0	1.0	0.0	7.71962	7.23558	-8.51439	15.13787	20.82352	1.21556	0.82267	170.20672	168.98861	63.88508	0.33213	 	3.454346616E9	 	1.45977E-9	 	7861.37088	29.46338	 
755.0	1.0	0.0	7.72174	7.2336	-8.53951	15.11199	20.75856	1.21346	0.82409	170.58305	169.22003	64.03311	0.33199	 	4.024123741E9	 	1.24702E-9	 	7714.26677	29.42082	 
750.0	1.0	0.0	7.72385	7.23162	-8.56456	15.08611	20.69358	1.21135	0.82553	170.95871	169.45044	64.18093	0.33185	 	4.694883195E9	 	1.06366E-9	 	7567.37438	29.37848	 
745.0	1.0	0.0	7.72596	7.22964	-8.58954	15.06024	20.6286	1.20923	0.82697	171.33371	169.67985	64.32852	0.33171	 	5.485748035E9	 	9.05863E-10	 	7420.69262	29.33635	 
740.0	1.0	0.0	7.72807	7.22767	-8.61445	15.03437	20.56361	1.20709	0.82844	171.70805	169.90826	64.47589	0.33157	 	6.419692938E9	 	7.70276E-10	 	7274.22036	29.29445	 
735.0	1.0	0.0	7.73017	7.22571	-8.6393	15.00851	20.49861	1.20494	0.82991	172.08172	170.13566	64.62304	0.33143	 	7.524366124E9	 	6.53946E-10	 	7127.95644	29.25278	 
730.0	1.0	0.0	7.73227	7.22375	-8.66407	14.98265	20.4336	1.20278	0.83141	172.45472	170.36207	64.76997	0.33129	 	8.833096492E9	 	5.54293E-10	 	6981.89963	29.21136	 
725.0	1.0	0.0	7.73436	7.22179	-8.68877	14.95679	20.36858	1.20061	0.83291	172.82707	170.58749	64.91668	0.33115	 	1.03861E10	 	4.6906E-10	 	6836.04865	29.1702	 
720.0	1.0	0.0	7.73645	7.21984	-8.71341	14.93094	20.30355	1.19842	0.83443	173.19875	170.81191	65.06317	0.331	 	1.2232099999999998E10	 	3.96277E-10	 	6690.4022	29.12929	 
715.0	1.0	0.0	7.73853	7.2179	-8.73797	14.9051	20.23851	1.19622	0.83597	173.56976	171.03535	65.20945	0.33086	 	1.4430099999999998E10	 	3.34225E-10	 	6544.95891	29.08866	 
710.0	1.0	0.0	7.74061	7.21596	-8.76247	14.87925	20.17346	1.194	0.83752	173.94012	171.2578	65.3555	0.33072	 	1.7051699999999998E10	 	2.81409E-10	 	6399.71735	29.04831	 
705.0	1.0	0.0	7.74268	7.21403	-8.78689	14.85341	20.1084	1.19177	0.83908	174.30981	171.47927	65.50133	0.33058	 	2.0184E10	 	2.36529E-10	 	6254.67602	29.00826	 
700.0	1.0	0.0	7.74475	7.21211	-8.81125	14.82758	20.04333	1.18953	0.84067	174.67884	171.69976	65.64694	0.33044	 	2.3933199999999996E10	 	1.98457E-10	 	6109.83339	28.96853	 
695.0	1.0	0.0	7.74681	7.21019	-8.83553	14.80175	19.97824	1.18728	0.84226	175.0472	171.91928	65.79233	0.3303	 	2.8428599999999996E10	 	1.66216E-10	 	5965.18781	28.92912	 
690.0	1.0	0.0	7.74887	7.20827	-8.85975	14.77592	19.91315	1.185	0.84388	175.41491	172.13782	65.9375	0.33016	 	3.3828899999999996E10	 	1.38961E-10	 	5820.73759	28.89004	 
685.0	1.0	0.0	7.75092	7.20636	-8.8839	14.7501	19.84805	1.18272	0.84551	175.78195	172.35539	66.08245	0.33002	 	4.03282E10	 	1.15961E-10	 	5676.48093	28.85133	 
680.0	1.0	0.0	7.75297	7.20446	-8.90798	14.72429	19.78293	1.18042	0.84716	176.14833	172.57199	66.22718	0.32988	 	4.816479999999999E10	 	9.65869E-11	 	5532.41599	28.81299	 
675.0	1.0	0.0	7.75501	7.20256	-8.93199	14.69847	19.7178	1.17811	0.84882	176.51405	172.78762	66.37169	0.32974	 	5.763209999999999E10	 	8.0297E-11	 	5388.54078	28.77504	 
670.0	1.0	0.0	7.75705	7.20066	-8.95593	14.67266	19.65267	1.17578	0.8505	176.8791	173.0023	66.51598	0.3296	 	6.90916E10	 	6.66257E-11	 	5244.85326	28.7375	 
665.0	1.0	0.0	7.75909	7.19878	-8.9798	14.64686	19.58752	1.17343	0.8522	177.2435	173.21601	66.66005	0.32946	 	8.29901E10	 	5.51738E-11	 	5101.35125	28.7004	 
660.0	1.0	0.0	7.76112	7.19689	-9.0036	14.62106	19.52235	1.17108	0.85391	177.60723	173.42877	66.8039	0.32932	 	9.988019999999998E10	 	4.55993E-11	 	4958.03774	28.6627	 
655.0	1.0	0.0	7.76314	7.19502	-9.02733	14.59526	19.45718	1.1687	0.85565	177.97031	173.64057	66.94753	0.32918	 	1.20448E11	 	3.76101E-11	 	4814.94183	28.61918	 
650.0	1.0	0.0	7.76516	7.19314	-9.051	14.56947	19.39199	1.16632	0.8574	178.33272	173.85142	67.09094	0.32904	 	1.45546E11	 	3.09569E-11	 	4672.1022	28.56793	 
645.0	1.0	0.0	7.76718	7.19128	-9.07459	14.54368	19.32679	1.16391	0.85917	178.69448	174.06132	67.23413	0.3289	 	1.76237E11	 	2.54274E-11	 	4529.51796	28.51685	 
640.0	1.0	0.0	7.76919	7.18942	-9.09812	14.5179	19.26158	1.16149	0.86096	179.05557	174.27027	67.3771	0.32876	 	2.13848E11	 	2.08413E-11	 	4387.1882	28.46595	 
635.0	1.0	0.0	7.77119	7.18756	-9.12157	14.49212	19.19635	1.15906	0.86277	179.416	174.47828	67.51985	0.32862	 	2.60037E11	 	1.70455E-11	 	4245.11203	28.41524	 
630.0	1.0	0.0	7.77319	7.18571	-9.14496	14.46634	19.13111	1.15661	0.8646	179.77578	174.68535	67.66238	0.32848	 	3.16889E11	 	1.39104E-11	 	4103.28855	28.3647	 
625.0	1.0	0.0	7.77519	7.18387	-9.16828	14.44057	19.06586	1.15414	0.86645	180.13489	174.89148	67.80469	0.32834	 	3.87022E11	 	1.13266E-11	 	3961.71643	28.31442	 
620.0	1.0	0.0	7.77718	7.18203	-9.19152	14.4148	19.0006	1.15166	0.86831	180.49335	175.09667	67.94678	0.3282	 	4.73736E11	 	9.20185E-12	 	3820.39366	28.26455	 
615.0	1.0	0.0	7.77916	7.1802	-9.2147	14.38904	18.93532	1.14916	0.8702	180.85114	175.30094	68.08865	0.32806	 	5.81199E11	 	7.45844E-12	 	3679.31995	28.21474	 
610.0	1.0	0.0	7.78115	7.17837	-9.23781	14.36328	18.87002	1.14664	0.87211	181.20828	175.50427	68.2303	0.32792	 	7.14692E11	 	6.03118E-12	 	3538.49442	28.16511	 
605.0	1.0	0.0	7.78312	7.17655	-9.26085	14.33753	18.80471	1.14411	0.87404	181.56476	175.70667	68.37172	0.32778	 	8.80918E11	 	4.86541E-12	 	3397.91621	28.11564	 
600.0	1.0	0.0	7.78509	7.17473	-9.28383	14.31178	18.73939	1.14156	0.87599	181.92057	175.90815	68.51293	0.32764	 	1.08841E12	 	3.91546E-12	 	3257.58447	28.06635	 
595.0	1.0	0.0	7.78706	7.17292	-9.30673	14.28603	18.67405	1.139	0.87797	182.27574	176.1087	68.65392	0.3275	 	1.34805E12	 	3.14322E-12	 	3117.49833	28.01723	 
590.0	1.0	0.0	7.78902	7.17111	-9.32956	14.26029	18.6087	1.13641	0.87996	182.63024	176.30833	68.79469	0.32736	 	1.67378E12	 	2.51695E-12	 	2977.65695	27.96828	 
585.0	1.0	0.0	7.79098	7.16931	-9.35233	14.23455	18.54333	1.13381	0.88198	182.98408	176.50705	68.93523	0.32722	 	2.08346E12	 	2.01032E-12	 	2838.05946	27.9195	 
580.0	1.0	0.0	7.79293	7.16752	-9.37502	14.20882	18.47794	1.1312	0.88402	183.33727	176.70485	69.07556	0.32708	 	2.60008E12	 	1.6015E-12	 	2698.70503	27.87089	 
575.0	1.0	0.0	7.79487	7.16573	-9.39765	14.18309	18.41254	1.12856	0.88608	183.6898	176.90174	69.21567	0.32694	 	3.25328E12	 	1.27244E-12	 	2559.5928	27.82245	 
570.0	1.0	0.0	7.79681	7.16394	-9.42021	14.15736	18.34713	1.12591	0.88817	184.04167	177.09771	69.35555	0.3268	 	4.08142E12	 	1.00828E-12	 	2420.72194	27.77417	 
565.0	1.0	0.0	7.79875	7.16216	-9.4427	14.13164	18.28169	1.12324	0.89028	184.39288	177.29278	69.49522	0.32666	 	5.13424E12	 	7.96768E-13	 	2282.09161	27.72607	 
560.0	1.0	0.0	7.80068	7.16039	-9.46512	14.10593	18.21624	1.12055	0.89242	184.74344	177.48695	69.63466	0.32652	 	6.47646E12	 	6.27874E-13	 	2143.70097	27.67813	 
555.0	1.0	0.0	7.80261	7.15862	-9.48747	14.08021	18.15078	1.11784	0.89458	185.09334	177.68021	69.77389	0.32638	 	8.19251E12	 	4.93377E-13	 	2005.5492	27.63036	 
550.0	1.0	0.0	7.80453	7.15686	-9.50975	14.05451	18.08529	1.11511	0.89677	185.44258	177.87257	69.91289	0.32624	 	1.03929E13	 	3.86571E-13	 	1867.63546	27.58275	 
545.0	1.0	0.0	7.80645	7.1551	-9.53197	14.0288	18.01979	1.11237	0.89898	185.79116	178.06403	70.05168	0.3261	 	1.32226E13	 	3.01996E-13	 	1729.95892	27.53531	 
540.0	1.0	0.0	7.80836	7.15335	-9.55411	14.0031	17.95427	1.10961	0.90122	186.13909	178.2546	70.19024	0.32596	 	1.68728E13	 	2.35218E-13	 	1592.51878	27.48803	 
535.0	1.0	0.0	7.81026	7.15161	-9.57619	13.97741	17.88873	1.10682	0.90349	186.48637	178.44427	70.32858	0.32582	 	2.15955E13	 	1.82648E-13	 	1455.31422	27.44091	 
530.0	1.0	0.0	7.81216	7.14987	-9.5982	13.95171	17.82318	1.10402	0.90578	186.83298	178.63306	70.4667	0.32568	 	2.77253E13	 	1.41386E-13	 	1318.34442	27.39396	 
525.0	1.0	0.0	7.81406	7.14813	-9.62013	13.92603	17.7576	1.1012	0.9081	187.17894	178.82095	70.60461	0.32554	 	3.57066E13	 	1.09099E-13	 	1181.60857	27.34717	 
520.0	1.0	0.0	7.81595	7.1464	-9.642	13.90034	17.692	1.09836	0.91045	187.52424	179.00796	70.74229	0.3254	 	4.61324E13	 	8.39142E-14	 	1045.10588	27.30054	 
515.0	1.0	0.0	7.81784	7.14468	-9.6638	13.87467	17.62639	1.0955	0.91283	187.86889	179.19409	70.87975	0.32526	 	5.97965E13	 	6.4331E-14	 	908.83555	27.25407	 
510.0	1.0	0.0	7.81972	7.14296	-9.68554	13.84899	17.56075	1.09262	0.91523	188.21289	179.37933	71.01699	0.32513	 	7.77648E13	 	4.91528E-14	 	772.79676	27.20776	 
505.0	1.0	0.0	7.8216	7.14125	-9.7072	13.82332	17.4951	1.08972	0.91767	188.55622	179.5637	71.15401	0.32499	 	1.01475E14	 	3.74277E-14	 	636.98876	27.1616	 
500.0	1.0	0.0	7.82347	7.13954	-9.7288	13.79765	17.42942	1.08679	0.92014	188.8989	179.74719	71.2908	0.32485	 	1.3286999999999998E14	 	2.84004E-14	 	501.41074	27.1156	 
495.0	1.0	0.0	7.82533	7.13783	-9.75032	13.77199	17.36372	1.08385	0.92264	189.24093	179.92981	71.42738	0.32471	 	1.7459E14	 	2.1474E-14	 	366.06193	27.06976	 
490.0	1.0	0.0	7.82719	7.13614	-9.77178	13.74633	17.29801	1.08089	0.92517	189.5823	180.11155	71.56374	0.32457	 	2.30232E14	 	1.61782E-14	 	230.94156	27.02408	 
485.0	1.0	0.0	7.82905	7.13445	-9.79317	13.72068	17.23226	1.0779	0.92773	189.92302	180.29243	71.69988	0.32443	 	3.04718E14	 	1.21435E-14	 	96.04885	26.97854	 
480.0	1.0	0.0	7.8309	7.13276	-9.81449	13.69503	17.1665	1.07489	0.93032	190.26308	180.47244	71.83579	0.32429	 	4.04805E14	 	9.08076E-15	 	-38.61696	26.93316	 
475.0	1.0	0.0	7.83275	7.13108	-9.83574	13.66939	17.10072	1.07187	0.93295	190.60248	180.65158	71.97148	0.32415	 	5.3981199999999994E14	 	6.76445E-15	 	-173.05661	26.88793	 
470.0	1.0	0.0	7.83459	7.1294	-9.85692	13.64374	17.03491	1.06882	0.93561	190.94123	180.82987	72.10696	0.32401	 	7.22639E14	 	5.01928E-15	 	-307.27087	26.84285	 
465.0	1.0	0.0	7.83642	7.12773	-9.87804	13.61811	16.96907	1.06574	0.93831	191.27933	181.00729	72.24221	0.32388	 	9.71217E14	 	3.7095E-15	 	-441.26047	26.79792	 
460.0	1.0	0.0	7.83825	7.12607	-9.89908	13.59247	16.90322	1.06265	0.94105	191.61677	181.18385	72.37724	0.32374	 	1.31058E15	 	2.73034E-15	 	-575.02616	26.75314	 
455.0	1.0	0.0	7.84008	7.12441	-9.92006	13.56685	16.83733	1.05953	0.94381	191.95356	181.35956	72.51205	0.3236	 	1.77581E15	 	2.0013E-15	 	-708.56868	26.7085	 
450.0	1.0	0.0	7.8419	7.12276	-9.94097	13.54122	16.77143	1.05639	0.94662	192.2897	181.53442	72.64664	0.32346	 	2.41632E15	 	1.4607E-15	 	-841.88873	26.66401	 
445.0	1.0	0.0	7.84371	7.12111	-9.96181	13.5156	16.70549	1.05323	0.94946	192.62518	181.70842	72.78101	0.32332	 	3.30198E15	 	1.06152E-15	 	-974.98704	26.61966	 
440.0	1.0	0.0	7.84552	7.11947	-9.98258	13.48999	16.63954	1.05004	0.95234	192.96001	181.88158	72.91516	0.32318	 	4.53207E15	 	7.68017E-16	 	-1107.86432	26.57546	 
435.0	1.0	0.0	7.84733	7.11783	-10.00328	13.46437	16.57355	1.04683	0.95527	193.29418	182.05389	73.04909	0.32304	 	6.24828E15	 	5.5316E-16	 	-1240.52126	26.53139	 
430.0	1.0	0.0	7.84913	7.1162	-10.02392	13.43877	16.50754	1.04359	0.95823	193.6277	182.22536	73.18279	0.3229	 	8.65383E15	 	3.96576E-16	 	-1372.95858	26.48746	 
425.0	1.0	0.0	7.85092	7.11457	-10.04448	13.41316	16.4415	1.04034	0.96123	193.96057	182.39598	73.31628	0.32277	 	1.20415E16	 	2.82978E-16	 	-1505.17687	26.44366	 
420.0	1.0	0.0	7.85271	7.11295	-10.06498	13.38757	16.37543	1.03705	0.96427	194.29278	182.56576	73.44954	0.32263	 	1.6835500000000002E16	 	2.0095E-16	 	-1637.17694	26.40001	 
415.0	1.0	0.0	7.8545	7.11133	-10.08541	13.36197	16.30933	1.03374	0.96736	194.62434	182.73471	73.58258	0.32249	 	2.36529E16	 	1.41999E-16	 	-1768.95914	26.35644	 
410.0	1.0	0.0	7.85627	7.10972	-10.10577	13.33638	16.24321	1.03041	0.97049	194.95525	182.90282	73.7154	0.32235	 	3.3396700000000004E16	 	9.98387E-17	 	-1900.5237	26.31291	 
405.0	1.0	0.0	7.85805	7.10812	-10.12606	13.31079	16.17705	1.02705	0.97366	195.2855	183.0701	73.848	0.32221	 	4.73951E16	 	6.9836E-17	 	-2031.87083	26.26943	 
400.0	1.0	0.0	7.85982	7.10652	-10.14629	13.28521	16.11086	1.02367	0.97688	195.6151	183.23655	73.98038	0.32207	 	6.7611600000000008E16	 	4.85934E-17	 	-2163.00074	26.22598	 
395.0	1.0	0.0	7.86158	7.10492	-10.16644	13.25963	16.04464	1.02026	0.98014	195.94405	183.40217	74.11254	0.32194	 	9.69656E16	 	3.36312E-17	 	-2293.91362	26.18258	 
390.0	1.0	0.0	7.86334	7.10334	-10.18653	13.23406	15.97839	1.01682	0.98346	196.27235	183.56696	74.24447	0.3218	 	1.39822E17	 	2.31485E-17	 	-2424.60968	26.13921	 
385.0	1.0	0.0	7.86509	7.10175	-10.20655	13.20849	15.91211	1.01336	0.98682	196.59999	183.73092	74.37619	0.32166	 	2.02745E17	 	1.58439E-17	 	-2555.08906	26.09588	 
380.0	1.0	0.0	7.86684	7.10017	-10.2265	13.18292	15.84579	1.00987	0.99023	196.92698	183.89407	74.50768	0.32152	 	2.95661E17	 	1.07822E-17	 	-2685.35196	26.05258	 
375.0	1.0	0.0	7.86858	7.0986	-10.24638	13.15736	15.77944	1.00635	0.99369	197.25332	184.05639	74.63895	0.32138	 	4.33676E17	 	7.29452E-18	 	-2815.39851	26.00931	 
370.0	1.0	0.0	7.87032	7.09703	-10.2662	13.13181	15.71306	1.00281	0.9972	197.57901	184.2179	74.77	0.32125	 	6.39918E17	 	4.9054E-18	 	-2945.22886	25.96607	 
365.0	1.0	0.0	7.87205	7.09547	-10.28594	13.10625	15.64663	0.99924	1.00076	197.90404	184.37859	74.90083	0.32111	 	9.50017E17	 	3.27852E-18	 	-3074.84313	25.92285	 
360.0	1.0	0.0	7.87378	7.09392	-10.30562	13.0807	15.58018	0.99564	1.00438	198.22842	184.53847	75.03143	0.32097	 	1.41921E18	 	2.17744E-18	 	-3204.24144	25.87966	 
355.0	1.0	0.0	7.8755	7.09237	-10.32523	13.05516	15.51368	0.99201	1.00806	198.55216	184.69753	75.16182	0.32083	 	2.13373E18	 	1.43685E-18	 	-3333.42389	25.83649	 
350.0	1.0	0.0	7.87722	7.09082	-10.34477	13.02962	15.44715	0.98835	1.01179	198.87524	184.85578	75.29198	0.32069	 	3.22904E18	 	9.41901E-19	 	-3462.39058	25.79334	 
345.0	1.0	0.0	7.87893	7.08928	-10.36424	13.00408	15.38058	0.98466	1.01558	199.19766	185.01323	75.42192	0.32056	 	4.91947E18	 	6.13284E-19	 	-3591.14156	25.7502	 
340.0	1.0	0.0	7.88064	7.08774	-10.38365	12.97855	15.31396	0.98095	1.01942	199.51944	185.16987	75.55164	0.32042	 	7.5465E18	 	3.96559E-19	 	-3719.67689	25.70707	 
335.0	1.0	0.0	7.88234	7.08622	-10.40299	12.95302	15.24731	0.9772	1.02333	199.84057	185.32571	75.68114	0.32028	 	1.16581E19	 	2.54607E-19	 	-3847.99662	25.66395	 
330.0	1.0	0.0	7.88403	7.08469	-10.42225	12.9275	15.18061	0.97342	1.0273	200.16104	185.48075	75.81041	0.32014	 	1.81402E19	 	1.62282E-19	 	-3976.10079	25.62083	 
325.0	1.0	0.0	7.88572	7.08317	-10.44145	12.90198	15.11388	0.96962	1.03133	200.48086	185.63498	75.93947	0.32	 	2.84358E19	 	1.02667E-19	 	-4103.98937	25.57772	 
320.0	1.0	0.0	7.88741	7.08166	-10.46059	12.87647	15.04709	0.96578	1.03543	200.80004	185.78842	76.0683	0.31987	 	4.49139E19	 	6.4457E-20	 	-4231.66238	25.5346	 
315.0	1.0	0.0	7.88909	7.08015	-10.47965	12.85096	14.98027	0.96191	1.0396	201.11856	185.94107	76.19691	0.31973	 	7.14944E19	 	4.01516E-20	 	-4359.11978	25.49148	 
310.0	1.0	0.0	7.89076	7.07865	-10.49865	12.82545	14.91339	0.95801	1.04383	201.43643	186.09292	76.3253	0.31959	 	1.1471599999999998E20	 	2.48109E-20	 	-4486.36152	25.44835	 
305.0	1.0	0.0	7.89243	7.07715	-10.51758	12.79995	14.84647	0.95408	1.04813	201.75365	186.24398	76.45346	0.31945	 	1.85579E20	 	1.52054E-20	 	-4613.38753	25.4052	 
300.0	1.0	0.0	7.89409	7.07566	-10.53644	12.77445	14.77951	0.95011	1.05251	202.07022	186.39425	76.5814	0.31932	 	3.02746E20	 	9.24009E-21	 	-4740.19771	25.36204	 
295.0	1.0	0.0	7.89575	7.07417	-10.55523	12.74896	14.71249	0.94611	1.05696	202.38614	186.54373	76.70913	0.31918	 	4.9815999999999993E20	 	5.56648E-21	 	-4866.79197	25.31885	 
290.0	1.0	0.0	7.89741	7.07269	-10.57395	12.72347	14.64542	0.94208	1.06148	202.70141	186.69243	76.83663	0.31904	 	8.269899999999999E20	 	3.32361E-21	 	-4993.17016	25.27564	 
285.0	1.0	0.0	7.89905	7.07122	-10.59261	12.69798	14.5783	0.93802	1.06608	203.01602	186.84034	76.9639	0.3189	 	1.3854E21	 	1.96636E-21	 	-5119.33211	25.23239	 
280.0	1.0	0.0	7.9007	7.06975	-10.6112	12.6725	14.51112	0.93392	1.07076	203.32999	186.98747	77.09096	0.31877	 	2.3426200000000001E21	 	1.15247E-21	 	-5245.27765	25.18911	 
275.0	1.0	0.0	7.90233	7.06828	-10.62972	12.64702	14.4439	0.92978	1.07552	203.64331	187.13383	77.21779	0.31863	 	3.99935E21	 	6.68954E-22	 	-5371.00656	25.14578	 
270.0	1.0	0.0	7.90397	7.06682	-10.64817	12.62155	14.37661	0.92561	1.08037	203.95598	187.2794	77.3444	0.31849	 	6.89532E21	 	3.84461E-22	 	-5496.51861	25.10241	 
265.0	1.0	0.0	7.90559	7.06537	-10.66655	12.59608	14.30927	0.92141	1.0853	204.268	187.4242	77.47079	0.31836	 	1.2009199999999998E22	 	2.18713E-22	 	-5621.81352	25.05898	 
260.0	1.0	0.0	7.90721	7.06392	-10.68487	12.57061	14.24186	0.91717	1.09031	204.57936	187.56823	77.59695	0.31822	 	2.1134599999999997E22	 	1.23124E-22	 	-5746.89099	25.01549	 
255.0	1.0	0.0	7.90883	7.06248	-10.70312	12.54515	14.1744	0.91289	1.09542	204.89008	187.71149	77.72289	0.31808	 	3.7594299999999995E22	 	6.8568E-23	 	-5871.7507	24.97194	 
250.0	1.0	0.0	7.91044	7.06104	-10.7213	12.5197	14.10687	0.90858	1.10062	205.20015	187.85397	77.84861	0.31794	 	6.761319999999999E22	 	3.77643E-23	 	-5996.39228	24.92832	 
245.0	1.0	0.0	7.91204	7.05961	-10.73941	12.49425	14.03928	0.90423	1.10592	205.50957	187.99569	77.97411	0.31781	 	1.2298699999999999E23	 	2.05628E-23	 	-6120.81532	24.88461	 
240.0	1.0	0.0	7.91364	7.05818	-10.75746	12.4688	13.97162	0.89984	1.11131	205.81834	188.13664	78.09938	0.31767	 	2.2633499999999998E23	 	1.10657E-23	 	-6245.0194	24.84082	 
235.0	1.0	0.0	7.91524	7.05676	-10.77543	12.44335	13.9039	0.89541	1.11681	206.12646	188.27683	78.22443	0.31753	 	4.21558E23	 	5.8833E-24	 	-6369.00405	24.79693	 
230.0	1.0	0.0	7.91683	7.05534	-10.79334	12.41792	13.8361	0.89094	1.12241	206.43393	188.41626	78.34926	0.3174	 	7.94933E23	 	3.08925E-24	 	-6492.76873	24.75294	 
225.0	1.0	0.0	7.91841	7.05393	-10.81118	12.39248	13.76823	0.88644	1.12811	206.74076	188.55492	78.47387	0.31726	 	1.51822E24	 	1.60145E-24	 	-6616.31291	24.70884	 
220.0	1.0	0.0	7.91999	7.05253	-10.82896	12.36705	13.70029	0.88189	1.13393	207.04693	188.69283	78.59825	0.31712	 	2.93789E24	 	8.19277E-25	 	-6739.63599	24.66462	 
215.0	1.0	0.0	7.92156	7.05113	-10.84666	12.34162	13.63227	0.87731	1.13985	207.35246	188.82998	78.72241	0.31698	 	5.76248E24	 	4.13457E-25	 	-6862.73729	24.62026	 
210.0	1.0	0.0	7.92313	7.04973	-10.8643	12.3162	13.56417	0.87268	1.1459	207.65733	188.96638	78.84635	0.31685	 	1.14615E25	 	2.05745E-25	 	-6985.61616	24.57577	 
205.0	1.0	0.0	7.92469	7.04834	-10.88187	12.29078	13.49599	0.86801	1.15206	207.96156	189.10202	78.97007	0.31671	 	2.31268E25	 	1.0091E-25	 	-7108.27181	24.53113	 
200.0	1.0	0.0	7.92625	7.04696	-10.89938	12.26537	13.42773	0.8633	1.15834	208.26514	189.23691	79.09356	0.31657	 	4.73625E25	 	4.87586E-26	 	-7230.70347	24.48633	 
195.0	1.0	0.0	7.9278	7.04558	-10.91681	12.23996	13.35938	0.85855	1.16476	208.56807	189.37106	79.21683	0.31644	 	9.84926E25	 	2.31989E-26	 	-7352.91026	24.44136	 
190.0	1.0	0.0	7.92935	7.0442	-10.93418	12.21455	13.29094	0.85375	1.1713	208.87035	189.50445	79.33987	0.3163	 	2.0808400000000003E26	 	1.08635E-26	 	-7474.89126	24.3962	 
185.0	1.0	0.0	7.93089	7.04284	-10.95148	12.18915	13.2224	0.84891	1.17798	209.17198	189.63711	79.46269	0.31616	 	4.4685100000000006E26	 	5.00416E-27	 	-7596.6455	24.35085	 
180.0	1.0	0.0	7.93242	7.04147	-10.96871	12.16375	13.15378	0.84403	1.18479	209.47297	189.76902	79.58529	0.31603	 	9.759160000000001E26	 	2.26629E-27	 	-7718.17194	24.30529	 
175.0	1.0	0.0	7.93395	7.04011	-10.98588	12.13836	13.08505	0.8391	1.19175	209.7733	189.90018	79.70767	0.31589	 	2.1688599999999998E27	 	1.00851E-27	 	-7839.46942	24.2595	 
170.0	1.0	0.0	7.93548	7.03876	-11.00297	12.11297	13.01623	0.83413	1.19886	210.07299	190.03061	79.82982	0.31576	 	4.90769E27	 	4.40717E-28	 	-7960.53678	24.21347	 
165.0	1.0	0.0	7.93699	7.03742	-11.02	12.08759	12.94729	0.82911	1.20612	210.37203	190.1603	79.95175	0.31562	 	1.1314E28	 	1.89013E-28	 	-8081.37273	24.16719	 
160.0	1.0	0.0	7.93851	7.03607	-11.03696	12.06221	12.87825	0.82404	1.21354	210.67042	190.28925	80.07346	0.31548	 	2.65908E28	 	7.95048E-29	 	-8201.97591	24.12064	 
155.0	1.0	0.0	7.94002	7.03474	-11.05386	12.03683	12.8091	0.81892	1.22112	210.96817	190.41747	80.19494	0.31535	 	6.37549E28	 	3.2777E-29	 	-8322.34489	24.0738	 
150.0	1.0	0.0	7.94152	7.03341	-11.07068	12.01146	12.73983	0.81376	1.22886	211.26527	190.54496	80.3162	0.31521	 	1.5605300000000002E29	 	1.32346E-29	 	-8442.4781	24.02664	 
145.0	1.0	0.0	7.94302	7.03208	-11.08744	11.98609	12.67045	0.80855	1.23678	211.56172	190.67171	80.43723	0.31507	 	3.90234E29	 	5.2299E-30	 	-8562.37393	23.97916	 
140.0	1.0	0.0	7.94451	7.03076	-11.10414	11.96073	12.60093	0.80329	1.24488	211.85752	190.79774	80.55804	0.31494	 	9.977330000000001E29	 	2.02106E-30	 	-8682.03061	23.93134	 
135.0	1.0	0.0	7.94599	7.02945	-11.12076	11.93537	12.53129	0.79798	1.25317	212.15267	190.92304	80.67863	0.3148	 	2.61031E30	 	7.63158E-31	 	-8801.44631	23.88314	 
130.0	1.0	0.0	7.94747	7.02814	-11.13732	11.91001	12.46151	0.79261	1.26165	212.44718	191.04761	80.799	0.31466	 	6.99407E30	 	2.81335E-31	 	-8920.61904	23.83454	 
125.0	1.0	0.0	7.94895	7.02683	-11.15381	11.88466	12.3916	0.7872	1.27032	212.74104	191.17146	80.91914	0.31453	 	1.92096E31	 	1.01161E-31	 	-9039.54669	23.78553	 
120.0	1.0	0.0	7.95042	7.02553	-11.17023	11.85931	12.32154	0.78173	1.27921	213.03425	191.29459	81.03905	0.31439	 	5.41338E31	 	3.54468E-32	 	-9158.22704	23.73607	 
115.0	1.0	0.0	7.95188	7.02424	-11.18658	11.83397	12.25133	0.77622	1.2883	213.32682	191.417	81.15875	0.31426	 	1.56679E32	 	1.20914E-32	 	-9276.65772	23.68613	 
110.0	1.0	0.0	7.95334	7.02295	-11.20287	11.80863	12.18096	0.77064	1.29762	213.61874	191.53869	81.27822	0.31412	 	4.6622799999999996E32	 	4.01105E-33	 	-9394.83618	23.63569	 
105.0	1.0	0.0	7.95479	7.02167	-11.21909	11.7833	12.11044	0.76502	1.30716	213.91001	191.65967	81.39746	0.31398	 	1.42794E33	 	1.29253E-33	 	-9512.75974	23.58471	 
100.0	1.0	0.0	7.95624	7.02039	-11.23524	11.75797	12.03974	0.75933	1.31695	214.20063	191.77992	81.51648	0.31385	 	4.50659E33	 	4.04131E-34	 	-9630.42552	23.53316	 
95.0	1.0	0.0	7.95768	7.01912	-11.25133	11.73264	11.96887	0.75359	1.32697	214.49061	191.89947	81.63528	0.31371	 	1.4673900000000001E34	 	1.22452E-34	 	-9747.8305	23.481	 
90.0	1.0	0.0	7.95912	7.01785	-11.26734	11.70732	11.89782	0.7478	1.33726	214.77995	192.0183	81.75386	0.31358	 	4.935830000000001E34	 	3.59098E-35	 	-9864.97142	23.42818	 
85.0	1.0	0.0	7.96055	7.01659	-11.28329	11.682	11.82658	0.74195	1.34781	215.06863	192.13643	81.87221	0.31344	 	1.71745E35	 	1.01781E-35	 	-9981.84481	23.37468	 
80.0	1.0	0.0	7.96198	7.01534	-11.29918	11.65669	11.75514	0.73603	1.35863	215.35667	192.25385	81.99033	0.31331	 	6.1907399999999995E35	 	2.78422E-36	 	-10098.447	23.32044	 
75.0	1.0	0.0	7.9634	7.01409	-11.31499	11.63138	11.68349	0.73006	1.36975	215.64407	192.37056	82.10823	0.31317	 	2.31524E36	 	7.33935E-37	 	-10214.77408	23.26541	 
70.0	1.0	0.0	7.96481	7.01284	-11.33074	11.60607	11.61163	0.72403	1.38116	215.93081	192.48656	82.22591	0.31303	 	8.997919999999999E36	 	1.86135E-37	 	-10330.82184	23.20955	 
65.0	1.0	0.0	7.96622	7.0116	-11.34642	11.58077	11.53954	0.71794	1.39288	216.21692	192.60187	82.34337	0.3129	 	3.6401899999999996E37	 	4.5339E-38	 	-10446.58583	23.1528	 
60.0	1.0	0.0	7.96762	7.01036	-11.36204	11.55548	11.46722	0.71178	1.40492	216.50237	192.71647	82.46059	0.31276	 	1.53577E38	 	1.05877E-38	 	-10562.06129	23.09509	 
55.0	1.0	0.0	7.96902	7.00913	-11.37758	11.53018	11.39465	0.70557	1.4173	216.78718	192.83037	82.5776	0.31263	 	6.76983E38	 	2.36582E-39	 	-10677.24312	23.03637	 
50.0	1.0	0.0	7.97041	7.00791	-11.39306	11.5049	11.32183	0.69928	1.43003	217.07135	192.94358	82.69438	0.31249	 	3.1244100000000004E39	 	5.04804E-40	 	-10792.1259	22.97656	 
45.0	1.0	0.0	7.9718	7.00669	-11.40847	11.47961	11.24873	0.69294	1.44313	217.35487	193.05609	82.81094	0.31236	 	1.51298E40	 	1.02632E-40	 	-10906.70382	22.91558	 
40.0	1.0	0.0	7.97318	7.00548	-11.42382	11.45433	11.17535	0.68653	1.45661	217.63774	193.1679	82.92727	0.31222	 	7.70509E40	 	1.98363E-41	 	-11020.97068	22.85337	 
35.0	1.0	0.0	7.97455	7.00427	-11.4391	11.42906	11.10167	0.68005	1.47048	217.91997	193.27903	83.04338	0.31209	 	4.1367800000000005E41	 	3.63569E-42	 	-11134.9198	22.78982	 
30.0	1.0	0.0	7.97592	7.00307	-11.45431	11.40378	11.02768	0.6735	1.48477	218.20155	193.38946	83.15926	0.31195	 	2.3475999999999998E42	 	6.30261E-43	 	-11248.54409	22.72486	 
25.0	1.0	0.0	7.97729	7.00187	-11.46945	 	10.95337	0.66689	1.4995	218.48249	193.4992	83.27492	0.31181	 	1.41213E43	 	1.0305E-43	 	-11361.83588	 	 
