T (C)	Fraction solid (wt)-TOTAL	Fraction liquid (wt)-LIQUID	Density (g/(cm)^3)-TOTAL	Molar volume (cm^3)-TOTAL	Volume change (%)-  	Average expansion coeff. (10e-6 1/K)-  	Thermal conductivity (W/(m*K))-TOTAL	Electrical resistivity (10e-6 Ohm*m)-TOTAL	Electrical conductivity (10e6 1/(Ohm*m))-TOTAL	Young's modulus (GPa)-TOTAL	Bulk modulus (GPa)-TOTAL	Shear modulus(GPa)-TOTAL	Poisson's ratio-TOTAL	Liquid viscosity (mPa s)-  	Total viscosity (mPa s)-  	Liquid diffusivity (10e-9 (m^2)/s)-  	Total diffusivity (10e-9 (m^2)/s)-  	Surface Tension (mN/m)-  	Enthalpy (J/mole)-TOTAL	Specific heat (J/(mole K))-TOTAL	Latent heat (J/mole)-TOTAL
1400.0	0.0	1.0	7.23474	7.87261	0.0	31.74657	29.68882	1.38073	0.72426	0.0	123.96978	0.0	0.5	6.9056	6.9056	1.18255	1.18255	1756.76993	48810.66	 	0.0
1395.0	0.0	1.0	7.23871	7.86828	-0.0549293	31.71129	29.60732	1.38039	0.72443	0.0	124.11859	0.0	0.5	6.97962	6.97962	1.16651	1.16651	1759.05332	48607.764	40.5792	0.0
1390.0	0.0	1.0	7.24268	7.86397	-0.1097	31.67618	29.52581	1.38005	0.72461	0.0	124.26741	0.0	0.5	7.05489	7.05489	1.15061	1.15061	1761.34892	48405.334	40.486	0.0
1385.0	0.0	1.0	7.24664	7.85967	-0.16431	31.64126	29.4443	1.37971	0.72479	0.0	124.41623	0.0	0.5	7.13143	7.13143	1.13484	1.13484	1763.65656	48203.366	40.3936	0.0
1380.0	0.0	1.0	7.2506	7.85539	-0.21877	31.60651	29.3628	1.37937	0.72497	0.0	124.56504	0.0	0.5	7.20927	7.20927	1.1192	1.1192	1765.97602	48001.857	40.3018	0.0
1375.0	0.0	1.0	7.25455	7.85111	-0.27306	31.57196	29.28129	1.37903	0.72515	0.0	124.71386	0.0	0.5	7.28844	7.28844	1.10369	1.10369	1768.30706	47800.805	40.2104	0.0
1370.0	0.0	1.0	7.25849	7.84685	-0.3272	31.53759	29.19979	1.37868	0.72533	0.0	124.86268	0.0	0.5	7.36898	7.36898	1.08832	1.08832	1770.64945	47600.208	40.1194	0.0
1365.0	0.0	1.0	7.26242	7.8426	-0.38117	31.50341	29.11828	1.37833	0.72551	0.0	125.01149	0.0	0.5	7.4509	7.4509	1.07308	1.07308	1773.00294	47400.063	40.029	0.0
1360.0	0.0	1.0	7.26634	7.83836	-0.43499	31.46943	29.03678	1.37798	0.7257	0.0	125.16031	0.0	0.5	7.53424	7.53424	1.05797	1.05797	1775.36725	47200.366	39.9394	0.0
1355.0	0.0	1.0	7.27026	7.83414	-0.48865	31.43563	28.95527	1.37763	0.72588	0.0	125.30913	0.0	0.5	7.61903	7.61903	1.04299	1.04299	1777.74212	47001.116	39.85	0.0
1350.0	0.0	1.0	7.27417	7.82993	-0.54215	31.40204	28.87377	1.37728	0.72607	0.0	125.45794	0.0	0.5	7.70531	7.70531	1.02815	1.02815	1780.12727	46802.31	39.7612	0.0
1345.0	0.0	1.0	7.27808	7.82573	-0.5955	31.36864	28.79226	1.37692	0.72626	0.0	125.60676	0.0	0.5	7.79311	7.79311	1.01343	1.01343	1782.52241	46603.945	39.673	0.0
1340.0	0.0	1.0	7.28197	7.82154	-0.64868	31.33544	28.71076	1.37656	0.72645	0.0	125.75558	0.0	0.5	7.88247	7.88247	0.99885	0.99885	1784.92722	46406.019	39.5852	0.0
1335.0	0.0	1.0	7.28586	7.81737	-0.70171	31.30245	28.62925	1.3762	0.72664	0.0	125.9044	0.0	0.5	7.97341	7.97341	0.98439	0.98439	1787.34141	46208.53	39.4978	0.0
1334.43	0.0	1.0	7.2863	7.81689	-0.70774	31.29871	28.61997	1.37616	0.72666	0.0	125.92134	0.0	0.5	7.98387	7.98387	0.98276	0.98276	1787.6169	46186.071	39.44604	0.0
1330.0	0.0979321	0.90207	7.316	7.78505	-1.11219	30.23659	28.88645	1.35971	0.73545	0.00864514	126.42129	0.00290674	0.48709	8.08965	12.2966	0.96723	0.63632	1787.37901	44583.745	361.64662	1427.728
1325.0	0.19257	0.80743	7.3452	7.75412	-1.50512	29.21344	29.13978	1.34368	0.74422	0.13172	126.96534	0.0446684	0.47448	8.21078	59.46577	0.94999	0.13117	1787.17961	43016.602	313.4286	2798.246
1320.0	0.27319	0.72681	7.37054	7.72745	-1.84383	28.34022	29.3506	1.32986	0.75196	0.54254	127.48995	0.18534	0.46362	8.33389	222.05561	0.93303	0.0350172	1787.05229	41661.469	271.0266	3957.184
1315.0	0.34248	0.65752	7.39274	7.7043	-2.1379	27.59069	29.52692	1.31777	0.75886	1.35998	128.00034	0.46761	0.4542	8.45905	564.34081	0.91634	0.0137353	1786.99371	40477.746	236.7446	4945.138
1310.0	0.40249	0.59751	7.41235	7.68388	-2.39725	26.93716	29.67452	1.30709	0.76506	2.62939	128.49673	0.90922	0.44596	8.58626	1131.57976	0.89992	0.00682847	1787.00237	39433.99	208.7512	5793.549
1305.0	0.45486	0.54514	7.4298	7.66576	-2.62742	26.36452	29.79771	1.29757	0.77067	4.34087	128.98226	1.5086	0.4387	8.71566	1952.57458	0.88376	0.00394482	1787.07506	38505.568	185.6844	6527.048
1300.87	0.49308	0.50692	7.4428	7.65235	-2.79782	25.94636	29.88296	1.29048	0.7749	6.05036	129.37716	2.11053	0.43337	8.82432	2831.44397	0.87059	0.00271324	1787.18138	37813.774	 	7058.129
1300.0	0.50499	0.49501	7.4468	7.64819	-2.85063	25.8079	29.91327	1.28846	0.77612	6.67455	129.52011	2.33102	0.43168	8.85913	3148.51801	0.86669	0.00243866	1787.43619	37605.816	179.9504	7232.297
1295.0	0.56793	0.43207	7.46804	7.62634	-3.12822	25.08552	30.07229	1.27758	0.78273	10.83954	130.29595	3.80952	0.42269	9.06014	5363.54137	0.84477	0.001427	1788.83039	36499.966	221.17	8144.061
1290.0	0.61944	0.38056	7.48581	7.60807	-3.36024	24.49323	30.19383	1.26838	0.78841	15.54996	130.99051	5.49366	0.41526	9.26284	8092.61941	0.82365	9.42754E-4	1790.13717	35570.199	185.9534	8880.156
1285.0	0.66225	0.33775	7.50092	7.5925	-3.55796	23.99886	30.28544	1.2605	0.79334	20.56107	131.62488	7.29616	0.40903	9.4676	11279.73478	0.80326	6.74213E-4	1791.37348	34773.775	159.2848	9483.32
1280.0	0.69826	0.30174	7.51397	7.57911	-3.72813	23.58332	30.35283	1.25366	0.79766	25.68611	132.21458	9.14912	0.40375	9.67483	14881.71924	0.78353	5.09386E-4	1792.55116	34080.23	138.709	9984.016
1275.0	0.72892	0.27108	7.52539	7.56735	-3.87748	23.22722	30.40043	1.24767	0.80149	30.79837	132.7691	11.00566	0.39921	9.88485	18874.61521	0.76442	4.00333E-4	1793.68282	33467.384	122.5692	10404.421
1270.0	0.75528	0.24472	7.53551	7.55694	-4.00974	22.92002	30.43173	1.24236	0.80492	35.81192	133.29666	12.83335	0.39527	10.09798	23246.86938	0.74587	3.23989E-4	1794.77655	32918.775	109.7218	10760.994
1265.0	0.77813	0.22187	7.54457	7.5476	-4.12833	22.65191	30.44934	1.23762	0.808	40.66992	133.80242	14.61031	0.39182	10.31454	27996.51111	0.72784	2.68152E-4	1797.03851	32421.89406	99.37619	11066.158
1260.0	0.79811	0.20189	7.55314	7.54006	-4.22406	22.45139	30.44919	1.2336	0.81063	45.34251	134.26177	16.32475	0.38877	10.53483	33173.89158	0.7103	2.25567E-4	1799.30708	31965.67998	91.24282	11329.435
1255.0	0.8157	0.1843	7.56097	7.53315	-4.31195	22.27329	30.44009	1.22995	0.81304	49.81279	134.71019	17.96935	0.38605	10.75913	38765.76388	0.69323	1.924E-4	1801.58244	31544.3934	84.25732	11558.223
1250.0	0.83128	0.16872	7.56815	7.52676	-4.39301	22.11475	30.42342	1.22659	0.81527	54.07366	135.15037	19.54065	0.38362	10.98783	44796.35827	0.67658	1.65954E-4	1803.86319	31152.21039	78.4366	11758.343
1245.0	0.84517	0.15483	7.5748	7.52079	-4.46886	21.97099	30.40047	1.22349	0.81733	58.13206	135.58391	21.04051	0.38143	11.22111	51300.96582	0.66034	1.44436E-4	1806.15013	30784.49426	73.54323	11934.428
1240.0	0.85761	0.14239	7.58098	7.51517	-4.54031	21.83973	30.37194	1.22061	0.81927	61.98781	136.01179	22.46827	0.37945	11.45942	58311.51061	0.64447	1.26653E-4	1808.44305	30437.51839	69.39517	12090.203
1235.0	0.8688	0.1312	7.58676	7.50984	-4.60802	21.71901	30.33874	1.2179	0.82108	65.6515	136.43519	23.82735	0.37765	11.70296	65871.41711	0.62898	1.11747E-4	1810.74159	30108.2542	65.85284	12228.692
1230.0	0.87893	0.12107	7.59219	7.50474	-4.67282	21.60641	30.30151	1.21536	0.8228	69.13601	136.85479	25.12208	0.376	11.95207	74032.30099	0.61383	9.90987E-5	1813.0461	29794.2251	62.80582	12352.372
1225.0	0.88813	0.11187	7.5973	7.49985	-4.73489	21.50144	30.26068	1.21295	0.82444	72.44612	137.27117	26.35387	0.37449	12.2071	82841.42587	0.599	8.82662E-5	1815.35583	29493.38347	60.16833	12463.285
1220.0	0.89651	0.10349	7.60215	7.49513	-4.79482	21.40233	30.21683	1.21066	0.826	75.59998	137.68503	27.52916	0.37309	12.46834	92367.24871	0.5845	7.88991E-5	1817.67085	29204.02673	57.87135	12563.133
1215.0	0.90417	0.0958349	7.60676	7.49056	-4.85293	21.30819	30.17017	1.20847	0.82749	78.59995	138.09604	28.64858	0.3718	12.73609	102664.3269	0.57029	7.07479E-5	1819.99179	28924.72928	55.85949	12653.337
1210.0	0.9112	0.0888036	7.61115	7.48612	-4.90934	21.21863	30.12112	1.20637	0.82893	81.46275	138.50516	29.7181	0.37059	13.01079	113814.9621	0.55638	6.36022E-5	1822.31718	28654.28953	54.08795	12735.097
1205.0	0.91767	0.0823335	7.61535	7.48178	-4.96437	21.13273	30.06991	1.20435	0.83032	84.19467	138.91216	30.73991	0.36947	13.29277	125893.3411	0.54274	5.73063E-5	1824.64778	28391.6889	52.52013	12809.429
1200.0	0.92364	0.0763615	7.61938	7.47755	-5.01814	21.05013	30.01678	1.2024	0.83167	86.80501	139.31736	31.7173	0.36842	13.58239	138987.939	0.52937	5.17317E-5	1826.98302	28136.05782	51.12622	12877.199
1195.0	0.92916	0.070837	7.62325	7.47339	-5.07094	20.96998	29.96191	1.20051	0.83298	89.30323	139.72066	32.65367	0.36743	13.87995	153196.0394	0.51626	4.67745E-5	1829.32357	27886.6517	49.88122	12939.149
1190.0	0.93429	0.0657122	7.62698	7.46932	-5.12265	20.89265	29.90546	1.19868	0.83425	91.69593	140.12241	33.55135	0.3665	14.18602	168622.6271	0.5034	4.23506E-5	1831.66774	27642.83097	48.76415	12995.918
1185.0	0.93905	0.0609485	7.63059	7.46531	-5.17355	20.81727	29.8476	1.1969	0.83549	93.99059	140.5225	34.41305	0.36562	14.50094	185383.4563	0.49079	3.839E-5	1834.01663	27404.04007	47.75818	13048.057
1180.0	0.94349	0.0565118	7.63407	7.46136	-5.22373	20.7436	29.78843	1.19517	0.8367	96.19353	140.92088	35.24104	0.36479	14.82513	203605.6894	0.47841	3.48343E-5	1836.37015	27169.79743	46.84853	13096.046
1175.0	0.94763	0.0523716	7.63745	7.45747	-5.27318	20.6717	29.72808	1.19347	0.83789	98.31151	141.31774	36.03777	0.36401	15.15904	223431.3592	0.46626	3.16341E-5	1838.72737	26939.68248	46.02299	13140.303
1170.0	0.9515	0.0485008	7.64073	7.45363	-5.32198	20.60128	29.66664	1.19182	0.83906	100.34939	141.71302	36.80499	0.36326	15.50317	245013.4334	0.45434	2.8748E-5	1841.08848	26713.32768	45.27096	13181.192
1165.0	0.95544	0.0445623	7.64399	7.44968	-5.37214	20.52577	29.60447	1.19018	0.84021	102.45233	142.11379	37.59732	0.3625	15.85738	268870.4735	0.44265	2.61064E-5	1843.437	26484.86647	45.69224	13224.578
1160.0	0.95967	0.0403264	7.64727	7.4455	-5.42528	20.4397	29.54249	1.18853	0.84137	104.72449	142.52403	38.45406	0.36168	16.22165	295533.3866	0.4312	2.36686E-5	1845.76333	26250.9303	46.78723	13273.826
1155.0	0.96359	0.0364131	7.65044	7.44139	-5.47749	20.35597	29.47953	1.18691	0.84252	106.89037	142.93089	39.27141	0.36092	16.59683	324552.0306	0.41999	2.14771E-5	1848.09072	26021.74362	45.83734	13318.711
1150.0	0.96765	0.0323541	7.65369	7.43716	-5.53124	20.26632	29.41165	1.18549	0.84353	108.79362	143.35216	39.99361	0.36014	17.05579	356792.7566	0.40725	1.9468E-5	1850.41007	25783.85292	47.57814	13372.681
1145.0	0.97273	0.0272666	7.65739	7.43246	-5.59082	20.15623	29.34361	1.18406	0.84455	110.87668	143.83189	40.78735	0.3592	17.53369	393928.4935	0.39476	1.75708E-5	1852.71333	25518.95764	52.97906	13454.038
1140.0	0.9791	0.0209025	7.66166	7.4272	-5.65767	20.02061	29.27734	1.18256	0.84562	113.37515	144.38777	41.74095	0.35808	17.99606	437157.2933	0.38326	1.57775E-5	1854.99066	25221.80027	59.43147	13568.033
1135.0	0.9842	0.0157975	7.66548	7.4224	-5.71869	19.90356	29.20913	1.18113	0.84665	115.89905	144.90091	42.69973	0.35714	18.4725	482967.7672	0.37206	1.42304E-5	1857.27029	24950.05226	54.3496	13656.994
1130.0	0.98841	0.0115928	7.66897	7.41792	-5.77557	19.79958	29.13962	1.17974	0.84764	118.78805	145.38284	43.79021	0.35633	18.96392	531975.4086	0.36113	1.28736E-5	1859.55087	24696.63216	50.68402	13728.002
1125.0	0.99195	0.00805241	7.67221	7.41368	-5.82946	19.70488	29.06923	1.17838	0.84862	121.97112	145.84129	44.98725	0.35562	19.47188	584757.8857	0.35046	1.16698E-5	1861.83138	24456.82934	47.96056	13785.761
1120.0	0.99499	0.00501064	7.67524	7.4096	-5.8812	19.61672	28.9976	1.17707	0.84957	124.90506	146.2817	46.09117	0.35498	19.99644	641887.2192	0.34004	1.05932E-5	1864.11282	24227.4164	45.88259	13833.5
1115.0	0.99765	0.00235452	7.67812	7.40566	-5.93133	19.53334	28.92588	1.17575	0.85052	127.20331	146.70797	46.95949	0.35439	20.53934	703940.6541	0.32987	9.6247E-6	1866.3928	24006.09073	44.26513	13873.517
1110.0	1.0	0.0	7.68087	7.4018	-5.98027	19.45328	28.85488	1.1744	0.8515	129.00913	147.12295	47.64516	0.35385	 	771534.7296	 	8.74985E-6	 	23791.18595	42.98096	13907.476
1109.05	1.0	0.0	7.68133	7.40136	-5.9859	19.45069	28.83916	1.17424	0.85162	129.0973	147.18788	47.67897	0.35382	 	783775.1288	 	8.60731E-6	 	23744.50981	 	 
1105.0	1.0	0.0	7.68516	7.39767	-6.03278	19.36006	28.66018	1.1781	0.84882	129.94978	147.71044	48.00958	0.35337	 	848330.4361	 	7.929E-6	 	23490.22544	60.1921	 
1100.0	1.0	0.0	7.68981	7.3932	-6.08961	19.25083	28.44691	1.18263	0.84557	130.97507	148.33705	48.40743	0.35284	 	935824.4279	 	7.1616E-6	 	23181.47894	61.7493	 
1095.0	1.0	0.0	7.69438	7.38881	-6.14536	19.14435	28.24149	1.18689	0.84253	131.97322	148.94533	48.79494	0.35232	 	1032989.067	 	6.46435E-6	 	22877.85537	60.72471	 
1090.0	1.0	0.0	7.69887	7.3845	-6.20008	19.04053	28.04344	1.19091	0.8397	132.94562	149.53644	49.17265	0.35182	 	1140960.037	 	5.83123E-6	 	22579.17062	59.73695	 
1085.0	1.0	0.0	7.70328	7.38027	-6.25381	18.93927	27.85235	1.19468	0.83704	133.89354	150.11143	49.54103	0.35134	 	1261014.158	 	5.25672E-6	 	22285.2482	58.78448	 
1080.0	1.0	0.0	7.70762	7.37612	-6.30658	18.84045	27.66785	1.19822	0.83457	134.81821	150.67123	49.90054	0.35087	 	1394587.522	 	4.73573E-6	 	21995.9188	57.86588	 
1075.0	1.0	0.0	7.71189	7.37203	-6.35844	18.74399	27.48959	1.20153	0.83227	135.72073	151.21671	50.25158	0.35041	 	1543296.779	 	4.26359E-6	 	21711.01966	56.97983	 
1070.0	1.0	0.0	7.71609	7.36802	-6.40941	18.64981	27.31724	1.20463	0.83013	136.60217	151.74866	50.59456	0.34997	 	1708963.039	 	3.836E-6	 	21430.39403	56.12513	 
1065.0	1.0	0.0	7.72022	7.36408	-6.45952	18.5578	27.15048	1.20752	0.82815	137.4635	152.2678	50.92985	0.34954	 	1893639.021	 	3.44901E-6	 	21153.89081	55.30064	 
1060.0	1.0	0.0	7.72429	7.36019	-6.50882	18.46789	26.98901	1.2102	0.82631	138.30567	152.77481	51.2578	0.34912	 	2099640.72	 	3.09899E-6	 	20881.36406	54.50535	 
1055.0	1.0	0.0	7.7283	7.35638	-6.55733	18.38	26.83255	1.21269	0.82461	139.12955	153.27029	51.57875	0.34871	 	2329582.512	 	2.78263E-6	 	20612.67282	53.73825	 
1050.0	1.0	0.0	7.73226	7.35262	-6.60508	18.29405	26.68083	1.215	0.82305	139.93598	153.75484	51.893	0.34831	 	2586418.158	 	2.49688E-6	 	20347.68085	52.99839	 
1049.75	1.0	0.0	7.73245	7.35243	-6.60748	18.28973	26.67327	1.21511	0.82297	139.97639	153.77909	51.90875	0.34829	 	2600203.592	 	2.48316E-6	 	20334.34919	 	 
1045.0	1.0	0.0	7.73614	7.34892	-6.65202	18.21024	26.53361	1.21712	0.82161	140.72602	154.22947	52.20096	0.34793	 	2873551.576	 	2.23889E-6	 	20086.10042	52.31609	 
1040.0	1.0	0.0	7.73998	7.34528	-6.69825	18.12824	26.39062	1.21908	0.82029	141.50016	154.6942	52.50281	0.34755	 	3194714.634	 	2.00618E-6	 	19827.96524	51.62704	 
1035.0	1.0	0.0	7.74376	7.3417	-6.7438	18.04795	26.25164	1.22086	0.81909	142.2591	155.14947	52.79882	0.34718	 	3554184.039	 	1.79641E-6	 	19573.15768	50.96151	 
1030.0	1.0	0.0	7.74749	7.33816	-6.78871	17.9693	26.11644	1.22249	0.818	143.00351	155.59573	53.08926	0.34682	 	3956812.387	 	1.60744E-6	 	19321.55755	50.32003	 
1025.0	1.0	0.0	7.75117	7.33467	-6.83298	17.89222	25.98482	1.22397	0.81701	143.73407	156.03338	53.37437	0.34647	 	4408103.863	 	1.43734E-6	 	19073.04868	49.70177	 
1020.0	1.0	0.0	7.75481	7.33124	-6.87666	17.81666	25.85659	1.2253	0.81612	144.45139	156.46282	53.6544	0.34613	 	4914306.996	 	1.28432E-6	 	18827.51889	49.10596	 
1015.0	1.0	0.0	7.7584	7.32784	-6.91975	17.74254	25.73154	1.2265	0.81533	145.15605	156.88443	53.92956	0.34579	 	5482521.448	 	1.14676E-6	 	18584.85988	48.5318	 
1010.0	1.0	0.0	7.76194	7.32449	-6.96229	17.66981	25.60951	1.22756	0.81463	145.84863	157.29855	54.20008	0.34547	 	6120819.991	 	1.02319E-6	 	18344.96709	47.97856	 
1005.0	1.0	0.0	7.76545	7.32119	-7.00428	17.59842	25.49033	1.22849	0.81401	146.52967	157.70552	54.46615	0.34514	 	6838390.968	 	9.12252E-7	 	18107.73976	47.44547	 
1000.0	1.0	0.0	7.76891	7.31792	-7.04576	17.52831	25.37384	1.2293	0.81347	147.19967	158.10564	54.72799	0.34483	 	7645700.107	 	8.12735E-7	 	17873.08076	46.9318	 
995.0	1.0	0.0	7.77234	7.3147	-7.08673	17.45942	25.2599	1.23	0.81301	147.85912	158.49922	54.98577	0.34452	 	8554679.913	 	7.23525E-7	 	17640.89654	46.43684	 
990.0	1.0	0.0	7.77573	7.31151	-7.12722	17.3917	25.14836	1.23058	0.81262	148.5085	158.88653	55.23967	0.34422	 	9578946.11	 	6.43612E-7	 	17411.09708	45.95989	 
985.0	1.0	0.0	7.77908	7.30836	-7.16724	17.32511	25.03908	1.23106	0.81231	149.14824	159.26784	55.48987	0.34392	 	1.073405035E7	 	5.72078E-7	 	17183.5958	45.50026	 
980.0	1.0	0.0	7.7824	7.30524	-7.20682	17.2596	24.93196	1.23144	0.81206	149.77876	159.6434	55.73653	0.34363	 	1.203776985E7	 	5.08094E-7	 	16958.30949	45.05726	 
975.0	1.0	0.0	7.78568	7.30216	-7.24596	17.19512	24.82686	1.23172	0.81187	150.40047	160.01345	55.97979	0.34335	 	1.351044709E7	 	4.50904E-7	 	16735.15822	44.63025	 
970.0	1.0	0.0	7.78893	7.29911	-7.28468	17.13162	24.72367	1.2319	0.81175	151.01374	160.3782	56.21982	0.34306	 	1.517537927E7	 	3.99826E-7	 	16514.06525	44.21859	 
965.0	1.0	0.0	7.79216	7.2961	-7.323	17.06907	24.6223	1.232	0.81169	151.61893	160.73787	56.45674	0.34279	 	1.705927369E7	 	3.54241E-7	 	16294.95696	43.82166	 
960.0	1.0	0.0	7.79535	7.29311	-7.36093	17.00742	24.52265	1.23201	0.81168	152.2164	161.09267	56.69069	0.34252	 	1.919277795E7	 	3.13592E-7	 	16077.76276	43.43884	 
955.0	1.0	0.0	7.79851	7.29015	-7.39848	16.94664	24.42462	1.23194	0.81173	152.80646	161.44277	56.9218	0.34225	 	2.16110909E7	 	2.77371E-7	 	15862.41496	43.06956	 
953.06	1.0	0.0	7.79972	7.28902	-7.41294	16.92331	24.38705	1.23189	0.81176	153.03319	161.57722	57.01061	0.34215	 	2.263324202E7	 	2.64427E-7	 	15779.44809	 	 
950.77	1.0	0.0	7.80199	7.2869	-7.43982	16.85568	24.33766	1.23209	0.81163	153.39005	161.74698	57.15216	0.34194	 	2.39891655E7	 	2.49015E-7	 	15646.19871	 	 
950.0	1.0	0.0	7.80247	7.28645	-7.44556	16.84639	24.32287	1.23206	0.81165	153.4801	161.80038	57.18744	0.3419	 	2.443922694E7	 	2.44275E-7	 	15613.15229	49.85253	 
945.0	1.0	0.0	7.80558	7.28355	-7.48242	16.78688	24.22816	1.23182	0.81181	154.05775	162.14277	57.4138	0.34164	 	2.757002742E7	 	2.1565E-7	 	15400.72043	42.48637	 
940.0	1.0	0.0	7.80866	7.28067	-7.51895	16.72814	24.1348	1.23151	0.81201	154.62884	162.48096	57.63764	0.34139	 	3.112880174E7	 	1.90212E-7	 	15189.9774	42.14861	 
935.0	1.0	0.0	7.81172	7.27782	-7.55514	16.67013	24.04274	1.23113	0.81226	155.19362	162.8151	57.85905	0.34114	 	3.517781512E7	 	1.67625E-7	 	14980.86469	41.82254	 
930.0	1.0	0.0	7.81475	7.275	-7.591	16.61283	23.9519	1.23068	0.81256	155.75235	163.14534	58.07815	0.34089	 	3.978894544E7	 	1.47586E-7	 	14773.32639	41.50766	 
925.0	1.0	0.0	7.81776	7.2722	-7.62656	16.55619	23.86221	1.23017	0.81289	156.30528	163.47181	58.29503	0.34064	 	4.504525863E7	 	1.29822E-7	 	14567.30905	41.20347	 
920.0	1.0	0.0	7.82074	7.26942	-7.66181	16.5002	23.77363	1.22961	0.81327	156.85262	163.79464	58.50976	0.3404	 	5.104284885E7	 	1.1409E-7	 	14362.76155	40.9095	 
915.0	1.0	0.0	7.82371	7.26667	-7.69677	16.44482	23.68609	1.22898	0.81368	157.39461	164.11396	58.72244	0.34016	 	5.78930011E7	 	1.00169E-7	 	14159.63505	40.6253	 
910.0	1.0	0.0	7.82665	7.26394	-7.73144	16.39003	23.59955	1.22829	0.81414	157.93144	164.42988	58.93315	0.33992	 	6.572473024E7	 	8.78613E-8	 	13957.88285	40.35044	 
905.0	1.0	0.0	7.82956	7.26123	-7.76584	16.33579	23.51394	1.22756	0.81463	158.4633	164.74252	59.14196	0.33969	 	7.468777107E7	 	7.69906E-8	 	13757.46031	40.08451	 
900.0	1.0	0.0	7.83246	7.25855	-7.79997	16.28208	23.42923	1.22677	0.81515	158.99039	165.05198	59.34895	0.33945	 	8.495610161E7	 	6.73978E-8	 	13558.32473	39.82712	 
895.0	1.0	0.0	7.83534	7.25588	-7.83385	16.22888	23.34538	1.22592	0.81571	159.51289	165.35837	59.55417	0.33923	 	9.673209011E7	 	5.89406E-8	 	13360.43528	39.57789	 
890.0	1.0	0.0	7.8382	7.25323	-7.86747	16.17617	23.26233	1.22504	0.8163	160.03094	165.66177	59.75771	0.339	 	1.102514037E8	 	5.14918E-8	 	13163.75293	39.33647	 
885.0	1.0	0.0	7.84104	7.25061	-7.90084	16.12392	23.18006	1.2241	0.81693	160.54473	165.96227	59.95961	0.33877	 	1.257887943E8	 	4.49376E-8	 	12968.24032	39.10252	 
880.0	1.0	0.0	7.84386	7.248	-7.93398	16.07211	23.09852	1.22312	0.81758	161.05438	166.25997	60.15994	0.33855	 	1.436649594E8	 	3.91761E-8	 	12773.86157	38.87575	 
875.0	1.0	0.0	7.84667	7.24541	-7.96688	16.02071	23.01769	1.22209	0.81827	161.56006	166.55495	60.35876	0.33833	 	1.642546768E8	 	3.41167E-8	 	12580.58226	38.65586	 
870.0	1.0	0.0	7.84945	7.24283	-7.99956	15.96972	22.93752	1.22102	0.81899	162.06189	166.84727	60.55611	0.33811	 	1.879964383E8	 	2.96784E-8	 	12388.37014	38.44242	 
865.0	1.0	0.0	7.85223	7.24028	-8.03202	15.91911	22.85799	1.21991	0.81973	162.56001	167.13702	60.75204	0.3379	 	2.154039059E8	 	2.57889E-8	 	12197.19389	38.23525	 
860.0	1.0	0.0	7.85498	7.23774	-8.06426	15.86887	22.77907	1.21876	0.82051	163.05453	167.42427	60.94661	0.33768	 	2.470795498E8	 	2.2384E-8	 	12007.02349	38.03408	 
855.0	1.0	0.0	7.85772	7.23522	-8.09629	15.81896	22.70072	1.21757	0.82131	163.54558	167.70907	61.13986	0.33747	 	2.837308478E8	 	1.94065E-8	 	11817.83021	37.83866	 
850.0	1.0	0.0	7.86044	7.23271	-8.12812	15.76939	22.62294	1.21634	0.82214	164.03326	167.99151	61.33183	0.33726	 	3.261896998E8	 	1.68056E-8	 	11629.5865	37.64874	 
845.0	1.0	0.0	7.86267	7.23066	-8.15423	15.74554	22.55316	1.21467	0.82327	164.42672	168.23945	61.48584	0.33711	 	3.714062443E8	 	1.46939E-8	 	11473.21813	31.27367	 
840.0	1.0	0.0	7.8649	7.22861	-8.18027	15.72169	22.48337	1.21299	0.82441	164.81949	168.48627	61.63963	0.33696	 	4.233841936E8	 	1.28323E-8	 	11313.89006	31.86561	 
835.0	1.0	0.0	7.86713	7.22656	-8.20624	15.69783	22.41358	1.2113	0.82556	165.21156	168.73196	61.79318	0.33681	 	4.832072218E8	 	1.11931E-8	 	11154.79521	31.81897	 
830.0	1.0	0.0	7.86935	7.22452	-8.23216	15.67396	22.34377	1.20961	0.82672	165.60294	168.97653	61.94651	0.33666	 	5.52144194E8	 	9.75144E-9	 	10995.93295	31.77245	 
825.0	1.0	0.0	7.87157	7.22249	-8.25801	15.65009	22.27396	1.2079	0.82788	165.99362	169.21999	62.09961	0.33651	 	6.316827644E8	 	8.48495E-9	 	10837.30262	31.72607	 
820.0	1.0	0.0	7.87378	7.22046	-8.28381	15.62622	22.20413	1.20618	0.82906	166.3836	169.46233	62.25248	0.33636	 	7.235694236E8	 	7.37371E-9	 	10678.90357	31.67981	 
815.0	1.0	0.0	7.87599	7.21843	-8.30954	15.60234	22.13429	1.20445	0.83025	166.77289	169.70356	62.40512	0.33621	 	8.298572966E8	 	6.39988E-9	 	10520.73513	31.63369	 
810.0	1.0	0.0	7.8782	7.21641	-8.3352	15.57845	22.06445	1.20271	0.83145	167.16148	169.94369	62.55754	0.33606	 	9.52963278E8	 	5.54752E-9	 	10362.7966	31.58771	 
805.0	1.0	0.0	7.8804	7.21439	-8.36081	15.55456	21.99459	1.20096	0.83267	167.54938	170.18271	62.70972	0.33591	 	1.095736422E9	 	4.80242E-9	 	10205.08727	31.54186	 
800.0	1.0	0.0	7.8826	7.21238	-8.38635	15.53066	21.92472	1.1992	0.83389	167.93658	170.42064	62.86168	0.33576	 	1.261539932E9	 	4.15189E-9	 	10047.60644	31.49617	 
795.0	1.0	0.0	7.88479	7.21038	-8.41183	15.50675	21.85484	1.19743	0.83512	168.32309	170.65747	63.01342	0.33561	 	1.454349585E9	 	3.58468E-9	 	9890.35333	31.45062	 
790.0	1.0	0.0	7.88698	7.20838	-8.43725	15.48284	21.78496	1.19565	0.83637	168.7089	170.89321	63.16492	0.33546	 	1.67887209E9	 	3.09075E-9	 	9733.32721	31.40523	 
785.0	1.0	0.0	7.88916	7.20638	-8.46261	15.45893	21.71505	1.19386	0.83762	169.09402	171.12786	63.3162	0.33531	 	1.940687605E9	 	2.6612E-9	 	9576.52725	31.35999	 
780.0	1.0	0.0	7.89134	7.20439	-8.4879	15.43501	21.64514	1.19205	0.83889	169.47845	171.36143	63.46724	0.33516	 	2.246421628E9	 	2.28816E-9	 	9419.95268	31.31491	 
775.0	1.0	0.0	7.89352	7.2024	-8.51313	15.41108	21.57522	1.19024	0.84017	169.86218	171.59391	63.61806	0.33502	 	2.603952637E9	 	1.96461E-9	 	9263.60264	31.27001	 
770.0	1.0	0.0	7.89569	7.20042	-8.5383	15.38715	21.50528	1.18841	0.84146	170.24522	171.82532	63.76866	0.33487	 	3.022663316E9	 	1.68439E-9	 	9107.47626	31.22528	 
765.0	1.0	0.0	7.89786	7.19844	-8.56341	15.36321	21.43533	1.18658	0.84276	170.62757	172.05565	63.91902	0.33472	 	3.513744996E9	 	1.44204E-9	 	8951.57267	31.18072	 
760.0	1.0	0.0	7.90002	7.19647	-8.58846	15.33927	21.36537	1.18473	0.84407	171.00923	172.28491	64.06916	0.33457	 	4.090567197E9	 	1.23273E-9	 	8795.89095	31.13635	 
755.0	1.0	0.0	7.90218	7.19451	-8.61344	15.31532	21.2954	1.18287	0.8454	171.39019	172.5131	64.21907	0.33442	 	4.769126933E9	 	1.05221E-9	 	8640.43012	31.09217	 
750.0	1.0	0.0	7.90434	7.19254	-8.63836	15.29136	21.22542	1.181	0.84674	171.77047	172.74023	64.36875	0.33427	 	5.568595906E9	 	8.96768E-10	 	8485.18922	31.04818	 
745.0	1.0	0.0	7.90649	7.19059	-8.66322	15.2674	21.15542	1.17912	0.84809	172.15005	172.9663	64.51821	0.33412	 	6.511988061E9	 	7.63106E-10	 	8330.16721	31.0044	 
740.0	1.0	0.0	7.90864	7.18864	-8.68801	15.24344	21.08541	1.17722	0.84946	172.52894	173.19131	64.66744	0.33397	 	7.626975385E9	 	6.48348E-10	 	8175.36303	30.96083	 
735.0	1.0	0.0	7.91078	7.18669	-8.71274	15.21946	21.01538	1.17531	0.85084	172.90714	173.41526	64.81644	0.33382	 	8.946886595E9	 	5.49971E-10	 	8020.77559	30.91749	 
730.0	1.0	0.0	7.91292	7.18475	-8.73741	15.19549	20.94535	1.1734	0.85223	173.28465	173.63817	64.96521	0.33367	 	1.05119E10	 	4.65768E-10	 	7866.40371	30.87438	 
725.0	1.0	0.0	7.91505	7.18281	-8.76202	15.1715	20.8753	1.17146	0.85363	173.66147	173.86002	65.11375	0.33352	 	1.2370699999999998E10	 	3.93811E-10	 	7712.24621	30.8315	 
720.0	1.0	0.0	7.91718	7.18088	-8.78656	15.14751	20.80523	1.16952	0.85505	174.03759	174.08083	65.26207	0.33337	 	1.4581999999999998E10	 	3.32417E-10	 	7558.30185	30.78887	 
715.0	1.0	0.0	7.91931	7.17895	-8.81105	15.12352	20.73515	1.16757	0.85648	174.41303	174.3006	65.41016	0.33323	 	1.72173E10	 	2.8012E-10	 	7404.56933	30.7465	 
710.0	1.0	0.0	7.92143	7.17703	-8.83547	15.09952	20.66506	1.1656	0.85793	174.78778	174.51933	65.55802	0.33308	 	2.03632E10	 	2.35646E-10	 	7251.04727	30.70441	 
705.0	1.0	0.0	7.92355	7.17511	-8.85982	15.07551	20.59495	1.16362	0.85939	175.16184	174.73703	65.70566	0.33293	 	2.4125199999999996E10	 	1.97888E-10	 	7097.73426	30.6626	 
700.0	1.0	0.0	7.92566	7.1732	-8.88412	15.0515	20.52483	1.16163	0.86086	175.53521	174.95369	65.85307	0.33278	 	2.8632199999999996E10	 	1.65887E-10	 	6944.62882	30.62109	 
695.0	1.0	0.0	7.92777	7.17129	-8.90835	15.02749	20.45469	1.15962	0.86235	175.9079	175.16932	66.00025	0.33263	 	3.4041199999999996E10	 	1.38811E-10	 	6791.72938	30.57989	 
690.0	1.0	0.0	7.92987	7.16939	-8.93252	15.00346	20.38454	1.1576	0.86386	176.27989	175.38393	66.1472	0.33248	 	4.05448E10	 	1.15943E-10	 	6639.03432	30.53901	 
685.0	1.0	0.0	7.93197	7.16749	-8.95662	14.97944	20.31437	1.15557	0.86537	176.6512	175.59752	66.29392	0.33233	 	4.837919999999999E10	 	9.66632E-11	 	6486.54192	30.49848	 
680.0	1.0	0.0	7.93406	7.1656	-8.98067	14.9554	20.24419	1.15352	0.86691	177.02181	175.81008	66.44042	0.33218	 	5.783449999999999E10	 	8.04379E-11	 	6334.25037	30.45831	 
675.0	1.0	0.0	7.93616	7.16371	-9.00465	14.93136	20.17399	1.15147	0.86846	177.39174	176.02163	66.58669	0.33204	 	6.92681E10	 	6.68083E-11	 	6182.15778	30.41852	 
670.0	1.0	0.0	7.93824	7.16182	-9.02856	14.90732	20.10377	1.14939	0.87002	177.76099	176.23217	66.73273	0.33189	 	8.31208E10	 	5.53806E-11	 	6030.26217	30.37912	 
665.0	1.0	0.0	7.94032	7.15995	-9.05242	14.88327	20.03354	1.14731	0.8716	178.12954	176.4417	66.87855	0.33174	 	9.993789999999998E10	 	4.58172E-11	 	5878.56143	30.34015	 
660.0	1.0	0.0	7.9424	7.15807	-9.07621	14.85921	19.96329	1.14521	0.8732	178.49741	176.65022	67.02414	0.33159	 	1.20395E11	 	3.78294E-11	 	5727.05862	30.30056	 
655.0	1.0	0.0	7.94448	7.15621	-9.09994	14.83515	19.89302	1.1431	0.87482	178.86459	176.85773	67.1695	0.33144	 	1.45331E11	 	3.11707E-11	 	5575.78284	30.25515	 
650.0	1.0	0.0	7.94654	7.15434	-9.12361	14.81108	19.82274	1.14097	0.87645	179.23109	177.06424	67.31463	0.33129	 	1.7579E11	 	2.5631E-11	 	5424.77281	30.20201	 
645.0	1.0	0.0	7.94861	7.15248	-9.14721	14.78701	19.75244	1.13883	0.87809	179.5969	177.26976	67.45953	0.33115	 	2.13073E11	 	2.10316E-11	 	5274.02767	30.14903	 
640.0	1.0	0.0	7.95067	7.15063	-9.17075	14.76293	19.68212	1.13668	0.87976	179.96202	177.47428	67.60421	0.331	 	2.58808E11	 	1.72207E-11	 	5123.54661	30.09621	 
635.0	1.0	0.0	7.95272	7.14878	-9.19423	14.73884	19.61178	1.13451	0.88144	180.32646	177.67781	67.74866	0.33085	 	3.15034E11	 	1.40698E-11	 	4973.32878	30.04356	 
630.0	1.0	0.0	7.95478	7.14694	-9.21764	14.71475	19.54143	1.13232	0.88314	180.69021	177.88035	67.89289	0.3307	 	3.84311E11	 	1.147E-11	 	4823.37337	29.99108	 
625.0	1.0	0.0	7.95682	7.1451	-9.24099	14.69066	19.47105	1.13012	0.88486	181.05327	178.0819	68.03688	0.33055	 	4.69861E11	 	9.32967E-12	 	4673.67928	29.93882	 
620.0	1.0	0.0	7.95886	7.14327	-9.26428	14.66656	19.40066	1.12791	0.8866	181.41565	178.28247	68.18065	0.3304	 	5.75749E11	 	7.57144E-12	 	4524.245	29.88686	 
615.0	1.0	0.0	7.9609	7.14144	-9.28751	14.64245	19.33025	1.12568	0.88835	181.77735	178.48206	68.32419	0.33026	 	7.07115E11	 	6.13031E-12	 	4375.07007	29.83499	 
610.0	1.0	0.0	7.96294	7.13962	-9.31067	14.61834	19.25981	1.12344	0.89013	182.13836	178.68067	68.4675	0.33011	 	8.70479E11	 	4.9518E-12	 	4226.15368	29.78328	 
605.0	1.0	0.0	7.96496	7.1378	-9.33377	14.59422	19.18936	1.12118	0.89192	182.49869	178.87831	68.61059	0.32996	 	1.07412E12	 	3.99026E-12	 	4077.49503	29.73173	 
600.0	1.0	0.0	7.96699	7.13598	-9.3568	14.57009	19.11889	1.1189	0.89373	182.85833	179.07497	68.75344	0.32981	 	1.32861E12	 	3.2076E-12	 	3929.09331	29.68034	 
595.0	1.0	0.0	7.96901	7.13418	-9.37978	14.54596	19.04839	1.11661	0.89557	183.21729	179.27067	68.89607	0.32966	 	1.64741E12	 	2.57206E-12	 	3780.94772	29.62912	 
590.0	1.0	0.0	7.97102	7.13237	-9.40269	14.52183	18.97788	1.11431	0.89742	183.57556	179.4654	69.03848	0.32952	 	2.0478E12	 	2.05724E-12	 	3633.05745	29.57805	 
585.0	1.0	0.0	7.97303	7.13057	-9.42553	14.49769	18.90734	1.11198	0.89929	183.93315	179.65917	69.18065	0.32937	 	2.55198E12	 	1.64124E-12	 	3485.42174	29.52714	 
580.0	1.0	0.0	7.97504	7.12878	-9.44832	14.47354	18.83678	1.10965	0.90119	184.29005	179.85197	69.3226	0.32922	 	3.1885E12	 	1.30595E-12	 	3338.03976	29.4764	 
575.0	1.0	0.0	7.97704	7.12699	-9.47104	14.44939	18.7662	1.10729	0.9031	184.64628	180.04382	69.46432	0.32907	 	3.99425E12	 	1.03639E-12	 	3190.91074	29.42581	 
570.0	1.0	0.0	7.97904	7.12521	-9.49369	14.42523	18.69559	1.10492	0.90504	185.00182	180.23472	69.60581	0.32893	 	5.01701E12	 	8.20251E-13	 	3044.03388	29.37537	 
565.0	1.0	0.0	7.98103	7.12343	-9.51629	14.40107	18.62497	1.10253	0.907	185.35667	180.42466	69.74707	0.32878	 	6.31881E12	 	6.474E-13	 	2897.4084	29.3251	 
560.0	1.0	0.0	7.98302	7.12165	-9.53882	14.3769	18.55432	1.10013	0.90898	185.71085	180.61365	69.88811	0.32863	 	7.98048E12	 	5.09543E-13	 	2751.03353	29.27498	 
555.0	1.0	0.0	7.985	7.11989	-9.56128	14.35272	18.48364	1.09771	0.91099	186.06434	180.8017	70.02892	0.32848	 	1.01076E13	 	3.99898E-13	 	2604.90848	29.22501	 
550.0	1.0	0.0	7.98698	7.11812	-9.58369	14.32854	18.41294	1.09527	0.91302	186.41714	180.9888	70.1695	0.32833	 	1.28384E13	 	3.12935E-13	 	2459.03247	29.1752	 
545.0	1.0	0.0	7.98895	7.11636	-9.60603	14.30436	18.34222	1.09282	0.91507	186.76927	181.17497	70.30985	0.32819	 	1.63548E13	 	2.4416E-13	 	2313.40474	29.12555	 
540.0	1.0	0.0	7.99092	7.11461	-9.62831	14.28016	18.27147	1.09034	0.91714	187.11527	181.35492	70.44793	0.32804	 	2.08964E13	 	1.89926E-13	 	2168.02452	29.07604	 
535.0	1.0	0.0	7.99289	7.11286	-9.65052	14.25597	18.20069	1.08785	0.91924	187.46603	181.53921	70.58783	0.32789	 	2.67803E13	 	1.47287E-13	 	2022.89105	29.02669	 
530.0	1.0	0.0	7.99485	7.11112	-9.67267	14.23176	18.12989	1.08534	0.92137	187.8161	181.72256	70.72749	0.32774	 	3.44271E13	 	1.13863E-13	 	1878.00356	28.9775	 
525.0	1.0	0.0	7.9968	7.10938	-9.69476	14.20756	18.05907	1.08282	0.92352	188.1655	181.90499	70.86693	0.3276	 	4.43969E13	 	8.77441E-14	 	1733.36129	28.92845	 
520.0	1.0	0.0	7.99875	7.10764	-9.71678	14.18334	17.98821	1.08027	0.92569	188.51421	182.08649	71.00615	0.32745	 	5.74378E13	 	6.73976E-14	 	1588.9635	28.87956	 
515.0	1.0	0.0	8.0007	7.10592	-9.73874	14.15912	17.91733	1.07771	0.92789	188.86224	182.26706	71.14513	0.3273	 	7.45524E13	 	5.15982E-14	 	1444.80942	28.83082	 
510.0	1.0	0.0	8.00264	7.10419	-9.76063	14.1349	17.84642	1.07513	0.93012	189.20959	182.44672	71.28389	0.32716	 	9.70893E13	 	3.93695E-14	 	1300.89833	28.78222	 
505.0	1.0	0.0	8.00458	7.10247	-9.78247	14.11066	17.77548	1.07253	0.93238	189.55626	182.62545	71.42242	0.32701	 	1.2686899999999998E14	 	2.99361E-14	 	1157.22947	28.73377	 
500.0	1.0	0.0	8.00651	7.10076	-9.80424	14.08643	17.70451	1.06991	0.93466	189.90225	182.80327	71.56072	0.32686	 	1.66357E14	 	2.26834E-14	 	1013.80212	28.68547	 
495.0	1.0	0.0	8.00844	7.09905	-9.82594	14.06218	17.63351	1.06727	0.93697	190.24756	182.98017	71.69879	0.32671	 	2.18908E14	 	1.71266E-14	 	870.61553	28.63732	 
490.0	1.0	0.0	8.01036	7.09735	-9.84758	14.03794	17.56248	1.06461	0.93931	190.59219	183.15616	71.83664	0.32657	 	2.89096E14	 	1.28841E-14	 	727.66898	28.58931	 
485.0	1.0	0.0	8.01228	7.09565	-9.86916	14.01368	17.49142	1.06193	0.94168	190.93614	183.33124	71.97425	0.32642	 	3.83192E14	 	9.65663E-15	 	584.96174	28.54145	 
480.0	1.0	0.0	8.01419	7.09395	-9.89068	13.98942	17.42033	1.05923	0.94408	191.2794	183.50542	72.11164	0.32627	 	5.0981799999999994E14	 	7.21029E-15	 	442.49312	28.49373	 
475.0	1.0	0.0	8.0161	7.09227	-9.91213	13.96516	17.34921	1.05651	0.94651	191.62199	183.67869	72.2488	0.32613	 	6.80882E14	 	5.36295E-15	 	300.26237	28.44615	 
470.0	1.0	0.0	8.018	7.09058	-9.93351	13.94089	17.27805	1.05377	0.94897	191.9639	183.85106	72.38573	0.32598	 	9.12891E14	 	3.97323E-15	 	158.2688	28.39871	 
465.0	1.0	0.0	8.0199	7.0889	-9.95484	13.91661	17.20686	1.05102	0.95146	192.30513	184.02253	72.52244	0.32583	 	1.22883E15	 	2.93184E-15	 	16.51171	28.35142	 
460.0	1.0	0.0	8.0218	7.08723	-9.9761	13.89233	17.13564	1.04823	0.95398	192.64567	184.19311	72.65891	0.32569	 	1.66083E15	 	2.15454E-15	 	-125.0096	28.30426	 
455.0	1.0	0.0	8.02368	7.08556	-9.99729	13.86804	17.06438	1.04543	0.95654	192.98554	184.36279	72.79516	0.32554	 	2.254E15	 	1.57671E-15	 	-266.29582	28.25724	 
450.0	1.0	0.0	8.02557	7.0839	-10.01842	13.84375	16.99309	1.04261	0.95913	193.32473	184.53158	72.93118	0.32539	 	3.07198E15	 	1.14894E-15	 	-407.34764	28.21036	 
445.0	1.0	0.0	8.02745	7.08224	-10.03949	13.81945	16.92176	1.03977	0.96175	193.66324	184.69948	73.06697	0.32524	 	4.20489E15	 	8.3358E-16	 	-548.16573	28.16362	 
440.0	1.0	0.0	8.02932	7.08058	-10.0605	13.79514	16.85039	1.0369	0.96441	194.00107	184.8665	73.20254	0.3251	 	5.78099E15	 	6.02095E-16	 	-688.75077	28.11701	 
435.0	1.0	0.0	8.03119	7.07894	-10.08144	13.77083	16.77899	1.03401	0.96711	194.33823	185.03263	73.33787	0.32495	 	7.98367E15	 	4.32922E-16	 	-829.10342	28.07053	 
430.0	1.0	0.0	8.03306	7.07729	-10.10231	13.74652	16.70755	1.0311	0.96984	194.6747	185.19788	73.47298	0.3248	 	1.10764E16	 	3.0984E-16	 	-969.22434	28.02418	 
425.0	1.0	0.0	8.03492	7.07565	-10.12313	13.7222	16.63607	1.02817	0.9726	195.0105	185.36225	73.60785	0.32466	 	1.54393E16	 	2.20703E-16	 	-1109.11411	27.97795	 
420.0	1.0	0.0	8.03677	7.07402	-10.14388	13.69787	16.56455	1.02521	0.97541	195.34561	185.52574	73.7425	0.32451	 	2.16242E16	 	1.5645E-16	 	-1248.7735	27.93188	 
415.0	1.0	0.0	8.03862	7.07239	-10.16456	13.67354	16.49298	1.02223	0.97825	195.68005	185.68836	73.87692	0.32437	 	3.04353E16	 	1.10355E-16	 	-1388.20281	27.88586	 
410.0	1.0	0.0	8.04047	7.07077	-10.18518	13.6492	16.42138	1.01923	0.98113	196.01381	185.85011	74.01112	0.32422	 	4.30515E16	 	7.74488E-17	 	-1527.40226	27.83989	 
405.0	1.0	0.0	8.04231	7.06915	-10.20574	13.62485	16.34973	1.0162	0.98405	196.34689	186.01099	74.14508	0.32407	 	6.12096E16	 	5.40746E-17	 	-1666.37203	27.79395	 
400.0	1.0	0.0	8.04415	7.06754	-10.22623	13.60051	16.27804	1.01315	0.98702	196.6793	186.17101	74.27881	0.32393	 	8.74825E16	 	3.75558E-17	 	-1805.11229	27.74805	 
395.0	1.0	0.0	8.04598	7.06593	-10.24666	13.57615	16.20631	1.01008	0.99002	197.01102	186.33016	74.41232	0.32378	 	1.25703E17	 	2.59427E-17	 	-1943.62323	27.70219	 
390.0	1.0	0.0	8.0478	7.06433	-10.26703	13.55179	16.13453	1.00698	0.99307	197.34207	186.48844	74.5456	0.32363	 	1.81611E17	 	1.7822E-17	 	-2081.90499	27.65635	 
385.0	1.0	0.0	8.04962	7.06273	-10.28733	13.52742	16.06271	1.00386	0.99616	197.67244	186.64587	74.67865	0.32349	 	2.63856E17	 	1.21743E-17	 	-2219.95774	27.61055	 
380.0	1.0	0.0	8.05144	7.06113	-10.30756	13.50305	15.99083	1.00071	0.99929	198.00214	186.80244	74.81147	0.32334	 	3.85546E17	 	8.26844E-18	 	-2357.7816	27.56477	 
375.0	1.0	0.0	8.05325	7.05955	-10.32774	13.47867	15.91891	0.99754	1.00247	198.33116	186.95816	74.94406	0.32319	 	5.66665E17	 	5.5826E-18	 	-2495.37672	27.51902	 
370.0	1.0	0.0	8.05506	7.05796	-10.34784	13.45429	15.84694	0.99434	1.0057	198.6595	187.11302	75.07642	0.32305	 	8.3787E17	 	3.74647E-18	 	-2632.74321	27.4733	 
365.0	1.0	0.0	8.05686	7.05638	-10.36789	13.4299	15.77492	0.99111	1.00897	198.98716	187.26703	75.20855	0.3229	 	1.24649E18	 	2.49874E-18	 	-2769.88121	27.4276	 
360.0	1.0	0.0	8.05866	7.05481	-10.38787	13.4055	15.70285	0.98786	1.01229	199.31414	187.4202	75.34046	0.32276	 	1.86606E18	 	1.65603E-18	 	-2906.79077	27.38191	 
355.0	1.0	0.0	8.06045	7.05324	-10.40778	13.3811	15.63072	0.98458	1.01566	199.64045	187.57252	75.47213	0.32261	 	2.81159E18	 	1.09043E-18	 	-3043.47202	27.33625	 
350.0	1.0	0.0	8.06223	7.05168	-10.42764	13.3567	15.55854	0.98127	1.01908	199.96608	187.72399	75.60358	0.32246	 	4.26418E18	 	7.13253E-19	 	-3179.92502	27.2906	 
345.0	1.0	0.0	8.06401	7.05012	-10.44742	13.33229	15.48631	0.97794	1.02256	200.29104	187.87463	75.73479	0.32232	 	6.51097E18	 	4.63378E-19	 	-3316.14983	27.24496	 
340.0	1.0	0.0	8.06579	7.04857	-10.46715	13.30787	15.41402	0.97458	1.02608	200.61532	188.02442	75.86578	0.32217	 	1.00104E19	 	2.98951E-19	 	-3452.1465	27.19933	 
335.0	1.0	0.0	8.06756	7.04702	-10.48681	13.28345	15.34167	0.97119	1.02966	200.93892	188.17338	75.99654	0.32203	 	1.55E19	 	1.91498E-19	 	-3587.91506	27.15371	 
330.0	1.0	0.0	8.06933	7.04548	-10.5064	13.25902	15.26926	0.96777	1.0333	201.26185	188.32151	76.12707	0.32188	 	2.41746E19	 	1.21773E-19	 	-3723.45555	27.1081	 
325.0	1.0	0.0	8.07109	7.04394	-10.52593	13.23458	15.19679	0.96433	1.03699	201.5841	188.4688	76.25737	0.32174	 	3.79852E19	 	7.68569E-20	 	-3858.76797	27.06248	 
320.0	1.0	0.0	8.07285	7.04241	-10.5454	13.21014	15.12426	0.96085	1.04074	201.90567	188.61527	76.38744	0.32159	 	6.01419E19	 	4.81365E-20	 	-3993.8523	27.01687	 
315.0	1.0	0.0	8.0746	7.04088	-10.5648	13.1857	15.05166	0.95735	1.04455	202.22657	188.7609	76.51728	0.32144	 	9.59695E19	 	2.99117E-20	 	-4128.70853	26.97125	 
310.0	1.0	0.0	8.07634	7.03936	-10.58413	13.16125	14.979	0.95381	1.04842	202.5468	188.90572	76.64689	0.3213	 	1.54372E20	 	1.84373E-20	 	-4263.33661	26.92562	 
305.0	1.0	0.0	8.07809	7.03784	-10.60341	13.13679	14.90628	0.95025	1.05236	202.86634	189.0497	76.77628	0.32115	 	2.5036699999999997E20	 	1.12707E-20	 	-4397.73647	26.87997	 
300.0	1.0	0.0	8.07982	7.03633	-10.62261	13.11233	14.83348	0.94665	1.05635	203.18522	189.19287	76.90543	0.32101	 	4.09494E20	 	6.83136E-21	 	-4531.90806	26.83432	 
295.0	1.0	0.0	8.08155	7.03482	-10.64176	13.08786	14.76061	0.94303	1.06041	203.50341	189.33522	77.03435	0.32086	 	6.75585E20	 	4.10459E-21	 	-4665.85125	26.78864	 
290.0	1.0	0.0	8.08328	7.03332	-10.66084	13.06339	14.68768	0.93937	1.06454	203.82093	189.47675	77.16305	0.32072	 	1.12454E21	 	2.4442E-21	 	-4799.56596	26.74294	 
285.0	1.0	0.0	8.085	7.03183	-10.67985	13.03891	14.61466	0.93568	1.06874	204.13778	189.61747	77.29151	0.32057	 	1.889E21	 	1.44214E-21	 	-4933.05202	26.69721	 
280.0	1.0	0.0	8.08671	7.03033	-10.6988	13.01442	14.54158	0.93196	1.07301	204.45395	189.75738	77.41974	0.32043	 	3.20303E21	 	8.42885E-22	 	-5066.30929	26.65145	 
275.0	1.0	0.0	8.08843	7.02885	-10.71769	12.98993	14.46841	0.92821	1.07735	204.76944	189.89647	77.54775	0.32028	 	5.48371E21	 	4.87878E-22	 	-5199.33757	26.60566	 
270.0	1.0	0.0	8.09013	7.02737	-10.73651	12.96543	14.39517	0.92442	1.08176	205.08427	190.03476	77.67552	0.32013	 	9.481740000000001E21	 	2.79588E-22	 	-5332.13667	26.55982	 
265.0	1.0	0.0	8.09183	7.02589	-10.75526	12.94093	14.32184	0.9206	1.08625	205.39841	190.17224	77.80307	0.31999	 	1.65623E22	 	1.58588E-22	 	-5464.70637	26.51394	 
260.0	1.0	0.0	8.09353	7.02442	-10.77395	12.91642	14.24843	0.91674	1.09082	205.71188	190.30892	77.93038	0.31984	 	2.9234499999999996E22	 	8.90104E-23	 	-5597.04639	26.468	 
255.0	1.0	0.0	8.09522	7.02295	-10.79258	12.89191	14.17493	0.91286	1.09546	206.02468	190.4448	78.05747	0.3197	 	5.2160699999999995E22	 	4.94197E-23	 	-5729.15645	26.42201	 
250.0	1.0	0.0	8.0969	7.02149	-10.81114	12.86739	14.10134	0.90893	1.10019	206.3368	190.57988	78.18432	0.31955	 	9.410179999999999E22	 	2.71341E-23	 	-5861.03625	26.37596	 
245.0	1.0	0.0	8.09858	7.02003	-10.82964	12.84287	14.02767	0.90497	1.105	206.64825	190.71416	78.31095	0.31941	 	1.7171099999999997E23	 	1.4728E-23	 	-5992.68544	26.32984	 
240.0	1.0	0.0	8.10025	7.01858	-10.84807	12.81834	13.9539	0.90098	1.1099	206.95902	190.84765	78.43734	0.31926	 	3.1702099999999994E23	 	7.90029E-24	 	-6124.10365	26.28364	 
235.0	1.0	0.0	8.10192	7.01714	-10.86644	12.7938	13.88003	0.89695	1.11489	207.26912	190.98034	78.56351	0.31912	 	5.9240499999999995E23	 	4.18659E-24	 	-6255.29047	26.23736	 
230.0	1.0	0.0	8.10359	7.01569	-10.88474	12.76926	13.80606	0.89288	1.11997	207.57855	191.11224	78.68944	0.31897	 	1.12085E24	 	2.19098E-24	 	-6386.24546	26.191	 
225.0	1.0	0.0	8.10525	7.01426	-10.90298	12.74471	13.73199	0.88878	1.12514	207.8873	191.24336	78.81515	0.31883	 	2.14799E24	 	1.13192E-24	 	-6516.96814	26.14454	 
220.0	1.0	0.0	8.1069	7.01283	-10.92116	12.72016	13.65782	0.88463	1.13041	208.19537	191.37368	78.94062	0.31868	 	4.17106E24	 	5.77058E-25	 	-6647.458	26.09797	 
215.0	1.0	0.0	8.10855	7.0114	-10.93927	12.6956	13.58353	0.88045	1.13578	208.50278	191.50323	79.06587	0.31854	 	8.21041E24	 	2.90185E-25	 	-6777.71449	26.0513	 
210.0	1.0	0.0	8.11019	7.00998	-10.95731	12.67104	13.50914	0.87623	1.14125	208.80951	191.63199	79.19088	0.31839	 	1.6389700000000002E25	 	1.43879E-25	 	-6907.73701	26.0045	 
205.0	1.0	0.0	8.11183	7.00857	-10.97529	12.64647	13.43463	0.87198	1.14682	209.11556	191.75997	79.31566	0.31825	 	3.3193700000000003E25	 	7.03064E-26	 	-7037.52491	25.95758	 
200.0	1.0	0.0	8.11346	7.00716	-10.9932	12.62189	13.36001	0.86768	1.1525	209.42094	191.88717	79.44021	0.3181	 	6.82367E25	 	3.38429E-26	 	-7167.07751	25.91052	 
195.0	1.0	0.0	8.11509	7.00575	-11.01105	12.59731	13.28526	0.86334	1.15829	209.72565	192.01359	79.56454	0.31796	 	1.42451E26	 	1.60401E-26	 	-7296.39407	25.86331	 
190.0	1.0	0.0	8.11671	7.00435	-11.02884	12.57272	13.21038	0.85896	1.1642	210.02969	192.13924	79.68863	0.31781	 	3.0214400000000003E26	 	7.4816E-27	 	-7425.4738	25.81595	 
185.0	1.0	0.0	8.11833	7.00296	-11.04655	12.54813	13.13538	0.85454	1.17022	210.33305	192.26412	79.81249	0.31767	 	6.514640000000001E26	 	3.43245E-27	 	-7554.31587	25.76841	 
180.0	1.0	0.0	8.11994	7.00157	-11.06421	12.52354	13.06024	0.85007	1.17637	210.63574	192.38822	79.93612	0.31753	 	1.4286599999999998E27	 	1.5481E-27	 	-7682.91938	25.7207	 
175.0	1.0	0.0	8.12155	7.00018	-11.0818	12.49893	12.98496	0.84557	1.18264	210.93775	192.51156	80.05952	0.31738	 	3.18845E27	 	6.86009E-28	 	-7811.28335	25.67279	 
170.0	1.0	0.0	8.12315	6.9988	-11.09932	12.47432	12.90955	0.84102	1.18903	211.2391	192.63413	80.18268	0.31724	 	7.24599E27	 	2.98497E-28	 	-7939.40676	25.62468	 
165.0	1.0	0.0	8.12474	6.99743	-11.11678	12.44971	12.83398	0.83643	1.19556	211.53976	192.75594	80.30562	0.31709	 	1.6778500000000002E28	 	1.27455E-28	 	-8067.28854	25.57636	 
160.0	1.0	0.0	8.12633	6.99606	-11.13417	12.42509	12.75826	0.83179	1.20223	211.83976	192.87698	80.42833	0.31695	 	3.96118E28	 	5.33704E-29	 	-8194.92751	25.52779	 
155.0	1.0	0.0	8.12792	6.99469	-11.1515	12.40046	12.68238	0.82711	1.20904	212.13908	192.99726	80.5508	0.3168	 	9.54138E28	 	2.19014E-29	 	-8322.32244	25.47898	 
150.0	1.0	0.0	8.1295	6.99334	-11.16877	12.37583	12.60635	0.82238	1.21599	212.43774	193.11679	80.67305	0.31666	 	2.3465000000000002E29	 	8.80158E-30	 	-8449.47199	25.42991	 
145.0	1.0	0.0	8.13107	6.99198	-11.18597	12.35119	12.53014	0.8176	1.22309	212.73571	193.23556	80.79506	0.31651	 	5.8962500000000004E29	 	3.46133E-30	 	-8576.37479	25.38056	 
140.0	1.0	0.0	8.13264	6.99063	-11.2031	12.32655	12.45376	0.81278	1.23034	213.03302	193.35357	80.91684	0.31637	 	1.51501E30	 	1.331E-30	 	-8703.02932	25.33091	 
135.0	1.0	0.0	8.1342	6.98929	-11.22017	12.3019	12.37719	0.80791	1.23776	213.32965	193.47083	81.03839	0.31623	 	3.98381E30	 	5.00044E-31	 	-8829.43399	25.28093	 
130.0	1.0	0.0	8.13576	6.98795	-11.23717	12.27725	12.30044	0.80299	1.24534	213.62561	193.58734	81.15971	0.31608	 	1.07299E31	 	1.83383E-31	 	-8955.58713	25.23063	 
125.0	1.0	0.0	8.13732	6.98662	-11.25411	12.25259	12.2235	0.79803	1.25309	213.9209	193.7031	81.2808	0.31594	 	2.9627799999999997E31	 	6.55894E-32	 	-9081.48692	25.17996	 
120.0	1.0	0.0	8.13886	6.98529	-11.27098	12.22792	12.14635	0.79301	1.26102	214.21552	193.81811	81.40166	0.31579	 	8.39507E31	 	2.28571E-32	 	-9207.13147	25.12891	 
115.0	1.0	0.0	8.1404	6.98397	-11.28779	12.20325	12.06899	0.78794	1.26913	214.50946	193.93238	81.52228	0.31565	 	2.44344E32	 	7.75326E-33	 	-9332.51873	25.07745	 
110.0	1.0	0.0	8.14194	6.98265	-11.30453	12.17857	11.99142	0.78282	1.27743	214.80274	194.0459	81.64268	0.31551	 	7.31289E32	 	2.55721E-33	 	-9457.64654	25.02556	 
105.0	1.0	0.0	8.14347	6.98133	-11.3212	12.15389	11.91362	0.77765	1.28592	215.09534	194.15869	81.76284	0.31536	 	2.25302E33	 	8.19191E-34	 	-9582.5126	24.97321	 
100.0	1.0	0.0	8.145	6.98003	-11.33782	12.1292	11.83559	0.77243	1.29461	215.38726	194.27073	81.88277	0.31522	 	7.15384E33	 	2.54584E-34	 	-9707.11446	24.92037	 
95.0	1.0	0.0	8.14652	6.97872	-11.35436	12.10451	11.75731	0.76715	1.30352	215.67852	194.38203	82.00247	0.31507	 	2.3439100000000003E34	 	7.66602E-35	 	-9831.44951	24.86701	 
90.0	1.0	0.0	8.14803	6.97743	-11.37084	12.07981	11.67877	0.76182	1.31264	215.96911	194.4926	82.12194	0.31493	 	7.9348100000000005E34	 	2.23376E-35	 	-9955.51497	24.81309	 
85.0	1.0	0.0	8.14954	6.97613	-11.38726	12.0551	11.59998	0.75644	1.32198	216.25902	194.60244	82.24117	0.31479	 	2.7791899999999998E35	 	6.28974E-36	 	-10079.30789	24.75858	 
80.0	1.0	0.0	8.15105	6.97485	-11.40361	12.03039	11.52091	0.751	1.33156	216.54826	194.71154	82.36017	0.31464	 	1.00859E36	 	1.70895E-36	 	-10202.82512	24.70345	 
75.0	1.0	0.0	8.15254	6.97357	-11.41989	12.00568	11.44155	0.7455	1.34138	216.83683	194.81992	82.47895	0.3145	 	3.79833E36	 	4.47364E-37	 	-10326.06332	24.64764	 
70.0	1.0	0.0	8.15404	6.97229	-11.43611	11.98095	11.36188	0.73995	1.35145	217.12473	194.92756	82.59749	0.31435	 	1.48679E37	 	1.12647E-37	 	-10449.01887	24.59111	 
65.0	1.0	0.0	8.15553	6.97102	-11.45226	11.95623	11.28191	0.73433	1.36178	217.41196	195.03448	82.71579	0.31421	 	6.05949E37	 	2.72371E-38	 	-10571.68801	24.53383	 
60.0	1.0	0.0	8.15701	6.96975	-11.46835	11.93149	11.20161	0.72866	1.37238	217.69851	195.14067	82.83387	0.31407	 	2.5759399999999998E38	 	6.31234E-39	 	-10694.06662	24.47572	 
55.0	1.0	0.0	8.15848	6.96849	-11.48437	11.90675	11.12097	0.72293	1.38326	217.9844	195.24614	82.95171	0.31392	 	1.14443E39	 	1.39949E-39	 	-10816.15039	24.41675	 
50.0	1.0	0.0	8.15995	6.96723	-11.50033	11.88201	11.03997	0.71714	1.39443	218.26961	195.35089	83.06932	0.31378	 	5.3245800000000005E39	 	2.96214E-40	 	-10937.93465	24.35685	 
45.0	1.0	0.0	8.16142	6.96598	-11.51622	11.85726	10.95859	0.71128	1.40591	218.55416	195.45492	83.1867	0.31364	 	2.59996E40	 	5.97244E-41	 	-11059.41445	24.29596	 
40.0	1.0	0.0	8.16288	6.96474	-11.53204	11.8325	10.87683	0.70537	1.4177	218.83803	195.55823	83.30385	0.31349	 	1.3354900000000001E41	 	1.14445E-41	 	-11180.58448	24.23401	 
35.0	1.0	0.0	8.16433	6.9635	-11.5478	11.80774	10.79465	0.69939	1.42982	219.12123	195.66083	83.42077	0.31335	 	7.23399E41	 	2.07908E-42	 	-11301.43906	24.17092	 
30.0	1.0	0.0	8.16578	6.96226	-11.56349	11.78297	10.71203	0.69335	1.44228	219.40376	195.76271	83.53745	0.31321	 	4.1430299999999994E42	 	3.57129E-43	 	-11421.97209	24.10661	 
25.0	1.0	0.0	8.16723	6.96103	-11.57912	 	10.62897	0.68724	1.45509	219.68562	195.86388	83.6539	0.31306	 	2.51583E43	 	5.78417E-44	 	-11542.17706	 	 
