T (C)	Fraction solid (wt)-TOTAL	Fraction liquid (wt)-LIQUID	Density (g/(cm)^3)-TOTAL	Molar volume (cm^3)-TOTAL	Volume change (%)-  	Average expansion coeff. (10e-6 1/K)-  	Thermal conductivity (W/(m*K))-TOTAL	Electrical resistivity (10e-6 Ohm*m)-TOTAL	Electrical conductivity (10e6 1/(Ohm*m))-TOTAL	Young's modulus (GPa)-TOTAL	Bulk modulus (GPa)-TOTAL	Shear modulus(GPa)-TOTAL	Poisson's ratio-TOTAL	Liquid viscosity (mPa s)-  	Total viscosity (mPa s)-  	Liquid diffusivity (10e-9 (m^2)/s)-  	Total diffusivity (10e-9 (m^2)/s)-  	Surface Tension (mN/m)-  	Enthalpy (J/mole)-TOTAL	Specific heat (J/(mole K))-TOTAL	Latent heat (J/mole)-TOTAL
1400.0	0.0	1.0	7.56698	7.85107	0.0	28.51278	27.9684	1.46566	0.68229	0.0	127.09838	0.0	0.5	8.19389	8.19389	0.99662	0.99662	1836.54177	54020.301	 	0.0
1395.0	0.0	1.0	7.57105	7.84684	-0.053788	28.47058	27.89893	1.46492	0.68263	0.0	127.25768	0.0	0.5	8.28439	8.28439	0.98279	0.98279	1840.0064	53815.946	40.871	0.0
1390.0	0.0	1.0	7.57511	7.84263	-0.10742	28.4285	27.82945	1.46417	0.68298	0.0	127.41697	0.0	0.5	8.37645	8.37645	0.96908	0.96908	1843.49179	53612.064	40.7764	0.0
1385.0	0.0	1.0	7.57917	7.83843	-0.1609	28.38653	27.75998	1.46343	0.68333	0.0	127.57626	0.0	0.5	8.47009	8.47009	0.95548	0.95548	1846.99784	53408.653	40.6822	0.0
1380.0	0.0	1.0	7.58322	7.83425	-0.21422	28.34468	27.6905	1.46267	0.68368	0.0	127.73555	0.0	0.5	8.56535	8.56535	0.94201	0.94201	1850.52441	53205.711	40.5884	0.0
1375.0	0.0	1.0	7.58726	7.83007	-0.26738	28.30295	27.62103	1.46192	0.68403	0.0	127.89484	0.0	0.5	8.66227	8.66227	0.92865	0.92865	1854.07135	53003.235	40.4952	0.0
1370.0	0.0	1.0	7.5913	7.82591	-0.32039	28.26134	27.55155	1.46116	0.68439	0.0	128.05414	0.0	0.5	8.76089	8.76089	0.91541	0.91541	1857.6385	52801.221	40.4028	0.0
1365.0	0.0	1.0	7.59533	7.82176	-0.37324	28.21986	27.48207	1.46039	0.68475	0.0	128.21343	0.0	0.5	8.86125	8.86125	0.90229	0.90229	1861.22573	52599.669	40.3104	0.0
1362.76	0.0	1.0	7.59713	7.81991	-0.39687	28.20132	27.45095	1.46005	0.68491	0.0	128.28479	0.0	0.5	8.90678	8.90678	0.89645	0.89645	1862.83918	52509.529	40.24377	0.0
1360.0	0.0950007	0.905	7.62233	7.79405	-0.72618	27.34065	27.73373	1.44273	0.69313	0.00823753	129.05105	0.00276979	0.48703	8.96819	12.31033	0.88881	0.6475	1862.32187	50966.395	559.07614	1432.178
1355.0	0.24087	0.75913	7.66158	7.75411	-1.2349	26.0185	28.17221	1.41592	0.70625	0.34863	130.23294	0.11883	0.46687	9.07921	105.96131	0.87525	0.0749953	1861.34965	48578.293	477.6204	3619.64
1350.0	0.3557	0.6443	7.69319	7.72229	-1.64021	24.9771	28.51976	1.39437	0.71717	1.69038	131.20007	0.58258	0.45077	9.19048	484.49642	0.862	0.0163514	1860.39201	46667.222	382.2142	5330.524
1345.0	0.44745	0.55255	7.71905	7.69645	-1.9694	24.14265	28.79802	1.37665	0.7264	4.30249	132.01203	1.49627	0.43774	9.30208	1261.32034	0.84903	0.00626152	1859.47183	45109.82	311.4804	6688.19
1340.0	0.52178	0.47822	7.74053	7.67507	-2.24172	23.46298	29.02123	1.36184	0.7343	8.06586	132.70984	2.82602	0.42707	9.41408	2454.92975	0.83634	0.00320717	1858.60794	43818.871	258.1898	7779.851
1335.0	0.58272	0.41728	7.75866	7.65713	-2.47012	22.90299	29.19988	1.34931	0.74112	12.69801	133.32374	4.47673	0.41823	9.52674	4035.90869	0.82389	0.00194479	1857.81288	42731.638	217.4466	8668.241
1330.0	0.63322	0.36678	7.77415	7.64187	-2.66461	22.43554	29.34195	1.3386	0.74705	17.89481	133.87386	6.342	0.41082	9.64004	5959.79663	0.81168	0.00131289	1857.0972	41802.288	185.87	9399.19
1325.0	0.67551	0.32449	7.78755	7.62873	-2.83189	22.04245	29.45377	1.32936	0.75224	23.39382	134.37611	8.32784	0.40455	9.75415	8183.86446	0.79968	9.53116E-4	1856.46655	40996.846	161.0884	10006.673
1322.91	0.69092	0.30908	7.79258	7.62381	-2.89458	21.89808	29.49161	1.32592	0.7542	25.6953	134.57437	9.16213	0.40226	9.80243	9182.50155	0.7947	8.48348E-4	1856.22928	40693.722	 	10227.018
1320.0	0.72095	0.27905	7.8025	7.61417	-3.01734	21.59409	29.58619	1.31927	0.75799	30.5931	134.93701	10.94459	0.39764	9.84823	11230.70293	0.78956	6.92367E-4	1853.15876	40120.24	175.3212	10685.757
1315.0	0.76535	0.23465	7.81753	7.59961	-3.20282	21.14213	29.71925	1.30924	0.7638	39.18121	135.46355	14.08673	0.39071	9.93158	15097.0234	0.78048	5.13437E-4	1848.12515	39247.756	174.4968	11361.154
1310.0	0.80091	0.19909	7.83011	7.58751	-3.35696	20.77752	29.8139	1.30098	0.76865	47.38366	135.90648	17.105	0.38508	10.01997	19216.99965	0.77116	4.0209E-4	1843.39781	38513.081	146.935	11899.177
1308.36	0.81065	0.18935	7.83371	7.58406	-3.40091	20.67641	29.83624	1.29866	0.77003	49.85886	136.04026	18.01877	0.38353	10.04966	20574.46739	0.76808	3.75173E-4	1841.91002	38302.325	 	12045.703
1305.0	0.83645	0.16355	7.84241	7.57565	-3.50799	20.41912	29.90022	1.29312	0.77332	56.98805	136.39602	20.6565	0.37942	10.20249	24364.99407	0.75497	3.16132E-4	1840.9338	37779.08	146.8002	12436.957
1300.0	0.86727	0.13273	7.85321	7.56523	-3.64078	20.1112	29.96283	1.28633	0.7774	66.55395	136.84561	24.21118	0.37445	10.4365	30071.21624	0.7357	2.55332E-4	1839.61548	37118.881	132.0398	12901.362
1295.0	0.89063	0.10937	7.86194	7.55681	-3.748	19.87585	29.99265	1.28097	0.78066	74.66415	137.23507	27.23767	0.3706	10.67857	35734.64034	0.71674	2.14183E-4	1838.46491	36574.262	108.9238	13250.613
1290.0	0.90868	0.0913212	7.86922	7.5498	-3.83729	19.69146	29.99837	1.27664	0.7833	81.49767	137.58636	29.79634	0.36758	10.92844	41385.49447	0.69812	1.84348E-4	1837.48873	36111.85	92.4824	13518.083
1285.0	0.92285	0.0771476	7.87543	7.54382	-3.9134	19.54456	29.98616	1.27308	0.7855	87.25912	137.91337	31.95948	0.36515	11.1858	47075.71626	0.67987	1.61547E-4	1836.68453	35709.126	80.5448	13726.285
1280.0	0.93415	0.065847	7.88086	7.53859	-3.98009	19.42446	29.96039	1.27008	0.78735	92.13769	138.22408	33.79532	0.36317	11.45037	52862.25288	0.66203	1.43402E-4	1836.05138	35350.573	71.7106	13890.736
1275.0	0.94329	0.0567097	7.88572	7.53392	-4.03954	19.325	29.92426	1.26752	0.78894	96.29561	138.52429	35.36298	0.36153	11.72199	58804.06628	0.64461	1.28497E-4	1835.5808	35025.282	65.0582	14022.342
1270.0	0.95077	0.0492292	7.89013	7.52968	-4.09352	19.24108	29.88007	1.2653	0.79033	99.86574	138.81737	36.71125	0.36015	12.00046	64957.46183	0.62762	1.15949E-4	1835.26619	34725.446	59.9672	14128.909
1265.0	0.95697	0.0430328	7.8942	7.52577	-4.14335	19.16896	29.82958	1.26333	0.79156	102.95787	139.10561	37.88071	0.35897	12.28579	71378.50697	0.61106	1.05176E-4	1835.10014	34445.381	56.013	14216.116
1262.28	0.95985	0.0401465	7.89629	7.52376	-4.16889	19.13413	29.79989	1.26236	0.79217	104.44978	139.2611	38.44553	0.35841	12.44363	74983.52013	0.60224	9.99429E-5	1835.06775	34300.603	 	14256.314
1262.28	0.95985	0.0401465	7.89629	7.52376	-4.16889	19.13413	29.79989	1.26236	0.79217	104.44978	139.2611	38.44553	0.35841	12.44363	74983.5303	0.60224	9.99429E-5	1835.06774	34300.602	 	14256.314
1260.0	0.96253	0.0374727	7.89815	7.52204	-4.19081	19.10339	29.7752	1.26153	0.79269	105.81482	139.39896	38.96242	0.35791	12.5454	78225.60039	0.59647	9.56583E-5	1833.91009	34174.404	54.1954	14294.647
1255.0	0.96773	0.0322664	7.90267	7.51841	-4.23712	19.0408	29.7193	1.25978	0.79379	108.57811	139.70227	40.01025	0.35688	12.77301	85615.30511	0.58393	8.71167E-5	1837.16555	33902.76573	54.32765	14368.813
1250.0	0.97206	0.0279371	7.90555	7.51533	-4.27627	18.99947	29.65241	1.25849	0.7946	110.92188	139.89417	40.90178	0.35595	13.00674	93608.20711	0.57156	7.94174E-5	1840.43657	33644.79644	51.59386	14429.74
1245.0	0.97628	0.0237205	7.90871	7.51212	-4.31721	18.95231	29.58631	1.25716	0.79544	113.29233	140.14223	41.80344	0.35506	13.24545	102308.5976	0.55942	7.24251E-5	1843.74913	33388.18792	51.3217	14489.862
1240.0	0.98397	0.0160287	7.91322	7.50785	-4.37164	18.86341	29.52606	1.25557	0.79645	117.58093	140.59436	43.4323	0.35361	13.46598	113454.3695	0.54844	6.5095E-5	1847.21911	33071.41148	63.35529	14610.701
1235.0	1.0	0.0	7.9209	7.50128	-4.45524	18.68396	29.47567	1.25357	0.79772	126.5468	141.38943	46.8404	0.35083	 	130141.119	 	5.6561E-5	 	32605.51138	93.18002	14881.21
1230.0	1.0	0.0	7.9236	7.49873	-4.48771	18.6611	29.39969	1.25264	0.79831	126.95306	141.66755	46.99722	0.35064	 	139743.9037	 	5.24996E-5	 	32427.35496	35.63128	 
1225.0	1.0	0.0	7.92628	7.49619	-4.52009	18.63835	29.32365	1.25171	0.79891	127.35868	141.94482	47.15382	0.35046	 	150123.7876	 	4.87071E-5	 	32242.22481	37.02603	 
1220.0	1.0	0.0	7.92896	7.49366	-4.55237	18.61569	29.24754	1.25078	0.7995	127.76364	142.22121	47.3102	0.35028	 	161349.0909	 	4.51672E-5	 	32057.51952	36.94106	 
1215.0	1.0	0.0	7.93164	7.49113	-4.58456	18.59312	29.17138	1.24984	0.8001	128.16794	142.49672	47.46636	0.35009	 	173494.6421	 	4.18646E-5	 	31873.2359	36.85672	 
1210.0	1.0	0.0	7.93431	7.48861	-4.61666	18.57066	29.09517	1.24891	0.8007	128.57157	142.77133	47.62229	0.34991	 	186642.4188	 	3.87848E-5	 	31689.37078	36.77302	 
1205.0	1.0	0.0	7.93697	7.48609	-4.64868	18.54828	29.01889	1.24797	0.8013	128.97453	143.04503	47.77799	0.34973	 	200882.2842	 	3.5914E-5	 	31505.921	36.68996	 
1200.0	1.0	0.0	7.93963	7.48359	-4.6806	18.526	28.94255	1.24703	0.80191	129.37681	143.31782	47.93347	0.34955	 	216312.7781	 	3.32393E-5	 	31322.8834	36.60752	 
1195.0	1.0	0.0	7.94228	7.48109	-4.71243	18.50381	28.86616	1.24608	0.80251	129.7784	143.58969	48.08872	0.34936	 	233042.0342	 	3.07484E-5	 	31140.25483	36.52571	 
1190.0	1.0	0.0	7.94493	7.4786	-4.74418	18.48172	28.78972	1.24514	0.80312	130.17929	143.86062	48.24373	0.34918	 	251188.7817	 	2.84299E-5	 	30958.03216	36.44453	 
1185.0	1.0	0.0	7.94757	7.47611	-4.77583	18.45971	28.71322	1.24419	0.80374	130.5795	144.13061	48.39851	0.349	 	270883.4401	 	2.62728E-5	 	30776.21225	36.36398	 
1180.0	1.0	0.0	7.95021	7.47363	-4.8074	18.43779	28.63666	1.24324	0.80435	130.979	144.39966	48.55305	0.34882	 	292269.3718	 	2.42669E-5	 	30594.79201	36.28405	 
1175.0	1.0	0.0	7.95284	7.47116	-4.83889	18.41596	28.56006	1.24228	0.80497	131.3778	144.66775	48.70736	0.34864	 	315504.2512	 	2.24024E-5	 	30413.76834	36.20473	 
1170.0	1.0	0.0	7.95546	7.4687	-4.87029	18.39422	28.4834	1.24133	0.80559	131.77588	144.93487	48.86143	0.34847	 	340761.5874	 	2.06703E-5	 	30233.13815	36.12604	 
1165.0	1.0	0.0	7.95808	7.46624	-4.9016	18.37256	28.40669	1.24037	0.80621	132.17326	145.20103	49.01525	0.34829	 	368232.455	 	1.9062E-5	 	30052.8984	36.04795	 
1160.0	1.0	0.0	7.9607	7.46379	-4.93283	18.35099	28.32993	1.2394	0.80684	132.56992	145.46621	49.16884	0.34811	 	398127.3524	 	1.75694E-5	 	29873.04603	35.97047	 
1155.0	1.0	0.0	7.9633	7.46134	-4.96398	18.32951	28.25311	1.23844	0.80747	132.96586	145.7304	49.32218	0.34793	 	430678.3644	 	1.61848E-5	 	29693.57802	35.8936	 
1150.0	1.0	0.0	7.96591	7.4589	-4.99504	18.30811	28.17626	1.23747	0.8081	133.36108	145.99361	49.47528	0.34775	 	466141.5019	 	1.49011E-5	 	29514.49138	35.81733	 
1145.0	1.0	0.0	7.96851	7.45647	-5.02602	18.28679	28.09935	1.23649	0.80874	133.75557	146.25582	49.62814	0.34758	 	504799.3534	 	1.37117E-5	 	29335.78313	35.74165	 
1140.0	1.0	0.0	7.9711	7.45404	-5.05692	18.26556	28.02239	1.23552	0.80938	134.14934	146.51703	49.78075	0.3474	 	546964.0285	 	1.261E-5	 	29157.45035	35.66656	 
1135.0	1.0	0.0	7.97369	7.45162	-5.08774	18.2444	27.94539	1.23454	0.81002	134.54238	146.77724	49.93311	0.34723	 	592980.5146	 	1.15903E-5	 	28979.49003	35.59206	 
1130.0	1.0	0.0	7.97627	7.44921	-5.11848	18.22333	27.86835	1.23356	0.81066	134.93468	147.03643	50.08523	0.34705	 	643230.2799	 	1.06469E-5	 	28801.89932	35.51814	 
1125.0	1.0	0.0	7.97885	7.4468	-5.14913	18.20234	27.79126	1.23257	0.81131	135.32625	147.29461	50.23709	0.34688	 	698135.4612	 	9.77464E-6	 	28624.67539	35.44479	 
1120.0	1.0	0.0	7.98142	7.4444	-5.17971	18.18143	27.71412	1.23158	0.81196	135.71708	147.55177	50.38872	0.3467	 	758163.5788	 	8.96854E-6	 	28447.81529	35.37202	 
1115.0	1.0	0.0	7.98399	7.44201	-5.21021	18.1606	27.63695	1.23059	0.81262	136.10718	147.80791	50.54009	0.34653	 	823832.5692	 	8.22402E-6	 	28271.31629	35.2998	 
1110.0	1.0	0.0	7.98655	7.43962	-5.24063	18.13984	27.55973	1.22959	0.81328	136.49654	148.06302	50.69121	0.34635	 	895716.8218	 	7.53677E-6	 	28095.17554	35.22815	 
1105.0	1.0	0.0	7.98911	7.43724	-5.27097	18.11916	27.48247	1.22859	0.81394	136.88515	148.3171	50.84208	0.34618	 	974453.5696	 	6.90275E-6	 	27919.39035	35.15704	 
1100.0	1.0	0.0	7.99166	7.43486	-5.30123	18.09857	27.40517	1.22759	0.81461	137.27303	148.57015	50.99271	0.34601	 	1060750.377	 	6.31817E-6	 	27743.95795	35.08648	 
1095.0	1.0	0.0	7.99421	7.43249	-5.33142	18.07804	27.32783	1.22658	0.81528	137.66016	148.82216	51.14308	0.34583	 	1155393.376	 	5.7795E-6	 	27568.87563	35.01646	 
1090.0	1.0	0.0	7.99676	7.43013	-5.36152	18.0576	27.25045	1.22556	0.81595	138.04656	149.07312	51.2932	0.34566	 	1259256.611	 	5.28343E-6	 	27394.14076	34.94698	 
1085.23	1.0	0.0	7.99918	7.42788	-5.39018	18.03814	27.17661	1.22459	0.8166	138.41439	149.3115	51.43616	0.3455	 	1367800.439	 	4.84714E-6	 	27227.80586	 	 
1085.0	1.0	0.0	7.99929	7.42777	-5.39156	18.03722	27.17303	1.22455	0.81663	138.43221	149.32306	51.44308	0.34549	 	1373312.973	 	4.82686E-6	 	27219.74407	34.87934	 
1080.0	1.0	0.0	8.00182	7.42543	-5.42141	18.0173	27.09558	1.22353	0.81731	138.81754	149.57264	51.59285	0.34532	 	1498686.144	 	4.40679E-6	 	27045.472	34.85441	 
1075.0	1.0	0.0	8.00434	7.42309	-5.45119	17.99743	27.01809	1.2225	0.81799	139.20209	149.82113	51.74236	0.34515	 	1636546.519	 	4.02065E-6	 	26871.55214	34.78397	 
1070.0	1.0	0.0	8.00686	7.42076	-5.4809	17.97762	26.94057	1.22147	0.81868	139.58589	150.06853	51.89161	0.34498	 	1788239.837	 	3.66594E-6	 	26697.98139	34.71415	 
1065.0	1.0	0.0	8.00937	7.41843	-5.51054	17.95787	26.86301	1.22044	0.81938	139.96891	150.31485	52.04061	0.3448	 	1955267.764	 	3.3403E-6	 	26524.75667	34.64494	 
1060.0	1.0	0.0	8.01187	7.41611	-5.54012	17.93817	26.78542	1.2194	0.82007	140.35118	150.56009	52.18935	0.34463	 	2139306.992	 	3.04153E-6	 	26351.87494	34.57635	 
1055.0	1.0	0.0	8.01438	7.41379	-5.56962	17.91854	26.7078	1.21836	0.82078	140.73268	150.80424	52.33783	0.34446	 	2342231.254	 	2.7676E-6	 	26179.33327	34.50834	 
1050.0	1.0	0.0	8.01688	7.41148	-5.59906	17.89896	26.63014	1.21731	0.82148	141.11342	151.04731	52.48605	0.34429	 	2566135.926	 	2.51661E-6	 	26007.12874	34.44091	 
1045.0	1.0	0.0	8.01937	7.40917	-5.62843	17.87944	26.55245	1.21626	0.82219	141.4934	151.28929	52.63402	0.34412	 	2813366.202	 	2.28678E-6	 	25835.25851	34.37405	 
1040.0	1.0	0.0	8.02186	7.40687	-5.65772	17.85998	26.47473	1.2152	0.82291	141.87262	151.53019	52.78174	0.34396	 	3086548.657	 	2.07648E-6	 	25663.71979	34.30774	 
1035.0	1.0	0.0	8.02435	7.40458	-5.68695	17.84059	26.39697	1.21414	0.82363	142.25108	151.77001	52.9292	0.34379	 	3388627.536	 	1.88417E-6	 	25492.50985	34.24199	 
1030.0	1.0	0.0	8.02683	7.40229	-5.71612	17.82125	26.31919	1.21308	0.82435	142.62879	152.00875	53.0764	0.34362	 	3722905.558	 	1.70844E-6	 	25321.62599	34.17677	 
1025.0	1.0	0.0	8.02931	7.40001	-5.74521	17.80197	26.24137	1.212	0.82508	143.00574	152.24641	53.22335	0.34345	 	4093090.853	 	1.54796E-6	 	25151.06561	34.11208	 
1020.0	1.0	0.0	8.03178	7.39773	-5.77423	17.78276	26.16353	1.21093	0.82581	143.38194	152.48299	53.37005	0.34328	 	4503349.601	 	1.40152E-6	 	24980.82613	34.0479	 
1015.0	1.0	0.0	8.03425	7.39545	-5.80319	17.7636	26.08566	1.20985	0.82655	143.75739	152.7185	53.51649	0.34311	 	4958366.959	 	1.26799E-6	 	24810.90501	33.98422	 
1010.0	1.0	0.0	8.03672	7.39319	-5.83208	17.74451	26.00776	1.20876	0.82729	144.13208	152.95293	53.66269	0.34295	 	5463415.764	 	1.1463E-6	 	24641.2998	33.92104	 
1005.0	1.0	0.0	8.03918	7.39092	-5.8609	17.72548	25.92983	1.20767	0.82804	144.50603	153.18628	53.80863	0.34278	 	6024434.771	 	1.03551E-6	 	24472.00808	33.85835	 
1000.0	1.0	0.0	8.04163	7.38866	-5.88965	17.70652	25.85187	1.20657	0.82879	144.87922	153.41857	53.95432	0.34261	 	6648119.62	 	9.3469E-7	 	24303.02747	33.79612	 
995.0	1.0	0.0	8.04408	7.38641	-5.91834	17.68762	25.77389	1.20547	0.82955	145.25168	153.64978	54.09976	0.34244	 	7342024.517	 	8.43027E-7	 	24134.35567	33.73436	 
990.0	1.0	0.0	8.04653	7.38417	-5.94696	17.66878	25.69588	1.20436	0.83031	145.62338	153.87992	54.24495	0.34228	 	8114680.185	 	7.59749E-7	 	23965.99041	33.67305	 
985.0	1.0	0.0	8.04897	7.38192	-5.97551	17.65001	25.61784	1.20325	0.83108	145.99435	154.109	54.38989	0.34211	 	8975728.299	 	6.84147E-7	 	23797.92946	33.61219	 
980.0	1.0	0.0	8.05141	7.37969	-6.00399	17.6313	25.53978	1.20213	0.83186	146.36457	154.33702	54.53458	0.34194	 	9936076.808	 	6.15566E-7	 	23630.17065	33.55176	 
976.99	1.0	0.0	8.05288	7.37834	-6.02113	17.62006	25.49273	1.20145	0.83232	146.5873	154.4739	54.62165	0.34184	 	1.056781912E7	 	5.77376E-7	 	23529.22633	 	 
975.0	1.0	0.0	8.05447	7.37689	-6.03966	17.58425	25.44076	1.202	0.83195	146.83266	154.58886	54.71907	0.3417	 	1.105488273E7	 	5.51061E-7	 	23431.54483	39.72516	 
970.0	1.0	0.0	8.05843	7.37326	-6.08582	17.4953	25.31299	1.20322	0.8311	147.44055	154.87305	54.9605	0.34133	 	1.238898763E7	 	4.8975E-7	 	23187.95764	48.71744	 
965.0	1.0	0.0	8.06234	7.36969	-6.13134	17.40796	25.1897	1.20425	0.83039	148.03539	155.15031	55.19687	0.34098	 	1.389531609E7	 	4.34902E-7	 	22947.42036	48.10746	 
960.0	1.0	0.0	8.0662	7.36616	-6.17624	17.32214	25.0678	1.20522	0.82973	148.61787	155.42102	55.42842	0.34063	 	1.559760637E7	 	3.85873E-7	 	22709.80482	47.52311	 
955.0	1.0	0.0	8.07001	7.36269	-6.22055	17.23778	24.94866	1.20606	0.82914	149.18862	155.68551	55.65541	0.34029	 	1.752308411E7	 	3.4208E-7	 	22474.98858	46.96325	 
950.0	1.0	0.0	8.07377	7.35925	-6.26429	17.15479	24.83201	1.2068	0.82864	149.74822	155.94409	55.87807	0.33996	 	1.970300382E7	 	3.02994E-7	 	22242.8547	46.42678	 
945.0	1.0	0.0	8.07749	7.35586	-6.30749	17.07311	24.71763	1.20742	0.82821	150.29721	156.19707	56.0966	0.33963	 	2.217328647E7	 	2.68137E-7	 	22013.29152	45.91264	 
940.0	1.0	0.0	8.08118	7.35251	-6.35016	16.99267	24.60534	1.20796	0.82784	150.83613	156.44471	56.3112	0.33931	 	2.497525578E7	 	2.37078E-7	 	21786.1924	45.41982	 
935.0	1.0	0.0	8.08482	7.3492	-6.39233	16.91339	24.49498	1.2084	0.82754	151.36543	156.68724	56.52207	0.33899	 	2.815650384E7	 	2.09425E-7	 	21561.45553	44.94737	 
930.0	1.0	0.0	8.08842	7.34593	-6.43402	16.83523	24.38641	1.20875	0.8273	151.88559	156.9249	56.72938	0.33869	 	3.177189985E7	 	1.84826E-7	 	21338.98374	44.49436	 
925.0	1.0	0.0	8.09198	7.34269	-6.47525	16.75811	24.27953	1.20903	0.82711	152.39702	157.15791	56.93329	0.33838	 	3.588477282E7	 	1.62963E-7	 	21118.68421	44.05991	 
920.0	1.0	0.0	8.09551	7.33949	-6.51603	16.68197	24.17423	1.20923	0.82697	152.90011	157.38645	57.13396	0.33808	 	4.056829813E7	 	1.43547E-7	 	20900.46839	43.64316	 
915.0	1.0	0.0	8.09901	7.33632	-6.55639	16.60677	24.07042	1.20935	0.82689	153.39525	157.6107	57.33155	0.33779	 	4.590711866E7	 	1.26322E-7	 	20684.25172	43.24334	 
910.0	1.0	0.0	8.10247	7.33318	-6.59633	16.53244	23.96802	1.20941	0.82685	153.88279	157.83085	57.52617	0.3375	 	5.199926108E7	 	1.11053E-7	 	20469.95344	42.85966	 
905.0	1.0	0.0	8.10591	7.33008	-6.63588	16.45894	23.86695	1.2094	0.82686	154.36305	158.04704	57.71797	0.33722	 	5.895837781E7	 	9.75308E-8	 	20257.49652	42.49138	 
900.0	1.0	0.0	8.10931	7.327	-6.67506	16.3862	23.76713	1.20932	0.82691	154.83635	158.25942	57.90707	0.33694	 	6.69163891E7	 	8.55673E-8	 	20046.80735	42.13783	 
895.0	1.0	0.0	8.11268	7.32396	-6.71387	16.31418	23.66851	1.20919	0.827	155.30298	158.46814	58.09358	0.33666	 	7.602661042E7	 	7.49928E-8	 	19837.81569	41.79833	 
890.0	1.0	0.0	8.11603	7.32094	-6.75233	16.24284	23.57103	1.20899	0.82714	155.76323	158.67332	58.27761	0.33639	 	8.64674229E7	 	6.56553E-8	 	19630.45446	41.47225	 
885.0	1.0	0.0	8.11935	7.31794	-6.79046	16.17212	23.47461	1.20874	0.82731	156.21735	158.8751	58.45926	0.33612	 	9.844663297E7	 	5.74183E-8	 	19424.65961	41.15897	 
880.0	1.0	0.0	8.12264	7.31497	-6.82826	16.10198	23.37922	1.20843	0.82752	156.66558	159.07358	58.63864	0.33586	 	1.122066199E8	 	5.01596E-8	 	19220.37	40.85792	 
875.0	1.0	0.0	8.12591	7.31203	-6.86575	16.03238	23.28481	1.20807	0.82777	157.10818	159.26888	58.81583	0.33559	 	1.280304447E8	 	4.37695E-8	 	19017.52693	40.56862	 
870.0	1.0	0.0	8.12916	7.30911	-6.90294	15.96328	23.19131	1.20766	0.82805	157.54535	159.46111	58.99092	0.33534	 	1.462490833E8	 	3.81502E-8	 	18816.07495	40.29039	 
865.0	1.0	0.0	8.13238	7.30621	-6.93985	15.89463	23.09871	1.2072	0.82837	157.97732	159.65036	59.16399	0.33508	 	1.672500458E8	 	3.32139E-8	 	18615.96087	40.02282	 
860.0	1.0	0.0	8.13558	7.30334	-6.97647	15.8264	23.00694	1.20669	0.82872	158.40428	159.83674	59.33513	0.33483	 	1.914875977E8	 	2.88824E-8	 	18417.13383	39.76541	 
855.0	1.0	0.0	8.13877	7.30048	-7.01283	15.75854	22.91599	1.20613	0.8291	158.82642	160.02034	59.50441	0.33458	 	2.194949789E8	 	2.50859E-8	 	18219.5453	39.51771	 
850.0	1.0	0.0	8.14193	7.29765	-7.04893	15.69103	22.8258	1.20553	0.82951	159.24392	160.20125	59.6719	0.33433	 	2.518989459E8	 	2.1762E-8	 	18023.14898	39.27926	 
845.0	1.0	0.0	8.14424	7.29558	-7.07535	15.66671	22.75251	1.20403	0.83055	159.58978	160.40664	59.8081	0.33418	 	2.865003453E8	 	1.90485E-8	 	17866.35891	31.35802	 
840.0	1.0	0.0	8.14655	7.29351	-7.10169	15.64238	22.67922	1.20252	0.83159	159.93503	160.61111	59.9441	0.33403	 	3.262316682E8	 	1.66538E-8	 	17706.61496	31.94879	 
835.0	1.0	0.0	8.14886	7.29144	-7.12798	15.61806	22.60591	1.201	0.83264	160.27966	160.81466	60.07989	0.33389	 	3.719084527E8	 	1.45428E-8	 	17547.11873	31.89924	 
830.0	1.0	0.0	8.15116	7.28939	-7.15419	15.59373	22.53258	1.19947	0.8337	160.62368	161.0173	60.21548	0.33374	 	4.244845298E8	 	1.26841E-8	 	17387.86954	31.84984	 
825.0	1.0	0.0	8.15345	7.28733	-7.18035	15.56941	22.45924	1.19793	0.83477	160.96708	161.21903	60.35086	0.33359	 	4.850769268E8	 	1.10494E-8	 	17228.86667	31.80057	 
820.0	1.0	0.0	8.15575	7.28528	-7.20643	15.54508	22.38589	1.19639	0.83585	161.30986	161.41985	60.48605	0.33345	 	5.549955178E8	 	9.6134E-9	 	17070.10941	31.75145	 
815.0	1.0	0.0	8.15803	7.28324	-7.23246	15.52076	22.31253	1.19483	0.83694	161.65203	161.61977	60.62102	0.3333	 	6.357783713E8	 	8.35352E-9	 	16911.597	31.70248	 
810.0	1.0	0.0	8.16032	7.2812	-7.25841	15.49643	22.23915	1.19326	0.83804	161.99358	161.81879	60.7558	0.33315	 	7.292339528E8	 	7.24951E-9	 	16753.32872	31.65366	 
805.0	1.0	0.0	8.1626	7.27917	-7.2843	15.47211	22.16575	1.19169	0.83915	162.33452	162.01691	60.89037	0.33301	 	8.374915826E8	 	6.28327E-9	 	16595.30379	31.60499	 
800.0	1.0	0.0	8.16487	7.27714	-7.31013	15.44779	22.09235	1.1901	0.84026	162.67485	162.21413	61.02473	0.33286	 	9.630618526E8	 	5.43867E-9	 	16437.52144	31.55647	 
795.0	1.0	0.0	8.16714	7.27512	-7.33589	15.42346	22.01892	1.18851	0.84139	163.01456	162.41046	61.1589	0.33271	 	1.108909072E9	 	4.70135E-9	 	16279.98088	31.50811	 
790.0	1.0	0.0	8.16941	7.2731	-7.36159	15.39914	21.94548	1.1869	0.84253	163.35366	162.6059	61.29285	0.33257	 	1.278538274E9	 	4.05852E-9	 	16122.68128	31.45992	 
785.0	1.0	0.0	8.17167	7.27109	-7.38722	15.37481	21.87203	1.18529	0.84368	163.69214	162.80045	61.42661	0.33242	 	1.476099851E9	 	3.49879E-9	 	15965.62182	31.41189	 
780.0	1.0	0.0	8.17392	7.26908	-7.41278	15.35049	21.79856	1.18366	0.84483	164.03001	162.99411	61.56016	0.33227	 	1.706515615E9	 	3.01208E-9	 	15808.80165	31.36403	 
775.0	1.0	0.0	8.17617	7.26708	-7.43828	15.32616	21.72507	1.18203	0.846	164.36726	163.18689	61.6935	0.33213	 	1.975630871E9	 	2.58943E-9	 	15652.2199	31.31635	 
770.0	1.0	0.0	8.17842	7.26508	-7.46372	15.30184	21.65157	1.18038	0.84718	164.7039	163.37879	61.82664	0.33198	 	2.290398179E9	 	2.22291E-9	 	15495.87567	31.26885	 
765.0	1.0	0.0	8.18066	7.26309	-7.48908	15.27751	21.57805	1.17873	0.84837	165.03992	163.56981	61.95958	0.33184	 	2.659099777E9	 	1.90551E-9	 	15339.76805	31.22153	 
760.0	1.0	0.0	8.1829	7.26111	-7.51439	15.25319	21.50451	1.17706	0.84957	165.37533	163.75996	62.09231	0.33169	 	3.091617197E9	 	1.63104E-9	 	15183.89609	31.17439	 
755.0	1.0	0.0	8.18514	7.25912	-7.53963	15.22887	21.43095	1.17539	0.85078	165.71013	163.94924	62.22484	0.33154	 	3.599758665E9	 	1.39402E-9	 	15028.25882	31.12745	 
750.0	1.0	0.0	8.18737	7.25715	-7.5648	15.20454	21.35738	1.1737	0.85201	166.04432	164.13764	62.35716	0.3314	 	4.197657313E9	 	1.18965E-9	 	14872.85524	31.08072	 
745.0	1.0	0.0	8.18959	7.25518	-7.58991	15.18022	21.28379	1.172	0.85324	166.37789	164.32518	62.48928	0.33125	 	4.902256326E9	 	1.01368E-9	 	14717.68432	31.03418	 
740.0	1.0	0.0	8.19181	7.25321	-7.61495	15.15589	21.21018	1.1703	0.85449	166.71084	164.51185	62.6212	0.33111	 	5.733901051E9	 	8.62403E-10	 	14562.74499	30.98786	 
735.0	1.0	0.0	8.19403	7.25125	-7.63993	15.13157	21.13656	1.16858	0.85574	167.04319	164.69766	62.75291	0.33096	 	6.717062864E9	 	7.32542E-10	 	14408.03615	30.94177	 
730.0	1.0	0.0	8.19624	7.24929	-7.66484	15.10724	21.06291	1.16685	0.85701	167.37492	164.88261	62.88441	0.33081	 	7.881225712E9	 	6.21239E-10	 	14253.55667	30.8959	 
725.0	1.0	0.0	8.19844	7.24734	-7.68969	15.08292	20.98925	1.1651	0.85829	167.70604	165.06671	63.01571	0.33067	 	9.261973804E9	 	5.25992E-10	 	14099.30536	30.85026	 
720.0	1.0	0.0	8.20064	7.2454	-7.71447	15.0586	20.91557	1.16335	0.85958	168.03654	165.24995	63.14681	0.33052	 	1.09023E10	 	4.44613E-10	 	13945.28101	30.80487	 
715.0	1.0	0.0	8.20284	7.24346	-7.73918	15.03427	20.84186	1.16159	0.86089	168.36643	165.43234	63.2777	0.33038	 	1.2854399999999998E10	 	3.75196E-10	 	13791.48234	30.75974	 
710.0	1.0	0.0	8.20503	7.24152	-7.76383	15.00995	20.76814	1.15981	0.86221	168.69571	165.61387	63.40838	0.33023	 	1.5181399999999998E10	 	3.16078E-10	 	13637.90803	30.71486	 
705.0	1.0	0.0	8.20722	7.23959	-7.78842	14.98562	20.69439	1.15803	0.86354	169.02438	165.79457	63.53887	0.33009	 	1.79602E10	 	2.65816E-10	 	13484.55673	30.67026	 
700.0	1.0	0.0	8.2094	7.23767	-7.81294	14.9613	20.62063	1.15623	0.86488	169.35243	165.97441	63.66914	0.32994	 	2.12843E10	 	2.23155E-10	 	13331.42699	30.62595	 
695.0	1.0	0.0	8.21158	7.23575	-7.83739	14.93697	20.54684	1.15442	0.86624	169.67987	166.15342	63.79921	0.3298	 	2.5267899999999996E10	 	1.87008E-10	 	13178.51733	30.58193	 
690.0	1.0	0.0	8.21376	7.23383	-7.86178	14.91265	20.47304	1.1526	0.86761	170.0067	166.33158	63.92908	0.32965	 	3.0050599999999996E10	 	1.56432E-10	 	13025.8262	30.53823	 
685.0	1.0	0.0	8.21592	7.23192	-7.88611	14.88833	20.39921	1.15076	0.86899	170.33292	166.50891	64.05874	0.32951	 	3.58034E10	 	1.30616E-10	 	12873.35197	30.49485	 
680.0	1.0	0.0	8.21809	7.23002	-7.91037	14.864	20.32535	1.14892	0.87038	170.65852	166.6854	64.18819	0.32936	 	4.27358E10	 	1.08857E-10	 	12721.09297	30.4518	 
675.0	1.0	0.0	8.22025	7.22812	-7.93456	14.83968	20.25148	1.14706	0.87179	170.98351	166.86106	64.31745	0.32922	 	5.110579999999999E10	 	9.0551E-11	 	12569.04738	30.40912	 
670.0	1.0	0.0	8.2224	7.22622	-7.95869	14.81535	20.17758	1.14519	0.87322	171.30789	167.03589	64.44649	0.32907	 	6.123119999999999E10	 	7.51787E-11	 	12417.21338	30.3668	 
665.0	1.0	0.0	8.22455	7.22433	-7.98275	14.79103	20.10366	1.14331	0.87465	171.63166	167.20989	64.57533	0.32893	 	7.35042E10	 	6.22941E-11	 	12265.58901	30.32487	 
660.0	1.0	0.0	8.2267	7.22245	-8.00675	14.76671	20.02971	1.14141	0.87611	171.95482	167.38307	64.70397	0.32878	 	8.841E10	 	5.15154E-11	 	12114.17673	30.28246	 
655.0	1.0	0.0	8.22884	7.22057	-8.03068	14.74238	19.95574	1.13951	0.87757	172.27736	167.55542	64.83239	0.32864	 	1.0655E11	 	4.25158E-11	 	11963.00151	30.23504	 
650.0	1.0	0.0	8.23098	7.2187	-8.05455	14.71806	19.88175	1.13758	0.87906	172.5993	167.72696	64.96062	0.32849	 	1.28673E11	 	3.50165E-11	 	11812.09649	30.181	 
645.0	1.0	0.0	8.23311	7.21683	-8.07835	14.69373	19.80773	1.13565	0.88055	172.92062	167.89767	65.08864	0.32835	 	1.55707E11	 	2.878E-11	 	11661.46083	30.12713	 
640.0	1.0	0.0	8.23523	7.21497	-8.10209	14.66941	19.73368	1.1337	0.88206	173.24133	168.06757	65.21645	0.3282	 	1.88817E11	 	2.36042E-11	 	11511.09366	30.07343	 
635.0	1.0	0.0	8.23736	7.21311	-8.12576	14.64509	19.65961	1.13175	0.88359	173.56143	168.23666	65.34406	0.32806	 	2.29452E11	 	1.93175E-11	 	11360.99413	30.01991	 
630.0	1.0	0.0	8.23947	7.21125	-8.14937	14.62076	19.58551	1.12977	0.88513	173.88091	168.40494	65.47146	0.32791	 	2.79436E11	 	1.57748E-11	 	11211.16139	29.96655	 
625.0	1.0	0.0	8.24158	7.20941	-8.17291	14.59644	19.51139	1.12779	0.88669	174.19979	168.5724	65.59865	0.32777	 	3.41056E11	 	1.28532E-11	 	11061.59444	29.91339	 
620.0	1.0	0.0	8.24369	7.20756	-8.19638	14.57211	19.43723	1.12579	0.88827	174.51806	168.73906	65.72564	0.32763	 	4.17194E11	 	1.0449E-11	 	10912.2921	29.86047	 
615.0	1.0	0.0	8.24579	7.20572	-8.21979	14.54779	19.36305	1.12377	0.88986	174.83571	168.90492	65.85243	0.32748	 	5.11487E11	 	8.47497E-12	 	10763.25368	29.80768	 
610.0	1.0	0.0	8.24789	7.20389	-8.24314	14.52347	19.28884	1.12175	0.89147	175.15275	169.06997	65.97901	0.32734	 	6.28542E11	 	6.85784E-12	 	10614.47838	29.75506	 
605.0	1.0	0.0	8.24999	7.20206	-8.26642	14.49914	19.2146	1.1197	0.89309	175.46918	169.23423	66.10538	0.32719	 	7.74199E11	 	5.53609E-12	 	10465.96533	29.70261	 
600.0	1.0	0.0	8.25207	7.20024	-8.28963	14.47482	19.14033	1.11765	0.89474	175.78501	169.39768	66.23154	0.32705	 	9.55889E11	 	4.45829E-12	 	10317.71371	29.65032	 
595.0	1.0	0.0	8.25416	7.19842	-8.31278	14.4505	19.06603	1.11558	0.89639	176.10022	169.56034	66.3575	0.32691	 	1.18309E12	 	3.58149E-12	 	10169.72269	29.5982	 
590.0	1.0	0.0	8.25624	7.19661	-8.33586	14.42617	18.9917	1.1135	0.89807	176.41482	169.72221	66.48326	0.32676	 	1.46791E12	 	2.86994E-12	 	10021.99144	29.54625	 
585.0	1.0	0.0	8.25831	7.1948	-8.35888	14.40185	18.91734	1.1114	0.89977	176.7288	169.88329	66.60881	0.32662	 	1.82589E12	 	2.29391E-12	 	9874.51914	29.49446	 
580.0	1.0	0.0	8.26038	7.193	-8.38183	14.37753	18.84294	1.10928	0.90148	177.04218	170.04358	66.73415	0.32647	 	2.27698E12	 	1.82874E-12	 	9727.30495	29.44284	 
575.0	1.0	0.0	8.26244	7.19121	-8.40472	14.3532	18.76851	1.10716	0.90321	177.35495	170.20308	66.85928	0.32633	 	2.84692E12	 	1.45407E-12	 	9580.34808	29.39137	 
570.0	1.0	0.0	8.2645	7.18941	-8.42754	14.32888	18.69405	1.10501	0.90497	177.66711	170.3618	66.98421	0.32619	 	3.56896E12	 	1.15305E-12	 	9433.64769	29.34008	 
565.0	1.0	0.0	8.26656	7.18763	-8.4503	14.30455	18.61956	1.10286	0.90674	177.97866	170.51974	67.10893	0.32604	 	4.48621E12	 	9.11862E-13	 	9287.20298	29.28894	 
560.0	1.0	0.0	8.26861	7.18585	-8.47299	14.28023	18.54503	1.10068	0.90853	178.28959	170.67689	67.23345	0.3259	 	5.6547E12	 	7.19119E-13	 	9141.01313	29.23797	 
555.0	1.0	0.0	8.27065	7.18407	-8.49562	14.25591	18.47046	1.09849	0.91034	178.59992	170.83327	67.35776	0.32576	 	7.14748E12	 	5.65513E-13	 	8995.07735	29.18716	 
550.0	1.0	0.0	8.27269	7.1823	-8.51818	14.23158	18.39586	1.09629	0.91217	178.90964	170.98888	67.48186	0.32561	 	9.0601E12	 	4.43438E-13	 	8849.39483	29.13651	 
545.0	1.0	0.0	8.27472	7.18053	-8.54068	14.20726	18.32122	1.09407	0.91402	179.21874	171.14371	67.60576	0.32547	 	1.15179E13	 	3.46695E-13	 	8703.96476	29.08601	 
540.0	1.0	0.0	8.27675	7.17877	-8.56311	14.18294	18.24655	1.09183	0.91589	179.52724	171.29777	67.72945	0.32533	 	1.46856E13	 	2.7025E-13	 	8558.78636	29.03568	 
535.0	1.0	0.0	8.27878	7.17701	-8.58547	14.15861	18.17184	1.08958	0.91778	179.83513	171.45106	67.85293	0.32518	 	1.8781E13	 	2.1002E-13	 	8413.85883	28.9855	 
530.0	1.0	0.0	8.2808	7.17526	-8.60777	14.13429	18.09708	1.08731	0.9197	180.14241	171.60358	67.97621	0.32504	 	2.40921E13	 	1.62708E-13	 	8269.18138	28.93549	 
525.0	1.0	0.0	8.28282	7.17352	-8.63001	14.10997	18.02229	1.08503	0.92164	180.44907	171.75534	68.09928	0.3249	 	3.10017E13	 	1.25657E-13	 	8124.75324	28.88563	 
520.0	1.0	0.0	8.28483	7.17178	-8.65218	14.08564	17.94746	1.08273	0.9236	180.75513	171.90634	68.22214	0.32475	 	4.00201E13	 	9.67307E-14	 	7980.57363	28.83592	 
515.0	1.0	0.0	8.28683	7.17004	-8.67428	14.06132	17.87259	1.08041	0.92558	181.06058	172.05657	68.34479	0.32461	 	5.18295E13	 	7.42196E-14	 	7836.64175	28.78637	 
510.0	1.0	0.0	8.28883	7.16831	-8.69632	14.037	17.79767	1.07807	0.92758	181.36542	172.20605	68.46724	0.32447	 	6.73457E13	 	5.67573E-14	 	7692.95685	28.73698	 
505.0	1.0	0.0	8.29083	7.16659	-8.71829	14.01267	17.72271	1.07572	0.92961	181.66965	172.35477	68.58948	0.32433	 	8.7802E13	 	4.32559E-14	 	7549.51817	28.68774	 
500.0	1.0	0.0	8.29282	7.16487	-8.7402	13.98835	17.64771	1.07335	0.93166	181.97327	172.50274	68.71152	0.32418	 	1.14865E14	 	3.2852E-14	 	7406.32492	28.63865	 
495.0	1.0	0.0	8.2948	7.16315	-8.76205	13.96403	17.57266	1.07096	0.93374	182.27628	172.64995	68.83334	0.32404	 	1.50797E14	 	2.48622E-14	 	7263.37638	28.58971	 
490.0	1.0	0.0	8.29678	7.16144	-8.78382	13.9397	17.49757	1.06856	0.93584	182.57868	172.79642	68.95496	0.3239	 	1.98676E14	 	1.87479E-14	 	7120.67176	28.54092	 
485.0	1.0	0.0	8.29876	7.15974	-8.80554	13.91538	17.42243	1.06614	0.93797	182.88048	172.94213	69.07637	0.32376	 	2.6270999999999997E14	 	1.40853E-14	 	6978.21034	28.49229	 
480.0	1.0	0.0	8.30073	7.15804	-8.82718	13.89106	17.34724	1.06369	0.94012	183.18166	173.0871	69.19758	0.32361	 	3.48674E14	 	1.05426E-14	 	6835.99137	28.44379	 
475.0	1.0	0.0	8.30269	7.15634	-8.84876	13.86674	17.27201	1.06124	0.9423	183.48223	173.23133	69.31858	0.32347	 	4.64522E14	 	7.86084E-15	 	6694.01411	28.39545	 
470.0	1.0	0.0	8.30465	7.15465	-8.87028	13.84241	17.19672	1.05876	0.9445	183.7822	173.37481	69.43936	0.32333	 	6.21254E14	 	5.83841E-15	 	6552.27784	28.34725	 
465.0	1.0	0.0	8.30661	7.15297	-8.89173	13.81809	17.12139	1.05626	0.94673	184.08155	173.51756	69.55995	0.32319	 	8.34146E14	 	4.31906E-15	 	6410.78182	28.2992	 
460.0	1.0	0.0	8.30856	7.15129	-8.91312	13.79377	17.046	1.05375	0.94899	184.3803	173.65956	69.68032	0.32304	 	1.1245E15	 	3.18213E-15	 	6269.52534	28.2513	 
455.0	1.0	0.0	8.3105	7.14962	-8.93444	13.76944	16.97056	1.05121	0.95128	184.67844	173.80083	69.80049	0.3229	 	1.52216E15	 	2.33478E-15	 	6128.50769	28.20353	 
450.0	1.0	0.0	8.31244	7.14795	-8.95569	13.74512	16.89506	1.04866	0.9536	184.97597	173.94137	69.92045	0.32276	 	2.06909E15	 	1.70583E-15	 	5987.72816	28.15591	 
445.0	1.0	0.0	8.31438	7.14628	-8.97688	13.7208	16.81952	1.04609	0.95594	185.27289	174.08117	70.0402	0.32262	 	2.82459E15	 	1.24093E-15	 	5847.18603	28.10842	 
440.0	1.0	0.0	8.31631	7.14463	-8.99801	13.69647	16.74391	1.04349	0.95832	185.5692	174.22024	70.15974	0.32248	 	3.8728E15	 	8.98756E-16	 	5706.88064	28.06108	 
435.0	1.0	0.0	8.31823	7.14297	-9.01907	13.67215	16.66825	1.04088	0.96072	185.86491	174.35859	70.27908	0.32233	 	5.33374E15	 	6.48008E-16	 	5566.81129	28.01387	 
430.0	1.0	0.0	8.32015	7.14132	-9.04006	13.64783	16.59252	1.03825	0.96316	186.16	174.4962	70.3982	0.32219	 	7.3793E15	 	4.65072E-16	 	5426.9773	27.9668	 
425.0	1.0	0.0	8.32207	7.13968	-9.06099	13.62351	16.51674	1.0356	0.96563	186.45449	174.6331	70.51712	0.32205	 	1.02569E16	 	3.32214E-16	 	5287.37807	27.91985	 
420.0	1.0	0.0	8.32398	7.13804	-9.08186	13.59918	16.4409	1.03292	0.96813	186.74837	174.76927	70.63583	0.32191	 	1.43246E16	 	2.36173E-16	 	5148.01281	27.87305	 
415.0	1.0	0.0	8.32588	7.13641	-9.10265	13.57486	16.36499	1.03023	0.97066	187.04164	174.90472	70.75433	0.32177	 	2.01028E16	 	1.67076E-16	 	5008.88115	27.82633	 
410.0	1.0	0.0	8.32778	7.13478	-9.12339	13.55054	16.28902	1.02751	0.97322	187.3343	175.03945	70.87263	0.32163	 	2.83521E16	 	1.17603E-16	 	4869.98282	27.77967	 
405.0	1.0	0.0	8.32968	7.13316	-9.14405	13.52621	16.21298	1.02478	0.97582	187.62636	175.17347	70.99071	0.32149	 	4.01897E16	 	8.23565E-17	 	4731.31756	27.73305	 
400.0	1.0	0.0	8.33157	7.13154	-9.16466	13.50189	16.13688	1.02202	0.97846	187.9178	175.30677	71.10859	0.32134	 	5.72658E16	 	5.73724E-17	 	4592.88509	27.68649	 
395.0	1.0	0.0	8.33345	7.12993	-9.18519	13.47757	16.06071	1.01924	0.98113	188.20864	175.43936	71.22626	0.3212	 	8.2031E16	 	3.97542E-17	 	4454.68517	27.63998	 
390.0	1.0	0.0	8.33533	7.12832	-9.20567	13.45325	15.98447	1.01644	0.98383	188.49887	175.57123	71.34372	0.32106	 	1.18145E17	 	2.73958E-17	 	4316.71759	27.59352	 
385.0	1.0	0.0	8.3372	7.12672	-9.22607	13.42892	15.90815	1.01361	0.98657	188.78849	175.7024	71.46097	0.32092	 	1.71103E17	 	1.87739E-17	 	4178.98208	27.5471	 
380.0	1.0	0.0	8.33907	7.12512	-9.24641	13.4046	15.83176	1.01076	0.98935	189.0775	175.83286	71.57802	0.32078	 	2.49209E17	 	1.27919E-17	 	4041.47845	27.50073	 
375.0	1.0	0.0	8.34094	7.12353	-9.26669	13.38028	15.7553	1.00789	0.99217	189.36591	175.96261	71.69485	0.32064	 	3.65081E17	 	8.66508E-18	 	3904.20648	27.45439	 
370.0	1.0	0.0	8.34279	7.12194	-9.2869	13.35595	15.67876	1.005	0.99502	189.6537	176.09166	71.81148	0.3205	 	5.38014E17	 	5.83452E-18	 	3767.16598	27.4081	 
365.0	1.0	0.0	8.34465	7.12036	-9.30705	13.33163	15.60214	1.00209	0.99792	189.94089	176.22001	71.92789	0.32036	 	7.97695E17	 	3.90457E-18	 	3630.35676	27.36184	 
360.0	1.0	0.0	8.3465	7.11879	-9.32713	13.30731	15.52544	0.99915	1.00086	190.22748	176.34766	72.0441	0.32022	 	1.19009E18	 	2.59664E-18	 	3493.77865	27.31562	 
355.0	1.0	0.0	8.34834	7.11722	-9.34714	13.28299	15.44865	0.99618	1.00383	190.51345	176.47461	72.1601	0.32007	 	1.78686E18	 	1.71577E-18	 	3357.4315	27.26943	 
350.0	1.0	0.0	8.35018	7.11565	-9.36709	13.25866	15.37179	0.99319	1.00685	190.79882	176.60087	72.27589	0.31993	 	2.70044E18	 	1.12628E-18	 	3221.31515	27.22327	 
345.0	1.0	0.0	8.35201	7.11409	-9.38698	13.23434	15.29483	0.99018	1.00991	191.08358	176.72643	72.39147	0.31979	 	4.10846E18	 	7.34348E-19	 	3085.42947	27.17714	 
340.0	1.0	0.0	8.35384	7.11253	-9.40679	13.21002	15.21778	0.98715	1.01302	191.36773	176.8513	72.50684	0.31965	 	6.29355E18	 	4.75508E-19	 	2949.77433	27.13103	 
335.0	1.0	0.0	8.35566	7.11098	-9.42655	13.1857	15.14065	0.98408	1.01617	191.65127	176.97547	72.622	0.31951	 	9.70862E18	 	3.05731E-19	 	2814.34963	27.08494	 
330.0	1.0	0.0	8.35747	7.10944	-9.44624	13.16137	15.06342	0.981	1.01937	191.93421	177.09896	72.73696	0.31937	 	1.50848E19	 	1.95151E-19	 	2679.15529	27.03887	 
325.0	1.0	0.0	8.35929	7.10789	-9.46586	13.13705	14.98609	0.97789	1.02262	192.21654	177.22176	72.8517	0.31923	 	2.36115E19	 	1.23644E-19	 	2544.19122	26.99281	 
320.0	1.0	0.0	8.36109	7.10636	-9.48542	13.11273	14.90867	0.97475	1.02591	192.49826	177.34388	72.96624	0.31909	 	3.72381E19	 	7.77435E-20	 	2409.45737	26.94677	 
315.0	1.0	0.0	8.36289	7.10483	-9.50491	13.08841	14.83114	0.97158	1.02925	192.77937	177.46531	73.08056	0.31895	 	5.91855E19	 	4.8502E-20	 	2274.95369	26.90073	 
310.0	1.0	0.0	8.36469	7.1033	-9.52434	13.06409	14.75351	0.96839	1.03264	193.05988	177.58606	73.19467	0.31881	 	9.48186E19	 	3.00174E-20	 	2140.68017	26.8547	 
305.0	1.0	0.0	8.36648	7.10178	-9.5437	13.03976	14.67577	0.96517	1.03608	193.33978	177.70613	73.30858	0.31867	 	1.53148E20	 	1.84253E-20	 	2006.63679	26.80868	 
300.0	1.0	0.0	8.36826	7.10027	-9.563	13.01544	14.59793	0.96193	1.03958	193.61907	177.82552	73.42228	0.31853	 	2.4943799999999997E20	 	1.12148E-20	 	1872.82357	26.76265	 
295.0	1.0	0.0	8.37004	7.09876	-9.58223	12.99112	14.51997	0.95866	1.04313	193.89776	177.94423	73.53576	0.31839	 	4.0977299999999997E20	 	6.76715E-21	 	1739.24054	26.7166	 
290.0	1.0	0.0	8.37182	7.09725	-9.60139	12.9668	14.44189	0.95536	1.04673	194.17584	178.06227	73.64904	0.31825	 	6.79129E20	 	4.04724E-21	 	1605.88776	26.67056	 
285.0	1.0	0.0	8.37359	7.09575	-9.62049	12.94247	14.3637	0.95203	1.05039	194.45331	178.17963	73.7621	0.31811	 	1.1357700000000001E21	 	2.39854E-21	 	1472.7653	26.62449	 
280.0	1.0	0.0	8.37535	7.09426	-9.63953	12.91815	14.28539	0.94867	1.0541	194.73017	178.29633	73.87496	0.31797	 	1.9172E21	 	1.40819E-21	 	1339.87326	26.57841	 
275.0	1.0	0.0	8.37711	7.09277	-9.6585	12.89383	14.20695	0.94529	1.05788	195.00643	178.41235	73.98761	0.31783	 	3.26733E21	 	8.18828E-22	 	1207.21176	26.5323	 
270.0	1.0	0.0	8.37886	7.09129	-9.6774	12.86951	14.12838	0.94188	1.06171	195.28208	178.5277	74.10004	0.31769	 	5.62317E21	 	4.71439E-22	 	1074.78096	26.48616	 
265.0	1.0	0.0	8.38061	7.08981	-9.69624	12.84518	14.04968	0.93843	1.06561	195.55712	178.64239	74.21227	0.31755	 	9.77575E21	 	2.68683E-22	 	942.58103	26.43999	 
260.0	1.0	0.0	8.38235	7.08833	-9.71502	12.82086	13.97085	0.93496	1.06957	195.83156	178.75642	74.32428	0.31741	 	1.7172099999999998E22	 	1.51535E-22	 	810.61216	26.39377	 
255.0	1.0	0.0	8.38409	7.08686	-9.73373	12.79654	13.89187	0.93146	1.07359	196.10539	178.86978	74.43609	0.31727	 	3.0488099999999997E22	 	8.455E-23	 	678.87459	26.34751	 
250.0	1.0	0.0	8.38582	7.0854	-9.75237	12.77222	13.81275	0.92792	1.07768	196.37861	178.98248	74.54768	0.31713	 	5.4727099999999995E22	 	4.66563E-23	 	547.36858	26.3012	 
245.0	1.0	0.0	8.38755	7.08394	-9.77095	12.7479	13.73348	0.92436	1.08183	196.65123	179.09452	74.65907	0.31699	 	9.93523E22	 	2.54545E-23	 	416.09441	26.25483	 
240.0	1.0	0.0	8.38927	7.08249	-9.78946	12.72357	13.65406	0.92076	1.08605	196.92324	179.2059	74.77024	0.31686	 	1.82474E23	 	1.37256E-23	 	285.0524	26.2084	 
235.0	1.0	0.0	8.39099	7.08104	-9.80791	12.69925	13.57448	0.91714	1.09035	197.19464	179.31662	74.88121	0.31672	 	3.39171E23	 	7.31241E-24	 	154.24293	26.16189	 
230.0	1.0	0.0	8.3927	7.0796	-9.82629	12.67493	13.49474	0.91348	1.09472	197.46544	179.42669	74.99196	0.31658	 	6.382439999999999E23	 	3.84767E-24	 	23.66638	26.11531	 
225.0	1.0	0.0	8.3944	7.07816	-9.84461	12.65061	13.41484	0.90979	1.09916	197.73563	179.53611	75.1025	0.31644	 	1.2163700000000002E24	 	1.99885E-24	 	-106.67681	26.06864	 
220.0	1.0	0.0	8.3961	7.07673	-9.86286	12.62629	13.33476	0.90607	1.10367	198.00521	179.64487	75.21283	0.3163	 	2.3487E24	 	1.0248E-24	 	-236.78618	26.02187	 
215.0	1.0	0.0	8.3978	7.0753	-9.88105	12.60196	13.25451	0.90231	1.10827	198.27419	179.75299	75.32295	0.31616	 	4.5966400000000004E24	 	5.18322E-25	 	-366.66121	25.97501	 
210.0	1.0	0.0	8.39949	7.07388	-9.89917	12.57764	13.17407	0.89852	1.11294	198.54256	179.86046	75.43286	0.31602	 	9.122E24	 	2.58511E-25	 	-496.30135	25.92803	 
205.0	1.0	0.0	8.40117	7.07246	-9.91723	12.55332	13.09344	0.8947	1.1177	198.81033	179.96728	75.54256	0.31588	 	1.83639E25	 	1.27083E-25	 	-625.70597	25.88093	 
200.0	1.0	0.0	8.40285	7.07105	-9.93522	12.529	13.01262	0.89084	1.12253	199.07749	180.07345	75.65205	0.31574	 	3.7519900000000004E25	 	6.15494E-26	 	-754.87446	25.8337	 
195.0	1.0	0.0	8.40452	7.06964	-9.95314	12.50468	12.9316	0.88695	1.12746	199.34404	180.17898	75.76133	0.31561	 	7.7837E25	 	2.93552E-26	 	-883.80608	25.78632	 
190.0	1.0	0.0	8.40619	7.06824	-9.971	12.48036	12.85037	0.88302	1.13247	199.60998	180.28387	75.87039	0.31547	 	1.6404200000000003E26	 	1.37802E-26	 	-1012.5001	25.7388	 
185.0	1.0	0.0	8.40785	7.06684	-9.9888	12.45603	12.76893	0.87906	1.13758	199.87533	180.38812	75.97924	0.31533	 	3.51389E26	 	6.36364E-27	 	-1140.95569	25.69112	 
180.0	1.0	0.0	8.40951	7.06545	-10.00653	12.43171	12.68726	0.87506	1.14277	200.14006	180.49173	76.08789	0.31519	 	7.65463E26	 	2.88938E-27	 	-1269.17197	25.64326	 
175.0	1.0	0.0	8.41116	7.06406	-10.02419	12.40739	12.60537	0.87103	1.14806	200.40419	180.59471	76.19632	0.31505	 	1.6967E27	 	1.28916E-27	 	-1397.14803	25.59521	 
170.0	1.0	0.0	8.4128	7.06268	-10.04179	12.38307	12.52323	0.86696	1.15345	200.66771	180.69705	76.30454	0.31491	 	3.829E27	 	5.64874E-28	 	-1524.88284	25.54696	 
165.0	1.0	0.0	8.41444	7.0613	-10.05933	12.35875	12.44086	0.86286	1.15894	200.93062	180.79875	76.41255	0.31478	 	8.80307E27	 	2.42927E-28	 	-1652.37534	25.4985	 
160.0	1.0	0.0	8.41608	7.05993	-10.07679	12.33442	12.35823	0.85871	1.16453	201.19294	180.89982	76.52035	0.31464	 	2.06315E28	 	1.0247E-28	 	-1779.62436	25.4498	 
155.0	1.0	0.0	8.41771	7.05856	-10.0942	12.3101	12.27534	0.85453	1.17023	201.45464	181.00026	76.62793	0.3145	 	4.932480000000001E28	 	4.2366E-29	 	-1906.6287	25.40087	 
150.0	1.0	0.0	8.41933	7.0572	-10.11154	12.28578	12.19217	0.85031	1.17604	201.71574	181.10007	76.7353	0.31436	 	1.2037800000000001E29	 	1.71568E-29	 	-2033.38704	25.35167	 
145.0	1.0	0.0	8.42095	7.05585	-10.12881	12.26146	12.10873	0.84606	1.18195	201.97623	181.19926	76.84247	0.31422	 	3.0011900000000002E29	 	6.80027E-30	 	-2159.89797	25.30219	 
140.0	1.0	0.0	8.42256	7.0545	-10.14602	12.23714	12.02499	0.84176	1.18798	202.23612	181.29782	76.94942	0.31408	 	7.649680000000001E29	 	2.63604E-30	 	-2286.16001	25.25241	 
135.0	1.0	0.0	8.42417	7.05315	-10.16316	12.21282	11.94095	0.83743	1.19413	202.4954	181.39575	77.05615	0.31395	 	1.99503E30	 	9.98521E-31	 	-2412.17155	25.20231	 
130.0	1.0	0.0	8.42577	7.05181	-10.18024	12.1885	11.85659	0.83305	1.2004	202.75407	181.49306	77.16268	0.31381	 	5.32821E30	 	3.69294E-31	 	-2537.93091	25.15187	 
125.0	1.0	0.0	8.42737	7.05047	-10.19725	12.16417	11.77191	0.82864	1.2068	203.01214	181.58975	77.269	0.31367	 	1.45858E31	 	1.33231E-31	 	-2663.43626	25.10107	 
120.0	1.0	0.0	8.42896	7.04914	-10.21419	12.13985	11.68689	0.82419	1.21332	203.26961	181.68582	77.3751	0.31353	 	4.09639E31	 	4.68429E-32	 	-2788.68568	25.04988	 
115.0	1.0	0.0	8.43054	7.04782	-10.23107	12.11553	11.60152	0.81969	1.21997	203.52647	181.78127	77.48099	0.3134	 	1.1814799999999999E32	 	1.60346E-32	 	-2913.67712	24.99829	 
110.0	1.0	0.0	8.43212	7.0465	-10.24789	12.09121	11.51578	0.81516	1.22676	203.78272	181.8761	77.58667	0.31326	 	3.50316E32	 	5.33821E-33	 	-3038.40837	24.94625	 
105.0	1.0	0.0	8.4337	7.04518	-10.26464	12.06689	11.42966	0.81058	1.23368	204.03837	181.97032	77.69213	0.31312	 	1.06899E33	 	1.72654E-33	 	-3162.87712	24.89375	 
100.0	1.0	0.0	8.43526	7.04387	-10.28133	12.04257	11.34314	0.80596	1.24075	204.29341	182.06392	77.79739	0.31298	 	3.3610500000000003E33	 	5.41871E-34	 	-3287.08084	24.84074	 
95.0	1.0	0.0	8.43683	7.04257	-10.29795	12.01824	11.25621	0.80131	1.24796	204.54785	182.15691	77.90243	0.31285	 	1.09015E34	 	1.64825E-34	 	-3411.01691	24.78721	 
90.0	1.0	0.0	8.43838	7.04127	-10.3145	11.99392	11.16885	0.79661	1.25533	204.80169	182.24929	78.00726	0.31271	 	3.6523500000000004E34	 	4.85289E-35	 	-3534.68248	24.73311	 
85.0	1.0	0.0	8.43994	7.03997	-10.33099	11.9696	11.08105	0.79186	1.26284	205.05491	182.34106	78.11187	0.31257	 	1.2656599999999999E35	 	1.38113E-35	 	-3658.07454	24.67841	 
80.0	1.0	0.0	8.44148	7.03868	-10.34741	11.94528	10.99277	0.78708	1.27052	205.30754	182.43222	78.21628	0.31243	 	4.5430599999999995E35	 	3.79401E-36	 	-3781.18986	24.62306	 
75.0	1.0	0.0	8.44302	7.0374	-10.36377	11.92096	10.90401	0.78225	1.27836	205.55955	182.52278	78.32047	0.3123	 	1.69169E36	 	1.00446E-36	 	-3904.02502	24.56703	 
70.0	1.0	0.0	8.44456	7.03612	-10.38007	11.89664	10.81473	0.77738	1.28637	205.81097	182.61273	78.42445	0.31216	 	6.54532E36	 	2.55882E-37	 	-4026.57635	24.51027	 
65.0	1.0	0.0	8.44609	7.03485	-10.39629	11.87232	10.72493	0.77247	1.29455	206.06177	182.70208	78.52821	0.31202	 	2.6358399999999998E37	 	6.26148E-38	 	-4148.83993	24.45272	 
60.0	1.0	0.0	8.44761	7.03358	-10.41246	11.848	10.63456	0.76751	1.30291	206.31198	182.79082	78.63176	0.31189	 	1.10679E38	 	1.46913E-38	 	-4270.81158	24.39433	 
55.0	1.0	0.0	8.44913	7.03231	-10.42855	11.82368	10.54361	0.76252	1.31145	206.56158	182.87896	78.7351	0.31175	 	4.85517E38	 	3.29879E-39	 	-4392.48685	24.33505	 
50.0	1.0	0.0	8.45064	7.03105	-10.44459	11.79935	10.45206	0.75748	1.32017	206.81057	182.96651	78.83823	0.31161	 	2.2295300000000003E39	 	7.0742E-40	 	-4513.86093	24.27482	 
45.0	1.0	0.0	8.45215	7.0298	-10.46055	11.77503	10.35986	0.75239	1.32909	207.05896	183.05346	78.94115	0.31148	 	1.07406E40	 	1.44573E-40	 	-4634.92873	24.21356	 
40.0	1.0	0.0	8.45365	7.02855	-10.47645	11.75071	10.26699	0.74727	1.33821	207.30675	183.13981	79.04385	0.31134	 	5.44066E40	 	2.80923E-41	 	-4755.68479	24.15121	 
35.0	1.0	0.0	8.45515	7.02731	-10.49229	11.72639	10.17341	0.7421	1.34753	207.55393	183.22556	79.14634	0.3112	 	2.9049600000000003E41	 	5.17737E-42	 	-4876.12323	24.08769	 
30.0	1.0	0.0	8.45664	7.02607	-10.50806	11.70207	10.0791	0.73689	1.35706	207.8005	183.31072	79.24861	0.31107	 	1.6391699999999998E42	 	9.0265E-43	 	-4996.23777	24.02291	 
25.0	1.0	0.0	8.45812	7.02484	-10.52377	 	9.98401	0.73164	1.3668	208.04648	183.39529	79.35067	0.31093	 	9.802009999999999E42	 	1.48459E-43	 	-5116.02167	 	 
