T (C)	Fraction solid (wt)-TOTAL	Fraction liquid (wt)-LIQUID	Density (g/(cm)^3)-TOTAL	Molar volume (cm^3)-TOTAL	Volume change (%)-  	Average expansion coeff. (10e-6 1/K)-  	Thermal conductivity (W/(m*K))-TOTAL	Electrical resistivity (10e-6 Ohm*m)-TOTAL	Electrical conductivity (10e6 1/(Ohm*m))-TOTAL	Young's modulus (GPa)-TOTAL	Bulk modulus (GPa)-TOTAL	Shear modulus(GPa)-TOTAL	Poisson's ratio-TOTAL	Liquid viscosity (mPa s)-  	Total viscosity (mPa s)-  	Liquid diffusivity (10e-9 (m^2)/s)-  	Total diffusivity (10e-9 (m^2)/s)-  	Surface Tension (mN/m)-  	Enthalpy (J/mole)-TOTAL	Specific heat (J/(mole K))-TOTAL	Latent heat (J/mole)-TOTAL
1400.0	0.0	1.0	7.26454	7.78194	0.0	29.30242	29.46533	1.3912	0.7188	0.0	124.93234	0.0	0.5	6.95121	6.95121	1.17479	1.17479	1752.74772	54790.752	 	0.0
1395.0	0.0	1.0	7.26846	7.77774	-0.0539595	29.26221	29.38627	1.39077	0.71902	0.0	125.09003	0.0	0.5	7.02499	7.02499	1.15898	1.15898	1754.9389	54585.708	41.0088	0.0
1390.0	0.0	1.0	7.27238	7.77356	-0.10776	29.22213	29.30722	1.39035	0.71925	0.0	125.24771	0.0	0.5	7.09999	7.09999	1.1433	1.1433	1757.14497	54381.138	40.914	0.0
1385.0	0.0	1.0	7.27628	7.76938	-0.16141	29.18219	29.22816	1.38992	0.71947	0.0	125.4054	0.0	0.5	7.17626	7.17626	1.12775	1.12775	1759.36586	54177.039	40.8198	0.0
1380.0	0.0	1.0	7.28018	7.76522	-0.21489	29.14239	29.14911	1.38948	0.71969	0.0	125.56309	0.0	0.5	7.25381	7.25381	1.11233	1.11233	1761.60152	53973.41	40.7258	0.0
1375.0	0.0	1.0	7.28408	7.76107	-0.26822	29.10273	29.07006	1.38905	0.71992	0.0	125.72077	0.0	0.5	7.33268	7.33268	1.09704	1.09704	1763.85185	53770.247	40.6326	0.0
1370.0	0.0	1.0	7.28796	7.75693	-0.3214	29.06321	28.991	1.38861	0.72014	0.0	125.87846	0.0	0.5	7.4129	7.4129	1.08187	1.08187	1766.11675	53567.549	40.5396	0.0
1365.0	0.0	1.0	7.29184	7.75281	-0.37441	29.02383	28.91195	1.38817	0.72037	0.0	126.03615	0.0	0.5	7.49449	7.49449	1.06684	1.06684	1768.39613	53365.312	40.4474	0.0
1360.0	0.0	1.0	7.29571	7.74869	-0.42727	28.9846	28.8329	1.38773	0.7206	0.0	126.19383	0.0	0.5	7.57748	7.57748	1.05193	1.05193	1770.68985	53163.535	40.3554	0.0
1355.0	0.0	1.0	7.29958	7.74459	-0.47997	28.94552	28.75384	1.38728	0.72083	0.0	126.35152	0.0	0.5	7.66192	7.66192	1.03715	1.03715	1772.99778	52962.215	40.264	0.0
1350.0	0.0	1.0	7.30343	7.7405	-0.53252	28.90659	28.67479	1.38683	0.72107	0.0	126.50921	0.0	0.5	7.74782	7.74782	1.02251	1.02251	1775.31977	52761.349	40.1732	0.0
1345.06	0.0	1.0	7.30724	7.73647	-0.5843	28.86825	28.59665	1.38639	0.7213	0.0	126.66507	0.0	0.5	7.83421	7.83421	1.00815	1.00815	1777.62861	52563.253	40.08182	0.0
1345.0	0.00161	0.99839	7.30764	7.73598	-0.59069	28.85143	28.60164	1.3861	0.72145	6.29456E-10	126.66562	2.09849E-10	0.49978	7.83532	7.85214	1.00797	1.00581	1777.61764	52536.659	460.82135	24.274
1340.0	0.13238	0.86762	7.34082	7.70103	-1.03976	27.68521	29.01865	1.36196	0.73424	0.0296052	126.80668	0.0099898	0.48177	7.93168	21.27557	0.99265	0.37007	1776.72142	50370.54	433.2238	1990.43
1335.0	0.23923	0.76077	7.36845	7.67213	-1.41111	26.73176	29.35637	1.34212	0.74509	0.32162	126.99102	0.10963	0.46688	8.02811	145.13603	0.97769	0.0540802	1775.97121	48575.483	359.0114	3585.972
1330.0	0.32761	0.67239	7.3918	7.64789	-1.72263	25.94228	29.63286	1.32546	0.75446	1.14962	127.21093	0.39522	0.45443	8.12454	514.30406	0.96308	0.0152139	1775.3578	47066.316	301.8334	4896.07
1325.0	0.40156	0.59844	7.41177	7.62729	-1.9873	25.28137	29.86038	1.31126	0.76263	2.6318	127.46085	0.91134	0.44391	8.22121	1219.06678	0.94879	0.00639848	1774.87207	45780.575	257.1482	5983.184
1320.0	0.46406	0.53594	7.42905	7.60955	-2.21532	24.72113	30.04793	1.299	0.76982	4.75279	127.73544	1.65608	0.43495	8.31802	2303.03866	0.93481	0.00337631	1774.50566	44671.703	221.7744	6893.872
1315.0	0.51733	0.48267	7.44416	7.59408	-2.41408	24.24128	30.2019	1.28832	0.77621	7.42429	128.02978	2.60092	0.42724	8.4151	3779.5641	0.92113	0.00205086	1774.25032	43704.487	193.4432	7663.341
1310.0	0.56313	0.43687	7.45752	7.58049	-2.58877	23.82768	30.32782	1.27893	0.7819	10.53122	128.34186	3.70671	0.42056	8.5125	5646.74064	0.90772	0.00136839	1774.09817	42851.939	170.5096	8318.579
1305.05	0.6024	0.3976	7.46931	7.56847	-2.74314	23.46929	30.42852	1.27071	0.78696	13.92141	128.66394	4.91998	0.41478	8.60931	7871.90216	0.8947	9.78517E-4	1774.04266	42100.026	 	8875.474
1305.0	0.60309	0.39691	7.46951	7.5683	-2.74537	23.46364	30.43067	1.27058	0.78704	13.9878	128.67104	4.9438	0.41468	8.61121	7913.27817	0.89448	9.73371E-4	1774.0475	42087.761	152.8356	8885.882
1300.0	0.67095	0.32905	7.48867	7.54887	-2.99506	22.82396	30.63884	1.25795	0.79494	21.81548	129.33226	7.76671	0.40442	8.80859	12995.12061	0.87167	5.90849E-4	1774.55158	40874.369	242.6784	9902.83
1295.0	0.72325	0.27675	7.50387	7.53342	-3.19365	22.3296	30.78645	1.24794	0.80132	29.89795	129.91811	10.70517	0.39643	9.00575	18802.9519	0.84987	4.0705E-4	1775.0351	39905.002	193.8734	10676.185
1290.0	0.76437	0.23563	7.51628	7.52085	-3.35513	21.94091	30.88877	1.23984	0.80655	37.76835	130.45432	13.58498	0.39008	9.20275	25133.23752	0.82903	3.03556E-4	1775.50963	39109.51	159.0984	11276.093
1285.0	0.79725	0.20275	7.52663	7.51035	-3.49002	21.62798	30.95651	1.23317	0.81092	45.17866	130.95617	16.31062	0.38495	9.3996	31867.66513	0.80907	2.38641E-4	1775.9856	38440.842	133.7336	11749.602
1280.0	0.82396	0.17604	7.53544	7.50139	-3.60523	21.37118	30.99747	1.22759	0.8146	52.0221	131.43353	18.83856	0.38073	9.59648	38949.57937	0.78993	1.94624E-4	1776.47057	37866.617	114.845	12129.09
1275.0	0.84592	0.15408	7.5431	7.4936	-3.70524	21.15774	31.01755	1.22285	0.81776	58.27148	131.89375	21.15528	0.37723	9.79347	46362.36029	0.77155	1.6298E-4	1776.96973	37364.037	100.516	12437.356
1270.0	0.86419	0.13581	7.54986	7.48672	-3.79374	20.97711	31.02114	1.21876	0.82051	63.95108	132.34119	23.2671	0.37428	9.99078	54121.46154	0.75387	1.39163E-4	1777.48745	36916.714	89.4646	12690.784
1265.0	0.87959	0.12041	7.55592	7.48053	-3.87321	20.82224	31.01154	1.21518	0.82292	69.09946	132.77892	25.1863	0.37177	10.1884	62254.04026	0.73685	1.20592E-4	1778.02665	36512.652	80.8124	12901.369
1260.0	0.89265	0.10735	7.56143	7.4749	-3.94555	20.6877	30.99125	1.21203	0.82507	73.76529	133.2092	26.92947	0.3696	10.38651	70800.61196	0.72045	1.0569E-4	1778.5895	36142.923	73.9458	13078.035
1255.0	0.90385	0.0961483	7.5665	7.46973	-4.01199	20.56998	30.96229	1.2092	0.82699	78.00181	133.63397	28.51527	0.36772	10.5853	79814.07815	0.70461	9.34487E-5	1779.17688	35800.782	68.4282	13227.528
1250.0	0.91352	0.086483	7.57122	7.46492	-4.07383	20.46534	30.92616	1.20665	0.82874	81.85689	134.05404	29.96072	0.36607	10.7848	89349.73934	0.68931	8.32024E-5	1779.79022	35481.06	63.9444	13355.012
1245.0	0.92193	0.0780723	7.57564	7.46041	-4.13182	20.37161	30.88405	1.20433	0.83034	85.37479	134.47029	31.28173	0.36461	10.98528	99469.62242	0.67451	7.44922E-5	1780.42974	35179.75	60.262	13464.494
1240.0	0.92929	0.0707092	7.57982	7.45615	-4.18655	20.28715	30.83696	1.2022	0.83181	88.59531	134.88348	32.49267	0.36331	11.18686	110241.7448	0.66018	6.69919E-5	1781.09524	34893.705	57.209	13559.117
1235.0	0.93578	0.0642249	7.5838	7.45209	-4.23872	20.20988	30.78565	1.20022	0.83318	91.55386	135.29381	33.60647	0.36215	11.3896	121738.8111	0.64628	6.04647E-5	1781.78738	34620.431	54.6548	13641.374
1230.0	0.94152	0.0584818	7.58757	7.4482	-4.2887	20.13875	30.73059	1.19839	0.83445	94.28362	135.70292	34.63527	0.36109	11.59372	134040.8752	0.6328	5.47333E-5	1783.79935	34357.08323	52.66955	13713.26
1225.0	0.94663	0.0533705	7.5913	7.44489	-4.33122	20.09028	30.6696	1.19678	0.83558	96.80858	136.09824	35.58812	0.36012	11.79922	147384.2804	0.61971	4.96125E-5	1785.81929	34101.693	51.07805	13776.387
1220.0	0.9512	0.0488006	7.59489	7.44161	-4.37342	20.0424	30.60677	1.19523	0.83666	99.15305	136.49609	36.47361	0.35924	12.0063	161710.885	0.60699	4.50662E-5	1787.84704	33854.19509	49.49958	13832.07
1215.0	0.9553	0.044697	7.59835	7.43833	-4.41548	19.99458	30.54234	1.19374	0.8377	101.33771	136.89585	37.29937	0.35844	12.21511	177119.3437	0.59462	4.10079E-5	1789.88348	33613.50623	48.13777	13881.386
1210.0	0.959	0.040997	7.60171	7.43507	-4.45739	19.94679	30.47655	1.1923	0.83872	103.38071	137.29721	38.07214	0.3577	12.42582	193718.2002	0.58257	3.73681E-5	1791.92856	33378.73061	46.95512	13925.227
1205.0	0.96286	0.0371363	7.6052	7.43166	-4.50124	19.89247	30.41051	1.19086	0.83973	105.53705	137.72382	38.88811	0.35693	12.60243	212037.538	0.57247	3.40246E-5	1793.98659	33139.15563	47.915	13974.305
1200.0	0.96717	0.0328349	7.60897	7.42802	-4.54806	19.82823	30.34489	1.1894	0.84076	107.94572	138.19024	39.7999	0.35611	12.71252	232519.7328	0.56559	3.09224E-5	1796.0627	32889.20264	49.9906	14034.195
1195.0	0.97085	0.0291515	7.61258	7.4245	-4.59327	19.7686	30.27747	1.188	0.84175	110.10432	138.64799	40.61766	0.35537	12.82536	254429.664	0.55871	2.81637E-5	1798.14808	32649.04798	48.03093	14084.718
1190.0	0.97404	0.0259605	7.61607	7.42109	-4.63712	19.7128	30.20856	1.18666	0.8427	112.05994	139.0985	41.35904	0.35472	12.94114	277958.4199	0.55183	2.56919E-5	1800.24232	32416.75605	46.45839	14127.807
1185.0	0.97683	0.0231692	7.61945	7.41775	-4.67994	19.65988	30.13842	1.18535	0.84363	113.84861	139.54279	42.03757	0.35413	13.06035	303301.6539	0.54492	2.34647E-5	1802.34637	32190.88318	45.17457	14164.903
1180.0	0.98169	0.0183133	7.62355	7.41372	-4.73174	19.57741	30.06836	1.18404	0.84457	116.02682	140.05431	42.87013	0.35324	13.19825	333809.6165	0.53738	2.1247E-5	1804.47406	31917.37075	54.70249	14250.062
1175.0	0.99368	0.00631799	7.63001	7.40676	-4.8212	19.37187	30.00489	1.18246	0.84569	122.0013	140.7826	45.14441	0.35123	13.14661	378076.6728	0.53763	1.86948E-5	1806.48197	31495.70013	84.33412	14483.801
1170.0	1.0	0.0	7.63494	7.40151	-4.88873	19.23613	29.92956	1.18135	0.84649	127.14158	141.3561	47.08623	0.35009	 	418809.2453	 	1.68183E-5	 	31184.4847	62.24309	14607.504
1165.0	1.0	0.0	7.63749	7.39904	-4.92046	19.2165	29.84707	1.18051	0.84709	127.63039	141.74249	47.27308	0.34993	 	452840.194	 	1.55005E-5	 	31008.78426	35.14009	 
1160.0	1.0	0.0	7.64003	7.39657	-4.95212	19.19692	29.76459	1.17966	0.8477	128.11828	142.1271	47.45962	0.34976	 	489899.4233	 	1.42781E-5	 	30830.16734	35.72339	 
1155.0	1.0	0.0	7.64257	7.39411	-4.98372	19.1774	29.6821	1.17881	0.84831	128.60523	142.50993	47.64586	0.3496	 	530279.2276	 	1.31449E-5	 	30651.87604	35.65826	 
1150.0	1.0	0.0	7.64511	7.39166	-5.01525	19.15792	29.59962	1.17796	0.84892	129.09126	142.89098	47.8318	0.34943	 	574302.3534	 	1.20947E-5	 	30473.90921	35.59337	 
1145.0	1.0	0.0	7.64764	7.38921	-5.04671	19.1385	29.51713	1.1771	0.84954	129.57637	143.27028	48.01745	0.34926	 	622325.2664	 	1.11222E-5	 	30296.26568	35.52871	 
1140.0	1.0	0.0	7.65017	7.38677	-5.0781	19.11913	29.43464	1.17624	0.85017	130.06055	143.64781	48.20279	0.3491	 	674741.9937	 	1.0222E-5	 	30118.9443	35.46428	 
1135.0	1.0	0.0	7.6527	7.38433	-5.10942	19.09981	29.35215	1.17537	0.85079	130.54381	144.02359	48.38783	0.34893	 	731988.3701	 	9.38926E-6	 	29941.94392	35.40008	 
1130.0	1.0	0.0	7.65522	7.3819	-5.14068	19.08055	29.26966	1.1745	0.85143	131.02615	144.39763	48.57257	0.34877	 	794546.6894	 	8.61929E-6	 	29765.26338	35.33611	 
1125.0	1.0	0.0	7.65774	7.37947	-5.17187	19.06134	29.18717	1.17362	0.85206	131.50757	144.76993	48.75701	0.3486	 	862951.1583	 	7.90777E-6	 	29588.90154	35.27237	 
1120.0	1.0	0.0	7.66025	7.37705	-5.20299	19.04219	29.10467	1.17274	0.8527	131.98807	145.1405	48.94115	0.34844	 	937793.6653	 	7.25066E-6	 	29412.85726	35.20886	 
1115.0	1.0	0.0	7.66276	7.37463	-5.23404	19.0231	29.02218	1.17185	0.85335	132.46766	145.50935	49.125	0.34827	 	1019730.692	 	6.64412E-6	 	29237.12941	35.14557	 
1110.0	1.0	0.0	7.66527	7.37222	-5.26503	19.00407	28.93968	1.17096	0.854	132.94632	145.87649	49.30855	0.34811	 	1109490.602	 	6.0846E-6	 	29061.71685	35.08251	 
1105.0	1.0	0.0	7.66777	7.36982	-5.29595	18.98509	28.85719	1.17006	0.85466	133.42407	146.24192	49.49179	0.34794	 	1207882.275	 	5.56876E-6	 	28886.61844	35.01968	 
1100.0	1.0	0.0	7.67027	7.36742	-5.32679	18.96618	28.77469	1.16916	0.85532	133.90091	146.60565	49.67475	0.34778	 	1315804.443	 	5.09347E-6	 	28711.83305	34.95708	 
1095.0	1.0	0.0	7.67276	7.36502	-5.35758	18.94732	28.69219	1.16825	0.85598	134.37684	146.96769	49.8574	0.34761	 	1434256.468	 	4.65579E-6	 	28537.35957	34.8947	 
1090.0	1.0	0.0	7.67525	7.36263	-5.38829	18.92853	28.60968	1.16734	0.85665	134.85186	147.32804	50.03976	0.34745	 	1564350.395	 	4.25301E-6	 	28363.19686	34.83254	 
1085.0	1.0	0.0	7.67774	7.36025	-5.41893	18.9098	28.52718	1.16642	0.85732	135.32596	147.68671	50.22182	0.34728	 	1707324.419	 	3.88256E-6	 	28189.34382	34.77061	 
1080.0	1.0	0.0	7.68022	7.35787	-5.44951	18.89113	28.44467	1.1655	0.858	135.79916	148.04371	50.40358	0.34712	 	1864558.293	 	3.54207E-6	 	28015.79933	34.7089	 
1075.0	1.0	0.0	7.6827	7.35549	-5.48002	18.87253	28.36217	1.16457	0.85869	136.27145	148.39905	50.58505	0.34695	 	2037590.634	 	3.2293E-6	 	27842.56229	34.64741	 
1070.0	1.0	0.0	7.68518	7.35312	-5.51046	18.85399	28.27965	1.16363	0.85938	136.74284	148.75273	50.76622	0.34679	 	2228138.308	 	2.94218E-6	 	27669.63159	34.58614	 
1065.0	1.0	0.0	7.68765	7.35076	-5.54083	18.83552	28.19714	1.16269	0.86007	137.21332	149.10476	50.9471	0.34663	 	2438118.588	 	2.67878E-6	 	27497.00613	34.52509	 
1060.0	1.0	0.0	7.69011	7.3484	-5.57114	18.81711	28.11463	1.16175	0.86077	137.6829	149.45514	51.12769	0.34646	 	2669674.349	 	2.43729E-6	 	27324.68482	34.46426	 
1055.0	1.0	0.0	7.69258	7.34605	-5.60138	18.79878	28.03211	1.1608	0.86147	138.15158	149.80389	51.30798	0.3463	 	2925201.954	 	2.21604E-6	 	27152.66656	34.40365	 
1050.0	1.0	0.0	7.69504	7.3437	-5.63154	18.78051	27.94959	1.15984	0.86218	138.61936	150.15101	51.48797	0.34613	 	3207383.735	 	2.01347E-6	 	26980.95027	34.34326	 
1049.85	1.0	0.0	7.69511	7.34363	-5.63244	18.77992	27.94717	1.15982	0.86221	138.63301	150.16109	51.49323	0.34613	 	3216057.106	 	2.00782E-6	 	26975.93739	 	 
1045.0	1.0	0.0	7.69913	7.3398	-5.68167	18.68898	27.80373	1.16152	0.86094	139.37573	150.66242	51.78101	0.34582	 	3553263.021	 	1.81061E-6	 	26707.56066	54.67792	 
1040.0	1.0	0.0	7.7032	7.33591	-5.73159	18.59726	27.65951	1.16315	0.85973	140.12787	151.16919	52.07253	0.34551	 	3940287.224	 	1.62657E-6	 	26435.12159	54.48781	 
1035.0	1.0	0.0	7.70722	7.33209	-5.78074	18.50752	27.51913	1.16463	0.85864	140.86744	151.66668	52.35927	0.3452	 	4372490.306	 	1.46021E-6	 	26166.60767	53.70278	 
1030.0	1.0	0.0	7.71118	7.32832	-5.82914	18.41967	27.38224	1.16598	0.85765	141.59502	152.1553	52.64144	0.3449	 	4855488.367	 	1.30993E-6	 	25901.87066	52.9474	 
1025.0	1.0	0.0	7.71509	7.32461	-5.87681	18.33365	27.24864	1.1672	0.85675	142.31111	152.63545	52.91923	0.34461	 	5395638.374	 	1.17427E-6	 	25640.76832	52.22047	 
1020.0	1.0	0.0	7.71894	7.32096	-5.92379	18.24938	27.11816	1.1683	0.85594	143.01622	153.10753	53.19284	0.34432	 	6000143.643	 	1.0519E-6	 	25383.164	51.52086	 
1015.0	1.0	0.0	7.72274	7.31735	-5.97009	18.16679	26.99063	1.16928	0.85523	143.71084	153.57188	53.46245	0.34404	 	6677171.421	 	9.41587E-7	 	25128.92656	50.84749	 
1010.0	1.0	0.0	7.72649	7.3138	-6.01575	18.08582	26.86588	1.17015	0.85459	144.3954	154.02884	53.72824	0.34376	 	7435991.568	 	8.42219E-7	 	24877.93008	50.1993	 
1007.53	1.0	0.0	7.72833	7.31207	-6.03805	18.04643	26.80531	1.17054	0.85431	144.72959	154.25165	53.85801	0.34362	 	7843681.463	 	7.96908E-7	 	24755.24715	 	 
1005.0	1.0	0.0	7.73019	7.3103	-6.06074	18.00656	26.74377	1.17091	0.85403	145.07055	154.47902	53.99042	0.34348	 	8287240.311	 	7.52764E-7	 	24629.96271	49.59347	 
1000.0	1.0	0.0	7.73384	7.30685	-6.10508	17.929	26.62414	1.17157	0.85355	145.73665	154.92273	54.24916	0.34322	 	9242931.982	 	6.7229E-7	 	24384.91626	49.00929	 
995.0	1.0	0.0	7.73745	7.30344	-6.14884	17.85285	26.50688	1.17214	0.85314	146.39393	155.35992	54.50454	0.34295	 	1.031658052E7	 	5.99959E-7	 	24142.77485	48.42828	 
990.0	1.0	0.0	7.74101	7.30008	-6.19205	17.77807	26.39184	1.1726	0.8528	147.04275	155.79084	54.75669	0.34269	 	1.152370447E7	 	5.34995E-7	 	23903.43091	47.86879	 
985.0	1.0	0.0	7.74454	7.29676	-6.23472	17.70459	26.27892	1.17298	0.85253	147.68346	156.21574	55.00576	0.34244	 	1.288199178E7	 	4.7669E-7	 	23666.78187	47.32981	 
981.33	1.0	0.0	7.74709	7.29435	-6.26568	17.65151	26.19741	1.1732	0.85237	148.14823	156.52357	55.18647	0.34225	 	1.398536287E7	 	4.37803E-7	 	23494.95278	 	 
980.41	1.0	0.0	7.74923	7.29235	-6.29146	17.56775	26.174	1.17339	0.85223	148.37787	156.6194	55.2781	0.3421	 	1.43349225E7	 	4.26812E-7	 	23392.8393	 	 
980.0	1.0	0.0	7.74951	7.29208	-6.29491	17.56181	26.16501	1.17341	0.85222	148.42981	156.65377	55.2983	0.34208	 	1.446840116E7	 	4.22736E-7	 	23373.61	58.63437	 
975.0	1.0	0.0	7.75297	7.28883	-6.33664	17.4901	26.0566	1.17359	0.85209	149.05815	157.06924	55.5427	0.34183	 	1.620344247E7	 	3.75964E-7	 	23140.95512	46.53098	 
970.0	1.0	0.0	7.75638	7.28562	-6.37789	17.41958	25.94995	1.17369	0.85201	149.67924	157.47933	55.78433	0.34159	 	1.81609426E7	 	3.34096E-7	 	22910.76583	46.03786	 
965.0	1.0	0.0	7.75976	7.28245	-6.41866	17.35018	25.84497	1.17372	0.85199	150.29338	157.88423	56.02333	0.34135	 	2.03713039E7	 	2.96648E-7	 	22682.95194	45.56278	 
960.0	1.0	0.0	7.7631	7.27931	-6.45897	17.28187	25.74157	1.17367	0.85203	150.90084	158.28413	56.25978	0.34111	 	2.28693435E7	 	2.63178E-7	 	22457.4274	45.10491	 
955.0	1.0	0.0	7.76641	7.27621	-6.49884	17.21461	25.63967	1.17356	0.85211	151.5019	158.67922	56.4938	0.34087	 	2.569497628E7	 	2.33287E-7	 	22234.11087	44.66331	 
950.0	1.0	0.0	7.76969	7.27314	-6.53829	17.14834	25.53919	1.17338	0.85224	152.0968	159.06967	56.72548	0.34064	 	2.88940026E7	 	2.06614E-7	 	22012.92452	44.23727	 
945.0	1.0	0.0	7.77294	7.2701	-6.57732	17.08304	25.44006	1.17314	0.85242	152.68579	159.45563	56.95491	0.34041	 	3.251903284E7	 	1.82831E-7	 	21793.79339	43.82623	 
940.0	1.0	0.0	7.77615	7.26709	-6.61594	17.01865	25.34221	1.17283	0.85264	153.26908	159.83727	57.18218	0.34018	 	3.663055348E7	 	1.61643E-7	 	21576.64662	43.42935	 
935.0	1.0	0.0	7.77934	7.26412	-6.65419	16.95515	25.24557	1.17247	0.8529	153.8469	160.21473	57.40738	0.33996	 	4.129818354E7	 	1.42783E-7	 	21361.41644	43.04604	 
930.0	1.0	0.0	7.7825	7.26117	-6.69205	16.8925	25.15009	1.17205	0.85321	154.41945	160.58814	57.63057	0.33974	 	4.660213186E7	 	1.26009E-7	 	21148.03738	42.67581	 
925.0	1.0	0.0	7.78563	7.25825	-6.72956	16.83065	25.0557	1.17158	0.85355	154.98693	160.95763	57.85185	0.33952	 	5.263490385E7	 	1.11103E-7	 	20936.44758	42.31796	 
920.0	1.0	0.0	7.78873	7.25536	-6.76671	16.76959	24.96235	1.17105	0.85393	155.54951	161.32333	58.07127	0.3393	 	5.950330439E7	 	9.7868E-8	 	20726.58755	41.972	 
915.0	1.0	0.0	7.7918	7.2525	-6.80351	16.70928	24.86999	1.17047	0.85435	156.10737	161.68535	58.2889	0.33908	 	6.733076942E7	 	8.6128E-8	 	20518.40093	41.63732	 
910.0	1.0	0.0	7.79486	7.24966	-6.83999	16.64968	24.77857	1.16985	0.85481	156.66068	162.0438	58.50481	0.33887	 	7.626012007E7	 	7.57232E-8	 	20311.83279	41.31363	 
905.0	1.0	0.0	7.79788	7.24685	-6.87615	16.59077	24.68805	1.16918	0.8553	157.2096	162.39879	58.71906	0.33866	 	8.645677958E7	 	6.65102E-8	 	20106.83137	41.00028	 
900.0	1.0	0.0	7.80088	7.24406	-6.91199	16.53253	24.59838	1.16846	0.85583	157.75427	162.75041	58.93171	0.33845	 	9.81125761E7	 	5.836E-8	 	19903.34689	40.69689	 
895.0	1.0	0.0	7.80386	7.24129	-6.94753	16.47491	24.50951	1.1677	0.85639	158.29483	163.09875	59.14281	0.33824	 	1.114501895E8	 	5.11569E-8	 	19701.3317	40.40304	 
890.0	1.0	0.0	7.80682	7.23855	-6.98278	16.41791	24.42142	1.16689	0.85698	158.83143	163.44391	59.35242	0.33804	 	1.267284173E8	 	4.47969E-8	 	19500.74011	40.11832	 
885.0	1.0	0.0	7.80976	7.23583	-7.01774	16.36148	24.33407	1.16605	0.8576	159.36419	163.78597	59.56057	0.33783	 	1.442483758E8	 	3.91869E-8	 	19301.52857	39.84231	 
880.0	1.0	0.0	7.81267	7.23313	-7.05242	16.30561	24.24741	1.16516	0.85825	159.89322	164.12501	59.76733	0.33763	 	1.643608411E8	 	3.42432E-8	 	19103.65465	39.57478	 
875.0	1.0	0.0	7.81556	7.23045	-7.08683	16.25028	24.16142	1.16424	0.85893	160.41866	164.4611	59.97273	0.33743	 	1.874749102E8	 	2.98911E-8	 	18907.07798	39.31533	 
870.0	1.0	0.0	7.81844	7.22779	-7.12097	16.19545	24.07607	1.16328	0.85964	160.9406	164.79432	60.17682	0.33723	 	2.140682631E8	 	2.60638E-8	 	18711.76053	39.06349	 
865.0	1.0	0.0	7.82129	7.22516	-7.15486	16.14112	23.99132	1.16228	0.86038	161.45915	165.12473	60.37964	0.33703	 	2.446993606E8	 	2.27014E-8	 	18517.6653	38.81905	 
860.0	1.0	0.0	7.82412	7.22254	-7.1885	16.08726	23.90715	1.16125	0.86114	161.97441	165.45241	60.58122	0.33684	 	2.800218913E8	 	1.97507E-8	 	18324.75674	38.58171	 
855.0	1.0	0.0	7.82694	7.21994	-7.22189	16.03385	23.82353	1.16018	0.86193	162.48648	165.7774	60.78161	0.33664	 	3.208019564E8	 	1.71639E-8	 	18133.00074	38.3512	 
850.0	1.0	0.0	7.82974	7.21736	-7.25505	15.98087	23.74044	1.15908	0.86275	162.99545	166.09977	60.98083	0.33645	 	3.679385486E8	 	1.48987E-8	 	17942.36452	38.12724	 
845.0	1.0	0.0	7.83202	7.21526	-7.28207	15.95521	23.66522	1.15759	0.86386	163.4132	166.37594	61.14385	0.3363	 	4.19177658E8	 	1.30193E-8	 	17785.525	31.3679	 
840.0	1.0	0.0	7.8343	7.21316	-7.30901	15.92956	23.58998	1.15609	0.86498	163.8302	166.65088	61.30662	0.33615	 	4.7811199E8	 	1.13635E-8	 	17625.73481	31.95804	 
835.0	1.0	0.0	7.83657	7.21107	-7.33589	15.90391	23.51474	1.15458	0.86612	164.24644	166.9246	61.46914	0.33601	 	5.459799578E8	 	9.90623E-9	 	17466.19663	31.90764	 
830.0	1.0	0.0	7.83884	7.20898	-7.3627	15.87826	23.4395	1.15306	0.86726	164.66194	167.1971	61.63142	0.33586	 	6.242324397E8	 	8.62531E-9	 	17306.90978	31.85737	 
825.0	1.0	0.0	7.8411	7.2069	-7.38944	15.85262	23.36424	1.15153	0.86841	165.07669	167.46838	61.79344	0.33571	 	7.14571471E8	 	7.50072E-9	 	17147.87364	31.80723	 
820.0	1.0	0.0	7.84336	7.20483	-7.41611	15.82698	23.28899	1.14999	0.86957	165.49068	167.73845	61.95523	0.33557	 	8.189963883E8	 	6.51455E-9	 	16989.08751	31.75723	 
815.0	1.0	0.0	7.84561	7.20276	-7.44271	15.80135	23.21372	1.14844	0.87074	165.90392	168.00731	62.11676	0.33542	 	9.398589389E8	 	5.65084E-9	 	16830.55072	31.70736	 
810.0	1.0	0.0	7.84786	7.20069	-7.46924	15.77571	23.13845	1.14689	0.87193	166.31642	168.27496	62.27805	0.33527	 	1.079929193E9	 	4.89531E-9	 	16672.2626	31.65762	 
805.0	1.0	0.0	7.85011	7.19863	-7.49571	15.75008	23.06317	1.14532	0.87312	166.72816	168.54142	62.43909	0.33513	 	1.242474488E9	 	4.23524E-9	 	16514.22245	31.60803	 
800.0	1.0	0.0	7.85235	7.19658	-7.5221	15.72445	22.98789	1.14374	0.87432	167.13915	168.80667	62.59989	0.33498	 	1.431354126E9	 	3.65932E-9	 	16356.42956	31.55858	 
795.0	1.0	0.0	7.85458	7.19453	-7.54842	15.69883	22.9126	1.14215	0.87554	167.5494	169.07073	62.76043	0.33483	 	1.651133132E9	 	3.15745E-9	 	16198.88322	31.50927	 
790.0	1.0	0.0	7.85682	7.19249	-7.57468	15.67321	22.8373	1.14055	0.87677	167.95889	169.3336	62.92073	0.33469	 	1.90721912E9	 	2.7207E-9	 	16041.58271	31.4601	 
785.0	1.0	0.0	7.85904	7.19045	-7.60086	15.64759	22.762	1.13895	0.87801	168.36764	169.59529	63.08079	0.33454	 	2.206027211E9	 	2.34112E-9	 	15884.52729	31.41108	 
780.0	1.0	0.0	7.86126	7.18842	-7.62698	15.62198	22.68669	1.13733	0.87925	168.77563	169.85579	63.24059	0.33439	 	2.555179064E9	 	2.01166E-9	 	15727.7162	31.36222	 
775.0	1.0	0.0	7.86348	7.18639	-7.65303	15.59636	22.61137	1.1357	0.88052	169.18288	170.1151	63.40015	0.33425	 	2.963743448E9	 	1.72611E-9	 	15571.14869	31.3135	 
770.0	1.0	0.0	7.86569	7.18437	-7.67901	15.57076	22.53604	1.13406	0.88179	169.58938	170.37324	63.55946	0.3341	 	3.442527507E9	 	1.47896E-9	 	15414.82398	31.26494	 
765.0	1.0	0.0	7.8679	7.18235	-7.70491	15.54515	22.46071	1.13241	0.88307	169.99513	170.63021	63.71853	0.33395	 	4.004429939E9	 	1.26534E-9	 	15258.74128	31.21654	 
760.0	1.0	0.0	7.87011	7.18034	-7.73075	15.51955	22.38537	1.13075	0.88437	170.40013	170.88601	63.87735	0.33381	 	4.664869987E9	 	1.08096E-9	 	15102.89977	31.1683	 
755.0	1.0	0.0	7.8723	7.17834	-7.75652	15.49395	22.31002	1.12907	0.88568	170.80438	171.14064	64.03592	0.33366	 	5.442309359E9	 	9.22062E-10	 	14947.29863	31.12023	 
750.0	1.0	0.0	7.8745	7.17634	-7.78223	15.46835	22.23467	1.12739	0.887	171.20789	171.39411	64.19424	0.33351	 	6.35888829E9	 	7.85317E-10	 	14791.93701	31.07232	 
745.0	1.0	0.0	7.87669	7.17434	-7.80786	15.44276	22.1593	1.1257	0.88834	171.61065	171.64642	64.35232	0.33337	 	7.441202027E9	 	6.67814E-10	 	14636.81406	31.02459	 
740.0	1.0	0.0	7.87887	7.17235	-7.83342	15.41717	22.08393	1.12399	0.88969	172.01266	171.89757	64.51014	0.33322	 	8.721250379E9	 	5.66998E-10	 	14481.92887	30.97704	 
735.0	1.0	0.0	7.88105	7.17037	-7.85892	15.39158	22.00855	1.12228	0.89105	172.41392	172.14757	64.66773	0.33308	 	1.02376E10	 	4.80633E-10	 	14327.28055	30.92966	 
730.0	1.0	0.0	7.88323	7.16839	-7.88434	15.366	21.93316	1.12055	0.89242	172.81443	172.39642	64.82506	0.33293	 	1.2036799999999998E10	 	4.06763E-10	 	14172.86816	30.88248	 
725.0	1.0	0.0	7.8854	7.16642	-7.9097	15.34042	21.85776	1.11881	0.89381	173.2142	172.64413	64.98215	0.33278	 	1.4175199999999998E10	 	3.43679E-10	 	14018.69072	30.83549	 
720.0	1.0	0.0	7.88756	7.16445	-7.93498	15.31484	21.78235	1.11706	0.89521	173.61322	172.89069	65.13899	0.33264	 	1.6720999999999998E10	 	2.89894E-10	 	13864.74727	30.78869	 
715.0	1.0	0.0	7.88973	7.16249	-7.9602	15.28926	21.70694	1.1153	0.89662	174.0115	173.13611	65.29558	0.33249	 	1.9757E10	 	2.44111E-10	 	13711.03677	30.7421	 
710.0	1.0	0.0	7.89188	7.16053	-7.98535	15.26369	21.63151	1.11352	0.89805	174.40903	173.38039	65.45193	0.33234	 	2.3383899999999996E10	 	2.05206E-10	 	13557.55818	30.69572	 
705.0	1.0	0.0	7.89403	7.15858	-8.01043	15.23812	21.55608	1.11174	0.89949	174.80581	173.62355	65.60802	0.3322	 	2.7724399999999996E10	 	1.72199E-10	 	13404.31043	30.64955	 
700.0	1.0	0.0	7.89618	7.15663	-8.03544	15.21256	21.48064	1.10994	0.90095	175.20185	173.86557	65.76387	0.33205	 	3.2927999999999996E10	 	1.44245E-10	 	13251.29236	30.60361	 
695.0	1.0	0.0	7.89832	7.15469	-8.06039	15.18699	21.40518	1.10813	0.90242	175.59714	174.10646	65.91948	0.33191	 	3.91779E10	 	1.20611E-10	 	13098.50285	30.5579	 
690.0	1.0	0.0	7.90046	7.15275	-8.08526	15.16143	21.32972	1.1063	0.90391	175.99169	174.34624	66.07483	0.33176	 	4.669819999999999E10	 	1.00665E-10	 	12945.94067	30.51244	 
685.0	1.0	0.0	7.90259	7.15082	-8.11006	15.13588	21.25425	1.10447	0.90541	176.38549	174.58489	66.22994	0.33161	 	5.576419999999999E10	 	8.38618E-11	 	12793.60458	30.46722	 
680.0	1.0	0.0	7.90472	7.1489	-8.1348	15.11033	21.17877	1.10262	0.90693	176.77854	174.82243	66.3848	0.33147	 	6.671439999999999E10	 	6.97314E-11	 	12641.49329	30.42226	 
675.0	1.0	0.0	7.90684	7.14698	-8.15946	15.08477	21.10328	1.10076	0.90846	177.17085	175.05885	66.53941	0.33132	 	7.99658E10	 	5.78708E-11	 	12489.60544	30.37757	 
670.0	1.0	0.0	7.90896	7.14506	-8.18406	15.05923	21.02777	1.09889	0.91001	177.56241	175.29416	66.69378	0.33118	 	9.603359999999998E10	 	4.7934E-11	 	12337.93965	30.33316	 
665.0	1.0	0.0	7.91108	7.14316	-8.20859	15.03368	20.95226	1.097	0.91158	177.95323	175.52837	66.8479	0.33103	 	1.15555E11	 	3.9625E-11	 	12186.49444	30.28904	 
660.0	1.0	0.0	7.91318	7.14125	-8.23305	15.00814	20.87673	1.0951	0.91316	178.34331	175.76147	67.00177	0.33089	 	1.39321E11	 	3.26904E-11	 	12035.27127	30.24463	 
655.0	1.0	0.0	7.91529	7.13935	-8.25744	14.9826	20.8012	1.09319	0.91475	178.73264	175.99347	67.15539	0.33074	 	1.68314E11	 	2.69143E-11	 	11884.28646	30.19696	 
650.0	1.0	0.0	7.91739	7.13746	-8.28176	14.95707	20.72565	1.09126	0.91637	179.12122	176.22437	67.30877	0.33059	 	2.03758E11	 	2.21129E-11	 	11733.56172	30.14495	 
645.0	1.0	0.0	7.91948	7.13557	-8.30602	14.93154	20.65009	1.08933	0.918	179.50907	176.45418	67.46189	0.33045	 	2.47178E11	 	1.81297E-11	 	11583.09633	30.09308	 
640.0	1.0	0.0	7.92157	7.13369	-8.3302	14.90601	20.57452	1.08737	0.91965	179.89616	176.6829	67.61477	0.3303	 	3.00487E11	 	1.48321E-11	 	11432.88954	30.04136	 
635.0	1.0	0.0	7.92365	7.13182	-8.35431	14.88048	20.49894	1.08541	0.92131	180.28252	176.91053	67.7674	0.33016	 	3.66079E11	 	1.21079E-11	 	11282.94063	29.98978	 
630.0	1.0	0.0	7.92573	7.12994	-8.37836	14.85496	20.42335	1.08343	0.923	180.66813	177.13707	67.91979	0.33001	 	4.46965E11	 	9.86219E-12	 	11133.24887	29.93835	 
625.0	1.0	0.0	7.92781	7.12808	-8.40234	14.82944	20.34774	1.08143	0.9247	181.05299	177.36253	68.07192	0.32987	 	5.46937E11	 	8.01491E-12	 	10983.81322	29.88713	 
620.0	1.0	0.0	7.92988	7.12622	-8.42625	14.80393	20.27212	1.07942	0.92642	181.43712	177.58691	68.22381	0.32972	 	6.70784E11	 	6.49873E-12	 	10834.63228	29.83619	 
615.0	1.0	0.0	7.93194	7.12436	-8.45009	14.77841	20.19649	1.0774	0.92816	181.8205	177.81022	68.37545	0.32957	 	8.24567E11	 	5.25711E-12	 	10685.70568	29.78532	 
610.0	1.0	0.0	7.934	7.12251	-8.47386	14.7529	20.12085	1.07536	0.92992	182.20313	178.03245	68.52684	0.32943	 	1.01598E12	 	4.24265E-12	 	10537.03271	29.73459	 
605.0	1.0	0.0	7.93606	7.12067	-8.49756	14.72739	20.04519	1.07331	0.9317	182.58503	178.25362	68.67799	0.32928	 	1.2548E12	 	3.4157E-12	 	10388.61268	29.68401	 
600.0	1.0	0.0	7.93811	7.11883	-8.5212	14.70189	19.96952	1.07124	0.9335	182.96618	178.47371	68.82888	0.32914	 	1.55352E12	 	2.74321E-12	 	10240.44486	29.63356	 
595.0	1.0	0.0	7.94015	7.117	-8.54476	14.67639	19.89383	1.06916	0.93531	183.34659	178.69274	68.97953	0.32899	 	1.92808E12	 	2.19764E-12	 	10092.52857	29.58326	 
590.0	1.0	0.0	7.9422	7.11517	-8.56826	14.65089	19.81813	1.06706	0.93715	183.72625	178.91071	69.12993	0.32885	 	2.39895E12	 	1.75611E-12	 	9944.86311	29.53309	 
585.0	1.0	0.0	7.94423	7.11334	-8.59169	14.6254	19.74242	1.06495	0.93901	184.10517	179.12762	69.28008	0.3287	 	2.99243E12	 	1.39967E-12	 	9797.44779	29.48306	 
580.0	1.0	0.0	7.94626	7.11153	-8.61504	14.5999	19.66669	1.06282	0.94089	184.48336	179.34348	69.42999	0.32856	 	3.74241E12	 	1.11266E-12	 	9650.28191	29.43318	 
575.0	1.0	0.0	7.94829	7.10971	-8.63833	14.57442	19.59095	1.06068	0.94279	184.86079	179.55829	69.57964	0.32841	 	4.69271E12	 	8.82137E-13	 	9503.36478	29.38343	 
570.0	1.0	0.0	7.95031	7.10791	-8.66156	14.54893	19.51519	1.05852	0.94472	185.23749	179.77204	69.72905	0.32827	 	5.90012E12	 	6.97478E-13	 	9356.69573	29.33381	 
565.0	1.0	0.0	7.95232	7.1061	-8.68471	14.52345	19.43942	1.05634	0.94666	185.61345	179.98475	69.87821	0.32812	 	7.4385E12	 	5.4995E-13	 	9210.27408	29.28433	 
560.0	1.0	0.0	7.95433	7.10431	-8.70779	14.49797	19.36363	1.05415	0.94863	185.98866	180.19642	70.02712	0.32798	 	9.40411E12	 	4.32407E-13	 	9064.09914	29.23499	 
555.0	1.0	0.0	7.95634	7.10252	-8.73081	14.47249	19.28783	1.05194	0.95062	186.36313	180.40704	70.17578	0.32783	 	1.19228E13	 	3.39013E-13	 	8918.17024	29.18578	 
550.0	1.0	0.0	7.95834	7.10073	-8.75376	14.44702	19.21201	1.04972	0.95264	186.73686	180.61663	70.32419	0.32769	 	1.51598E13	 	2.65016E-13	 	8772.48674	29.1367	 
545.0	1.0	0.0	7.96034	7.09895	-8.77663	14.42155	19.13617	1.04748	0.95468	187.10985	180.82518	70.47236	0.32754	 	1.93322E13	 	2.06556E-13	 	8627.04793	29.08776	 
540.0	1.0	0.0	7.96233	7.09718	-8.79944	14.39608	19.06032	1.04522	0.95674	187.4821	181.0327	70.62027	0.3274	 	2.47269E13	 	1.60505E-13	 	8481.85318	29.03895	 
535.0	1.0	0.0	7.96431	7.09541	-8.82219	14.37062	18.98445	1.04294	0.95883	187.8536	181.23919	70.76794	0.32725	 	3.17233E13	 	1.24337E-13	 	8336.90184	28.99027	 
530.0	1.0	0.0	7.9663	7.09364	-8.84486	14.34516	18.90856	1.04065	0.96094	188.22437	181.44466	70.91536	0.32711	 	4.08259E13	 	9.60169E-14	 	8192.19324	28.94172	 
525.0	1.0	0.0	7.96827	7.09188	-8.86746	14.3197	18.83265	1.03834	0.96308	188.59439	181.6491	71.06253	0.32696	 	5.27067E13	 	7.39104E-14	 	8047.72673	28.8933	 
520.0	1.0	0.0	7.97024	7.09013	-8.89	14.29424	18.75672	1.03601	0.96524	188.96368	181.85252	71.20945	0.32682	 	6.82644E13	 	5.67085E-14	 	7903.50167	28.84501	 
515.0	1.0	0.0	7.97221	7.08838	-8.91247	14.26879	18.68078	1.03367	0.96743	189.33222	182.05492	71.35612	0.32667	 	8.87049E13	 	4.33658E-14	 	7759.51744	28.79685	 
510.0	1.0	0.0	7.97417	7.08664	-8.93486	14.24334	18.60482	1.0313	0.96965	189.70002	182.25631	71.50255	0.32653	 	1.15652E14	 	3.30505E-14	 	7615.77339	28.74881	 
505.0	1.0	0.0	7.97612	7.0849	-8.95719	14.2179	18.52884	1.02892	0.97189	190.06708	182.45668	71.64872	0.32638	 	1.51301E14	 	2.51021E-14	 	7472.2689	28.7009	 
500.0	1.0	0.0	7.97808	7.08317	-8.97946	14.19245	18.45283	1.02652	0.97417	190.43155	182.65427	71.79395	0.32624	 	1.98626E14	 	1.89983E-14	 	7329.00336	28.65311	 
495.0	1.0	0.0	7.98002	7.08144	-9.00165	14.16701	18.37681	1.0241	0.97647	190.79713	182.85262	71.93962	0.32609	 	2.6167999999999997E14	 	1.43272E-14	 	7185.97612	28.60545	 
490.0	1.0	0.0	7.98196	7.07972	-9.02377	14.14158	18.30077	1.02166	0.9788	191.16197	183.04998	72.08505	0.32595	 	3.45999E14	 	1.07652E-14	 	7043.1866	28.5579	 
485.0	1.0	0.0	7.9839	7.078	-9.04583	14.11614	18.22471	1.0192	0.98116	191.52607	183.24633	72.23023	0.3258	 	4.59175E14	 	8.05868E-15	 	6900.63417	28.51049	 
480.0	1.0	0.0	7.98583	7.07629	-9.06782	14.09071	18.14862	1.01673	0.98355	191.88943	183.44168	72.37516	0.32566	 	6.11665E14	 	6.00973E-15	 	6758.31825	28.46318	 
475.0	1.0	0.0	7.98775	7.07459	-9.08974	14.06529	18.07251	1.01423	0.98597	192.25205	183.63604	72.51984	0.32551	 	8.17925E14	 	4.46439E-15	 	6616.23824	28.416	 
470.0	1.0	0.0	7.98967	7.07289	-9.11159	14.03986	17.99638	1.01171	0.98842	192.61393	183.8294	72.66427	0.32537	 	1.09802E15	 	3.30333E-15	 	6474.39354	28.36894	 
465.0	1.0	0.0	7.99159	7.07119	-9.13337	14.01444	17.92023	1.00918	0.99091	192.97507	184.02177	72.80845	0.32522	 	1.47993E15	 	2.43438E-15	 	6332.7836	28.32199	 
460.0	1.0	0.0	7.9935	7.0695	-9.15508	13.98902	17.84406	1.00662	0.99342	193.33547	184.21316	72.95238	0.32508	 	2.00282E15	 	1.78664E-15	 	6191.40782	28.27516	 
455.0	1.0	0.0	7.9954	7.06782	-9.17673	13.96361	17.76786	1.00404	0.99597	193.69514	184.40356	73.09606	0.32494	 	2.72173E15	 	1.30576E-15	 	6050.26564	28.22844	 
450.0	1.0	0.0	7.9973	7.06614	-9.19831	13.9382	17.69163	1.00144	0.99856	194.05406	184.59297	73.2395	0.32479	 	3.71442E15	 	9.50221E-16	 	5909.3565	28.18183	 
445.0	1.0	0.0	7.9992	7.06446	-9.21982	13.91279	17.61539	0.99882	1.00118	194.41224	184.78141	73.38268	0.32465	 	5.09116E15	 	6.88471E-16	 	5768.67986	28.13533	 
440.0	1.0	0.0	8.00109	7.06279	-9.24126	13.88738	17.53911	0.99618	1.00383	194.76969	184.96887	73.52561	0.3245	 	7.0091E15	 	4.96598E-16	 	5628.23515	28.08894	 
435.0	1.0	0.0	8.00297	7.06113	-9.26263	13.86198	17.46281	0.99352	1.00652	195.12639	185.15535	73.6683	0.32436	 	9.69325E15	 	3.56568E-16	 	5488.02186	28.04266	 
430.0	1.0	0.0	8.00485	7.05947	-9.28393	13.83658	17.38649	0.99084	1.00925	195.48236	185.34086	73.81073	0.32421	 	1.34672E16	 	2.54833E-16	 	5348.03945	27.99648	 
425.0	1.0	0.0	8.00673	7.05782	-9.30517	13.81118	17.31013	0.98813	1.01201	195.83759	185.52541	73.95292	0.32407	 	1.87989E16	 	1.8126E-16	 	5208.28745	27.9504	 
420.0	1.0	0.0	8.0086	7.05617	-9.32634	13.78579	17.23375	0.9854	1.01481	196.19208	185.70898	74.09485	0.32393	 	2.6368E16	 	1.28303E-16	 	5068.76528	27.90443	 
415.0	1.0	0.0	8.01046	7.05453	-9.34744	13.7604	17.15734	0.98265	1.01766	196.54583	185.89159	74.23654	0.32378	 	3.7167E16	 	9.03675E-17	 	4929.47261	27.85854	 
410.0	1.0	0.0	8.01232	7.0529	-9.36847	13.73501	17.0809	0.97988	1.02054	196.89884	186.07324	74.37797	0.32364	 	5.26526E16	 	6.33261E-17	 	4790.4092	27.81268	 
405.0	1.0	0.0	8.01417	7.05126	-9.38943	13.70963	17.00444	0.97708	1.02346	197.25112	186.25393	74.51916	0.32349	 	7.49743E16	 	4.41469E-17	 	4651.5748	27.76688	 
400.0	1.0	0.0	8.01602	7.04964	-9.41032	13.68425	16.92794	0.97426	1.02642	197.60266	186.43366	74.66009	0.32335	 	1.07321E17	 	3.06135E-17	 	4512.96922	27.72112	 
395.0	1.0	0.0	8.01786	7.04802	-9.43115	13.65887	16.85141	0.97141	1.02943	197.95346	186.61244	74.80078	0.3232	 	1.54451E17	 	2.1114E-17	 	4374.59222	27.6754	 
390.0	1.0	0.0	8.0197	7.0464	-9.45191	13.63349	16.77485	0.96854	1.03248	198.30352	186.79026	74.94122	0.32306	 	2.235E17	 	1.44817E-17	 	4236.4436	27.62972	 
385.0	1.0	0.0	8.02154	7.04479	-9.4726	13.60812	16.69825	0.96565	1.03557	198.65284	186.96714	75.0814	0.32292	 	3.25241E17	 	9.87658E-18	 	4098.52316	27.58409	 
380.0	1.0	0.0	8.02336	7.04319	-9.49322	13.58275	16.62163	0.96273	1.03871	199.00142	187.14307	75.22134	0.32277	 	4.76021E17	 	6.69689E-18	 	3960.83074	27.53848	 
375.0	1.0	0.0	8.02519	7.04159	-9.51377	13.55739	16.54497	0.95979	1.0419	199.34927	187.31806	75.36102	0.32263	 	7.00809E17	 	4.51401E-18	 	3823.36617	27.49291	 
370.0	1.0	0.0	8.027	7.03999	-9.53426	13.53203	16.46827	0.95682	1.04513	199.69638	187.4921	75.50046	0.32248	 	1.03797E18	 	3.02422E-18	 	3686.12927	27.44738	 
365.0	1.0	0.0	8.02881	7.0384	-9.55467	13.50667	16.39154	0.95383	1.04841	200.04275	187.6652	75.63964	0.32234	 	1.54683E18	 	2.01357E-18	 	3549.11993	27.40187	 
360.0	1.0	0.0	8.03062	7.03682	-9.57502	13.48131	16.31477	0.95081	1.05174	200.38839	187.83737	75.77857	0.3222	 	2.31974E18	 	1.33216E-18	 	3412.338	27.35639	 
355.0	1.0	0.0	8.03242	7.03524	-9.5953	13.45596	16.23797	0.94776	1.05512	200.73329	188.0086	75.91726	0.32205	 	3.50135E18	 	8.75618E-19	 	3275.78338	27.31092	 
350.0	1.0	0.0	8.03422	7.03367	-9.61551	13.43061	16.16113	0.94469	1.05855	201.07745	188.17891	76.05569	0.32191	 	5.31987E18	 	5.71713E-19	 	3139.45596	27.26548	 
345.0	1.0	0.0	8.03601	7.0321	-9.63566	13.40526	16.08424	0.94158	1.06204	201.42087	188.34828	76.19387	0.32177	 	8.13778E18	 	3.70744E-19	 	3003.35565	27.22006	 
340.0	1.0	0.0	8.0378	7.03054	-9.65574	13.37992	16.00732	0.93846	1.06558	201.76356	188.51672	76.3318	0.32162	 	1.25349E19	 	2.38744E-19	 	2867.48242	27.17465	 
335.0	1.0	0.0	8.03958	7.02898	-9.67574	13.35457	15.93036	0.9353	1.06917	202.10551	188.68424	76.46948	0.32148	 	1.94456E19	 	1.52642E-19	 	2731.83618	27.12925	 
330.0	1.0	0.0	8.04135	7.02743	-9.69568	13.32924	15.85335	0.93212	1.07283	202.44672	188.85084	76.60691	0.32133	 	3.03868E19	 	9.68786E-20	 	2596.41691	27.08385	 
325.0	1.0	0.0	8.04312	7.02588	-9.71556	13.3039	15.7763	0.9289	1.07654	202.78719	189.01652	76.74409	0.32119	 	4.78396E19	 	6.10252E-20	 	2461.2246	27.03846	 
320.0	1.0	0.0	8.04489	7.02434	-9.73536	13.27857	15.69921	0.92566	1.08031	203.12693	189.18128	76.88102	0.32105	 	7.58952E19	 	3.8145E-20	 	2326.25926	26.99307	 
315.0	1.0	0.0	8.04665	7.02281	-9.7551	13.25324	15.62207	0.92239	1.08414	203.46593	189.34512	77.0177	0.3209	 	1.2135199999999998E20	 	2.36552E-20	 	2191.5209	26.94767	 
310.0	1.0	0.0	8.0484	7.02128	-9.77476	13.22791	15.54488	0.91909	1.08803	203.8042	189.50805	77.15412	0.32076	 	1.95604E20	 	1.45509E-20	 	2057.00956	26.90227	 
305.0	1.0	0.0	8.05015	7.01975	-9.79436	13.20259	15.46765	0.91576	1.09199	204.14173	189.67007	77.2903	0.32062	 	3.17902E20	 	8.87634E-21	 	1922.72532	26.85685	 
300.0	1.0	0.0	8.05189	7.01823	-9.8139	13.17727	15.39037	0.9124	1.09601	204.47852	189.83119	77.42622	0.32047	 	5.2106099999999997E20	 	5.36867E-21	 	1788.66827	26.81141	 
295.0	1.0	0.0	8.05363	7.01672	-9.83336	13.15196	15.31303	0.90901	1.1001	204.81458	189.99139	77.56189	0.32033	 	8.615119999999999E20	 	3.21876E-21	 	1654.83852	26.76595	 
290.0	1.0	0.0	8.05536	7.01521	-9.85275	13.12664	15.23565	0.90559	1.10426	205.1499	190.1507	77.69731	0.32019	 	1.4371800000000001E21	 	1.91249E-21	 	1521.23619	26.72047	 
285.0	1.0	0.0	8.05709	7.0137	-9.87208	13.10133	15.15821	0.90213	1.10849	205.48448	190.3091	77.83248	0.32004	 	2.4196E21	 	1.12588E-21	 	1387.86145	26.67495	 
280.0	1.0	0.0	8.05881	7.01221	-9.89134	13.07603	15.08071	0.89864	1.11279	205.81833	190.4666	77.9674	0.3199	 	4.1121200000000003E21	 	6.56544E-22	 	1254.71449	26.62939	 
275.0	1.0	0.0	8.06053	7.01071	-9.91053	13.05072	15.00316	0.89512	1.11716	206.15144	190.62321	78.10207	0.31976	 	7.05651E21	 	3.79137E-22	 	1121.79554	26.58379	 
270.0	1.0	0.0	8.06224	7.00922	-9.92966	13.02542	14.92555	0.89157	1.12162	206.48382	190.77892	78.23648	0.31961	 	1.22301E22	 	2.16758E-22	 	989.10481	26.53815	 
265.0	1.0	0.0	8.06395	7.00774	-9.94872	13.00012	14.84788	0.88798	1.12615	206.81546	190.93375	78.37065	0.31947	 	2.14147E22	 	1.22653E-22	 	856.64261	26.49244	 
260.0	1.0	0.0	8.06565	7.00626	-9.9677	12.97483	14.77015	0.88436	1.13076	207.14636	191.08768	78.50456	0.31933	 	3.7892599999999995E22	 	6.86723E-23	 	724.40922	26.44668	 
255.0	1.0	0.0	8.06734	7.00479	-9.98662	12.94954	14.69236	0.88071	1.13545	207.47653	191.24072	78.63822	0.31918	 	6.777819999999999E22	 	3.80324E-23	 	592.40499	26.40085	 
250.0	1.0	0.0	8.06903	7.00332	-10.00548	12.92425	14.6145	0.87702	1.14023	207.80597	191.39288	78.77163	0.31904	 	1.22589E23	 	2.08286E-23	 	460.6303	26.35494	 
245.0	1.0	0.0	8.07072	7.00186	-10.02426	12.89896	14.53658	0.87329	1.14509	208.13466	191.54416	78.90479	0.3189	 	2.2427599999999997E23	 	1.12761E-23	 	329.08557	26.30895	 
240.0	1.0	0.0	8.0724	7.0004	-10.04298	12.87368	14.45858	0.86953	1.15005	208.46263	191.69455	79.03769	0.31875	 	4.1516899999999996E23	 	6.03262E-24	 	197.77122	26.26287	 
235.0	1.0	0.0	8.07407	6.99895	-10.06163	12.8484	14.38052	0.86573	1.15509	208.78985	191.84407	79.17034	0.31861	 	7.77911E23	 	3.18822E-24	 	66.68776	26.21669	 
230.0	1.0	0.0	8.07574	6.99751	-10.08021	12.82312	14.30238	0.8619	1.16023	209.11635	191.99271	79.30275	0.31847	 	1.47589E24	 	1.66391E-24	 	-64.16428	26.17041	 
225.0	1.0	0.0	8.0774	6.99607	-10.09872	12.79785	14.22417	0.85802	1.16547	209.4421	192.14048	79.43489	0.31833	 	2.83637E24	 	8.57203E-25	 	-194.78432	26.12401	 
220.0	1.0	0.0	8.07906	6.99463	-10.11717	12.77258	14.14587	0.85411	1.17081	209.76712	192.28738	79.56679	0.31818	 	5.52363E24	 	4.35754E-25	 	-325.17175	26.07749	 
215.0	1.0	0.0	8.08071	6.9932	-10.13554	12.74731	14.0675	0.85016	1.17624	210.09141	192.4334	79.69844	0.31804	 	1.0904700000000002E25	 	2.18487E-25	 	-455.32588	26.03083	 
210.0	1.0	0.0	8.08236	6.99178	-10.15385	12.72205	13.98905	0.84617	1.18179	210.41496	192.57856	79.82983	0.3179	 	2.18333E25	 	1.08006E-25	 	-585.24601	25.98403	 
205.0	1.0	0.0	8.084	6.99036	-10.1721	12.69679	13.91051	0.84215	1.18744	210.73778	192.72285	79.96097	0.31775	 	4.4353800000000005E25	 	5.26163E-26	 	-714.93134	25.93707	 
200.0	1.0	0.0	8.08564	6.98894	-10.19027	12.67153	13.83188	0.83808	1.19321	211.05986	192.86629	80.09186	0.31761	 	9.14632E25	 	2.52487E-26	 	-844.38106	25.88994	 
195.0	1.0	0.0	8.08727	6.98753	-10.20838	12.64627	13.75316	0.83397	1.19909	211.38121	193.00886	80.22249	0.31747	 	1.91547E26	 	1.19288E-26	 	-973.59426	25.84264	 
190.0	1.0	0.0	8.08889	6.98613	-10.22642	12.62102	13.67435	0.82981	1.20509	211.70182	193.15057	80.35287	0.31733	 	4.07603E26	 	5.54588E-27	 	-1102.56999	25.79515	 
185.0	1.0	0.0	8.09051	6.98473	-10.24439	12.59577	13.59544	0.82562	1.21121	212.0217	193.29142	80.483	0.31718	 	8.817740000000001E26	 	2.53593E-27	 	-1231.30723	25.74745	 
180.0	1.0	0.0	8.09213	6.98334	-10.26229	12.57053	13.51643	0.82138	1.21746	212.34084	193.43142	80.61288	0.31704	 	1.94032E27	 	1.13987E-27	 	-1359.80487	25.69953	 
175.0	1.0	0.0	8.09373	6.98195	-10.28013	12.54528	13.43732	0.8171	1.22384	212.65925	193.57057	80.74251	0.3169	 	4.34541E27	 	5.03361E-28	 	-1488.06177	25.65138	 
170.0	1.0	0.0	8.09534	6.98057	-10.2979	12.52004	13.3581	0.81278	1.23035	212.97692	193.70887	80.87188	0.31676	 	9.91038E27	 	2.18246E-28	 	-1616.07666	25.60298	 
165.0	1.0	0.0	8.09693	6.97919	-10.3156	12.49481	13.27877	0.80841	1.237	213.29386	193.84632	81.001	0.31661	 	2.30315E28	 	9.28512E-29	 	-1743.84822	25.55431	 
160.0	1.0	0.0	8.09853	6.97782	-10.33323	12.46957	13.19933	0.80399	1.24379	213.61007	193.98292	81.12986	0.31647	 	5.45769E28	 	3.87361E-29	 	-1871.37505	25.50536	 
155.0	1.0	0.0	8.10011	6.97645	-10.35079	12.44434	13.11976	0.79953	1.25073	213.92554	194.11868	81.25848	0.31633	 	1.3196100000000001E29	 	1.58357E-29	 	-1998.65562	25.45611	 
150.0	1.0	0.0	8.10169	6.97509	-10.36829	12.41912	13.04008	0.79502	1.25782	214.24028	194.2536	81.38684	0.31619	 	3.25796E29	 	6.33921E-30	 	-2125.68834	25.40654	 
145.0	1.0	0.0	8.10327	6.97373	-10.38572	12.39389	12.96026	0.79047	1.26507	214.55428	194.38768	81.51494	0.31604	 	8.219250000000001E29	 	2.48306E-30	 	-2252.47148	25.35663	 
140.0	1.0	0.0	8.10484	6.97238	-10.40308	12.36867	12.88031	0.78586	1.27248	214.86755	194.52093	81.6428	0.3159	 	2.12054E30	 	9.5093E-31	 	-2379.00325	25.30635	 
135.0	1.0	0.0	8.10641	6.97104	-10.42038	12.34345	12.80023	0.78121	1.28006	215.18008	194.65333	81.7704	0.31576	 	5.59943E30	 	3.55764E-31	 	-2505.28168	25.25569	 
130.0	1.0	0.0	8.10797	6.9697	-10.43761	12.31824	12.72	0.77651	1.28782	215.49189	194.78491	81.89774	0.31562	 	1.51462E31	 	1.29912E-31	 	-2631.30475	25.20461	 
125.0	1.0	0.0	8.10952	6.96836	-10.45477	12.29303	12.63963	0.77175	1.29575	215.80295	194.91565	82.02484	0.31547	 	4.2006399999999995E31	 	4.62613E-32	 	-2757.07024	25.1531	 
120.0	1.0	0.0	8.11107	6.96703	-10.47186	12.26782	12.5591	0.76695	1.30387	216.11329	195.04556	82.15168	0.31533	 	1.1956299999999999E32	 	1.6049E-32	 	-2882.57582	25.10112	 
115.0	1.0	0.0	8.11261	6.9657	-10.48888	12.24261	12.47842	0.76209	1.31218	216.42289	195.17465	82.27827	0.31519	 	3.49607E32	 	5.41883E-33	 	-3007.81902	25.04864	 
110.0	1.0	0.0	8.11415	6.96439	-10.50584	12.21741	12.39756	0.75718	1.32069	216.73176	195.30291	82.4046	0.31505	 	1.0513E33	 	1.77881E-33	 	-3132.79718	24.99563	 
105.0	1.0	0.0	8.11568	6.96307	-10.52273	12.19221	12.31654	0.75221	1.32941	217.03989	195.43035	82.53068	0.3149	 	3.25475E33	 	5.67065E-34	 	-3257.50752	24.94207	 
100.0	1.0	0.0	8.1172	6.96176	-10.53955	12.16701	12.23534	0.74719	1.33834	217.34729	195.55697	82.6565	0.31476	 	1.03863E34	 	1.75351E-34	 	-3381.94704	24.8879	 
95.0	1.0	0.0	8.11872	6.96046	-10.5563	12.14182	12.15395	0.74212	1.34749	217.65396	195.68276	82.78208	0.31462	 	3.42053E34	 	5.25313E-35	 	-3506.11255	24.8331	 
90.0	1.0	0.0	8.12024	6.95916	-10.57299	12.11663	12.07236	0.73699	1.35688	217.95989	195.80775	82.9074	0.31448	 	1.1640699999999999E35	 	1.52263E-35	 	-3630.00067	24.77762	 
85.0	1.0	0.0	8.12175	6.95787	-10.58961	12.09144	11.99057	0.7318	1.3665	218.26509	195.93191	83.03246	0.31434	 	4.099369999999999E35	 	4.26417E-36	 	-3753.60778	24.72142	 
80.0	1.0	0.0	8.12325	6.95658	-10.60616	12.06626	11.90858	0.72655	1.37637	218.56956	196.05527	83.15727	0.31419	 	1.49601E36	 	1.15215E-36	 	-3876.93005	24.66445	 
75.0	1.0	0.0	8.12475	6.9553	-10.62265	12.04108	11.82636	0.72124	1.3865	218.8733	196.17781	83.28183	0.31405	 	5.66634E36	 	2.99882E-37	 	-3999.96338	24.60667	 
70.0	1.0	0.0	8.12624	6.95402	-10.63906	12.0159	11.74391	0.71588	1.39689	219.1763	196.29954	83.40613	0.31391	 	2.23113E37	 	7.50664E-38	 	-4122.7034	24.548	 
65.0	1.0	0.0	8.12773	6.95275	-10.65541	11.99073	11.66122	0.71045	1.40757	219.47857	196.42047	83.53018	0.31377	 	9.14849E37	 	1.80404E-38	 	-4245.14545	24.48841	 
60.0	1.0	0.0	8.12921	6.95148	-10.6717	11.96555	11.57828	0.70496	1.41853	219.78011	196.54059	83.65398	0.31363	 	3.9135299999999995E38	 	4.15487E-39	 	-4367.28455	24.42782	 
55.0	1.0	0.0	8.13069	6.95022	-10.68791	11.94038	11.49508	0.6994	1.42979	220.08091	196.65991	83.77752	0.31348	 	1.74994E39	 	9.15241E-40	 	-4489.11541	24.36617	 
50.0	1.0	0.0	8.13216	6.94896	-10.70406	11.91522	11.4116	0.69378	1.44137	220.38099	196.77843	83.9008	0.31334	 	8.196100000000001E39	 	1.92435E-40	 	-4610.63233	24.30338	 
45.0	1.0	0.0	8.13362	6.94771	-10.72014	11.89006	11.32783	0.6881	1.45328	220.68033	196.89615	84.02384	0.3132	 	4.02966E40	 	3.85346E-41	 	-4731.82927	24.23939	 
40.0	1.0	0.0	8.13508	6.94646	-10.73615	11.8649	11.24376	0.68235	1.46552	220.97894	197.01307	84.14661	0.31306	 	2.08457E41	 	7.332E-42	 	-4852.69972	24.17409	 
35.0	1.0	0.0	8.13654	6.94522	-10.7521	11.83974	11.15938	0.67653	1.47813	221.27681	197.1292	84.26914	0.31292	 	1.13744E42	 	1.32227E-42	 	-4973.23676	24.10741	 
30.0	1.0	0.0	8.13798	6.94399	-10.76798	11.81459	11.07466	0.67065	1.4911	221.57396	197.24454	84.39141	0.31278	 	6.56366E42	 	2.25423E-43	 	-5093.43292	24.03923	 
25.0	1.0	0.0	8.13943	6.94276	-10.78379	 	10.9896	0.66469	1.50446	221.87037	197.35908	84.51342	0.31263	 	4.01695E43	 	3.62263E-44	 	-5213.28025	 	 
