T (C)	Fraction solid (wt)-TOTAL	Fraction liquid (wt)-LIQUID	Density (g/(cm)^3)-TOTAL	Molar volume (cm^3)-TOTAL	Volume change (%)-  	Average expansion coeff. (10e-6 1/K)-  	Thermal conductivity (W/(m*K))-TOTAL	Electrical resistivity (10e-6 Ohm*m)-TOTAL	Electrical conductivity (10e6 1/(Ohm*m))-TOTAL	Young's modulus (GPa)-TOTAL	Bulk modulus (GPa)-TOTAL	Shear modulus(GPa)-TOTAL	Poisson's ratio-TOTAL	Liquid viscosity (mPa s)-  	Total viscosity (mPa s)-  	Liquid diffusivity (10e-9 (m^2)/s)-  	Total diffusivity (10e-9 (m^2)/s)-  	Surface Tension (mN/m)-  	Enthalpy (J/mole)-TOTAL	Specific heat (J/(mole K))-TOTAL	Latent heat (J/mole)-TOTAL
1400.0	0.0	1.0	8.04928	7.87616	0.0	26.83717	30.23693	1.3557	0.73763	0.0	133.61371	0.0	0.5	9.69367	9.69367	0.84243	0.84243	1881.82017	59701.397	 	0.0
1395.0	0.0	1.0	8.05341	7.87213	-0.0512135	26.79671	30.13376	1.35628	0.73731	0.0	133.77497	0.0	0.5	9.80263	9.80263	0.83058	0.83058	1883.82801	59498.422	40.595	0.0
1390.0	0.0	1.0	8.05752	7.86811	-0.10227	26.75638	30.03059	1.35686	0.737	0.0	133.93623	0.0	0.5	9.91347	9.91347	0.81883	0.81883	1885.83617	59295.945	40.4954	0.0
1385.0	0.0	1.0	8.06163	7.8641	-0.15318	26.71616	29.92742	1.35744	0.73668	0.0	134.09749	0.0	0.5	10.02625	10.02625	0.80718	0.80718	1887.84462	59093.962	40.3966	0.0
1380.0	0.0	1.0	8.06573	7.8601	-0.20393	26.67607	29.82425	1.35803	0.73636	0.0	134.25875	0.0	0.5	10.14101	10.14101	0.79564	0.79564	1889.85339	58892.471	40.2982	0.0
1375.0	0.0	1.0	8.06982	7.85611	-0.25453	26.6361	29.72108	1.35862	0.73604	0.0	134.42001	0.0	0.5	10.25779	10.25779	0.78421	0.78421	1891.86247	58691.466	40.201	0.0
1373.97	0.0	1.0	8.07066	7.8553	-0.26492	26.6279	29.69988	1.35874	0.73597	0.0	134.45316	0.0	0.5	10.28205	10.28205	0.78187	0.78187	1892.27552	58650.204	40.14282	0.0010
1370.27	1.0	4.8367E-9	8.34344	7.59848	-3.52565	17.72724	33.94775	1.18605	0.84313	121.18254	148.03152	44.43602	0.36356	10.63831	37523.15398	0.75399	2.13765E-4	1898.68539	45762.91	 	12738.915
1373.97	1.0	0.0	8.32027	7.55976	-4.01716	16.32963	34.84433	1.15814	0.86346	119.76664	147.55353	43.87958	0.36472	 	0.0	 	NaN	 	58650.1885	 	 
1370.27	1.0	0.0	8.34344	7.59848	-3.52565	17.72723	33.94774	1.18605	0.84313	121.18256	148.03153	44.43602	0.36356	 	37523.237	 	2.13764E-4	 	45762.97447	 	 
1370.0	1.0	0.0	8.34358	7.59836	-3.52717	17.72661	33.94258	1.18604	0.84314	121.20754	148.05044	44.44553	0.36355	 	37647.56912	 	2.13023E-4	 	45752.86018	3246.96732	 
1365.0	1.0	0.0	8.346	7.59614	-3.55525	17.71517	33.84753	1.18575	0.84335	121.66727	148.39785	44.62055	0.36335	 	40020.77148	 	1.99781E-4	 	45566.67445	37.23715	 
1360.0	1.0	0.0	8.34843	7.59393	-3.58331	17.70372	33.75248	1.18546	0.84356	122.12632	148.74342	44.79537	0.36316	 	42559.5016	 	1.87291E-4	 	45380.71574	37.19174	 
1355.0	1.0	0.0	8.35086	7.59173	-3.61133	17.69226	33.65742	1.18517	0.84376	122.58467	149.08715	44.96999	0.36296	 	45276.3771	 	1.75513E-4	 	45194.98381	37.14639	 
1350.0	1.0	0.0	8.35329	7.58952	-3.63933	17.68079	33.56237	1.18487	0.84397	123.04234	149.42907	45.14441	0.36276	 	48185.05704	 	1.64412E-4	 	45009.47838	37.10109	 
1345.0	1.0	0.0	8.35571	7.58732	-3.6673	17.66931	33.46732	1.18458	0.84418	123.49932	149.76917	45.31862	0.36257	 	51300.33429	 	1.53952E-4	 	44824.19921	37.05583	 
1340.0	1.0	0.0	8.35814	7.58512	-3.69525	17.65782	33.37226	1.18428	0.84439	123.95561	150.10746	45.49263	0.36237	 	54638.23674	 	1.441E-4	 	44639.14602	37.01064	 
1335.0	1.0	0.0	8.36056	7.58292	-3.72316	17.64632	33.27721	1.18398	0.84461	124.41121	150.44395	45.66644	0.36217	 	58216.13806	 	1.34825E-4	 	44454.31855	36.96549	 
1330.0	1.0	0.0	8.36298	7.58072	-3.75105	17.63481	33.18216	1.18368	0.84482	124.86612	150.77865	45.84005	0.36198	 	62052.87915	 	1.26095E-4	 	44269.71654	36.9204	 
1325.0	1.0	0.0	8.3654	7.57853	-3.77891	17.6233	33.0871	1.18338	0.84504	125.32034	151.11157	46.01345	0.36178	 	66168.90126	 	1.17883E-4	 	44085.33971	36.87537	 
1320.0	1.0	0.0	8.36782	7.57634	-3.80674	17.61177	32.99205	1.18308	0.84525	125.77388	151.44271	46.18665	0.36158	 	70586.39207	 	1.1016E-4	 	43901.18781	36.83038	 
1315.0	1.0	0.0	8.37024	7.57415	-3.83455	17.60023	32.897	1.18277	0.84547	126.22672	151.77209	46.35965	0.36139	 	75329.44591	 	1.029E-4	 	43717.26056	36.78545	 
1310.0	1.0	0.0	8.37266	7.57196	-3.86232	17.58869	32.80194	1.18247	0.84569	126.67888	152.0997	46.53244	0.36119	 	80424.23978	 	9.60775E-5	 	43533.55769	36.74057	 
1305.0	1.0	0.0	8.37508	7.56977	-3.89007	17.57713	32.70689	1.18216	0.84591	127.13035	152.42556	46.70504	0.36099	 	85899.22665	 	8.96697E-5	 	43350.07893	36.69575	 
1300.0	1.0	0.0	8.3775	7.56759	-3.91779	17.56557	32.61184	1.18185	0.84613	127.58113	152.74967	46.87743	0.36079	 	91785.34799	 	8.36534E-5	 	43166.82401	36.65098	 
1295.0	1.0	0.0	8.37991	7.56541	-3.94548	17.554	32.51678	1.18153	0.84636	128.03123	153.07204	47.04961	0.3606	 	98116.26743	 	7.80069E-5	 	42983.79265	36.60627	 
1290.0	1.0	0.0	8.38232	7.56323	-3.97314	17.54242	32.42173	1.18122	0.84658	128.48063	153.39268	47.2216	0.3604	 	104928.6279	 	7.27099E-5	 	42800.98457	36.56162	 
1285.0	1.0	0.0	8.38474	7.56105	-4.00078	17.53083	32.32668	1.1809	0.84681	128.92935	153.7116	47.39338	0.3602	 	112262.3345	 	6.77426E-5	 	42618.39949	36.51702	 
1280.0	1.0	0.0	8.38715	7.55888	-4.02839	17.51923	32.23162	1.18059	0.84704	129.37737	154.0288	47.56495	0.36001	 	120160.8664	 	6.30866E-5	 	42436.03714	36.47247	 
1275.0	1.0	0.0	8.38956	7.55671	-4.05596	17.50763	32.13657	1.18027	0.84727	129.82471	154.34429	47.73632	0.35981	 	128671.6205	 	5.87242E-5	 	42253.89724	36.42798	 
1270.0	1.0	0.0	8.39197	7.55454	-4.08351	17.49601	32.04152	1.17994	0.8475	130.27136	154.65808	47.90749	0.35961	 	137846.2898	 	5.46386E-5	 	42071.97949	36.38355	 
1265.0	1.0	0.0	8.39438	7.55237	-4.11103	17.48439	31.94646	1.17962	0.84773	130.71732	154.97018	48.07846	0.35942	 	147741.2814	 	5.0814E-5	 	41890.28362	36.33917	 
1260.0	1.0	0.0	8.39679	7.5502	-4.13853	17.47276	31.85141	1.17929	0.84796	131.16259	155.28058	48.24922	0.35922	 	158418.1778	 	4.72353E-5	 	41708.80934	36.29486	 
1255.0	1.0	0.0	8.39919	7.54804	-4.16599	17.46112	31.75636	1.17897	0.8482	131.60718	155.58931	48.41978	0.35902	 	169944.2462	 	4.3888E-5	 	41527.55635	36.2506	 
1250.0	1.0	0.0	8.4016	7.54588	-4.19343	17.44947	31.6613	1.17864	0.84844	132.05107	155.89636	48.59013	0.35883	 	182393.0012	 	4.07588E-5	 	41346.52436	36.2064	 
1245.0	1.0	0.0	8.404	7.54372	-4.22083	17.43782	31.56625	1.17831	0.84868	132.49428	156.20174	48.76028	0.35863	 	195844.827	 	3.78346E-5	 	41165.71309	36.16225	 
1240.0	1.0	0.0	8.4064	7.54157	-4.24821	17.42615	31.4712	1.17797	0.84892	132.9368	156.50546	48.93023	0.35843	 	210387.6661	 	3.51033E-5	 	40985.12223	36.11817	 
1235.0	1.0	0.0	8.40881	7.53941	-4.27556	17.41448	31.37614	1.17764	0.84916	133.37863	156.80753	49.09997	0.35824	 	226117.7805	 	3.25534E-5	 	40804.75148	36.07415	 
1230.0	1.0	0.0	8.41121	7.53726	-4.30288	17.40281	31.28109	1.1773	0.8494	133.81977	157.10796	49.26951	0.35804	 	243140.5962	 	3.01739E-5	 	40624.60055	36.03019	 
1225.0	1.0	0.0	8.41361	7.53511	-4.33017	17.39112	31.18604	1.17696	0.84965	134.26022	157.40674	49.43884	0.35784	 	261571.6381	 	2.79545E-5	 	40444.66912	35.98629	 
1220.0	1.0	0.0	8.416	7.53296	-4.35743	17.37943	31.09098	1.17662	0.84989	134.69999	157.70389	49.60797	0.35764	 	281537.5662	 	2.58853E-5	 	40264.95689	35.94245	 
1215.0	1.0	0.0	8.4184	7.53082	-4.38466	17.36773	30.99593	1.17627	0.85014	135.13906	157.99942	49.77689	0.35745	 	303177.3265	 	2.39572E-5	 	40085.46356	35.89867	 
1210.0	1.0	0.0	8.4208	7.52868	-4.41186	17.35602	30.90087	1.17593	0.85039	135.57745	158.29333	49.94561	0.35725	 	326643.4276	 	2.21614E-5	 	39906.1888	35.85495	 
1205.0	1.0	0.0	8.42319	7.52654	-4.43903	17.34431	30.80582	1.17558	0.85064	136.01515	158.58562	50.11413	0.35705	 	352103.359	 	2.04897E-5	 	39727.13231	35.8113	 
1200.0	1.0	0.0	8.42558	7.5244	-4.46618	17.33259	30.71077	1.17523	0.8509	136.45216	158.87631	50.28244	0.35686	 	379741.1674	 	1.89342E-5	 	39548.29376	35.76771	 
1195.0	1.0	0.0	8.42798	7.52226	-4.49329	17.32086	30.61571	1.17488	0.85115	136.88848	159.1654	50.45054	0.35666	 	409759.21	 	1.74875E-5	 	39369.67283	35.72419	 
1190.0	1.0	0.0	8.43037	7.52013	-4.52037	17.30913	30.52066	1.17452	0.85141	137.32411	159.4529	50.61844	0.35646	 	442380.1055	 	1.61428E-5	 	39191.2692	35.68073	 
1185.0	1.0	0.0	8.43276	7.518	-4.54743	17.29738	30.42561	1.17416	0.85167	137.75906	159.73881	50.78614	0.35627	 	477848.9061	 	1.48936E-5	 	39013.08254	35.63733	 
1180.0	1.0	0.0	8.43514	7.51587	-4.57445	17.28564	30.33055	1.17381	0.85193	138.19331	160.02314	50.95363	0.35607	 	516435.5185	 	1.37335E-5	 	38835.11251	35.59401	 
1175.0	1.0	0.0	8.43753	7.51374	-4.60145	17.27388	30.2355	1.17344	0.85219	138.62688	160.30589	51.12091	0.35587	 	558437.4023	 	1.26569E-5	 	38657.35878	35.55075	 
1170.0	1.0	0.0	8.43992	7.51162	-4.62841	17.26212	30.14045	1.17308	0.85246	139.05976	160.58709	51.28799	0.35568	 	604182.581	 	1.16582E-5	 	38479.82101	35.50755	 
1165.0	1.0	0.0	8.4423	7.5095	-4.65535	17.25036	30.04539	1.17271	0.85272	139.49195	160.86672	51.45486	0.35548	 	654033.003	 	1.07323E-5	 	38302.49885	35.46443	 
1160.0	1.0	0.0	8.44468	7.50738	-4.68225	17.23859	29.95034	1.17235	0.85299	139.92345	161.14479	51.62153	0.35528	 	708388.2967	 	9.87431E-6	 	38125.39196	35.42138	 
1155.0	1.0	0.0	8.44707	7.50526	-4.70913	17.22681	29.85529	1.17198	0.85326	140.35427	161.42132	51.788	0.35508	 	767689.9674	 	9.07977E-6	 	37948.49998	35.3784	 
1150.0	1.0	0.0	8.44945	7.50315	-4.73597	17.21503	29.76023	1.1716	0.85353	140.78439	161.69631	51.95425	0.35489	 	832426.0929	 	8.34433E-6	 	37771.82256	35.33548	 
1145.0	1.0	0.0	8.45183	7.50104	-4.76279	17.20324	29.66518	1.17123	0.85381	141.21383	161.96977	52.1203	0.35469	 	903136.5785	 	7.664E-6	 	37595.35934	35.29264	 
1140.0	1.0	0.0	8.4542	7.49893	-4.78957	17.19145	29.57013	1.17085	0.85408	141.64258	162.24169	52.28615	0.35449	 	980419.0441	 	7.03499E-6	 	37419.10994	35.24988	 
1135.0	1.0	0.0	8.45658	7.49682	-4.81633	17.17965	29.47507	1.17047	0.85436	142.07063	162.51209	52.45179	0.3543	 	1064935.422	 	6.45375E-6	 	37243.074	35.20719	 
1130.0	1.0	0.0	8.45895	7.49471	-4.84305	17.16784	29.38002	1.17009	0.85464	142.49801	162.78098	52.61722	0.3541	 	1157419.36	 	5.91698E-6	 	37067.25115	35.16457	 
1125.0	1.0	0.0	8.46133	7.49261	-4.86974	17.15604	29.28497	1.1697	0.85492	142.92469	163.04835	52.78245	0.3539	 	1258684.525	 	5.42155E-6	 	36891.64099	35.12203	 
1120.0	1.0	0.0	8.4637	7.49051	-4.89641	17.14422	29.18991	1.16931	0.8552	143.35068	163.31422	52.94747	0.35371	 	1369633.939	 	4.96455E-6	 	36716.24315	35.07957	 
1115.0	1.0	0.0	8.46607	7.48841	-4.92304	17.1324	29.09486	1.16892	0.85549	143.77599	163.5786	53.11228	0.35351	 	1491270.467	 	4.54325E-6	 	36541.05723	35.03718	 
1110.0	1.0	0.0	8.46844	7.48632	-4.94964	17.12058	28.99981	1.16853	0.85578	144.2006	163.84148	53.27689	0.35331	 	1624708.612	 	4.15509E-6	 	36366.08284	34.99488	 
1105.0	1.0	0.0	8.47081	7.48423	-4.97621	17.10876	28.90475	1.16814	0.85606	144.62453	164.10287	53.44129	0.35312	 	1771187.806	 	3.79768E-6	 	36191.31956	34.95266	 
1100.0	1.0	0.0	8.47318	7.48214	-5.00275	17.09693	28.8097	1.16774	0.85636	145.04777	164.36279	53.60549	0.35292	 	1932087.364	 	3.46879E-6	 	36016.767	34.91051	 
1095.0	1.0	0.0	8.47554	7.48005	-5.02926	17.08509	28.71465	1.16734	0.85665	145.47032	164.62123	53.76947	0.35272	 	2108943.357	 	3.16633E-6	 	35842.42473	34.86845	 
1090.0	1.0	0.0	8.4779	7.47796	-5.05574	17.07325	28.61959	1.16693	0.85695	145.89218	164.8782	53.93325	0.35253	 	2303467.647	 	2.88834E-6	 	35668.29233	34.82648	 
1085.0	1.0	0.0	8.48027	7.47588	-5.08219	17.06141	28.52454	1.16653	0.85724	146.31336	165.13371	54.09683	0.35233	 	2517569.369	 	2.63301E-6	 	35494.36936	34.78459	 
1080.0	1.0	0.0	8.48263	7.4738	-5.10861	17.04957	28.42949	1.16612	0.85755	146.73384	165.38777	54.2602	0.35213	 	2753379.221	 	2.39865E-6	 	35320.65541	34.74279	 
1075.0	1.0	0.0	8.48499	7.47172	-5.13499	17.03772	28.33443	1.16571	0.85785	147.15364	165.64037	54.42336	0.35193	 	3013276.914	 	2.18366E-6	 	35147.15001	34.70108	 
1070.0	1.0	0.0	8.48734	7.46965	-5.16135	17.02587	28.23938	1.16529	0.85815	147.57275	165.89153	54.58631	0.35174	 	3299922.257	 	1.98659E-6	 	34973.85271	34.65946	 
1065.0	1.0	0.0	8.4897	7.46757	-5.18767	17.01401	28.14433	1.16488	0.85846	147.99116	166.14125	54.74906	0.35154	 	3616290.348	 	1.80604E-6	 	34800.76307	34.61793	 
1060.0	1.0	0.0	8.49206	7.4655	-5.21396	17.00216	28.04927	1.16446	0.85877	148.4089	166.38953	54.91159	0.35134	 	3965711.474	 	1.64076E-6	 	34627.8806	34.57649	 
1055.0	1.0	0.0	8.49441	7.46343	-5.24022	16.9903	27.95422	1.16403	0.85908	148.82594	166.63639	55.07392	0.35115	 	4351916.375	 	1.48954E-6	 	34455.20484	34.53515	 
1050.0	1.0	0.0	8.49676	7.46137	-5.26645	16.97844	27.85917	1.16361	0.8594	149.24229	166.88182	55.23605	0.35095	 	4779087.638	 	1.3513E-6	 	34282.7353	34.49391	 
1045.0	1.0	0.0	8.49911	7.4593	-5.29265	16.96657	27.76411	1.16318	0.85971	149.65796	167.12584	55.39796	0.35075	 	5251918.09	 	1.22499E-6	 	34110.47148	34.45276	 
1040.0	1.0	0.0	8.50146	7.45724	-5.31881	16.95471	27.66906	1.16275	0.86003	150.07293	167.36845	55.55967	0.35056	 	5775677.217	 	1.10968E-6	 	33938.41289	34.41172	 
1035.0	1.0	0.0	8.50381	7.45518	-5.34495	16.94284	27.57401	1.16231	0.86035	150.48722	167.60965	55.72117	0.35036	 	6356286.76	 	1.00448E-6	 	33766.559	34.37078	 
1030.0	1.0	0.0	8.50615	7.45313	-5.37105	16.93097	27.47895	1.16188	0.86068	150.90082	167.84946	55.88247	0.35016	 	7000406.844	 	9.08569E-7	 	33594.9093	34.32994	 
1025.0	1.0	0.0	8.5085	7.45108	-5.39712	16.91911	27.3839	1.16144	0.861	151.31373	168.08786	56.04355	0.34997	 	7715534.172	 	8.21194E-7	 	33423.46326	34.28921	 
1020.0	1.0	0.0	8.51084	7.44902	-5.42316	16.90724	27.28885	1.16099	0.86133	151.72596	168.32488	56.20443	0.34977	 	8510114.094	 	7.41652E-7	 	33252.22033	34.24859	 
1015.0	1.0	0.0	8.51318	7.44698	-5.44917	16.89536	27.19379	1.16055	0.86166	152.13749	168.56052	56.36509	0.34957	 	9393668.618	 	6.69296E-7	 	33081.17996	34.20807	 
1010.0	1.0	0.0	8.51552	7.44493	-5.47514	16.88349	27.09874	1.1601	0.862	152.54834	168.79478	56.52556	0.34937	 	1.037694274E7	 	6.03524E-7	 	32910.34158	34.16768	 
1005.0	1.0	0.0	8.51786	7.44289	-5.50109	16.87162	27.00369	1.15964	0.86233	152.95849	169.02767	56.68581	0.34918	 	1.147207193E7	 	5.43784E-7	 	32739.70462	34.12739	 
1000.0	1.0	0.0	8.52019	7.44085	-5.527	16.85975	26.90863	1.15919	0.86267	153.36796	169.25918	56.84585	0.34898	 	1.26927739E7	 	4.89564E-7	 	32569.26848	34.08723	 
995.0	1.0	0.0	8.52253	7.43881	-5.55288	16.84788	26.81358	1.15873	0.86301	153.77674	169.48934	57.00569	0.34878	 	1.405456846E7	 	4.40392E-7	 	32399.03257	34.04718	 
990.0	1.0	0.0	8.52486	7.43677	-5.57872	16.83601	26.71853	1.15827	0.86336	154.18483	169.71814	57.16531	0.34859	 	1.557502988E7	 	3.95834E-7	 	32228.99627	34.00726	 
985.0	1.0	0.0	8.52719	7.43474	-5.60454	16.82414	26.62347	1.1578	0.86371	154.59224	169.94559	57.32473	0.34839	 	1.727407659E7	 	3.55487E-7	 	32059.15895	33.96746	 
980.0	1.0	0.0	8.52952	7.43271	-5.63032	16.81227	26.52842	1.15733	0.86406	154.99895	170.17169	57.48394	0.34819	 	1.917430434E7	 	3.18985E-7	 	31889.51998	33.92779	 
975.0	1.0	0.0	8.53185	7.43068	-5.65607	16.80041	26.43337	1.15686	0.86441	155.40498	170.39646	57.64294	0.348	 	2.130136959E7	 	2.85987E-7	 	31720.07869	33.88826	 
970.0	1.0	0.0	8.53418	7.42865	-5.68179	16.78854	26.33831	1.15638	0.86477	155.81031	170.61988	57.80173	0.3478	 	2.368443104E7	 	2.56181E-7	 	31550.83441	33.84886	 
965.0	1.0	0.0	8.5365	7.42663	-5.70747	16.77668	26.24326	1.1559	0.86512	156.21496	170.84198	57.96031	0.3476	 	2.635665881E7	 	2.29282E-7	 	31381.78646	33.80959	 
960.0	1.0	0.0	8.53882	7.42461	-5.73313	16.76482	26.14821	1.15542	0.86549	156.61892	171.06275	58.11868	0.34741	 	2.93558221E7	 	2.05026E-7	 	31212.93413	33.77047	 
955.0	1.0	0.0	8.54115	7.42259	-5.75875	16.75296	26.05315	1.15493	0.86585	157.02219	171.2822	58.27685	0.34721	 	3.272496814E7	 	1.83172E-7	 	31044.27671	33.73148	 
950.0	1.0	0.0	8.54347	7.42058	-5.78433	16.7411	25.9581	1.15444	0.86622	157.42478	171.50034	58.4348	0.34701	 	3.651320739E7	 	1.635E-7	 	30875.81345	33.69265	 
945.66	1.0	0.0	8.54548	7.41883	-5.80653	16.73081	25.87552	1.15402	0.86654	157.77395	171.68878	58.57185	0.34684	 	4.018766266E7	 	1.48023E-7	 	30729.62246	 	 
945.0	1.0	0.0	8.54594	7.41843	-5.81157	16.72249	25.88631	1.15291	0.86737	157.85718	171.74658	58.60402	0.34681	 	4.077009758E7	 	1.4583E-7	 	30696.90135	35.78242	 
940.0	1.0	0.0	8.54939	7.41544	-5.84957	16.66008	25.9679	1.14457	0.87369	158.48801	172.18315	58.84792	0.34659	 	4.551652911E7	 	1.30086E-7	 	30448.60781	49.65871	 
935.0	1.0	0.0	8.55279	7.41249	-5.88702	16.59927	26.04841	1.13633	0.88002	159.11324	172.6132	59.08979	0.34637	 	5.086244752E7	 	1.15934E-7	 	30202.00205	49.32115	 
930.0	1.0	0.0	8.55614	7.40958	-5.92392	16.54003	26.12785	1.12819	0.88638	159.733	173.0369	59.32968	0.34615	 	5.688938915E7	 	1.03223E-7	 	29957.0676	48.98689	 
925.0	1.0	0.0	8.55945	7.40672	-5.96028	16.48235	26.2062	1.12014	0.89274	160.34741	173.45441	59.56763	0.34593	 	6.369076074E7	 	9.18167E-8	 	29713.78692	48.65614	 
920.0	1.0	0.0	8.56271	7.4039	-5.99611	16.42619	26.28348	1.11219	0.89913	160.95659	173.86587	59.80368	0.34571	 	7.137367939E7	 	8.15913E-8	 	29472.14133	48.32912	 
915.0	1.0	0.0	8.56593	7.40112	-6.03143	16.37153	26.35969	1.10433	0.90553	161.56065	174.27143	60.03787	0.34549	 	8.006111565E7	 	7.2433E-8	 	29232.11099	48.00607	 
910.0	1.0	0.0	8.56911	7.39837	-6.06626	16.31834	26.43482	1.09655	0.91195	162.1597	174.67123	60.27025	0.34527	 	8.98943912E7	 	6.42383E-8	 	28993.67486	47.68723	 
905.0	1.0	0.0	8.57224	7.39567	-6.1006	16.26659	26.50889	1.08887	0.91839	162.75384	175.06541	60.50085	0.34505	 	1.010360937E8	 	5.69129E-8	 	28756.81065	47.37284	 
900.0	1.0	0.0	8.57533	7.393	-6.13446	16.21626	26.58191	1.08127	0.92484	163.34318	175.45409	60.7297	0.34484	 	1.136734827E8	 	5.03711E-8	 	28521.49487	47.06316	 
895.0	1.0	0.0	8.57839	7.39037	-6.16786	16.16731	26.65389	1.07375	0.93131	163.92781	175.83739	60.95685	0.34462	 	1.280224734E8	 	4.45348E-8	 	28287.70283	46.75841	 
890.0	1.0	0.0	8.5814	7.38778	-6.20081	16.11972	26.72484	1.06632	0.93781	164.50784	176.21545	61.18233	0.34441	 	1.443323017E8	 	3.93332E-8	 	28055.40867	46.45883	 
885.0	1.0	0.0	8.58438	7.38521	-6.23333	16.07346	26.79479	1.05896	0.94432	165.08337	176.58837	61.40618	0.34419	 	1.628909955E8	 	3.4702E-8	 	27824.58539	46.16466	 
880.0	1.0	0.0	8.58731	7.38269	-6.26542	16.02849	26.86374	1.05168	0.95086	165.65448	176.95628	61.62842	0.34398	 	1.840317944E8	 	3.0583E-8	 	27595.2049	45.8761	 
875.0	1.0	0.0	8.59022	7.38019	-6.2971	15.98478	26.93174	1.04448	0.95741	166.22128	177.31928	61.84911	0.34376	 	2.081406994E8	 	2.69233E-8	 	27367.23812	45.59336	 
870.0	1.0	0.0	8.59309	7.37773	-6.32839	15.9423	26.99879	1.03735	0.964	166.78385	177.67748	62.06826	0.34355	 	2.356653535E8	 	2.36752E-8	 	27140.65501	45.31662	 
865.0	1.0	0.0	8.59592	7.37529	-6.35928	15.90103	27.06494	1.03029	0.9706	167.34229	178.031	62.28592	0.34334	 	2.671255078E8	 	2.07956E-8	 	26915.42468	45.04607	 
860.0	1.0	0.0	8.59872	7.37289	-6.3898	15.86093	27.1302	1.02329	0.97724	167.89669	178.37993	62.50211	0.34313	 	3.031253696E8	 	1.82453E-8	 	26691.51545	44.78185	 
855.0	1.0	0.0	8.60149	7.37052	-6.41995	15.82197	27.19461	1.01637	0.9839	168.44713	178.72438	62.71687	0.34292	 	3.443681875E8	 	1.59893E-8	 	26468.89493	44.5241	 
850.0	1.0	0.0	8.60423	7.36817	-6.44975	15.78412	27.25821	1.0095	0.99059	168.99371	179.06444	62.93023	0.34271	 	3.916735037E8	 	1.39959E-8	 	26247.53016	44.27295	 
845.0	1.0	0.0	8.60644	7.36628	-6.47373	15.77213	27.16098	1.0086	0.99147	169.39145	179.26338	63.08752	0.34251	 	4.464663622E8	 	1.22236E-8	 	26084.37516	32.631	 
840.0	1.0	0.0	8.60864	7.36439	-6.49767	15.76012	27.06374	1.0077	0.99236	169.78848	179.46107	63.24459	0.34232	 	5.095234047E8	 	1.06629E-8	 	25918.04073	33.26689	 
835.0	1.0	0.0	8.61085	7.36251	-6.52159	15.74809	26.96649	1.00679	0.99325	170.1848	179.65752	63.40143	0.34212	 	5.821800118E8	 	9.29026E-9	 	25751.85612	33.23692	 
830.0	1.0	0.0	8.61305	7.36063	-6.54548	15.73603	26.86923	1.00588	0.99416	170.58039	179.85273	63.55805	0.34193	 	6.660015528E8	 	8.08437E-9	 	25585.81932	33.20736	 
825.0	1.0	0.0	8.61525	7.35875	-6.56934	15.72395	26.77195	1.00496	0.99507	170.97527	180.04671	63.71446	0.34173	 	7.628254254E8	 	7.02624E-9	 	25419.92823	33.17822	 
820.0	1.0	0.0	8.61745	7.35687	-6.59317	15.71186	26.67466	1.00403	0.99599	171.36944	180.23946	63.87064	0.34154	 	8.748112201E8	 	6.09891E-9	 	25254.1807	33.14951	 
815.0	1.0	0.0	8.61964	7.355	-6.61697	15.69973	26.57737	1.0031	0.99691	171.76289	180.43098	64.02659	0.34134	 	1.004500667E9	 	5.28719E-9	 	25088.5745	33.12124	 
810.0	1.0	0.0	8.62184	7.35312	-6.64075	15.68759	26.48006	1.00216	0.99785	172.15562	180.62128	64.18233	0.34114	 	1.154889374E9	 	4.57757E-9	 	24923.10732	33.09344	 
805.0	1.0	0.0	8.62403	7.35125	-6.6645	15.67543	26.38273	1.00121	0.99879	172.54763	180.81037	64.33785	0.34095	 	1.329512804E9	 	3.95798E-9	 	24757.77677	33.06611	 
800.0	1.0	0.0	8.62622	7.34939	-6.68822	15.66324	26.2854	1.00026	0.99974	172.93893	180.99825	64.49314	0.34075	 	1.532549464E9	 	3.41769E-9	 	24592.58039	33.03928	 
795.0	1.0	0.0	8.62841	7.34752	-6.71191	15.65104	26.18805	0.9993	1.0007	173.32951	181.18491	64.64821	0.34056	 	1.768944947E9	 	2.94717E-9	 	24427.51561	33.01296	 
790.0	1.0	0.0	8.6306	7.34566	-6.73558	15.63881	26.0907	0.99833	1.00167	173.71937	181.37038	64.80305	0.34036	 	2.044561253E9	 	2.53794E-9	 	24262.5798	32.98716	 
785.0	1.0	0.0	8.63279	7.34379	-6.75921	15.62656	25.99333	0.99736	1.00265	174.10851	181.55464	64.95768	0.34017	 	2.366356836E9	 	2.1825E-9	 	24097.77021	32.96192	 
780.0	1.0	0.0	8.63498	7.34194	-6.78282	15.61428	25.89594	0.99638	1.00363	174.49694	181.73771	65.11208	0.33997	 	2.742604017E9	 	1.87419E-9	 	23933.08401	32.93724	 
775.0	1.0	0.0	8.63716	7.34008	-6.80639	15.60199	25.79855	0.99539	1.00463	174.88465	181.91959	65.26626	0.33978	 	3.183151953E9	 	1.60714E-9	 	23768.51825	32.91315	 
770.0	1.0	0.0	8.63935	7.33822	-6.82994	15.58967	25.70114	0.9944	1.00563	175.27163	182.10029	65.42021	0.33958	 	3.699745204E9	 	1.37614E-9	 	23604.06989	32.88967	 
765.0	1.0	0.0	8.64153	7.33637	-6.85346	15.57734	25.60372	0.9934	1.00665	175.6579	182.2798	65.57394	0.33939	 	4.306410279E9	 	1.17661E-9	 	23439.73574	32.86683	 
760.0	1.0	0.0	8.64371	7.33452	-6.87695	15.56498	25.50629	0.99239	1.00767	176.04345	182.45813	65.72745	0.33919	 	5.019925456E9	 	1.00451E-9	 	23275.51254	32.84464	 
755.0	1.0	0.0	8.64588	7.33267	-6.90042	15.5526	25.40884	0.99137	1.0087	176.42828	182.63529	65.88073	0.339	 	5.86039274E9	 	8.56281E-10	 	23111.39686	32.82314	 
750.0	1.0	0.0	8.64806	7.33083	-6.92385	15.54019	25.31138	0.99035	1.00974	176.81239	182.81127	66.03379	0.3388	 	6.851935378E9	 	7.28807E-10	 	22947.38515	32.80234	 
745.0	1.0	0.0	8.65024	7.32898	-6.94725	15.52777	25.21391	0.98932	1.01079	177.19578	182.98609	66.18662	0.33861	 	8.023549914E9	 	6.19344E-10	 	22783.47374	32.78228	 
740.0	1.0	0.0	8.65241	7.32714	-6.97062	15.51532	25.11642	0.98828	1.01185	177.57845	183.15975	66.33923	0.33841	 	9.410148872E9	 	5.25489E-10	 	22619.6588	32.76299	 
735.0	1.0	0.0	8.65458	7.3253	-6.99397	15.50285	25.01892	0.98724	1.01293	177.9604	183.33225	66.49161	0.33822	 	1.10538E10	 	4.45142E-10	 	22455.93632	32.7445	 
730.0	1.0	0.0	8.65675	7.32347	-7.01728	15.49036	24.92141	0.98619	1.01401	178.34163	183.50359	66.64377	0.33802	 	1.3005499999999998E10	 	3.76466E-10	 	22292.30217	32.72683	 
725.0	1.0	0.0	8.65892	7.32163	-7.04057	15.47785	24.82389	0.98513	1.0151	178.72214	183.67378	66.79571	0.33783	 	1.5326699999999998E10	 	3.17859E-10	 	22128.75201	32.71003	 
720.0	1.0	0.0	8.66109	7.3198	-7.06382	15.46532	24.72635	0.98406	1.0162	179.10192	183.84283	66.94742	0.33763	 	1.8092E10	 	2.67926E-10	 	21965.28134	32.69413	 
715.0	1.0	0.0	8.66325	7.31797	-7.08705	15.45277	24.62879	0.98298	1.01731	179.48099	184.01073	67.0989	0.33744	 	2.13922E10	 	2.25452E-10	 	21801.88546	32.67918	 
710.0	1.0	0.0	8.66542	7.31615	-7.11025	15.44019	24.53123	0.9819	1.01844	179.85933	184.17749	67.25016	0.33724	 	2.5337499999999996E10	 	1.89384E-10	 	21638.55946	32.6652	 
705.0	1.0	0.0	8.66758	7.31432	-7.13341	15.42759	24.43365	0.98081	1.01957	180.23695	184.34312	67.40119	0.33705	 	3.0062399999999996E10	 	1.58807E-10	 	21475.29821	32.65225	 
700.0	1.0	0.0	8.66974	7.3125	-7.15655	15.41497	24.33605	0.97971	1.02071	180.61385	184.50762	67.552	0.33685	 	3.57311E10	 	1.32929E-10	 	21312.09637	32.64037	 
695.0	1.0	0.0	8.67189	7.31068	-7.17965	15.40233	24.23844	0.9786	1.02187	180.99003	184.67099	67.70257	0.33666	 	4.25446E10	 	1.11067E-10	 	21148.94834	32.62961	 
690.0	1.0	0.0	8.67405	7.30886	-7.20273	15.38966	24.14082	0.97748	1.02304	181.36548	184.83323	67.85293	0.33646	 	5.074919999999999E10	 	9.263E-11	 	20985.84825	32.62002	 
685.0	1.0	0.0	8.67621	7.30705	-7.22577	15.37698	24.04318	0.97635	1.02422	181.74021	184.99435	68.00305	0.33627	 	6.064759999999999E10	 	7.71093E-11	 	20822.78996	32.61166	 
680.0	1.0	0.0	8.67836	7.30523	-7.24879	15.36427	23.94553	0.97522	1.02541	182.11422	185.15436	68.15295	0.33607	 	7.26121E10	 	6.40676E-11	 	20659.76705	32.60458	 
675.0	1.0	0.0	8.68051	7.30342	-7.27177	15.35154	23.84786	0.97408	1.02661	182.4875	185.31326	68.30262	0.33587	 	8.71024E10	 	5.31293E-11	 	20496.77276	32.59886	 
670.0	1.0	0.0	8.68266	7.30162	-7.29473	15.33879	23.75018	0.97293	1.02783	182.86006	185.47104	68.45207	0.33568	 	1.04686E11	 	4.39723E-11	 	20333.79999	32.59455	 
665.0	1.0	0.0	8.68481	7.29981	-7.31765	15.32602	23.65248	0.97177	1.02905	183.23189	185.62772	68.60128	0.33548	 	1.26066E11	 	3.63212E-11	 	20170.84131	32.59174	 
660.0	1.0	0.0	8.68695	7.29801	-7.34054	15.31323	23.55477	0.9706	1.03029	183.603	185.7833	68.75027	0.33529	 	1.52115E11	 	2.99409E-11	 	20007.88886	32.59049	 
655.0	1.0	0.0	8.6891	7.29621	-7.3634	15.30041	23.45705	0.96942	1.03155	183.97339	185.93778	68.89903	0.33509	 	1.83919E11	 	2.46308E-11	 	19844.93439	32.59089	 
650.0	1.0	0.0	8.69124	7.29441	-7.38623	15.28757	23.3593	0.96823	1.03281	184.34305	186.09117	69.04757	0.3349	 	2.2283E11	 	2.02202E-11	 	19681.96919	32.59304	 
645.0	1.0	0.0	8.69338	7.29261	-7.40903	15.27471	23.26155	0.96703	1.03409	184.71198	186.24346	69.19587	0.3347	 	2.70538E11	 	1.65643E-11	 	19518.98406	32.59703	 
640.0	1.0	0.0	8.69552	7.29082	-7.4318	15.26183	23.16377	0.96583	1.03538	185.08019	186.39467	69.34395	0.33451	 	3.29159E11	 	1.35401E-11	 	19355.96928	32.60296	 
635.0	1.0	0.0	8.69765	7.28903	-7.45454	15.24893	23.06598	0.96461	1.03669	185.44768	186.54479	69.49179	0.33431	 	4.01348E11	 	1.10439E-11	 	19192.91458	32.61094	 
630.0	1.0	0.0	8.69979	7.28724	-7.47724	15.23601	22.96818	0.96338	1.03801	185.81444	186.69383	69.63941	0.33412	 	4.90444E11	 	8.98788E-12	 	19029.80904	32.62111	 
625.0	1.0	0.0	8.70192	7.28546	-7.49992	15.22306	22.87036	0.96215	1.03934	186.18047	186.8418	69.7868	0.33392	 	6.00658E11	 	7.29807E-12	 	18866.6411	32.63359	 
620.0	1.0	0.0	8.70405	7.28367	-7.52256	15.21009	22.77252	0.9609	1.04069	186.54577	186.98869	69.93396	0.33373	 	7.37312E11	 	5.91235E-12	 	18703.39847	32.64853	 
615.0	1.0	0.0	8.70618	7.28189	-7.54517	15.1971	22.67467	0.95965	1.04205	186.91035	187.13452	70.08089	0.33353	 	9.07146E11	 	4.77854E-12	 	18540.06806	32.66608	 
610.0	1.0	0.0	8.70831	7.28011	-7.56775	15.18409	22.5768	0.95838	1.04343	187.2742	187.27928	70.22759	0.33334	 	1.11872E12	 	3.85299E-12	 	18376.63592	32.68643	 
605.0	1.0	0.0	8.71043	7.27834	-7.5903	15.17106	22.47892	0.9571	1.04482	187.63732	187.42297	70.37406	0.33314	 	1.38295E12	 	3.0992E-12	 	18213.08716	32.70975	 
600.0	1.0	0.0	8.71255	7.27656	-7.61281	15.158	22.38101	0.95582	1.04622	187.99971	187.56561	70.52029	0.33295	 	1.71373E12	 	2.48676E-12	 	18049.40583	32.73627	 
595.0	1.0	0.0	8.71467	7.27479	-7.6353	15.14493	22.2831	0.95452	1.04765	188.36138	187.70718	70.6663	0.33275	 	2.12888E12	 	1.99035E-12	 	17885.57486	32.76619	 
590.0	1.0	0.0	8.71679	7.27302	-7.65775	15.13183	22.18516	0.95321	1.04908	188.72232	187.84771	70.81208	0.33256	 	2.65127E12	 	1.58899E-12	 	17721.5759	32.79979	 
585.0	1.0	0.0	8.71891	7.27126	-7.68017	15.11871	22.08721	0.95189	1.05054	189.08253	187.98719	70.95763	0.33236	 	3.31028E12	 	1.26528E-12	 	17557.38921	32.83734	 
580.0	1.0	0.0	8.72102	7.2695	-7.70256	15.10557	21.98924	0.95056	1.05201	189.44201	188.12562	71.10295	0.33217	 	4.14388E12	 	1.00486E-12	 	17392.99351	32.87914	 
575.0	1.0	0.0	8.72314	7.26773	-7.72491	15.0924	21.89125	0.94922	1.05349	189.80076	188.26301	71.24803	0.33197	 	5.20114E12	 	7.95904E-13	 	17228.3658	32.92554	 
570.0	1.0	0.0	8.72525	7.26598	-7.74724	15.07922	21.79325	0.94787	1.055	190.15878	188.39936	71.39288	0.33178	 	6.54577E12	 	6.28681E-13	 	17063.48118	32.97692	 
565.0	1.0	0.0	8.72736	7.26422	-7.76953	15.06601	21.69522	0.94651	1.05652	190.51607	188.53468	71.5375	0.33158	 	8.26066E12	 	4.95215E-13	 	16898.3126	33.03372	 
560.0	1.0	0.0	8.72946	7.26247	-7.79178	15.05278	21.59718	0.94513	1.05805	190.87263	188.66896	71.68189	0.33139	 	1.0454E13	 	3.88981E-13	 	16732.83064	33.09639	 
555.0	1.0	0.0	8.73157	7.26072	-7.81401	15.03953	21.49912	0.94374	1.05961	191.22846	188.80221	71.82605	0.33119	 	1.32673E13	 	3.04658E-13	 	16567.0032	33.16549	 
550.0	1.0	0.0	8.73367	7.25897	-7.8362	15.02626	21.40105	0.94235	1.06118	191.58356	188.93444	71.96998	0.331	 	1.68866E13	 	2.37916E-13	 	16400.79515	33.24161	 
545.0	1.0	0.0	8.73577	7.25722	-7.85836	15.01297	21.30295	0.94093	1.06277	191.93793	189.06564	72.11367	0.3308	 	2.15567E13	 	1.85241E-13	 	16234.16799	33.32543	 
540.0	1.0	0.0	8.73787	7.25548	-7.88049	14.99965	21.20484	0.93951	1.06438	192.29157	189.19583	72.25713	0.33061	 	2.7601E13	 	1.43791E-13	 	16067.07936	33.41773	 
535.0	1.0	0.0	8.73997	7.25374	-7.90258	14.98631	21.10671	0.93807	1.06601	192.64448	189.325	72.40036	0.33041	 	3.54484E13	 	1.11271E-13	 	15899.48255	33.51936	 
530.0	1.0	0.0	8.74206	7.252	-7.92465	14.97296	21.00856	0.93663	1.06766	192.99665	189.45315	72.54335	0.33022	 	4.5669E13	 	8.58344E-14	 	15731.32587	33.63134	 
525.0	1.0	0.0	8.74415	7.25027	-7.94667	14.95957	20.91039	0.93517	1.06933	193.34809	189.5803	72.68611	0.33002	 	5.90235E13	 	6.60003E-14	 	15562.55203	33.75477	 
520.0	1.0	0.0	8.74624	7.24854	-7.96867	14.94617	20.8122	0.93369	1.07102	193.6988	189.70644	72.82864	0.32983	 	7.65303E13	 	5.05835E-14	 	15393.09724	33.89096	 
515.0	1.0	0.0	8.74833	7.24681	-7.99063	14.93275	20.71399	0.9322	1.07273	194.04878	189.83158	72.97093	0.32963	 	9.95571E13	 	3.86388E-14	 	15222.89031	34.04139	 
510.0	1.0	0.0	8.75042	7.24508	-8.01256	14.9193	20.61577	0.9307	1.07446	194.39802	189.95572	73.11299	0.32944	 	1.2994799999999998E14	 	2.94145E-14	 	15051.85156	34.20775	 
505.0	1.0	0.0	8.7525	7.24335	-8.03445	14.90583	20.51752	0.92919	1.07621	194.74653	190.07886	73.25481	0.32924	 	1.70198E14	 	2.23149E-14	 	14879.8915	34.39201	 
500.0	1.0	0.0	8.75458	7.24163	-8.05631	14.89234	20.41925	0.92766	1.07798	195.09431	190.201	73.3964	0.32905	 	2.23695E14	 	1.68692E-14	 	14706.90929	34.59644	 
495.0	1.0	0.0	8.75666	7.23991	-8.07814	14.87883	20.32097	0.92612	1.07977	195.44135	190.32216	73.53776	0.32885	 	2.95054E14	 	1.27067E-14	 	14532.79099	34.82366	 
490.0	1.0	0.0	8.75873	7.2382	-8.09993	14.8653	20.22266	0.92457	1.08159	195.78766	190.44233	73.67888	0.32866	 	3.90591E14	 	9.53617E-15	 	14357.40741	35.07672	 
485.0	1.0	0.0	8.76081	7.23648	-8.12169	14.85175	20.12433	0.923	1.08343	196.13324	190.56151	73.81976	0.32846	 	5.1897999999999994E14	 	7.13002E-15	 	14180.61158	35.35917	 
480.0	1.0	0.0	8.76288	7.23477	-8.14342	14.83817	20.02599	0.92141	1.08529	196.47808	190.67971	73.96041	0.32827	 	6.92178E14	 	5.31068E-15	 	14002.23582	35.67515	 
475.0	1.0	0.0	8.76495	7.23306	-8.16511	14.82457	19.92762	0.91981	1.08718	196.82218	190.79694	74.10082	0.32807	 	9.26737E14	 	3.94021E-15	 	13822.08818	36.02953	 
470.0	1.0	0.0	8.76702	7.23136	-8.18677	14.81095	19.82923	0.9182	1.08909	197.16555	190.91319	74.241	0.32788	 	1.24566E15	 	2.91181E-15	 	13595.29515	45.35861	 
465.0	1.0	0.0	8.76908	7.22966	-8.20839	14.79731	19.73082	0.91657	1.09102	197.50818	191.02846	74.38095	0.32768	 	1.68107E15	 	2.14312E-15	 	13369.69629	45.11977	 
460.0	1.0	0.0	8.77115	7.22795	-8.22998	14.78365	19.63239	0.91493	1.09298	197.85008	191.14277	74.52065	0.32748	 	2.27795E15	 	1.57085E-15	 	13147.26386	44.48649	 
455.0	1.0	0.0	8.77321	7.22626	-8.25154	14.76996	19.53393	0.91327	1.09497	198.19124	191.25611	74.66012	0.32729	 	3.09968E15	 	1.14654E-15	 	12927.8496	43.88285	 
450.0	1.0	0.0	8.77527	7.22456	-8.27306	14.75626	19.43546	0.91159	1.09698	198.53167	191.36849	74.79935	0.32709	 	4.23583E15	 	8.33252E-16	 	12711.31474	43.30697	 
445.0	1.0	0.0	8.77732	7.22287	-8.29454	14.74253	19.33696	0.9099	1.09902	198.87135	191.47991	74.93835	0.3269	 	5.81366E15	 	6.0291E-16	 	12497.52936	42.75708	 
440.0	1.0	0.0	8.77938	7.22118	-8.31599	14.72878	19.23844	0.90819	1.10109	199.21031	191.59037	75.07711	0.3267	 	8.01472E15	 	4.3429E-16	 	12286.37177	42.23152	 
435.0	1.0	0.0	8.78143	7.21949	-8.33741	14.715	19.1399	0.90647	1.10319	199.54852	191.69988	75.21563	0.32651	 	1.10993E16	 	3.11398E-16	 	12077.72797	41.72876	 
430.0	1.0	0.0	8.78348	7.21781	-8.35879	14.70121	19.04134	0.90472	1.10531	199.886	191.80843	75.35392	0.32631	 	1.54424E16	 	2.22239E-16	 	11871.4911	41.24737	 
425.0	1.0	0.0	8.78552	7.21613	-8.38014	14.6874	18.94275	0.90297	1.10746	200.22274	191.91604	75.49197	0.32612	 	2.15868E16	 	1.57851E-16	 	11667.56099	40.78602	 
420.0	1.0	0.0	8.78757	7.21445	-8.40145	14.67356	18.84414	0.90119	1.10964	200.55874	192.0227	75.62978	0.32592	 	3.03221E16	 	1.11572E-16	 	11465.84367	40.34346	 
415.0	1.0	0.0	8.78961	7.21277	-8.42272	14.6597	18.74551	0.8994	1.11185	200.894	192.12842	75.76735	0.32573	 	4.28032E16	 	7.84682E-17	 	11266.25093	39.91855	 
410.0	1.0	0.0	8.79165	7.2111	-8.44397	14.64582	18.64686	0.89759	1.1141	201.22852	192.2332	75.90468	0.32553	 	6.07273E16	 	5.49059E-17	 	11068.69999	39.51019	 
405.0	1.0	0.0	8.79368	7.20943	-8.46517	14.63192	18.54818	0.89576	1.11637	201.56231	192.33704	76.04177	0.32534	 	8.66028E16	 	3.82191E-17	 	10873.11305	39.11739	 
400.0	1.0	0.0	8.79572	7.20776	-8.48634	14.61799	18.44947	0.89391	1.11868	201.89535	192.43995	76.17863	0.32514	 	1.24157E17	 	2.64624E-17	 	10679.417	38.73921	 
395.0	1.0	0.0	8.79775	7.2061	-8.50748	14.60405	18.35075	0.89204	1.12102	202.22766	192.54193	76.31525	0.32495	 	1.78957E17	 	1.82227E-17	 	10487.54309	38.37478	 
390.0	1.0	0.0	8.79978	7.20444	-8.52858	14.59008	18.25199	0.89016	1.12339	202.55923	192.64298	76.45163	0.32475	 	2.59372E17	 	1.24789E-17	 	10297.42662	38.02329	 
385.0	1.0	0.0	8.80181	7.20278	-8.54964	14.57609	18.15322	0.88825	1.1258	202.89006	192.74311	76.58777	0.32456	 	3.78046E17	 	8.49702E-18	 	10109.00667	37.68399	 
380.0	1.0	0.0	8.80383	7.20112	-8.57067	14.56208	18.05442	0.88633	1.12825	203.22014	192.84231	76.72367	0.32436	 	5.54207E17	 	5.75211E-18	 	9922.22584	37.35617	 
375.0	1.0	0.0	8.80585	7.19947	-8.59166	14.54805	17.95559	0.88439	1.13073	203.54949	192.94059	76.85933	0.32417	 	8.17265E17	 	3.87079E-18	 	9737.03002	37.03916	 
370.0	1.0	0.0	8.80787	7.19782	-8.61262	14.53399	17.85674	0.88242	1.13325	203.8781	193.03796	76.99475	0.32397	 	1.21249E18	 	2.58894E-18	 	9553.36815	36.73237	 
365.0	1.0	0.0	8.80989	7.19617	-8.63354	14.51992	17.75786	0.88044	1.1358	204.20597	193.13442	77.12993	0.32378	 	1.80998E18	 	1.72082E-18	 	9371.19201	36.43523	 
360.0	1.0	0.0	8.8119	7.19452	-8.65442	14.50582	17.65896	0.87843	1.13839	204.53309	193.22996	77.26487	0.32358	 	2.71907E18	 	1.13651E-18	 	9190.45606	36.14719	 
355.0	1.0	0.0	8.81391	7.19288	-8.67527	14.4917	17.56003	0.8764	1.14103	204.85948	193.32459	77.39957	0.32339	 	4.11131E18	 	7.45709E-19	 	9011.11721	35.86777	 
350.0	1.0	0.0	8.81592	7.19124	-8.69609	14.47756	17.46108	0.87435	1.1437	205.18512	193.41832	77.53403	0.32319	 	6.25781E18	 	4.86023E-19	 	8833.13471	35.5965	 
345.0	1.0	0.0	8.81793	7.18961	-8.71686	14.46339	17.3621	0.87228	1.14642	205.51002	193.51115	77.66825	0.323	 	9.58992E18	 	3.14605E-19	 	8656.46995	35.33295	 
340.0	1.0	0.0	8.81993	7.18797	-8.7376	14.44921	17.26309	0.87019	1.14917	205.83418	193.60308	77.80222	0.3228	 	1.4799E19	 	2.02219E-19	 	8481.08632	35.07673	 
335.0	1.0	0.0	8.82193	7.18634	-8.7583	14.435	17.16406	0.86807	1.15198	206.1576	193.69411	77.93596	0.32261	 	2.3001E19	 	1.29048E-19	 	8306.94911	34.82744	 
330.0	1.0	0.0	8.82393	7.18472	-8.77897	14.42077	17.06499	0.86593	1.15482	206.48027	193.78425	78.06946	0.32241	 	3.60111E19	 	8.17478E-20	 	8134.02534	34.58475	 
325.0	1.0	0.0	8.82593	7.18309	-8.7996	14.40652	16.9659	0.86377	1.15771	206.80221	193.87349	78.20271	0.32222	 	5.68042E19	 	5.13944E-20	 	7962.28369	34.34833	 
320.0	1.0	0.0	8.82792	7.18147	-8.82019	14.39225	16.86679	0.86159	1.16065	207.1234	193.96185	78.33572	0.32202	 	9.02948E19	 	3.20619E-20	 	7791.69435	34.11787	 
315.0	1.0	0.0	8.82991	7.17985	-8.84075	14.37796	16.76764	0.85937	1.16364	207.44385	194.04932	78.46849	0.32183	 	1.4466599999999998E20	 	1.9843E-20	 	7622.22895	33.89308	 
310.0	1.0	0.0	8.8319	7.17823	-8.86127	14.36364	16.66847	0.85714	1.16667	207.76355	194.13591	78.60102	0.32163	 	2.3365799999999997E20	 	1.21811E-20	 	7453.86044	33.6737	 
305.0	1.0	0.0	8.83389	7.17662	-8.88175	14.34931	16.56926	0.85488	1.16976	208.08252	194.22162	78.73331	0.32144	 	3.8053699999999997E20	 	7.41532E-21	 	7286.56305	33.45948	 
300.0	1.0	0.0	8.83587	7.17501	-8.9022	14.33495	16.47003	0.85259	1.1729	208.40074	194.30645	78.86535	0.32124	 	6.250419999999999E20	 	4.47555E-21	 	7120.31216	33.25018	 
295.0	1.0	0.0	8.83785	7.1734	-8.9226	14.32057	16.37077	0.85028	1.17609	208.71821	194.3904	78.99715	0.32105	 	1.0356500000000001E21	 	2.67754E-21	 	6955.08426	33.04558	 
290.0	1.0	0.0	8.83983	7.1718	-8.94298	14.30617	16.27148	0.84794	1.17933	209.03495	194.47349	79.12871	0.32085	 	1.7314600000000001E21	 	1.58744E-21	 	6790.85684	32.84548	 
285.0	1.0	0.0	8.8418	7.1702	-8.96331	14.29174	16.17216	0.84557	1.18264	209.35094	194.5557	79.26003	0.32066	 	2.92153E21	 	9.32453E-22	 	6627.60839	32.64969	 
280.0	1.0	0.0	8.84377	7.1686	-8.9836	14.2773	16.07281	0.84317	1.18599	209.66618	194.63705	79.3911	0.32046	 	4.97641E21	 	5.42517E-22	 	6465.31829	32.45802	 
275.0	1.0	0.0	8.84574	7.167	-9.00386	14.26283	15.97343	0.84075	1.18941	209.98069	194.71754	79.52193	0.32027	 	8.55936E21	 	3.12568E-22	 	6303.96675	32.27031	 
270.0	1.0	0.0	8.84771	7.16541	-9.02408	14.24834	15.87401	0.8383	1.19289	210.29445	194.79716	79.65252	0.32007	 	1.4869699999999998E22	 	1.78281E-22	 	6143.53481	32.08639	 
265.0	1.0	0.0	8.84967	7.16382	-9.04427	14.23383	15.77457	0.83582	1.19643	210.60746	194.87592	79.78287	0.31988	 	2.60988E22	 	1.0064E-22	 	5984.00425	31.90611	 
260.0	1.0	0.0	8.85163	7.16223	-9.06441	14.2193	15.6751	0.83331	1.20004	210.91973	194.95383	79.91297	0.31968	 	4.62937E22	 	5.62101E-23	 	5825.35755	31.72934	 
255.0	1.0	0.0	8.85359	7.16065	-9.08452	14.20474	15.57559	0.83077	1.20371	211.23126	195.03089	80.04282	0.31949	 	8.3011E22	 	3.10533E-23	 	5667.57785	31.55594	 
250.0	1.0	0.0	8.85554	7.15907	-9.10459	14.19017	15.47605	0.82819	1.20745	211.54204	195.1071	80.17244	0.31929	 	1.50521E23	 	1.69635E-23	 	5510.64895	31.38578	 
245.0	1.0	0.0	8.8575	7.15749	-9.12462	14.17557	15.37648	0.82559	1.21125	211.85209	195.18245	80.30181	0.3191	 	2.76088E23	 	9.16E-24	 	5354.55521	31.21875	 
240.0	1.0	0.0	8.85944	7.15592	-9.14461	14.16095	15.27687	0.82295	1.21513	212.16138	195.25697	80.43093	0.3189	 	5.12425E23	 	4.88765E-24	 	5199.28156	31.05473	 
235.0	1.0	0.0	8.86139	7.15435	-9.16457	14.14631	15.17724	0.82029	1.21909	212.46993	195.33064	80.55982	0.31871	 	9.627189999999999E23	 	2.5762E-24	 	5044.81348	30.89362	 
230.0	1.0	0.0	8.86333	7.15278	-9.18448	14.13164	15.07756	0.81758	1.22312	212.77774	195.40347	80.68845	0.31851	 	1.83152E24	 	1.34083E-24	 	4891.13693	30.73531	 
225.0	1.0	0.0	8.86527	7.15121	-9.20436	14.11696	14.97786	0.81485	1.22722	213.08481	195.47547	80.81685	0.31832	 	3.5296500000000003E24	 	6.88835E-25	 	4738.23836	30.57971	 
220.0	1.0	0.0	8.86721	7.14965	-9.2242	14.10225	14.87812	0.81208	1.23141	213.39113	195.54663	80.945	0.31812	 	6.893320000000001E24	 	3.49171E-25	 	4586.10467	30.42674	 
215.0	1.0	0.0	8.86915	7.14809	-9.244	14.08753	14.77834	0.80927	1.23568	213.6967	195.61697	81.0729	0.31793	 	1.36483E25	 	1.74566E-25	 	4434.72318	30.2763	 
210.0	1.0	0.0	8.87108	7.14653	-9.26376	14.07278	14.67854	0.80643	1.24004	214.00154	195.68647	81.20056	0.31773	 	2.74077E25	 	8.60393E-26	 	4284.08165	30.12831	 
205.0	1.0	0.0	8.87301	7.14498	-9.28349	14.058	14.57869	0.80355	1.24448	214.30563	195.75515	81.32798	0.31754	 	5.58465E25	 	4.17883E-26	 	4134.16822	29.98269	 
200.0	1.0	0.0	8.87493	7.14343	-9.30317	14.04321	14.47881	0.80063	1.24902	214.60898	195.823	81.45515	0.31734	 	1.1551900000000001E26	 	1.99909E-26	 	3984.97139	29.83937	 
195.0	1.0	0.0	8.87686	7.14188	-9.32282	14.0284	14.37889	0.79767	1.25364	214.91158	195.89004	81.58208	0.31715	 	2.4269100000000003E26	 	9.41494E-27	 	3836.48004	29.69827	 
190.0	1.0	0.0	8.87878	7.14034	-9.34242	14.01356	14.27894	0.79468	1.25837	215.21344	195.95626	81.70876	0.31695	 	5.181030000000001E26	 	4.36307E-27	 	3688.68339	29.55933	 
185.0	1.0	0.0	8.88069	7.1388	-9.36199	13.9987	14.17895	0.79164	1.26319	215.51456	196.02166	81.8352	0.31676	 	1.12452E27	 	1.98851E-27	 	3541.57099	29.42248	 
180.0	1.0	0.0	8.88261	7.13726	-9.38152	13.98382	14.07892	0.78857	1.26812	215.81494	196.08626	81.96139	0.31656	 	2.48281E27	 	8.9081E-28	 	3395.13272	29.28765	 
175.0	1.0	0.0	8.88452	7.13572	-9.40101	13.96892	13.97886	0.78545	1.27316	216.11457	196.15004	82.08734	0.31637	 	5.57951E27	 	3.92025E-28	 	3249.35875	29.15479	 
170.0	1.0	0.0	8.88642	7.13419	-9.42046	13.95399	13.87875	0.78229	1.2783	216.41346	196.21302	82.21304	0.31617	 	1.27698E28	 	1.69376E-28	 	3104.23958	29.02383	 
165.0	1.0	0.0	8.88833	7.13266	-9.43987	13.93905	13.77861	0.77908	1.28356	216.71161	196.2752	82.3385	0.31598	 	2.97838E28	 	7.18009E-29	 	2959.76597	28.89472	 
160.0	1.0	0.0	8.89023	7.13114	-9.45924	13.92408	13.67843	0.77583	1.28894	217.00902	196.33658	82.46372	0.31578	 	7.08379E28	 	2.98442E-29	 	2815.92899	28.7674	 
155.0	1.0	0.0	8.89213	7.12961	-9.47857	13.90909	13.57821	0.77254	1.29444	217.30569	196.39716	82.58869	0.31559	 	1.7192600000000002E29	 	1.21546E-29	 	2672.71996	28.64181	 
150.0	1.0	0.0	8.89403	7.12809	-9.49786	13.89408	13.47795	0.7692	1.30006	217.60162	196.45694	82.71341	0.31539	 	4.26104E29	 	4.84692E-30	 	2530.1305	28.51789	 
145.0	1.0	0.0	8.89592	7.12658	-9.51711	13.87905	13.37764	0.76581	1.30581	217.89681	196.51594	82.8379	0.3152	 	1.07924E30	 	1.89104E-30	 	2388.15247	28.39561	 
140.0	1.0	0.0	8.89781	7.12507	-9.53632	13.86399	13.2773	0.76237	1.3117	218.19126	196.57414	82.96213	0.31501	 	2.79568E30	 	7.21285E-31	 	2246.778	28.27489	 
135.0	1.0	0.0	8.89969	7.12356	-9.55549	13.84892	13.17692	0.75888	1.31773	218.48497	196.63156	83.08613	0.31481	 	7.41287E30	 	2.68732E-31	 	2105.99949	28.1557	 
130.0	1.0	0.0	8.90158	7.12205	-9.57462	13.83382	13.07649	0.75534	1.32391	218.77795	196.6882	83.20988	0.31462	 	2.01368E31	 	9.77156E-32	 	1965.80957	28.03798	 
125.0	1.0	0.0	8.90346	7.12054	-9.59372	13.8187	12.97602	0.75175	1.33024	219.07018	196.74406	83.33338	0.31442	 	5.6090999999999995E31	 	3.4645E-32	 	1826.20115	27.92168	 
120.0	1.0	0.0	8.90533	7.11904	-9.61277	13.80356	12.87551	0.7481	1.33672	219.36169	196.79915	83.45664	0.31423	 	1.6036599999999999E32	 	1.19655E-32	 	1687.16736	27.80676	 
115.0	1.0	0.0	8.90721	7.11755	-9.63178	13.7884	12.77496	0.7444	1.34336	219.65245	196.85346	83.57966	0.31403	 	4.71072E32	 	4.0216E-33	 	1548.70162	27.69315	 
110.0	1.0	0.0	8.90908	7.11605	-9.65075	13.77321	12.67436	0.74064	1.35018	219.94248	196.90701	83.70244	0.31384	 	1.42323E33	 	1.31396E-33	 	1410.79757	27.58081	 
105.0	1.0	0.0	8.91094	7.11456	-9.66968	13.75801	12.57372	0.73683	1.35717	220.23178	196.95978	83.82497	0.31364	 	4.42753E33	 	4.1686E-34	 	1273.44911	27.46969	 
100.0	1.0	0.0	8.91281	7.11307	-9.68856	13.74278	12.47303	0.73296	1.36434	220.52034	197.0118	83.94726	0.31345	 	1.41989E34	 	1.28267E-34	 	1136.65041	27.35974	 
95.0	1.0	0.0	8.91467	7.11159	-9.70741	13.72753	12.3723	0.72902	1.3717	220.80818	197.06305	84.06931	0.31325	 	4.7E34	 	3.82308E-35	 	1000.39588	27.25091	 
90.0	1.0	0.0	8.91652	7.11011	-9.72622	13.71226	12.27152	0.72503	1.37926	221.09528	197.11355	84.19111	0.31306	 	1.60788E35	 	1.10235E-35	 	864.68021	27.14313	 
85.0	1.0	0.0	8.91838	7.10863	-9.74499	13.69696	12.17069	0.72097	1.38702	221.38165	197.1633	84.31268	0.31286	 	5.69279E35	 	3.07062E-36	 	729.49833	27.03638	 
80.0	1.0	0.0	8.92023	7.10716	-9.76371	13.68165	12.06982	0.71684	1.395	221.6673	197.2123	84.434	0.31267	 	2.08903E36	 	8.25091E-37	 	594.84547	26.93057	 
75.0	1.0	0.0	8.92208	7.10568	-9.78239	13.66631	11.9689	0.71265	1.40321	221.95222	197.26055	84.55508	0.31247	 	7.957569999999999E36	 	2.13537E-37	 	460.71714	26.82567	 
70.0	1.0	0.0	8.92392	7.10422	-9.80104	13.65096	11.86793	0.70839	1.41164	222.23642	197.30806	84.67593	0.31228	 	3.1516899999999997E37	 	5.31407E-38	 	327.1091	26.72161	 
65.0	1.0	0.0	8.92576	7.10275	-9.81964	13.63558	11.76691	0.70407	1.42032	222.51989	197.35484	84.79653	0.31208	 	1.30012E38	 	1.26944E-38	 	194.01745	26.61833	 
60.0	1.0	0.0	8.9276	7.10129	-9.8382	13.62017	11.66585	0.69966	1.42926	222.80264	197.40088	84.91689	0.31189	 	5.5962599999999995E38	 	2.90555E-39	 	61.43857	26.51578	 
55.0	1.0	0.0	8.92943	7.09983	-9.85672	13.60475	11.56473	0.69519	1.43846	223.08468	197.44619	85.03702	0.31169	 	2.5184300000000003E39	 	6.3596E-40	 	-70.63083	26.41388	 
50.0	1.0	0.0	8.93126	7.09837	-9.8752	13.5893	11.46357	0.69064	1.44794	223.366	197.49078	85.1569	0.3115	 	1.18734E40	 	1.32836E-40	 	-202.1937	26.31257	 
45.0	1.0	0.0	8.93309	7.09692	-9.89363	13.57384	11.36235	0.68601	1.45771	223.6466	197.53464	85.27655	0.3113	 	5.87745E40	 	2.64198E-41	 	-333.25268	26.2118	 
40.0	1.0	0.0	8.93491	7.09547	-9.91203	13.55835	11.26108	0.6813	1.46778	223.92649	197.57779	85.39597	0.31111	 	3.0618500000000003E41	 	4.99177E-42	 	-463.81001	26.11147	 
35.0	1.0	0.0	8.93673	7.09403	-9.93038	13.54284	11.15975	0.67651	1.47818	224.20567	197.62023	85.51515	0.31091	 	1.68283E42	 	8.93734E-43	 	-593.86757	26.01151	 
30.0	1.0	0.0	8.93855	7.09259	-9.94869	13.52731	11.05838	0.67163	1.48891	224.48415	197.66196	85.63409	0.31072	 	9.78384E42	 	1.51229E-43	 	-723.42683	25.91185	 
25.0	1.0	0.0	8.94037	7.09115	-9.96696	 	10.95695	0.66667	1.49999	224.76192	197.70299	85.75281	0.31052	 	6.03418E43	 	2.41159E-44	 	-852.48885	 	 
