T (C)	Fraction solid (wt)-TOTAL	Fraction liquid (wt)-LIQUID	Density (g/(cm)^3)-TOTAL	Molar volume (cm^3)-TOTAL	Volume change (%)-  	Average expansion coeff. (10e-6 1/K)-  	Thermal conductivity (W/(m*K))-TOTAL	Electrical resistivity (10e-6 Ohm*m)-TOTAL	Electrical conductivity (10e6 1/(Ohm*m))-TOTAL	Young's modulus (GPa)-TOTAL	Bulk modulus (GPa)-TOTAL	Shear modulus(GPa)-TOTAL	Poisson's ratio-TOTAL	Liquid viscosity (mPa s)-  	Total viscosity (mPa s)-  	Liquid diffusivity (10e-9 (m^2)/s)-  	Total diffusivity (10e-9 (m^2)/s)-  	Surface Tension (mN/m)-  	Enthalpy (J/mole)-TOTAL	Specific heat (J/(mole K))-TOTAL	Latent heat (J/mole)-TOTAL
1400.0	0.0	1.0	8.27839	7.97932	0.0	28.29801	31.07965	1.31894	0.75818	0.0	140.15528	0.0	0.5	10.35995	10.35995	0.78825	0.78825	1874.77916	58916.027	 	0.0
1395.0	0.0	1.0	8.28247	7.97539	-0.0492546	28.26746	30.98078	1.31919	0.75804	0.0	140.31827	0.0	0.5	10.48155	10.48155	0.77678	0.77678	1876.66589	58717.015	39.8024	0.0
1390.0	0.0	1.0	8.28654	7.97147	-0.0983618	28.23708	30.88192	1.31945	0.75789	0.0	140.48126	0.0	0.5	10.60532	10.60532	0.76541	0.76541	1878.55253	58518.472	39.7086	0.0
1385.0	0.0	1.0	8.2906	7.96757	-0.14732	28.20689	30.78306	1.31971	0.75774	0.0	140.64425	0.0	0.5	10.73132	10.73132	0.75415	0.75415	1880.43908	58320.396	39.6152	0.0
1380.0	0.0	1.0	8.29466	7.96367	-0.19613	28.17688	30.68419	1.31997	0.75759	0.0	140.80724	0.0	0.5	10.85959	10.85959	0.74299	0.74299	1882.32555	58122.783	39.5226	0.0
1375.0	0.0	1.0	8.2987	7.95979	-0.2448	28.14705	30.58533	1.32023	0.75744	0.0	140.97023	0.0	0.5	10.99018	10.99018	0.73195	0.73195	1884.21192	57925.628	39.431	0.0
1372.17	0.0	1.0	8.30099	7.9576	-0.27227	28.13026	30.5294	1.32038	0.75736	0.0	141.06244	0.0	0.5	11.06512	11.06512	0.72574	0.72574	1885.27914	57814.287	39.3591	0.0
1370.0	0.12163	0.87837	8.34381	7.91676	-0.78409	26.75914	30.90072	1.30279	0.76758	0.024995	142.60222	0.00842472	0.48343	11.21585	24.61103	0.71504	0.32586	1887.50949	56265.141	713.51404	1463.789
1365.0	0.35374	0.64626	8.4267	7.83893	-1.75946	24.14947	31.62605	1.26904	0.788	1.8629	145.68957	0.64183	0.45124	11.56615	877.24055	0.69128	0.00911427	1892.5828	53324.77	588.0742	4207.913
1360.0	0.51397	0.48603	8.48529	7.78462	-2.44003	22.34225	32.13668	1.24506	0.80317	8.55006	147.985	2.9926	0.42853	11.92133	4066.68368	0.66863	0.00196007	1897.5874	51275.812	409.7916	6061.072
1355.0	0.6276	0.3724	8.52778	7.74562	-2.92884	21.05817	32.49543	1.22755	0.81463	19.42137	149.74534	6.87646	0.41216	12.28148	9538.63988	0.64704	8.33095E-4	1902.52417	49797.623	295.6378	7343.909
1350.0	0.71004	0.28996	8.55935	7.71673	-3.29085	20.12062	32.74243	1.21455	0.82335	32.34574	151.13338	11.55111	0.40011	12.64644	16541.68073	0.62644	4.78923E-4	1907.39613	48694.664	220.5918	8251.956
1345.0	0.77106	0.22894	8.58334	7.69479	-3.56581	19.42141	32.90668	1.20476	0.83004	45.56456	152.25864	16.37739	0.39108	13.01615	24389.94183	0.60677	3.23813E-4	1912.20634	47844.363	170.0602	8907.785
1340.0	0.81705	0.18295	8.602	7.67772	-3.77981	18.88948	33.0097	1.19729	0.83522	58.04509	153.19463	20.96716	0.38419	13.39082	32642.49455	0.58797	2.412E-4	1916.95819	47167.955	135.2816	9390.155
1335.0	0.85227	0.14773	8.61683	7.66409	-3.95059	18.4763	33.0673	1.1915	0.83928	69.3192	153.99193	25.13672	0.37884	13.7702	41068.79694	0.57	1.91118E-4	1921.6562	46613.674	110.8562	9750.83
1330.0	0.87966	0.12034	8.62887	7.65299	-4.08975	18.15016	33.0909	1.18695	0.8425	79.25333	154.68631	28.82715	0.37463	14.15472	49574.92046	0.55279	1.57833E-4	1926.3041	46146.783	93.3782	10024.545
1325.0	0.90126	0.0987386	8.63884	7.64375	-4.20554	17.88842	33.08891	1.18332	0.84508	87.89572	155.30327	32.04926	0.37126	14.54459	58151.02227	0.53629	1.34136E-4	1930.9061	45743.523	80.652	10235.053
1320.0	0.91851	0.0814866	8.64727	7.63589	-4.30403	17.67436	33.06741	1.18038	0.84718	95.37079	155.8605	34.8444	0.36852	14.93997	66830.31389	0.52047	1.16351E-4	1935.46751	45387.353	71.234	10398.895
1315.0	0.93246	0.067542	8.65452	7.62908	-4.38933	17.49672	33.03092	1.17798	0.84891	101.82896	156.37149	37.26521	0.36627	15.34109	75670.25169	0.50527	1.02436E-4	1939.9927	45066.564	64.1578	10527.774
1310.0	0.94385	0.0561454	8.66087	7.6231	-4.46426	17.34776	32.98281	1.17598	0.85035	107.41713	156.84645	39.36424	0.3644	15.74863	84739.32779	0.49064	9.11851E-5	1944.48457	44772.738	58.7652	10630.107
1305.0	0.95326	0.0467356	8.66652	7.61775	-4.53136	17.22039	32.92559	1.1743	0.85157	112.27189	157.29236	41.19105	0.36282	16.16273	94111.34471	0.47656	8.18452E-5	1948.94942	44499.736	54.6004	10712.029
1300.0	0.96111	0.038892	8.67161	7.61291	-4.59207	17.11067	32.86116	1.17288	0.8526	116.50883	157.71514	42.78786	0.36147	16.58401	103861.511	0.46299	7.39269E-5	1953.38955	44243.019	51.3434	10778.076
1295.0	0.9677	0.032296	8.67626	7.60846	-4.6478	17.01468	32.79098	1.17165	0.85349	120.22811	158.1189	44.19152	0.36031	17.01238	114066.8298	0.44989	6.70988E-5	1957.81015	43999.188	48.7662	10831.644
1290.0	0.9733	0.0267044	8.68056	7.60433	-4.69948	16.92987	32.71618	1.17059	0.85427	123.51262	158.50701	45.43264	0.35929	17.44886	124805.2108	0.43724	6.113E-5	1962.21426	43765.668	46.704	10875.306
1285.0	0.97807	0.0219274	8.68457	7.60047	-4.74787	16.8541	32.63762	1.16965	0.85495	126.43119	158.882	46.53674	0.3584	17.89371	136155.1975	0.42501	5.5855E-5	1966.60641	43540.486	45.0364	10911.031
1283.83	0.97905	0.0209512	8.68546	7.59962	-4.75862	16.83798	32.61866	1.16945	0.8551	127.0448	158.96747	46.76904	0.35821	17.99922	138886.7618	0.4222	5.47153E-5	1967.63395	43489.156	 	10918.059
1280.0	0.98548	0.0145234	8.68979	7.5957	-4.80767	16.74385	32.56795	1.16839	0.85588	130.84114	159.32687	48.20616	0.3571	18.20577	150031.5801	0.41638	5.05263E-5	1969.51796	43287.724	50.5524	10974.735
1275.69	0.99144	0.00856461	8.69418	7.59173	-4.85739	16.65351	32.5058	1.16738	0.85662	134.50076	159.70713	49.5932	0.35604	18.43819	162872.9919	0.40999	4.64136E-5	1971.62545	43073.957	 	11026.021
1275.69	0.99144	0.00856461	8.69418	7.59173	-4.85739	16.65351	32.5058	1.16738	0.85662	134.50076	159.70713	49.5932	0.35604	18.43819	162872.9919	0.40999	4.64136E-5	1971.62546	43073.957	 	11026.021
1275.0	0.99255	0.00744952	8.69497	7.59105	-4.866	16.63714	32.49936	1.16709	0.85683	135.18433	159.7728	49.85239	0.35585	18.46261	165140.4828	0.40927	4.57558E-5	1971.81741	43037.348	50.0752	11036.448
1270.0	1.0	0.0	8.70039	7.58631	-4.92538	16.52641	32.44943	1.16511	0.85829	139.85298	160.23531	51.62403	0.35453	 	182060.6391	 	4.13694E-5	 	42779.632	51.5432	11105.894
1265.0	1.0	0.0	8.7029	7.58411	-4.95292	16.51038	32.35366	1.16477	0.85854	140.2716	160.53346	51.78484	0.35437	 	195275.2634	 	3.84448E-5	 	42607.10127	34.50615	 
1260.0	1.0	0.0	8.7054	7.58193	-4.98027	16.49477	32.25793	1.16443	0.85879	140.6897	160.83101	51.94548	0.35421	 	209544.8644	 	3.57104E-5	 	42428.23555	35.77314	 
1255.0	1.0	0.0	8.7079	7.57975	-5.00758	16.47917	32.1622	1.16409	0.85904	141.10704	161.12704	52.10587	0.35404	 	224961.0073	 	3.31547E-5	 	42249.60127	35.72686	 
1250.0	1.0	0.0	8.7104	7.57757	-5.03486	16.46356	32.06647	1.16374	0.8593	141.52364	161.42156	52.26603	0.35388	 	241623.8974	 	3.07673E-5	 	42071.19815	35.68062	 
1245.0	1.0	0.0	8.7129	7.5754	-5.06209	16.44795	31.97074	1.1634	0.85955	141.93949	161.71455	52.42595	0.35371	 	259643.1883	 	2.85381E-5	 	41893.02592	35.63445	 
1240.0	1.0	0.0	8.7154	7.57323	-5.08928	16.43233	31.875	1.16305	0.85981	142.35458	162.00604	52.58563	0.35355	 	279138.936	 	2.64575E-5	 	41715.08434	35.58832	 
1235.0	1.0	0.0	8.71789	7.57106	-5.11642	16.41672	31.77927	1.1627	0.86007	142.76893	162.29603	52.74508	0.35339	 	300242.6569	 	2.45165E-5	 	41537.37314	35.54224	 
1230.0	1.0	0.0	8.72038	7.5689	-5.14353	16.4011	31.68354	1.16234	0.86033	143.18253	162.58452	52.90428	0.35322	 	323098.4997	 	2.27067E-5	 	41359.89205	35.49622	 
1225.0	1.0	0.0	8.72287	7.56674	-5.1706	16.38547	31.5878	1.16199	0.86059	143.59538	162.87152	53.06325	0.35306	 	347864.5455	 	2.102E-5	 	41182.64084	35.45024	 
1220.0	1.0	0.0	8.72536	7.56459	-5.19762	16.36985	31.49207	1.16163	0.86086	144.00748	163.15703	53.22198	0.35289	 	374714.2502	 	1.94487E-5	 	41005.61922	35.40432	 
1215.0	1.0	0.0	8.72784	7.56243	-5.22461	16.35422	31.39634	1.16127	0.86112	144.41883	163.44105	53.38047	0.35273	 	403838.0466	 	1.79857E-5	 	40828.82693	35.35846	 
1210.0	1.0	0.0	8.73033	7.56028	-5.25155	16.33859	31.3006	1.16091	0.86139	144.82944	163.7236	53.53872	0.35257	 	435445.1233	 	1.66241E-5	 	40652.26373	35.31264	 
1205.0	1.0	0.0	8.73281	7.55814	-5.27845	16.32296	31.20487	1.16055	0.86166	145.23929	164.00467	53.69674	0.3524	 	469765.4034	 	1.53576E-5	 	40475.92936	35.26687	 
1200.0	1.0	0.0	8.73528	7.55599	-5.30531	16.30733	31.10913	1.16018	0.86194	145.64839	164.28428	53.85451	0.35224	 	507051.7451	 	1.41802E-5	 	40299.82357	35.22116	 
1195.0	1.0	0.0	8.73776	7.55385	-5.33213	16.29169	31.0134	1.15981	0.86221	146.05675	164.56242	54.01205	0.35208	 	547582.3903	 	1.3086E-5	 	40123.94607	35.1755	 
1190.0	1.0	0.0	8.74023	7.55172	-5.35891	16.27606	30.91766	1.15944	0.86249	146.46436	164.83911	54.16935	0.35191	 	591663.6932	 	1.20698E-5	 	39948.29664	35.12989	 
1185.0	1.0	0.0	8.7427	7.54958	-5.38564	16.26042	30.82192	1.15907	0.86276	146.87121	165.11434	54.3264	0.35175	 	639633.1601	 	1.11265E-5	 	39772.87501	35.08433	 
1180.0	1.0	0.0	8.74517	7.54745	-5.41233	16.24478	30.72619	1.15869	0.86304	147.27732	165.38812	54.48322	0.35158	 	691862.8392	 	1.02513E-5	 	39597.68093	35.03882	 
1175.0	1.0	0.0	8.74763	7.54533	-5.43899	16.22914	30.63045	1.15831	0.86332	147.68268	165.66046	54.6398	0.35142	 	748763.1042	 	9.43965E-6	 	39422.71413	34.99336	 
1170.0	1.0	0.0	8.75009	7.5432	-5.4656	16.2135	30.53471	1.15793	0.86361	148.08729	165.93136	54.79614	0.35126	 	810786.878	 	8.68743E-6	 	39247.97438	34.94795	 
1165.0	1.0	0.0	8.75255	7.54108	-5.49217	16.19786	30.43898	1.15755	0.86389	148.49115	166.20082	54.95225	0.35109	 	878434.3523	 	7.99064E-6	 	39073.46141	34.90259	 
1160.0	1.0	0.0	8.75501	7.53897	-5.51869	16.18221	30.34324	1.15717	0.86418	148.89426	166.46886	55.10811	0.35093	 	952258.2649	 	7.34554E-6	 	38899.17496	34.85729	 
1155.0	1.0	0.0	8.75747	7.53685	-5.54518	16.16657	30.2475	1.15678	0.86447	149.29662	166.73547	55.26373	0.35076	 	1032869.804	 	6.74862E-6	 	38725.11479	34.81203	 
1150.0	1.0	0.0	8.75992	7.53474	-5.57162	16.15093	30.15176	1.15639	0.86476	149.69824	167.00066	55.41911	0.3506	 	1120945.216	 	6.19659E-6	 	38551.28063	34.76683	 
1145.0	1.0	0.0	8.76237	7.53264	-5.59802	16.13529	30.05602	1.156	0.86505	150.0991	167.26443	55.57426	0.35044	 	1217233.215	 	5.68637E-6	 	38377.67225	34.72168	 
1140.0	1.0	0.0	8.76482	7.53053	-5.62438	16.11964	29.96028	1.1556	0.86535	150.49922	167.52679	55.72916	0.35027	 	1322563.281	 	5.21505E-6	 	38204.28939	34.67657	 
1135.0	1.0	0.0	8.76726	7.52843	-5.6507	16.104	29.86454	1.15521	0.86565	150.89858	167.78775	55.88382	0.35011	 	1437854.978	 	4.77992E-6	 	38031.13179	34.63152	 
1130.0	1.0	0.0	8.7697	7.52634	-5.67697	16.08836	29.7688	1.15481	0.86595	151.2972	168.0473	56.03825	0.34995	 	1564128.406	 	4.37843E-6	 	37858.1992	34.58652	 
1125.0	1.0	0.0	8.77214	7.52424	-5.7032	16.07272	29.67306	1.1544	0.86625	151.69507	168.30546	56.19243	0.34978	 	1702515.954	 	4.0082E-6	 	37685.49136	34.54157	 
1120.0	1.0	0.0	8.77458	7.52215	-5.72939	16.05708	29.57732	1.154	0.86655	152.09218	168.56222	56.34638	0.34962	 	1854275.508	 	3.667E-6	 	37513.00804	34.49666	 
1115.0	1.0	0.0	8.77701	7.52007	-5.75554	16.04144	29.48158	1.15359	0.86686	152.48855	168.8176	56.50008	0.34945	 	2020805.308	 	3.35273E-6	 	37340.74897	34.45181	 
1110.0	1.0	0.0	8.77944	7.51798	-5.78164	16.0258	29.38584	1.15318	0.86717	152.88417	169.07159	56.65354	0.34929	 	2203660.682	 	3.06345E-6	 	37168.71389	34.40701	 
1105.0	1.0	0.0	8.78187	7.51591	-5.80771	16.01016	29.2901	1.15277	0.86748	153.27905	169.32421	56.80677	0.34913	 	2404572.903	 	2.79734E-6	 	36996.90257	34.36227	 
1100.0	1.0	0.0	8.7843	7.51383	-5.83373	15.99453	29.19435	1.15235	0.86779	153.67317	169.57545	56.95975	0.34896	 	2625470.438	 	2.55269E-6	 	36825.31475	34.31756	 
1095.0	1.0	0.0	8.78672	7.51176	-5.8597	15.9789	29.09861	1.15193	0.86811	154.06654	169.82531	57.11249	0.3488	 	2868502.948	 	2.3279E-6	 	36653.95016	34.27292	 
1090.0	1.0	0.0	8.78915	7.50969	-5.88564	15.96326	29.00287	1.15151	0.86842	154.45916	170.07382	57.26499	0.34864	 	3136068.371	 	2.12151E-6	 	36482.80857	34.22832	 
1085.0	1.0	0.0	8.79156	7.50762	-5.91153	15.94764	28.90712	1.15109	0.86874	154.85104	170.32096	57.41725	0.34847	 	3430843.541	 	1.93212E-6	 	36311.88972	34.18377	 
1080.0	1.0	0.0	8.79398	7.50556	-5.93738	15.93201	28.81138	1.15066	0.86906	155.24216	170.56675	57.56927	0.34831	 	3755818.821	 	1.75844E-6	 	36141.19335	34.13927	 
1075.0	1.0	0.0	8.79639	7.5035	-5.96319	15.91639	28.71564	1.15023	0.86939	155.63254	170.81118	57.72105	0.34814	 	4114337.299	 	1.59928E-6	 	35970.71923	34.09482	 
1070.0	1.0	0.0	8.7988	7.50144	-5.98895	15.90077	28.61989	1.1498	0.86972	156.02217	171.05426	57.87259	0.34798	 	4510139.199	 	1.45352E-6	 	35800.46707	34.05043	 
1065.0	1.0	0.0	8.80121	7.49939	-6.01467	15.88515	28.52415	1.14937	0.87005	156.41105	171.296	58.02389	0.34782	 	4947412.221	 	1.32012E-6	 	35630.43665	34.00608	 
1060.0	1.0	0.0	8.80362	7.49734	-6.04035	15.86954	28.4284	1.14893	0.87038	156.79918	171.53641	58.17494	0.34765	 	5430848.673	 	1.19811E-6	 	35460.62769	33.96179	 
1055.0	1.0	0.0	8.80602	7.4953	-6.06599	15.85393	28.33265	1.14849	0.87071	157.18656	171.77547	58.32576	0.34749	 	5965710.343	 	1.0866E-6	 	35291.03995	33.91755	 
1050.0	1.0	0.0	8.80842	7.49325	-6.09158	15.83832	28.23691	1.14804	0.87105	157.57319	172.01321	58.47633	0.34732	 	6557902.227	 	9.84761E-7	 	35121.67316	33.87336	 
1045.0	1.0	0.0	8.81082	7.49122	-6.11713	15.82272	28.14116	1.1476	0.87139	157.95907	172.24962	58.62666	0.34716	 	7214056.404	 	8.91809E-7	 	34952.52709	33.82921	 
1040.0	1.0	0.0	8.81321	7.48918	-6.14263	15.80712	28.04541	1.14715	0.87173	158.3442	172.48471	58.77675	0.347	 	7941627.512	 	8.07033E-7	 	34783.60146	33.78513	 
1035.0	1.0	0.0	8.8156	7.48715	-6.1681	15.79153	27.94967	1.14669	0.87207	158.72858	172.71847	58.9266	0.34683	 	8749001.543	 	7.2977E-7	 	34614.89601	33.74109	 
1030.0	1.0	0.0	8.81799	7.48512	-6.19352	15.77594	27.85392	1.14624	0.87242	159.11222	172.95093	59.07621	0.34667	 	9645619.917	 	6.59403E-7	 	34446.41051	33.6971	 
1029.54	1.0	0.0	8.81821	7.48493	-6.19585	15.77451	27.84512	1.14619	0.87245	159.14745	172.97223	59.08995	0.34665	 	9732883.512	 	6.5326E-7	 	34430.93344	 	 
1025.0	1.0	0.0	8.82118	7.48242	-6.22738	15.72876	27.85537	1.14178	0.87583	159.64892	173.33916	59.28308	0.3465	 	1.063966183E7	 	5.95503E-7	 	34231.61227	42.95965	 
1020.0	1.0	0.0	8.82442	7.47967	-6.26183	15.67891	27.8664	1.13693	0.87956	160.19893	173.74006	59.49498	0.34632	 	1.174476655E7	 	5.37392E-7	 	34012.75161	43.77213	 
1015.0	1.0	0.0	8.82764	7.47694	-6.296	15.62963	27.87697	1.13211	0.88331	160.74666	174.1377	59.70608	0.34615	 	1.297459271E7	 	4.84573E-7	 	33794.55093	43.64014	 
1010.0	1.0	0.0	8.83083	7.47424	-6.32989	15.58091	27.88715	1.1273	0.88708	161.29215	174.53213	59.9164	0.34598	 	1.43443115E7	 	4.36601E-7	 	33577.00092	43.51	 
1005.0	1.0	0.0	8.834	7.47156	-6.3635	15.53274	27.897	1.12251	0.89086	161.83544	174.92342	60.12595	0.3458	 	1.587107046E7	 	3.93063E-7	 	33360.09248	43.38169	 
1000.0	1.0	0.0	8.83715	7.4689	-6.39684	15.4851	27.90655	1.11774	0.89467	162.37658	175.31162	60.33476	0.34563	 	1.757426786E7	 	3.53581E-7	 	33143.81661	43.25517	 
995.0	1.0	0.0	8.84027	7.46626	-6.42991	15.438	27.91582	1.11298	0.89849	162.9156	175.6968	60.54282	0.34546	 	1.947586735E7	 	3.17805E-7	 	32928.16448	43.13043	 
990.0	1.0	0.0	8.84337	7.46364	-6.46272	15.39143	27.92483	1.10823	0.90234	163.45255	176.07899	60.75016	0.34528	 	2.160075939E7	 	2.85412E-7	 	32713.12739	43.00742	 
985.0	1.0	0.0	8.84645	7.46104	-6.49527	15.34538	27.9336	1.1035	0.90621	163.98746	176.45827	60.9568	0.34511	 	2.397717658E7	 	2.56107E-7	 	32498.69677	42.88612	 
980.0	1.0	0.0	8.84951	7.45847	-6.52757	15.29983	27.94214	1.09878	0.9101	164.52037	176.83466	61.16274	0.34494	 	2.66371716E7	 	2.29616E-7	 	32284.86421	42.76651	 
975.0	1.0	0.0	8.85254	7.45591	-6.55961	15.2548	27.95048	1.09407	0.91402	165.05132	177.20823	61.368	0.34477	 	2.961716757E7	 	2.05688E-7	 	32071.62141	42.64856	 
970.0	1.0	0.0	8.85555	7.45337	-6.59141	15.21026	27.95862	1.08937	0.91796	165.58034	177.57902	61.57258	0.34459	 	3.295859249E7	 	1.84095E-7	 	31858.96023	42.53224	 
965.0	1.0	0.0	8.85855	7.45085	-6.62296	15.16622	27.96658	1.08468	0.92193	166.10745	177.94707	61.77651	0.34442	 	3.670861133E7	 	1.64624E-7	 	31646.87264	42.41752	 
960.0	1.0	0.0	8.86152	7.44836	-6.65427	15.12267	27.97439	1.07999	0.92593	166.6327	178.31243	61.97979	0.34425	 	4.092097164E7	 	1.47081E-7	 	31435.35077	42.30438	 
955.0	1.0	0.0	8.86447	7.44588	-6.68535	15.0796	27.98204	1.07532	0.92995	167.15612	178.67514	62.18244	0.34408	 	4.565698128E7	 	1.3129E-7	 	31224.38683	42.19279	 
950.0	1.0	0.0	8.8674	7.44341	-6.71619	15.037	27.98956	1.07066	0.93401	167.67772	179.03523	62.38446	0.34391	 	5.098664013E7	 	1.17087E-7	 	31013.97322	42.08272	 
945.0	1.0	0.0	8.87031	7.44097	-6.74679	14.99488	27.99696	1.066	0.93809	168.19754	179.39276	62.58586	0.34373	 	5.698995124E7	 	1.04325E-7	 	30804.10243	41.97416	 
940.0	1.0	0.0	8.8732	7.43855	-6.77717	14.95322	28.00427	1.06134	0.9422	168.71561	179.74775	62.78666	0.34356	 	6.375844164E7	 	9.28674E-8	 	30594.76709	41.86707	 
935.0	1.0	0.0	8.87607	7.43614	-6.80733	14.91203	28.01148	1.0567	0.94634	169.23195	180.10024	62.98686	0.34339	 	7.139692807E7	 	8.25901E-8	 	30385.95995	41.76143	 
930.0	1.0	0.0	8.87892	7.43375	-6.83726	14.87129	28.01862	1.05206	0.95052	169.74658	180.45027	63.18647	0.34322	 	8.002556954E7	 	7.338E-8	 	30177.67389	41.65721	 
925.0	1.0	0.0	8.88176	7.43138	-6.86698	14.83101	28.0257	1.04742	0.95473	170.25954	180.79787	63.3855	0.34305	 	8.978225539E7	 	6.51339E-8	 	29969.90192	41.55439	 
920.0	1.0	0.0	8.88457	7.42903	-6.89648	14.79117	28.03273	1.04279	0.95897	170.77083	181.14307	63.58396	0.34288	 	1.008253874E8	 	5.7758E-8	 	29762.63716	41.45295	 
915.0	1.0	0.0	8.88737	7.42669	-6.92576	14.75178	28.03974	1.03816	0.96324	171.28049	181.48591	63.78186	0.34271	 	1.133371243E8	 	5.11665E-8	 	29555.87286	41.35286	 
910.0	1.0	0.0	8.89014	7.42437	-6.95484	14.71283	28.04673	1.03353	0.96756	171.78854	181.82641	63.9792	0.34253	 	1.275271694E8	 	4.52818E-8	 	29349.6024	41.25409	 
905.0	1.0	0.0	8.8929	7.42207	-6.98371	14.67431	28.05372	1.02891	0.9719	172.29499	182.1646	64.17599	0.34236	 	1.43637198E8	 	4.00332E-8	 	29143.81927	41.15663	 
900.0	1.0	0.0	8.89564	7.41978	-7.01237	14.63623	28.06072	1.02429	0.97629	172.79986	182.50051	64.37224	0.34219	 	1.619460386E8	 	3.53566E-8	 	28938.51709	41.06044	 
895.0	1.0	0.0	8.89837	7.41751	-7.04083	14.59857	28.06775	1.01966	0.98072	173.30318	182.83417	64.56796	0.34202	 	1.827757423E8	 	3.11937E-8	 	28733.68961	40.9655	 
890.0	1.0	0.0	8.90107	7.41526	-7.06909	14.56135	28.07482	1.01504	0.98518	173.80495	183.1656	64.76314	0.34185	 	2.064987025E8	 	2.74919E-8	 	28529.33066	40.87179	 
885.0	1.0	0.0	8.90376	7.41302	-7.09715	14.52454	28.08195	1.01042	0.98968	174.3052	183.49483	64.9578	0.34168	 	2.33546016E8	 	2.42035E-8	 	28325.43424	40.77928	 
880.0	1.0	0.0	8.90643	7.41079	-7.12502	14.48815	28.08915	1.0058	0.99423	174.80394	183.82188	65.15195	0.34151	 	2.644173137E8	 	2.12854E-8	 	28121.99446	40.68796	 
875.0	1.0	0.0	8.90909	7.40858	-7.15269	14.45218	28.09643	1.00118	0.99882	175.30118	184.14677	65.34558	0.34134	 	2.996923335E8	 	1.86986E-8	 	27919.00552	40.59779	 
870.0	1.0	0.0	8.91173	7.40639	-7.18018	14.41662	28.10382	0.99656	1.00345	175.79694	184.46953	65.5387	0.34117	 	3.400445615E8	 	1.64079E-8	 	27716.46177	40.50875	 
865.0	1.0	0.0	8.91435	7.40421	-7.20747	14.38148	28.11131	0.99194	1.00813	176.29124	184.79017	65.73132	0.341	 	3.86257331E8	 	1.43817E-8	 	27514.35767	40.42082	 
860.0	1.0	0.0	8.91695	7.40205	-7.23458	14.34674	28.11894	0.98731	1.01285	176.78408	185.10872	65.92345	0.34083	 	4.392428467E8	 	1.25913E-8	 	27312.68778	40.33398	 
855.0	1.0	0.0	8.91954	7.3999	-7.26151	14.31241	28.12671	0.98268	1.01762	177.27548	185.4252	66.11507	0.34066	 	5.000646946E8	 	1.1011E-8	 	27111.44682	40.24819	 
850.0	1.0	0.0	8.92211	7.39777	-7.28825	14.27848	28.13463	0.97805	1.02244	177.76545	185.73961	66.30621	0.34049	 	5.699645102E8	 	9.61782E-9	 	26910.62959	40.16345	 
845.0	1.0	0.0	8.92428	7.39597	-7.31076	14.26337	28.03631	0.97711	1.02342	178.13202	185.93285	66.45101	0.34033	 	6.506448961E8	 	8.3877E-9	 	26751.72025	31.78187	 
840.0	1.0	0.0	8.92645	7.39418	-7.33323	14.24823	27.93797	0.97617	1.02441	178.49781	186.12489	66.59556	0.34016	 	7.436297541E8	 	7.30607E-9	 	26589.77099	32.38985	 
835.0	1.0	0.0	8.92861	7.39239	-7.35567	14.23307	27.83961	0.97522	1.02541	178.86282	186.31573	66.73985	0.34	 	8.50928362E8	 	6.35612E-9	 	26428.02644	32.34891	 
830.0	1.0	0.0	8.93077	7.3906	-7.37807	14.2179	27.74124	0.97426	1.02642	179.22706	186.50538	66.88388	0.33984	 	9.748995459E8	 	5.52283E-9	 	26266.48611	32.30807	 
825.0	1.0	0.0	8.93292	7.38882	-7.40043	14.2027	27.64285	0.9733	1.02744	179.59053	186.69384	67.02767	0.33967	 	1.118316192E9	 	4.79274E-9	 	26105.14952	32.26732	 
820.0	1.0	0.0	8.93508	7.38703	-7.42276	14.18747	27.54444	0.97233	1.02846	179.95322	186.88112	67.17119	0.33951	 	1.284442346E9	 	4.15386E-9	 	25944.01619	32.22667	 
815.0	1.0	0.0	8.93723	7.38526	-7.44505	14.17223	27.44601	0.97135	1.0295	180.31513	187.06721	67.31447	0.33935	 	1.477125481E9	 	3.59549E-9	 	25783.08559	32.18612	 
810.0	1.0	0.0	8.93938	7.38348	-7.46731	14.15697	27.34756	0.97037	1.03054	180.67627	187.25213	67.45748	0.33919	 	1.700907096E9	 	3.1081E-9	 	25622.3572	32.14568	 
805.0	1.0	0.0	8.94153	7.38171	-7.48953	14.14168	27.24909	0.96938	1.03159	181.03664	187.43588	67.60025	0.33902	 	1.961155459E9	 	2.68321E-9	 	25461.83051	32.10534	 
800.0	1.0	0.0	8.94367	7.37994	-7.51171	14.12638	27.15061	0.96838	1.03265	181.39622	187.61845	67.74275	0.33886	 	2.264225187E9	 	2.31328E-9	 	25301.50496	32.06511	 
795.0	1.0	0.0	8.94581	7.37817	-7.53386	14.11105	27.05211	0.96738	1.03372	181.75504	187.79986	67.88501	0.3387	 	2.617649362E9	 	1.99162E-9	 	25141.38001	32.02499	 
790.0	1.0	0.0	8.94795	7.37641	-7.55596	14.0957	26.95358	0.96637	1.0348	182.11307	187.9801	68.02701	0.33854	 	3.03037119E9	 	1.71232E-9	 	24981.45507	31.98499	 
785.0	1.0	0.0	8.95009	7.37465	-7.57804	14.08033	26.85504	0.96536	1.03589	182.47034	188.15918	68.16875	0.33837	 	3.513023753E9	 	1.47012E-9	 	24821.72957	31.9451	 
780.0	1.0	0.0	8.95222	7.37289	-7.60007	14.06494	26.75648	0.96433	1.03699	182.82682	188.33711	68.31023	0.33821	 	4.078268396E9	 	1.26038E-9	 	24662.20291	31.90533	 
775.0	1.0	0.0	8.95436	7.37113	-7.62207	14.04952	26.6579	0.9633	1.03809	183.18254	188.51389	68.45147	0.33805	 	4.741204667E9	 	1.079E-9	 	24502.87449	31.86569	 
770.0	1.0	0.0	8.95648	7.36938	-7.64403	14.03409	26.5593	0.96227	1.03921	183.53747	188.68951	68.59244	0.33788	 	5.519867761E9	 	9.22369E-10	 	24343.74366	31.82616	 
765.0	1.0	0.0	8.95861	7.36763	-7.66595	14.01863	26.46068	0.96123	1.04034	183.89163	188.86399	68.73316	0.33772	 	6.435833129E9	 	7.87303E-10	 	24184.80979	31.78677	 
760.0	1.0	0.0	8.96074	7.36588	-7.68784	14.00316	26.36204	0.96018	1.04148	184.24502	189.03733	68.87363	0.33756	 	7.514952565E9	 	6.71002E-10	 	24026.07222	31.74751	 
755.0	1.0	0.0	8.96286	7.36414	-7.70969	13.98766	26.26338	0.95912	1.04262	184.59763	189.20952	69.01384	0.3374	 	8.788251862E9	 	5.71006E-10	 	23867.53025	31.70839	 
750.0	1.0	0.0	8.96498	7.3624	-7.7315	13.97214	26.1647	0.95805	1.04378	184.94946	189.38058	69.15379	0.33723	 	1.0293E10	 	4.85158E-10	 	23709.18319	31.66941	 
745.0	1.0	0.0	8.96709	7.36066	-7.75327	13.9566	26.066	0.95698	1.04495	185.30052	189.55051	69.29349	0.33707	 	1.2074199999999998E10	 	4.11567E-10	 	23551.03034	31.63057	 
740.0	1.0	0.0	8.9692	7.35893	-7.77501	13.94103	25.96728	0.9559	1.04613	185.6508	189.71931	69.43293	0.33691	 	1.4185899999999998E10	 	3.48581E-10	 	23393.07095	31.59188	 
735.0	1.0	0.0	8.97132	7.3572	-7.7967	13.92545	25.86853	0.95482	1.04732	186.00031	189.88699	69.57211	0.33674	 	1.6693599999999998E10	 	2.94755E-10	 	23235.30426	31.55334	 
730.0	1.0	0.0	8.97342	7.35547	-7.81836	13.90985	25.76977	0.95372	1.04852	186.34904	190.05354	69.71104	0.33658	 	1.96765E10	 	2.48831E-10	 	23077.72948	31.51496	 
725.0	1.0	0.0	8.97553	7.35374	-7.83999	13.89422	25.67099	0.95262	1.04974	186.697	190.21897	69.84971	0.33642	 	2.32307E10	 	2.09711E-10	 	22920.34582	31.47673	 
720.0	1.0	0.0	8.97763	7.35202	-7.86157	13.87857	25.57218	0.95151	1.05096	187.04417	190.38329	69.98813	0.33626	 	2.7472699999999996E10	 	1.76441E-10	 	22763.15243	31.43868	 
715.0	1.0	0.0	8.97973	7.3503	-7.88312	13.8629	25.47335	0.95039	1.0522	187.39058	190.54649	70.12628	0.33609	 	3.2544499999999996E10	 	1.48195E-10	 	22606.14847	31.40079	 
710.0	1.0	0.0	8.98183	7.34859	-7.90463	13.84721	25.3745	0.94927	1.05344	187.73621	190.70858	70.26419	0.33593	 	3.86191E10	 	1.24252E-10	 	22449.33306	31.36308	 
705.0	1.0	0.0	8.98392	7.34687	-7.92609	13.8315	25.27563	0.94813	1.0547	188.08106	190.86957	70.40183	0.33577	 	4.59079E10	 	1.03993E-10	 	22292.70529	31.32555	 
700.0	1.0	0.0	8.98601	7.34516	-7.94753	13.81577	25.17674	0.94699	1.05598	188.42513	191.02946	70.53922	0.33561	 	5.466929999999999E10	 	8.68807E-11	 	22136.26422	31.28822	 
695.0	1.0	0.0	8.9881	7.34346	-7.96892	13.80002	25.07783	0.94584	1.05726	188.76843	191.18824	70.67635	0.33544	 	6.522039999999999E10	 	7.24513E-11	 	21980.00887	31.25107	 
690.0	1.0	0.0	8.99019	7.34175	-7.99027	13.78424	24.97889	0.94468	1.05855	189.11096	191.34593	70.81322	0.33528	 	7.79505E10	 	6.03062E-11	 	21823.93826	31.21412	 
685.0	1.0	0.0	8.99227	7.34005	-8.01159	13.76844	24.87993	0.94352	1.05986	189.45271	191.50253	70.94983	0.33512	 	9.333889999999998E10	 	5.01023E-11	 	21668.05134	31.17738	 
680.0	1.0	0.0	8.99435	7.33835	-8.03287	13.75263	24.78095	0.94234	1.06118	189.79368	191.65803	71.08619	0.33495	 	1.11977E11	 	4.15452E-11	 	21512.34705	31.14086	 
675.0	1.0	0.0	8.99643	7.33666	-8.05411	13.73679	24.68194	0.94116	1.06252	190.13387	191.81245	71.22229	0.33479	 	1.34594E11	 	3.43825E-11	 	21356.82429	31.10455	 
670.0	1.0	0.0	8.99851	7.33497	-8.07531	13.72093	24.58291	0.93997	1.06386	190.47329	191.96579	71.35813	0.33463	 	1.62096E11	 	2.83985E-11	 	21201.4819	31.06848	 
665.0	1.0	0.0	9.00058	7.33328	-8.09647	13.70504	24.48386	0.93877	1.06523	190.81193	192.11804	71.49372	0.33447	 	1.95604E11	 	2.34089E-11	 	21046.31871	31.03264	 
660.0	1.0	0.0	9.00265	7.33159	-8.11759	13.68914	24.38479	0.93756	1.0666	191.1498	192.26922	71.62904	0.3343	 	2.36515E11	 	1.92566E-11	 	20891.33349	30.99704	 
655.0	1.0	0.0	9.00471	7.32991	-8.13867	13.67322	24.28569	0.93634	1.06799	191.48689	192.41932	71.76411	0.33414	 	2.86568E11	 	1.5808E-11	 	20736.52499	30.9617	 
650.0	1.0	0.0	9.00678	7.32823	-8.15971	13.65727	24.18657	0.93511	1.06939	191.8232	192.56835	71.89892	0.33398	 	3.47937E11	 	1.29497E-11	 	20581.89187	30.92662	 
645.0	1.0	0.0	9.00884	7.32656	-8.18072	13.6413	24.08742	0.93388	1.07081	192.15873	192.71632	72.03347	0.33382	 	4.23342E11	 	1.05854E-11	 	20427.43278	30.89182	 
640.0	1.0	0.0	9.01089	7.32488	-8.20168	13.62532	23.98825	0.93263	1.07224	192.49349	192.86321	72.16777	0.33365	 	5.16196E11	 	8.63404E-12	 	20273.1463	30.85729	 
635.0	1.0	0.0	9.01295	7.32321	-8.22261	13.60931	23.88905	0.93138	1.07368	192.82748	193.00905	72.3018	0.33349	 	6.30793E11	 	7.0268E-12	 	20119.03096	30.82307	 
630.0	1.0	0.0	9.015	7.32155	-8.24349	13.59327	23.78983	0.93011	1.07514	193.16068	193.15383	72.43558	0.33333	 	7.72543E11	 	5.7059E-12	 	19965.08526	30.78914	 
625.0	1.0	0.0	9.01705	7.31988	-8.26434	13.57722	23.69059	0.92884	1.07662	193.49311	193.29755	72.56909	0.33316	 	9.48284E11	 	4.62271E-12	 	19811.30759	30.75553	 
620.0	1.0	0.0	9.01909	7.31822	-8.28514	13.56115	23.59132	0.92755	1.07811	193.82476	193.44022	72.70235	0.333	 	1.16668E12	 	3.73646E-12	 	19657.69631	30.72225	 
615.0	1.0	0.0	9.02114	7.31657	-8.30591	13.54505	23.49202	0.92626	1.07961	194.15564	193.58183	72.83535	0.33284	 	1.43872E12	 	3.01298E-12	 	19504.24973	30.68932	 
610.0	1.0	0.0	9.02318	7.31491	-8.32664	13.52894	23.3927	0.92495	1.08113	194.48573	193.7224	72.96809	0.33268	 	1.77842E12	 	2.42375E-12	 	19350.96605	30.65674	 
605.0	1.0	0.0	9.02521	7.31326	-8.34732	13.5128	23.29336	0.92364	1.08267	194.81505	193.86193	73.10057	0.33251	 	2.20363E12	 	1.94498E-12	 	19197.84343	30.62452	 
600.0	1.0	0.0	9.02725	7.31161	-8.36797	13.49664	23.19398	0.92232	1.08423	195.14359	194.00042	73.23279	0.33235	 	2.73723E12	 	1.55691E-12	 	19044.87995	30.5927	 
595.0	1.0	0.0	9.02928	7.30997	-8.38858	13.48046	23.09459	0.92098	1.0858	195.47136	194.13787	73.36475	0.33219	 	3.40853E12	 	1.24312E-12	 	18892.07358	30.56127	 
590.0	1.0	0.0	9.0313	7.30833	-8.40914	13.46426	22.99516	0.91964	1.08739	195.79835	194.27428	73.49645	0.33203	 	4.25527E12	 	9.90025E-13	 	18739.42226	30.53026	 
585.0	1.0	0.0	9.03333	7.30669	-8.42967	13.44804	22.89571	0.91828	1.08899	196.12456	194.40966	73.62789	0.33186	 	5.3261E12	 	7.86394E-13	 	18586.92378	30.4997	 
580.0	1.0	0.0	9.03535	7.30506	-8.45015	13.43179	22.79623	0.91691	1.09062	196.44999	194.54401	73.75908	0.3317	 	6.68398E12	 	6.22984E-13	 	18434.57588	30.46958	 
575.0	1.0	0.0	9.03737	7.30342	-8.4706	13.41553	22.69672	0.91554	1.09226	196.77465	194.67733	73.89	0.33154	 	8.41053E12	 	4.92194E-13	 	18282.37619	30.43994	 
570.0	1.0	0.0	9.03938	7.3018	-8.491	13.39924	22.59719	0.91415	1.09391	197.09852	194.80963	74.02066	0.33138	 	1.06119E13	 	3.8779E-13	 	18130.3222	30.4108	 
565.0	1.0	0.0	9.0414	7.30017	-8.51137	13.38293	22.49763	0.91275	1.09559	197.42162	194.94091	74.15106	0.33121	 	1.34268E13	 	3.04675E-13	 	17978.41135	30.38217	 
560.0	1.0	0.0	9.0434	7.29855	-8.53169	13.3666	22.39804	0.91134	1.09729	197.74394	195.07118	74.2812	0.33105	 	1.70363E13	 	2.38691E-13	 	17826.6409	30.35409	 
555.0	1.0	0.0	9.04541	7.29693	-8.55197	13.35025	22.29843	0.90992	1.099	198.06549	195.20043	74.41108	0.33089	 	2.16783E13	 	1.86453E-13	 	17675.00802	30.32657	 
550.0	1.0	0.0	9.04741	7.29532	-8.57221	13.33388	22.19878	0.90848	1.10074	198.38625	195.32866	74.5407	0.33072	 	2.76661E13	 	1.45217E-13	 	17523.50974	30.29966	 
545.0	1.0	0.0	9.04941	7.2937	-8.59241	13.31749	22.09911	0.90704	1.10249	198.70624	195.45589	74.67006	0.33056	 	3.54132E13	 	1.1276E-13	 	17372.14294	30.27336	 
540.0	1.0	0.0	9.05141	7.2921	-8.61257	13.30107	21.99941	0.90558	1.10427	199.02545	195.58211	74.79915	0.3304	 	4.54675E13	 	8.72883E-14	 	17220.90434	30.24772	 
535.0	1.0	0.0	9.0534	7.29049	-8.63269	13.28464	21.89967	0.90411	1.10606	199.34388	195.70732	74.92799	0.33024	 	5.85572E13	 	6.73594E-14	 	17069.79054	30.22276	 
530.0	1.0	0.0	9.05539	7.28889	-8.65277	13.26818	21.79991	0.90263	1.10788	199.66153	195.83154	75.05656	0.33007	 	7.56532E13	 	5.18151E-14	 	16918.79791	30.19853	 
525.0	1.0	0.0	9.05738	7.28729	-8.6728	13.2517	21.70012	0.90113	1.10972	199.9784	195.95476	75.18488	0.32991	 	9.80546E13	 	3.97286E-14	 	16767.92266	30.17505	 
520.0	1.0	0.0	9.05936	7.28569	-8.6928	13.2352	21.6003	0.89963	1.11157	200.2945	196.07698	75.31293	0.32975	 	1.2750599999999998E14	 	3.03608E-14	 	16617.16082	30.15237	 
515.0	1.0	0.0	9.06134	7.2841	-8.71275	13.21868	21.50045	0.89811	1.11346	200.60981	196.19821	75.44072	0.32959	 	1.66356E14	 	2.31237E-14	 	16466.50816	30.13053	 
510.0	1.0	0.0	9.06332	7.28251	-8.73266	13.20214	21.40057	0.89657	1.11536	200.92435	196.31845	75.56825	0.32942	 	2.17781E14	 	1.75514E-14	 	16315.96013	30.10961	 
505.0	1.0	0.0	9.06529	7.28093	-8.75253	13.18557	21.30066	0.89503	1.11728	201.23811	196.4377	75.69552	0.32926	 	2.86093E14	 	1.32753E-14	 	16165.51212	30.0896	 
500.0	1.0	0.0	9.06726	7.27935	-8.77236	13.16899	21.20072	0.89347	1.11923	201.55109	196.55597	75.82252	0.3291	 	3.7716E14	 	1.00052E-14	 	16015.15921	30.07058	 
495.0	1.0	0.0	9.06923	7.27777	-8.79214	13.15238	21.10075	0.8919	1.12121	201.86329	196.67326	75.94926	0.32894	 	4.99008E14	 	7.51321E-15	 	15864.89621	30.0526	 
490.0	1.0	0.0	9.07119	7.27619	-8.81189	13.13575	21.00074	0.89031	1.1232	202.17471	196.78957	76.07574	0.32877	 	6.62647E14	 	5.62101E-15	 	15714.71759	30.03572	 
485.0	1.0	0.0	9.07315	7.27462	-8.83159	13.11911	20.90071	0.88871	1.12523	202.48535	196.9049	76.20196	0.32861	 	8.83245E14	 	4.18948E-15	 	15564.61752	30.02001	 
480.0	1.0	0.0	9.07511	7.27305	-8.85125	13.10244	20.80064	0.8871	1.12727	202.79522	197.01926	76.32792	0.32845	 	1.18178E15	 	3.1105E-15	 	15414.58982	30.00554	 
475.0	1.0	0.0	9.07706	7.27149	-8.87086	13.08574	20.70054	0.88547	1.12935	203.1043	197.13264	76.45361	0.32828	 	1.58739E15	 	2.30034E-15	 	15264.62788	29.99239	 
470.0	1.0	0.0	9.07901	7.26992	-8.89044	13.06903	20.6004	0.88383	1.13144	203.4126	197.24506	76.57904	0.32812	 	2.1407E15	 	1.69437E-15	 	15114.72474	29.98063	 
465.0	1.0	0.0	9.08096	7.26837	-8.90997	13.0523	20.50024	0.88217	1.13357	203.72013	197.35652	76.70421	0.32796	 	2.89858E15	 	1.24293E-15	 	14964.87289	29.97037	 
460.0	1.0	0.0	9.0829	7.26681	-8.92946	13.03554	20.40004	0.8805	1.13572	204.02687	197.46701	76.82911	0.3278	 	3.94104E15	 	9.07964E-16	 	14815.06438	29.9617	 
455.0	1.0	0.0	9.08484	7.26526	-8.94891	13.01876	20.2998	0.87881	1.1379	204.33284	197.57654	76.95375	0.32763	 	5.38108E15	 	6.60448E-16	 	14665.29068	29.95474	 
450.0	1.0	0.0	9.08678	7.26371	-8.96831	13.00197	20.19954	0.87711	1.14011	204.63803	197.68512	77.07813	0.32747	 	7.379E15	 	4.78319E-16	 	14515.54264	29.94961	 
445.0	1.0	0.0	9.08871	7.26217	-8.98768	12.98515	20.09924	0.87539	1.14235	204.94243	197.79274	77.20224	0.32731	 	1.01633E16	 	3.44878E-16	 	14365.81046	29.94643	 
440.0	1.0	0.0	9.09064	7.26062	-9.00699	12.96831	19.9989	0.87366	1.14461	205.24606	197.8994	77.3261	0.32715	 	1.40612E16	 	2.47539E-16	 	14216.08359	29.94538	 
435.0	1.0	0.0	9.09257	7.25909	-9.02627	12.95144	19.89853	0.87191	1.14691	205.5489	198.00512	77.44968	0.32698	 	1.95435E16	 	1.76852E-16	 	14066.35065	29.94659	 
430.0	1.0	0.0	9.09449	7.25755	-9.0455	12.93456	19.79812	0.87014	1.14924	205.85097	198.10989	77.57301	0.32682	 	2.72907E16	 	1.25754E-16	 	13916.59934	29.95026	 
425.0	1.0	0.0	9.09641	7.25602	-9.06469	12.91766	19.69768	0.86836	1.1516	206.15226	198.21372	77.69607	0.32666	 	3.82916E16	 	8.89882E-17	 	13766.81635	29.9566	 
420.0	1.0	0.0	9.09833	7.25449	-9.08384	12.90073	19.5972	0.86656	1.15399	206.45276	198.3166	77.81886	0.3265	 	5.39901E16	 	6.26614E-17	 	13616.98719	29.96583	 
415.0	1.0	0.0	9.10024	7.25297	-9.10295	12.88378	19.49669	0.86475	1.15641	206.75249	198.41855	77.94139	0.32633	 	7.65056E16	 	4.39012E-17	 	13467.09612	29.97821	 
410.0	1.0	0.0	9.10215	7.25145	-9.12201	12.86681	19.39614	0.86291	1.15887	207.05143	198.51956	78.06366	0.32617	 	1.08965E17	 	3.05995E-17	 	13317.12588	29.99405	 
405.0	1.0	0.0	9.10405	7.24993	-9.14102	12.84982	19.29555	0.86106	1.16136	207.3496	198.61963	78.18566	0.32601	 	1.56009E17	 	2.1216E-17	 	13167.05764	30.01365	 
400.0	1.0	0.0	9.10595	7.24842	-9.16	12.83281	19.19493	0.85919	1.16388	207.64698	198.71877	78.3074	0.32585	 	2.24556E17	 	1.4631E-17	 	13016.87062	30.0374	 
395.0	1.0	0.0	9.10785	7.2469	-9.17893	12.81578	19.09427	0.85731	1.16644	207.94358	198.81699	78.42887	0.32568	 	3.24988E17	 	1.00344E-17	 	12866.54194	30.06574	 
390.0	1.0	0.0	9.10975	7.2454	-9.19781	12.79873	18.99357	0.8554	1.16904	208.23941	198.91427	78.55008	0.32552	 	4.72968E17	 	6.84332E-18	 	12716.04623	30.09914	 
385.0	1.0	0.0	9.11164	7.24389	-9.21666	12.78165	18.89283	0.85348	1.17167	208.53445	199.01064	78.67103	0.32536	 	6.92263E17	 	4.64024E-18	 	12565.35531	30.13818	 
380.0	1.0	0.0	9.11352	7.24239	-9.23546	12.76456	18.79205	0.85154	1.17434	208.82871	199.10608	78.7917	0.32519	 	1.01916E18	 	3.12792E-18	 	12414.43771	30.18352	 
375.0	1.0	0.0	9.11541	7.2409	-9.25421	12.74744	18.69123	0.84958	1.17705	209.12219	199.2006	78.91212	0.32503	 	1.50942E18	 	2.09582E-18	 	12263.25821	30.2359	 
370.0	1.0	0.0	9.11729	7.2394	-9.27292	12.7303	18.59038	0.8476	1.1798	209.41489	199.29421	79.03227	0.32487	 	2.24919E18	 	1.39564E-18	 	12111.77713	30.29622	 
365.0	1.0	0.0	9.11916	7.23792	-9.29159	12.71314	18.48948	0.8456	1.18259	209.70681	199.3869	79.15215	0.32471	 	3.37253E18	 	9.23535E-19	 	11959.9496	30.36551	 
360.0	1.0	0.0	9.12104	7.23643	-9.31021	12.69596	18.38855	0.84358	1.18543	209.99794	199.47868	79.27177	0.32454	 	5.08939E18	 	6.07194E-19	 	11807.72471	30.44498	 
355.0	1.0	0.0	9.12291	7.23495	-9.32879	12.67875	18.28757	0.84154	1.1883	210.2883	199.56955	79.39112	0.32438	 	7.73072E18	 	3.96579E-19	 	11655.04436	30.53607	 
350.0	1.0	0.0	9.12477	7.23347	-9.34732	12.66153	18.18655	0.83948	1.19122	210.57787	199.65951	79.5102	0.32422	 	1.18219E19	 	2.57271E-19	 	11501.84188	30.64049	 
345.0	1.0	0.0	9.12663	7.23199	-9.36581	12.64428	18.0855	0.83739	1.19418	210.86667	199.74857	79.62902	0.32406	 	1.82029E19	 	1.65745E-19	 	11348.04054	30.76027	 
340.0	1.0	0.0	9.12849	7.23052	-9.38426	12.62702	17.9844	0.83529	1.19719	211.15468	199.83673	79.74758	0.32389	 	2.8226E19	 	1.06024E-19	 	11193.55143	30.89782	 
335.0	1.0	0.0	9.13034	7.22905	-9.40266	12.60973	17.88325	0.83316	1.20024	211.44191	199.92399	79.86587	0.32373	 	4.40851E19	 	6.73295E-20	 	11038.27111	31.05606	 
330.0	1.0	0.0	9.13219	7.22759	-9.42101	12.59242	17.78207	0.83102	1.20335	211.72836	200.01035	79.98389	0.32357	 	6.93656E19	 	4.24392E-20	 	10882.07857	31.23851	 
325.0	1.0	0.0	9.13404	7.22613	-9.43933	12.57509	17.68084	0.82885	1.2065	212.01403	200.09582	80.10164	0.32341	 	1.0997299999999998E20	 	2.65466E-20	 	10724.83153	31.44941	 
320.0	1.0	0.0	9.13588	7.22467	-9.45759	12.55774	17.57957	0.82665	1.2097	212.29892	200.1804	80.21913	0.32324	 	1.75714E20	 	1.64758E-20	 	10566.36185	31.69394	 
315.0	1.0	0.0	9.13772	7.22322	-9.47581	12.54036	17.47825	0.82443	1.21295	212.58302	200.26408	80.33635	0.32308	 	2.8299799999999997E20	 	1.01436E-20	 	10390.50903	35.17056	 
310.0	1.0	0.0	9.13956	7.22177	-9.49399	12.52297	17.37689	0.82219	1.21626	212.86634	200.34688	80.45331	0.32292	 	4.5952699999999997E20	 	6.19378E-21	 	10202.93597	37.51461	 
305.0	1.0	0.0	9.14139	7.22032	-9.51212	12.50555	17.27548	0.81993	1.21962	213.14889	200.4288	80.57	0.32276	 	7.524539999999999E20	 	3.75014E-21	 	10017.89506	37.00818	 
300.0	1.0	0.0	9.14322	7.21888	-9.53021	12.48811	17.17403	0.81764	1.22303	213.43065	200.50983	80.68642	0.32259	 	1.24276E21	 	2.25097E-21	 	9835.24045	36.53092	 
295.0	1.0	0.0	9.14504	7.21744	-9.54825	12.47066	17.07253	0.81533	1.2265	213.71163	200.58998	80.80257	0.32243	 	2.0707400000000001E21	 	1.33913E-21	 	9654.83797	36.0805	 
290.0	1.0	0.0	9.14686	7.216	-9.56624	12.45318	16.97099	0.81299	1.23003	213.99182	200.66926	80.91846	0.32227	 	3.48181E21	 	7.89416E-22	 	9476.56421	35.65475	 
285.0	1.0	0.0	9.14868	7.21457	-9.58419	12.43567	16.8694	0.81062	1.23362	214.27124	200.74766	81.03408	0.32211	 	5.90917E21	 	4.61011E-22	 	9300.30556	35.25173	 
280.0	1.0	0.0	9.15049	7.21314	-9.60209	12.41815	16.76776	0.80823	1.23727	214.54987	200.82518	81.14944	0.32194	 	1.01251E22	 	2.66642E-22	 	9125.95737	34.86964	 
275.0	1.0	0.0	9.1523	7.21171	-9.61995	12.40061	16.66608	0.80581	1.24099	214.82772	200.90184	81.26452	0.32178	 	1.7520299999999998E22	 	1.52702E-22	 	8953.4232	34.50683	 
270.0	1.0	0.0	9.1541	7.21029	-9.63777	12.38304	16.56434	0.80336	1.24477	215.1048	200.97763	81.37934	0.32162	 	3.0624499999999997E22	 	8.65642E-23	 	8782.61409	34.16182	 
265.0	1.0	0.0	9.1559	7.20887	-9.65553	12.36546	16.46256	0.80089	1.24861	215.38108	201.05255	81.49389	0.32146	 	5.4088E22	 	4.85612E-23	 	8613.44795	33.83323	 
260.0	1.0	0.0	9.1577	7.20746	-9.67325	12.34785	16.36073	0.79839	1.25253	215.65659	201.12661	81.60817	0.32129	 	9.65532E22	 	2.69507E-23	 	8445.84893	33.5198	 
255.0	1.0	0.0	9.15949	7.20605	-9.69093	12.33022	16.25885	0.79585	1.25651	215.93132	201.19981	81.72219	0.32113	 	1.7426E23	 	1.47927E-23	 	8279.74695	33.2204	 
250.0	1.0	0.0	9.16128	7.20464	-9.70856	12.31257	16.15691	0.79329	1.26057	216.20526	201.27215	81.83594	0.32097	 	3.18075E23	 	8.02755E-24	 	8115.07713	32.93396	 
245.0	1.0	0.0	9.16306	7.20324	-9.72614	12.2949	16.05493	0.7907	1.2647	216.47842	201.34363	81.94942	0.32081	 	5.8736299999999994E23	 	4.30562E-24	 	7951.77938	32.65955	 
240.0	1.0	0.0	9.16484	7.20184	-9.74368	12.2772	15.9529	0.78808	1.26891	216.75081	201.41426	82.06263	0.32064	 	1.0976700000000001E24	 	2.2817E-24	 	7789.79802	32.39627	 
235.0	1.0	0.0	9.16662	7.20045	-9.76117	12.25949	15.85081	0.78543	1.27319	217.02241	201.48404	82.17557	0.32048	 	2.07675E24	 	1.19425E-24	 	7629.08136	32.14333	 
230.0	1.0	0.0	9.16839	7.19905	-9.77861	12.24175	15.74867	0.78274	1.27756	217.29322	201.55297	82.28825	0.32032	 	3.9792400000000003E24	 	6.17141E-25	 	7469.58135	31.9	 
225.0	1.0	0.0	9.17016	7.19767	-9.79601	12.224	15.64648	0.78003	1.28201	217.56326	201.62105	82.40065	0.32015	 	7.72474E24	 	3.14748E-25	 	7311.25335	31.6656	 
220.0	1.0	0.0	9.17192	7.19628	-9.81336	12.20622	15.54423	0.77728	1.28654	217.83252	201.68829	82.51279	0.31999	 	1.5198800000000001E25	 	1.58364E-25	 	7154.05575	31.43952	 
215.0	1.0	0.0	9.17368	7.1949	-9.83066	12.18842	15.44193	0.77449	1.29117	218.10099	201.75468	82.62466	0.31983	 	3.03219E25	 	7.85747E-26	 	6997.94979	31.22119	 
210.0	1.0	0.0	9.17544	7.19352	-9.84792	12.1706	15.33958	0.77168	1.29588	218.36868	201.82024	82.73626	0.31967	 	6.13638E25	 	3.84288E-26	 	6842.89925	31.01011	 
205.0	1.0	0.0	9.17719	7.19215	-9.86513	12.15276	15.23717	0.76882	1.30069	218.6356	201.88496	82.84759	0.3195	 	1.2602900000000002E26	 	1.85174E-26	 	6688.8703	30.80579	 
200.0	1.0	0.0	9.17894	7.19078	-9.88229	12.13489	15.1347	0.76593	1.3056	218.90173	201.94884	82.95866	0.31934	 	2.62806E26	 	8.78721E-27	 	6535.83127	30.6078	 
195.0	1.0	0.0	9.18068	7.18942	-9.89941	12.11701	15.03218	0.76301	1.3106	219.16708	202.01189	83.06945	0.31918	 	5.5669400000000005E26	 	4.10445E-27	 	6383.75253	30.41575	 
190.0	1.0	0.0	9.18242	7.18805	-9.91648	12.0991	14.9296	0.76005	1.31571	219.43165	202.07411	83.17998	0.31902	 	1.1985E27	 	1.88613E-27	 	6232.60621	30.22926	 
185.0	1.0	0.0	9.18416	7.18669	-9.9335	12.08117	14.82696	0.75704	1.32093	219.69544	202.13551	83.29024	0.31885	 	2.62377E27	 	8.52254E-28	 	6082.36617	30.04801	 
180.0	1.0	0.0	9.18589	7.18534	-9.95048	12.06322	14.72426	0.75401	1.32625	219.95845	202.19607	83.40023	0.31869	 	5.844179999999999E27	 	3.78447E-28	 	5933.00781	29.87167	 
175.0	1.0	0.0	9.18762	7.18399	-9.9674	12.04525	14.62151	0.75093	1.33169	220.22067	202.25582	83.50995	0.31853	 	1.3252E28	 	1.65055E-28	 	5784.50797	29.69997	 
170.0	1.0	0.0	9.18934	7.18264	-9.98428	12.02726	14.51869	0.74781	1.33724	220.48212	202.31474	83.6194	0.31837	 	3.06101E28	 	7.06598E-29	 	5636.84479	29.53264	 
165.0	1.0	0.0	9.19106	7.1813	-10.00112	12.00925	14.41581	0.74465	1.34292	220.74279	202.37285	83.72858	0.3182	 	7.20685E28	 	2.96732E-29	 	5489.99765	29.36943	 
160.0	1.0	0.0	9.19277	7.17996	-10.0179	11.99122	14.31287	0.74144	1.34872	221.00268	202.43014	83.8375	0.31804	 	1.73066E29	 	1.22156E-29	 	5343.94703	29.21012	 
155.0	1.0	0.0	9.19448	7.17862	-10.03464	11.97316	14.20987	0.7382	1.35465	221.26179	202.48661	83.94614	0.31788	 	4.24193E29	 	4.92628E-30	 	5198.67449	29.05451	 
150.0	1.0	0.0	9.19619	7.17729	-10.05133	11.95508	14.10681	0.73491	1.36072	221.52012	202.54228	84.05452	0.31772	 	1.06198E30	 	1.94475E-30	 	5054.16253	28.90239	 
145.0	1.0	0.0	9.19789	7.17597	-10.06797	11.93699	14.00368	0.73157	1.36692	221.77768	202.59713	84.16262	0.31755	 	2.71771E30	 	7.50959E-31	 	4910.39459	28.75359	 
140.0	1.0	0.0	9.19959	7.17464	-10.08456	11.91887	13.90049	0.72819	1.37327	222.03445	202.65118	84.27046	0.31739	 	7.11484E30	 	2.83419E-31	 	4767.35488	28.60794	 
135.0	1.0	0.0	9.20128	7.17332	-10.10111	11.90073	13.79724	0.72476	1.37977	222.29045	202.70443	84.37803	0.31723	 	1.90708E31	 	1.04457E-31	 	4625.02848	28.46528	 
130.0	1.0	0.0	9.20297	7.172	-10.11761	11.88256	13.69392	0.72128	1.38642	222.54567	202.75687	84.48533	0.31707	 	5.23832E31	 	3.75631E-32	 	4483.40114	28.32547	 
125.0	1.0	0.0	9.20465	7.17069	-10.13406	11.86438	13.59053	0.71776	1.39323	222.80011	202.80851	84.59236	0.3169	 	1.47584E32	 	1.31673E-32	 	4342.45932	28.18836	 
120.0	1.0	0.0	9.20633	7.16938	-10.15046	11.84618	13.48707	0.71418	1.40021	223.05377	202.85936	84.69913	0.31674	 	4.2689999999999996E32	 	4.49489E-33	 	4202.19014	28.05383	 
115.0	1.0	0.0	9.20801	7.16808	-10.16681	11.82795	13.38355	0.71055	1.40736	223.30666	202.90942	84.80562	0.31658	 	1.26911E33	 	1.49275E-33	 	4062.58133	27.92176	 
110.0	1.0	0.0	9.20968	7.16678	-10.18311	11.8097	13.27996	0.70687	1.41469	223.55877	202.95868	84.91185	0.31642	 	3.88168E33	 	4.81766E-34	 	3923.62117	27.79203	 
105.0	1.0	0.0	9.21135	7.16548	-10.19937	11.79144	13.1763	0.70313	1.42221	223.81011	203.00715	85.0178	0.31625	 	1.2228700000000002E34	 	1.50928E-34	 	3785.29853	27.66453	 
100.0	1.0	0.0	9.21301	7.16419	-10.21558	11.77315	13.07257	0.69934	1.42992	224.06067	203.05484	85.12349	0.31609	 	3.97281E34	 	4.5843E-35	 	3647.60277	27.53915	 
95.0	1.0	0.0	9.21467	7.1629	-10.23173	11.75484	12.96876	0.69549	1.43783	224.31045	203.10175	85.22891	0.31593	 	1.33264E35	 	1.34834E-35	 	3510.52377	27.4158	 
90.0	1.0	0.0	9.21632	7.16161	-10.24784	11.7365	12.86489	0.69159	1.44595	224.55947	203.14787	85.33407	0.31577	 	4.621719999999999E35	 	3.83503E-36	 	3374.05188	27.29438	 
85.0	1.0	0.0	9.21797	7.16033	-10.2639	11.71815	12.76094	0.68762	1.45429	224.80771	203.19322	85.43895	0.3156	 	1.65949E36	 	1.05336E-36	 	3238.17794	27.17479	 
80.0	1.0	0.0	9.21962	7.15905	-10.27992	11.69977	12.65692	0.68359	1.46286	225.05517	203.23778	85.54357	0.31544	 	6.178239999999999E36	 	2.78985E-37	 	3102.89321	27.05695	 
75.0	1.0	0.0	9.22126	7.15778	-10.29588	11.68138	12.55282	0.6795	1.47166	225.30187	203.28158	85.64792	0.31528	 	2.38865E37	 	7.11378E-38	 	2968.1894	26.94076	 
70.0	1.0	0.0	9.22289	7.15651	-10.31179	11.66296	12.44865	0.67535	1.48072	225.54779	203.32461	85.752	0.31512	 	9.6063E37	 	1.74347E-38	 	2834.05867	26.82615	 
65.0	1.0	0.0	9.22453	7.15524	-10.32765	11.64452	12.3444	0.67113	1.49003	225.79295	203.36686	85.85581	0.31495	 	4.02562E38	 	4.0998E-39	 	2700.49355	26.71302	 
60.0	1.0	0.0	9.22615	7.15398	-10.34347	11.62606	12.24007	0.66684	1.49961	226.03734	203.40836	85.95936	0.31479	 	1.7611200000000002E39	 	9.2329E-40	 	2567.48703	26.6013	 
55.0	1.0	0.0	9.22778	7.15272	-10.35923	11.60758	12.13567	0.66248	1.50947	226.28095	203.44909	86.06264	0.31463	 	8.058910000000001E39	 	1.98739E-40	 	2435.03251	26.4909	 
50.0	1.0	0.0	9.22939	7.15147	-10.37495	11.58908	12.03119	0.65805	1.51963	226.5238	203.48906	86.16566	0.31447	 	3.8654799999999997E40	 	4.08026E-41	 	2303.1238	26.38174	 
45.0	1.0	0.0	9.23101	7.15022	-10.39062	11.57055	11.92662	0.65355	1.5301	226.76589	203.52828	86.26841	0.3143	 	1.94775E41	 	7.97234E-42	 	2171.75512	26.27374	 
40.0	1.0	0.0	9.23262	7.14897	-10.40623	11.55201	11.82197	0.64898	1.54089	227.00721	203.56675	86.37089	0.31414	 	1.0334499999999999E42	 	1.47893E-42	 	2040.92111	26.1668	 
35.0	1.0	0.0	9.23422	7.14773	-10.4218	11.53344	11.71725	0.64432	1.55202	227.24777	203.60446	86.47311	0.31398	 	5.788519999999999E42	 	2.59825E-43	 	1910.61682	26.06086	 
30.0	1.0	0.0	9.23582	7.14649	-10.43732	11.51485	11.61243	0.63959	1.56351	227.48756	203.64143	86.57506	0.31382	 	3.43185E43	 	4.31138E-44	 	1780.83778	25.95581	 
25.0	1.0	0.0	9.23742	7.14526	-10.45278	 	11.50754	0.63477	1.57537	227.7266	203.67766	86.67675	0.31365	 	2.1598000000000003E44	 	6.73764E-45	 	1651.57994	 	 
