T (C)	Fraction solid (wt)-TOTAL	Fraction liquid (wt)-LIQUID	Density (g/(cm)^3)-TOTAL	Molar volume (cm^3)-TOTAL	Volume change (%)-  	Average expansion coeff. (10e-6 1/K)-  	Thermal conductivity (W/(m*K))-TOTAL	Electrical resistivity (10e-6 Ohm*m)-TOTAL	Electrical conductivity (10e6 1/(Ohm*m))-TOTAL	Young's modulus (GPa)-TOTAL	Bulk modulus (GPa)-TOTAL	Shear modulus(GPa)-TOTAL	Poisson's ratio-TOTAL	Liquid viscosity (mPa s)-  	Total viscosity (mPa s)-  	Liquid diffusivity (10e-9 (m^2)/s)-  	Total diffusivity (10e-9 (m^2)/s)-  	Surface Tension (mN/m)-  	Enthalpy (J/mole)-TOTAL	Specific heat (J/(mole K))-TOTAL	Latent heat (J/mole)-TOTAL
1400.0	0.0	1.0	7.91573	7.79509	0.0	25.36142	28.62061	1.43226	0.6982	0.0	133.53863	0.0	0.5	9.52203	9.52203	0.85761	0.85761	1881.05421	62755.848	 	0.0
1395.0	0.0	1.0	7.91974	7.79114	-0.0506573	25.31783	28.54881	1.43157	0.69853	0.0	133.7137	0.0	0.5	9.6299	9.6299	0.84547	0.84547	1883.167	62550.456	41.0784	0.0
1390.0	0.0	1.0	7.92374	7.78721	-0.10116	25.27433	28.477	1.43088	0.69887	0.0	133.88877	0.0	0.5	9.73964	9.73964	0.83344	0.83344	1885.2836	62345.549	40.9814	0.0
1385.0	0.0	1.0	7.92774	7.78328	-0.15152	25.23093	28.4052	1.43018	0.69921	0.0	134.06384	0.0	0.5	9.85131	9.85131	0.82152	0.82152	1887.40407	62141.125	40.8848	0.0
1380.0	0.0	1.0	7.93173	7.77937	-0.20172	25.18761	28.33339	1.42949	0.69955	0.0	134.23892	0.0	0.5	9.96495	9.96495	0.8097	0.8097	1889.52845	61937.18	40.789	0.0
1375.0	0.0	1.0	7.9357	7.77547	-0.25177	25.14439	28.26158	1.42878	0.6999	0.0	134.41399	0.0	0.5	10.0806	10.0806	0.79799	0.79799	1891.65681	61733.712	40.6936	0.0
1372.92	0.0	1.0	7.93736	7.77385	-0.27254	25.12644	28.23173	1.42849	0.70004	0.0	134.48678	0.0	0.5	10.12929	10.12929	0.79315	0.79315	1892.54298	61649.249	40.62616	0.0
1370.0	0.12628	0.87372	7.96582	7.74608	-0.62877	24.2058	28.66051	1.40462	0.71194	0.0281848	134.64388	0.00951208	0.48153	10.27266	24.92746	0.78069	0.32173	1894.73277	59610.055	698.1222	1920.664
1365.0	0.30587	0.69413	8.00666	7.70661	-1.13517	22.90463	29.28158	1.37065	0.72958	0.99198	134.82425	0.34091	0.45489	10.52341	482.40771	0.75977	0.016574	1898.49388	56698.017	582.4076	4630.181
1360.0	0.44132	0.55868	8.03803	7.67648	-1.52161	21.92458	29.75929	1.34453	0.74376	4.37505	134.96977	1.52493	0.43451	10.78039	2166.73246	0.7394	0.00367881	1902.25791	54469.819	445.6396	6656.325
1355.0	0.54518	0.45482	8.06263	7.65308	-1.82179	21.17597	30.12821	1.324	0.75529	10.33266	135.10749	3.64164	0.41868	11.04408	5335.97699	0.71953	0.00148925	1906.02243	52728.037	348.3564	8196.52
1350.0	0.62599	0.37401	8.08226	7.63447	-2.06058	20.5923	30.41113	1.30765	0.76473	18.17046	135.24911	6.46072	0.40623	11.31423	9844.35816	0.7002	8.04744E-4	1909.78696	51338.926	277.8222	9384.508
1345.0	0.6897	0.3103	8.09823	7.61944	-2.2534	20.13244	30.62532	1.29451	0.7725	27.0365	135.4024	9.68145	0.3963	11.59126	15417.42213	0.68136	5.12264E-4	1913.54967	50209.945	225.7962	10312.826
1340.0	0.74052	0.25948	8.11145	7.607	-2.4129	19.76237	30.78441	1.28384	0.77891	36.23227	135.56859	13.0491	0.38831	11.8754	21795.10918	0.663	3.61245E-4	1917.31108	49275.829	186.8232	11046.738
1335.0	0.78149	0.21851	8.12257	7.59658	-2.5466	19.46201	30.89942	1.27509	0.78426	45.27053	135.74936	16.38108	0.38179	12.16673	28776.13048	0.64512	2.7276E-4	1921.0699	48489.75	157.2158	11633.069
1330.0	0.81484	0.18516	8.13208	7.5877	-2.66052	19.21516	30.97908	1.26786	0.78873	53.85622	135.94431	19.56361	0.37644	12.46583	36225.60224	0.62768	2.15996E-4	1924.82573	47817.585	134.433	12105.939
1325.0	0.84223	0.15777	8.14034	7.57999	-2.75944	19.00887	31.03033	1.26182	0.79251	61.83501	136.152	22.53473	0.37199	12.77268	44064.06775	0.61069	1.77019E-4	1928.57909	47234.106	116.6958	12490.574
1320.0	0.86491	0.13509	8.14762	7.57324	-2.84607	18.83596	31.05863	1.25673	0.79572	69.1392	136.37215	25.26509	0.36828	13.08762	52250.99358	0.59413	1.48816E-4	1932.32848	46720.422	102.7368	12805.862
1318.3	0.87141	0.12859	8.14985	7.57116	-2.87271	18.78486	31.06265	1.25522	0.79667	71.36496	136.45194	26.09896	0.3672	13.19651	55035.34012	0.5886	1.41136E-4	1933.60051	46563.245	 	12895.711
1316.98	0.88042	0.11958	8.15257	7.56862	-2.90528	18.71122	31.08202	1.2534	0.79783	74.4639	136.53533	27.26114	0.36575	13.23907	58257.81831	0.58622	1.33219E-4	1932.95372	46380.216	 	13026.549
1315.0	0.95504	0.044956	8.17205	7.55059	-3.13658	18.07977	31.33693	1.24166	0.80538	104.64837	137.41894	38.64771	0.35388	13.27907	82153.02357	0.58373	9.43528E-5	1932.62685	45205.295	303.0254	14123.038
1312.16	1.0	3.5686E-9	8.18483	7.5388	-3.28783	17.68699	31.46185	1.23451	0.81003	127.05397	138.07704	47.17448	0.34664	13.34045	102170.105	0.58	7.57316E-5	1932.24925	44431.011	 	14785.127
1310.0	1.0	0.0	8.18603	7.53771	-3.30182	17.67665	31.42719	1.23419	0.81025	127.2373	138.22337	47.24461	0.34658	 	105138.3187	 	7.34933E-5	 	44350.85537	170.88793	 
1305.0	1.0	0.0	8.18879	7.53517	-3.3345	17.65168	31.34691	1.23344	0.81074	127.66033	138.55893	47.40652	0.34644	 	112374.1927	 	6.85438E-5	 	44165.66843	37.03739	 
1300.0	1.0	0.0	8.19156	7.53262	-3.36711	17.62673	31.26663	1.23269	0.81123	128.08274	138.89321	47.56823	0.34631	 	120158.8837	 	6.39E-5	 	43980.79867	36.97395	 
1295.0	1.0	0.0	8.19432	7.53009	-3.39965	17.60177	31.18635	1.23194	0.81173	128.50453	139.22622	47.72975	0.34617	 	128537.7477	 	5.95448E-5	 	43796.24543	36.91065	 
1290.0	1.0	0.0	8.19707	7.52756	-3.43212	17.57683	31.10606	1.23118	0.81223	128.92569	139.55796	47.89106	0.34603	 	137560.1901	 	5.54619E-5	 	43612.0081	36.84747	 
1285.0	1.0	0.0	8.19982	7.52503	-3.46453	17.55189	31.02577	1.23042	0.81273	129.34623	139.88843	48.05218	0.34589	 	147280.0533	 	5.16359E-5	 	43428.08606	36.78441	 
1280.0	1.0	0.0	8.20257	7.52251	-3.49686	17.52696	30.94548	1.22965	0.81324	129.76615	140.21763	48.21309	0.34576	 	157756.0443	 	4.80523E-5	 	43244.47866	36.72148	 
1275.0	1.0	0.0	8.20531	7.51999	-3.52912	17.50203	30.86519	1.22888	0.81375	130.18543	140.54558	48.37381	0.34562	 	169052.2061	 	4.46971E-5	 	43061.18527	36.65868	 
1270.0	1.0	0.0	8.20805	7.51749	-3.56131	17.47711	30.7849	1.22811	0.81426	130.6041	140.87227	48.53433	0.34548	 	181238.438	 	4.1557E-5	 	42878.20529	36.596	 
1265.0	1.0	0.0	8.21079	7.51498	-3.59344	17.4522	30.7046	1.22733	0.81478	131.02214	141.19771	48.69465	0.34534	 	194391.0699	 	3.86197E-5	 	42695.53806	36.53345	 
1260.0	1.0	0.0	8.21352	7.51248	-3.62549	17.42729	30.6243	1.22655	0.8153	131.43955	141.52189	48.85477	0.34521	 	208593.4963	 	3.58732E-5	 	42513.18296	36.47102	 
1255.0	1.0	0.0	8.21625	7.50999	-3.65747	17.40239	30.544	1.22576	0.81582	131.85634	141.84483	49.01469	0.34507	 	223936.878	 	3.33064E-5	 	42331.13939	36.40871	 
1250.0	1.0	0.0	8.21897	7.5075	-3.68939	17.3775	30.4637	1.22497	0.81635	132.27251	142.16653	49.17441	0.34493	 	240520.9169	 	3.09084E-5	 	42149.4067	36.34654	 
1245.0	1.0	0.0	8.22169	7.50502	-3.72123	17.35261	30.38339	1.22418	0.81687	132.68805	142.48699	49.33393	0.3448	 	258454.7138	 	2.86693E-5	 	41967.98427	36.28448	 
1240.0	1.0	0.0	8.2244	7.50254	-3.753	17.32773	30.30309	1.22338	0.81741	133.10297	142.80621	49.49325	0.34466	 	277857.7185	 	2.65795E-5	 	41786.87148	36.22256	 
1235.0	1.0	0.0	8.22711	7.50007	-3.78471	17.30285	30.22278	1.22258	0.81794	133.51726	143.1242	49.65237	0.34452	 	298860.7813	 	2.46299E-5	 	41606.06771	36.16076	 
1230.0	1.0	0.0	8.22982	7.49761	-3.81634	17.27799	30.14246	1.22177	0.81848	133.93093	143.44096	49.81129	0.34438	 	321607.3191	 	2.2812E-5	 	41425.57233	36.09907	 
1225.0	1.0	0.0	8.23252	7.49514	-3.84791	17.25312	30.06215	1.22096	0.81903	134.34397	143.75649	49.97001	0.34425	 	346254.6085	 	2.11177E-5	 	41245.38473	36.03752	 
1220.0	1.0	0.0	8.23522	7.49269	-3.87941	17.22827	29.98183	1.22014	0.81957	134.75639	144.07079	50.12854	0.34411	 	372975.2205	 	1.95394E-5	 	41065.50427	35.97609	 
1215.0	1.0	0.0	8.23791	7.49024	-3.91083	17.20342	29.90152	1.21933	0.82013	135.16819	144.38388	50.28686	0.34397	 	401958.6136	 	1.80697E-5	 	40885.93034	35.91479	 
1210.0	1.0	0.0	8.2406	7.4878	-3.94219	17.17857	29.8212	1.2185	0.82068	135.57936	144.69575	50.44498	0.34383	 	433412.9039	 	1.67021E-5	 	40706.66232	35.8536	 
1205.0	1.0	0.0	8.24328	7.48536	-3.97348	17.15374	29.74087	1.21767	0.82124	135.9899	145.00641	50.6029	0.3437	 	467566.8323	 	1.54298E-5	 	40527.69959	35.79255	 
1200.0	1.0	0.0	8.24596	7.48292	-4.00469	17.12891	29.66055	1.21684	0.8218	136.39983	145.31586	50.76063	0.34356	 	504671.9535	 	1.4247E-5	 	40349.04155	35.73161	 
1195.0	1.0	0.0	8.24864	7.4805	-4.03584	17.10408	29.58022	1.216	0.82237	136.80913	145.6241	50.91815	0.34342	 	545005.0717	 	1.31479E-5	 	40170.68755	35.6708	 
1190.0	1.0	0.0	8.25131	7.47807	-4.06692	17.07926	29.49989	1.21516	0.82293	137.2178	145.93113	51.07547	0.34328	 	588870.9537	 	1.21271E-5	 	39992.63699	35.61011	 
1185.0	1.0	0.0	8.25398	7.47566	-4.09793	17.05445	29.41956	1.21432	0.82351	137.62585	146.23697	51.23259	0.34315	 	636605.3524	 	1.11794E-5	 	39814.88925	35.54955	 
1180.0	1.0	0.0	8.25664	7.47324	-4.12887	17.02964	29.33922	1.21347	0.82409	138.03328	146.54161	51.38951	0.34301	 	688578.3786	 	1.03002E-5	 	39637.44372	35.48911	 
1175.0	1.0	0.0	8.2593	7.47084	-4.15974	17.00485	29.25888	1.21261	0.82467	138.44008	146.84505	51.54624	0.34287	 	745198.2627	 	9.48481E-6	 	39460.29979	35.42879	 
1170.0	1.0	0.0	8.26196	7.46844	-4.19054	16.98005	29.17855	1.21175	0.82525	138.84626	147.1473	51.70276	0.34274	 	806915.5563	 	8.72911E-6	 	39283.45684	35.36859	 
1165.0	1.0	0.0	8.26461	7.46604	-4.22127	16.95527	29.0982	1.21089	0.82584	139.25181	147.44837	51.85908	0.3426	 	874227.8253	 	8.02909E-6	 	39106.91424	35.30852	 
1160.0	1.0	0.0	8.26726	7.46365	-4.25194	16.93049	29.01786	1.21002	0.82643	139.65674	147.74825	52.0152	0.34246	 	947684.8983	 	7.38099E-6	 	38930.6714	35.24857	 
1155.0	1.0	0.0	8.2699	7.46127	-4.28253	16.90571	28.93751	1.20915	0.82703	140.06105	148.04695	52.17112	0.34232	 	1027894.737	 	6.78128E-6	 	38754.7277	35.18874	 
1150.0	1.0	0.0	8.27254	7.45889	-4.31305	16.88094	28.85716	1.20827	0.82763	140.46473	148.34446	52.32684	0.34219	 	1115530.011	 	6.22667E-6	 	38579.08253	35.12903	 
1145.0	1.0	0.0	8.27517	7.45651	-4.34351	16.85618	28.77681	1.20738	0.82824	140.86779	148.64081	52.48236	0.34205	 	1211335.46	 	5.71406E-6	 	38403.73528	35.06945	 
1140.0	1.0	0.0	8.2778	7.45414	-4.37389	16.83143	28.69645	1.2065	0.82885	141.27023	148.93598	52.63768	0.34191	 	1316136.152	 	5.24052E-6	 	38228.68533	35.00999	 
1135.0	1.0	0.0	8.28043	7.45178	-4.40421	16.80668	28.6161	1.2056	0.82946	141.67204	149.22998	52.79279	0.34177	 	1430846.744	 	4.80333E-6	 	38053.93208	34.95065	 
1130.0	1.0	0.0	8.28305	7.44942	-4.43446	16.78194	28.53574	1.20471	0.83008	142.07323	149.52281	52.94771	0.34164	 	1556481.881	 	4.39994E-6	 	37879.47494	34.89143	 
1125.0	1.0	0.0	8.28566	7.44707	-4.46464	16.7572	28.45538	1.2038	0.8307	142.47379	149.81448	53.10243	0.3415	 	1694167.876	 	4.02795E-6	 	37705.31327	34.83233	 
1120.0	1.0	0.0	8.28828	7.44472	-4.49475	16.73247	28.37501	1.2029	0.83133	142.87373	150.10499	53.25694	0.34136	 	1845155.85	 	3.68512E-6	 	37531.44647	34.77336	 
1115.0	1.0	0.0	8.29088	7.44238	-4.52479	16.70775	28.29464	1.20198	0.83196	143.27304	150.39435	53.41126	0.34123	 	2010836.5	 	3.36935E-6	 	37357.87395	34.7145	 
1110.0	1.0	0.0	8.29349	7.44005	-4.55476	16.68303	28.21427	1.20107	0.83259	143.67174	150.68255	53.56537	0.34109	 	2192756.745	 	3.07869E-6	 	37184.5951	34.65577	 
1105.0	1.0	0.0	8.29609	7.43771	-4.58466	16.65832	28.1339	1.20014	0.83323	144.0698	150.96959	53.71928	0.34095	 	2392638.464	 	2.81129E-6	 	37011.60931	34.59716	 
1100.0	1.0	0.0	8.29868	7.43539	-4.6145	16.63362	28.05352	1.19921	0.83388	144.46725	151.25549	53.87299	0.34081	 	2612399.639	 	2.56546E-6	 	36838.91598	34.53867	 
1095.0	1.0	0.0	8.30127	7.43307	-4.64426	16.60892	27.97314	1.19828	0.83453	144.86407	151.54025	54.0265	0.34068	 	2854178.204	 	2.33959E-6	 	36666.5145	34.4803	 
1090.0	1.0	0.0	8.30386	7.43075	-4.67396	16.58423	27.89276	1.19734	0.83518	145.26026	151.82386	54.17981	0.34054	 	3120358.981	 	2.13219E-6	 	36494.40427	34.42205	 
1085.0	1.0	0.0	8.30644	7.42844	-4.70358	16.55954	27.81238	1.1964	0.83584	145.65584	152.10633	54.33292	0.3404	 	3413604.124	 	1.94188E-6	 	36322.5847	34.36391	 
1080.0	1.0	0.0	8.30902	7.42614	-4.73314	16.53486	27.73199	1.19545	0.83651	146.05079	152.38766	54.48583	0.34026	 	3736887.544	 	1.76735E-6	 	36151.05517	34.30591	 
1075.0	1.0	0.0	8.31159	7.42384	-4.76263	16.51019	27.6516	1.19449	0.83717	146.44511	152.66787	54.63853	0.34013	 	4093533.889	 	1.60741E-6	 	35979.81511	34.24801	 
1070.0	1.0	0.0	8.31416	7.42155	-4.79205	16.48552	27.57121	1.19353	0.83785	146.83881	152.94694	54.79104	0.33999	 	4487262.689	 	1.46093E-6	 	35808.86389	34.19024	 
1065.0	1.0	0.0	8.31672	7.41926	-4.8214	16.46086	27.49082	1.19257	0.83853	147.23189	153.22488	54.94334	0.33985	 	4922238.41	 	1.32687E-6	 	35638.20093	34.13259	 
1060.0	1.0	0.0	8.31928	7.41698	-4.85068	16.43621	27.41042	1.1916	0.83921	147.62434	153.5017	55.09544	0.33971	 	5403127.251	 	1.20426E-6	 	35467.82562	34.07506	 
1055.0	1.0	0.0	8.32184	7.4147	-4.8799	16.41156	27.33002	1.19062	0.8399	148.01617	153.77739	55.24734	0.33958	 	5935161.635	 	1.0922E-6	 	35297.73738	34.01765	 
1050.0	1.0	0.0	8.32439	7.41243	-4.90904	16.38692	27.24961	1.18964	0.84059	148.40738	154.05197	55.39903	0.33944	 	6524213.509	 	9.89846E-7	 	35127.93559	33.96036	 
1045.0	1.0	0.0	8.32693	7.41016	-4.93812	16.36229	27.16921	1.18865	0.84129	148.79796	154.32543	55.55053	0.3393	 	7176877.723	 	8.96429E-7	 	34958.41968	33.90318	 
1040.0	1.0	0.0	8.32947	7.4079	-4.96713	16.33766	27.0888	1.18766	0.84199	149.18792	154.59778	55.70182	0.33917	 	7900566.944	 	8.11228E-7	 	34789.18905	33.84613	 
1035.0	1.0	0.0	8.33201	7.40564	-4.99607	16.31304	27.00838	1.18666	0.8427	149.57725	154.86902	55.85291	0.33903	 	8703619.813	 	7.33575E-7	 	34620.24311	33.78919	 
1030.0	1.0	0.0	8.33454	7.40339	-5.02494	16.28842	26.92797	1.18565	0.84342	149.96597	155.13915	56.0038	0.33889	 	9595424.278	 	6.62853E-7	 	34451.58124	33.73237	 
1025.0	1.0	0.0	8.33707	7.40115	-5.05374	16.26381	26.84755	1.18464	0.84414	150.35405	155.40817	56.15449	0.33875	 	1.058655837E7	 	5.9849E-7	 	34283.20288	33.67567	 
1020.0	1.0	0.0	8.3396	7.39891	-5.08247	16.23921	26.76713	1.18362	0.84486	150.74152	155.67609	56.30498	0.33862	 	1.168895103E7	 	5.39958E-7	 	34115.10743	33.61909	 
1015.0	1.0	0.0	8.34212	7.39667	-5.11114	16.21461	26.6867	1.1826	0.8456	151.12836	155.94292	56.45526	0.33848	 	1.291606598E7	 	4.86769E-7	 	33947.2943	33.56263	 
1010.0	1.0	0.0	8.34463	7.39445	-5.13974	16.19002	26.60628	1.18157	0.84633	151.51457	156.20864	56.60534	0.33834	 	1.42831122E7	 	4.38471E-7	 	33779.76289	33.50628	 
1005.0	1.0	0.0	8.34714	7.39222	-5.16826	16.16544	26.52585	1.18053	0.84707	151.90016	156.47328	56.75522	0.3382	 	1.580728499E7	 	3.94649E-7	 	33612.51264	33.45005	 
1000.0	1.0	0.0	8.34965	7.39	-5.19672	16.14086	26.44541	1.17949	0.84782	152.28513	156.73682	56.9049	0.33807	 	1.750804236E7	 	3.54919E-7	 	33445.54293	33.39394	 
995.0	1.0	0.0	8.35215	7.38779	-5.22512	16.11629	26.36497	1.17845	0.84858	152.66948	156.99927	57.05437	0.33793	 	1.940742226E7	 	3.18926E-7	 	33278.8532	33.33795	 
990.0	1.0	0.0	8.35464	7.38558	-5.25344	16.09172	26.28453	1.17739	0.84934	153.0532	157.26064	57.20364	0.33779	 	2.153040694E7	 	2.86345E-7	 	33112.44285	33.28207	 
985.0	1.0	0.0	8.35714	7.38338	-5.28169	16.06716	26.20409	1.17633	0.8501	153.43629	157.52093	57.35271	0.33766	 	2.390534195E7	 	2.56876E-7	 	32946.3113	33.22631	 
980.0	1.0	0.0	8.35962	7.38118	-5.30988	16.04261	26.12364	1.17526	0.85087	153.81877	157.78013	57.50158	0.33752	 	2.65644183E7	 	2.30245E-7	 	32780.45796	33.17067	 
975.0	1.0	0.0	8.36211	7.37899	-5.338	16.01807	26.04319	1.17419	0.85165	154.20061	158.03826	57.65024	0.33738	 	2.954422799E7	 	2.06196E-7	 	32614.88227	33.11514	 
970.0	1.0	0.0	8.36459	7.3768	-5.36605	15.99353	25.96274	1.17311	0.85243	154.58184	158.29532	57.7987	0.33724	 	3.288640463E7	 	1.84499E-7	 	32449.58362	33.05973	 
965.0	1.0	0.0	8.36706	7.37462	-5.39403	15.96899	25.88229	1.17202	0.85322	154.96244	158.5513	57.94696	0.33711	 	3.663836286E7	 	1.64939E-7	 	32284.56145	33.00443	 
960.0	1.0	0.0	8.36953	7.37245	-5.42194	15.94447	25.80183	1.17093	0.85402	155.34242	158.80621	58.09501	0.33697	 	4.085415284E7	 	1.47322E-7	 	32119.81517	32.94926	 
955.0	1.0	0.0	8.37199	7.37028	-5.44979	15.91995	25.72136	1.16983	0.85482	155.72177	159.06006	58.24287	0.33683	 	4.559544854E7	 	1.31467E-7	 	31955.34421	32.89419	 
950.0	1.0	0.0	8.37445	7.36811	-5.47756	15.89543	25.6409	1.16873	0.85563	156.1005	159.31285	58.39052	0.33669	 	5.093269211E7	 	1.17211E-7	 	31791.14797	32.83925	 
945.0	1.0	0.0	8.37691	7.36595	-5.50527	15.87092	25.56043	1.16761	0.85645	156.47861	159.56457	58.53796	0.33656	 	5.69464202E7	 	1.04405E-7	 	31627.2259	32.78441	 
940.0	1.0	0.0	8.37936	7.3638	-5.53291	15.84642	25.47995	1.16649	0.85727	156.85609	159.81523	58.68521	0.33642	 	6.372880304E7	 	9.29106E-8	 	31463.57741	32.7297	 
935.0	1.0	0.0	8.38181	7.36165	-5.56049	15.82193	25.39948	1.16537	0.8581	157.23295	160.06484	58.83225	0.33628	 	7.1385432E7	 	8.26034E-8	 	31300.20194	32.67509	 
930.0	1.0	0.0	8.38425	7.3595	-5.58799	15.79744	25.319	1.16423	0.85894	157.60918	160.3134	58.97908	0.33614	 	8.003739825E7	 	7.33692E-8	 	31137.0989	32.62061	 
925.0	1.0	0.0	8.38669	7.35737	-5.61543	15.77295	25.23852	1.16309	0.85978	157.98479	160.5609	59.12572	0.33601	 	8.982371246E7	 	6.51039E-8	 	30974.26773	32.56623	 
920.0	1.0	0.0	8.38912	7.35523	-5.64279	15.74848	25.15803	1.16194	0.86063	158.35977	160.80736	59.27215	0.33587	 	1.009041246E8	 	5.77129E-8	 	30811.70785	32.51198	 
915.0	1.0	0.0	8.39155	7.3531	-5.67009	15.72401	25.07754	1.16079	0.86148	158.73414	161.05277	59.41837	0.33573	 	1.134624139E8	 	5.111E-8	 	30649.41868	32.45783	 
910.0	1.0	0.0	8.39397	7.35098	-5.69733	15.69954	24.99704	1.15962	0.86235	159.10787	161.29714	59.56439	0.3356	 	1.27710231E8	 	4.52169E-8	 	30487.39968	32.4038	 
905.0	1.0	0.0	8.39639	7.34886	-5.72449	15.67509	24.91655	1.15845	0.86322	159.48099	161.54047	59.71021	0.33546	 	1.438915914E8	 	3.99624E-8	 	30325.65026	32.34988	 
900.0	1.0	0.0	8.3988	7.34675	-5.75159	15.65063	24.83605	1.15728	0.8641	159.85348	161.78276	59.85583	0.33532	 	1.622881354E8	 	3.5282E-8	 	30164.16985	32.29608	 
895.0	1.0	0.0	8.40121	7.34464	-5.77862	15.62619	24.75554	1.15609	0.86498	160.22534	162.02402	60.00124	0.33518	 	1.83225293E8	 	3.11172E-8	 	30002.95789	32.24239	 
890.0	1.0	0.0	8.40362	7.34254	-5.80558	15.60175	24.67503	1.1549	0.86588	160.59658	162.26425	60.14645	0.33505	 	2.070795191E8	 	2.74148E-8	 	29842.01383	32.18881	 
885.0	1.0	0.0	8.40602	7.34045	-5.83247	15.57732	24.59452	1.1537	0.86678	160.9672	162.50344	60.29145	0.33491	 	2.342867928E8	 	2.4127E-8	 	29681.33709	32.13535	 
880.0	1.0	0.0	8.40841	7.33836	-5.85929	15.55289	24.51401	1.15249	0.86769	161.33719	162.74161	60.43625	0.33477	 	2.653526156E8	 	2.12104E-8	 	29520.9271	32.082	 
875.0	1.0	0.0	8.4108	7.33627	-5.88605	15.52847	24.43349	1.15128	0.8686	161.70656	162.97875	60.58085	0.33463	 	3.008637875E8	 	1.86258E-8	 	29360.78332	32.02876	 
870.0	1.0	0.0	8.41319	7.33419	-5.91274	15.50406	24.35296	1.15005	0.86953	162.07531	163.21488	60.72524	0.3345	 	3.415022929E8	 	1.63379E-8	 	29200.90517	31.97563	 
865.0	1.0	0.0	8.41557	7.33211	-5.93936	15.47965	24.27244	1.14882	0.87046	162.44343	163.44998	60.86943	0.33436	 	3.880616967E8	 	1.43148E-8	 	29041.2921	31.92261	 
860.0	1.0	0.0	8.41795	7.33004	-5.96592	15.45525	24.19191	1.14758	0.8714	162.81092	163.68406	61.01341	0.33422	 	4.414665276E8	 	1.25278E-8	 	28881.94356	31.86971	 
855.0	1.0	0.0	8.42032	7.32798	-5.9924	15.43086	24.11137	1.14633	0.87235	163.1778	163.91713	61.15719	0.33409	 	5.027952248E8	 	1.09512E-8	 	28722.85897	31.81692	 
850.0	1.0	0.0	8.42268	7.32592	-6.01882	15.40647	24.03084	1.14508	0.8733	163.54404	164.14919	61.30077	0.33395	 	5.733073353E8	 	9.56174E-9	 	28564.0378	31.76423	 
845.0	1.0	0.0	8.42505	7.32387	-6.04517	15.38209	23.95029	1.14381	0.87427	163.90967	164.38024	61.44414	0.33381	 	6.54475797E8	 	8.3386E-9	 	28408.64809	31.07794	 
840.0	1.0	0.0	8.4274	7.32182	-6.07145	15.35771	23.86975	1.14254	0.87524	164.27467	164.61028	61.5873	0.33367	 	7.480253046E8	 	7.26313E-9	 	28250.34683	31.66025	 
835.0	1.0	0.0	8.42976	7.31977	-6.09767	15.33335	23.7892	1.14126	0.87622	164.63904	164.83932	61.73027	0.33354	 	8.559779715E8	 	6.31863E-9	 	28092.30733	31.6079	 
830.0	1.0	0.0	8.43211	7.31774	-6.12382	15.30898	23.70864	1.13997	0.87722	165.00279	165.06735	61.87302	0.3334	 	9.807077477E8	 	5.49012E-9	 	27934.52906	31.55566	 
825.0	1.0	0.0	8.43445	7.3157	-6.1499	15.28463	23.62809	1.13867	0.87821	165.36592	165.29439	62.01557	0.33326	 	1.125005363E9	 	4.76424E-9	 	27777.01144	31.50352	 
820.0	1.0	0.0	8.43679	7.31367	-6.17591	15.26028	23.54753	1.13737	0.87922	165.72842	165.52043	62.15792	0.33312	 	1.292155944E9	 	4.12906E-9	 	27619.75394	31.4515	 
815.0	1.0	0.0	8.43912	7.31165	-6.20186	15.23593	23.46696	1.13605	0.88024	166.0903	165.74547	62.30006	0.33299	 	1.486031909E9	 	3.57394E-9	 	27462.75601	31.39958	 
810.0	1.0	0.0	8.44145	7.30964	-6.22774	15.2116	23.38639	1.13473	0.88127	166.45155	165.96952	62.442	0.33285	 	1.711204306E9	 	3.0894E-9	 	27306.0171	31.34778	 
805.0	1.0	0.0	8.44377	7.30762	-6.25355	15.18726	23.30582	1.13339	0.88231	166.81218	166.19258	62.58373	0.33271	 	1.973076467E9	 	2.66699E-9	 	27149.53667	31.29609	 
800.0	1.0	0.0	8.44609	7.30562	-6.27929	15.16294	23.22524	1.13205	0.88335	167.17219	166.41466	62.72526	0.33257	 	2.278044669E9	 	2.29924E-9	 	26993.31419	31.2445	 
795.0	1.0	0.0	8.44841	7.30362	-6.30497	15.13862	23.14466	1.1307	0.88441	167.53157	166.63574	62.86658	0.33244	 	2.633691571E9	 	1.97949E-9	 	26837.34909	31.19302	 
790.0	1.0	0.0	8.45072	7.30162	-6.33057	15.11431	23.06407	1.12934	0.88547	167.89032	166.85585	63.0077	0.3323	 	3.049019457E9	 	1.70185E-9	 	26681.64086	31.14165	 
785.0	1.0	0.0	8.45302	7.29963	-6.35611	15.09	22.98348	1.12797	0.88655	168.24845	167.07497	63.14861	0.33216	 	3.534731923E9	 	1.46109E-9	 	26526.18895	31.09038	 
780.0	1.0	0.0	8.45532	7.29764	-6.38159	15.06571	22.90289	1.12659	0.88763	168.60596	167.29312	63.28932	0.33203	 	4.1035746E9	 	1.25261E-9	 	26370.99283	31.03922	 
775.0	1.0	0.0	8.45762	7.29566	-6.407	15.04141	22.82229	1.1252	0.88873	168.96284	167.51029	63.42982	0.33189	 	4.770747944E9	 	1.07232E-9	 	26216.05195	30.98818	 
770.0	1.0	0.0	8.45991	7.29369	-6.43233	15.01713	22.74168	1.1238	0.88984	169.3191	167.72649	63.57011	0.33175	 	5.554408146E9	 	9.16633E-10	 	26061.36579	30.93723	 
765.0	1.0	0.0	8.46219	7.29172	-6.45761	14.99285	22.66108	1.12239	0.89095	169.67473	167.94172	63.7102	0.33161	 	6.476275976E9	 	7.82387E-10	 	25906.93383	30.88639	 
760.0	1.0	0.0	8.46447	7.28975	-6.48281	14.96857	22.58046	1.12098	0.89208	170.02974	168.15598	63.85009	0.33148	 	7.562378031E9	 	6.66794E-10	 	25752.75551	30.83566	 
755.0	1.0	0.0	8.46675	7.28779	-6.50795	14.9443	22.49985	1.11955	0.89322	170.38412	168.36927	63.98976	0.33134	 	8.843950728E9	 	5.6741E-10	 	25598.83032	30.78504	 
750.0	1.0	0.0	8.46902	7.28584	-6.53302	14.92004	22.41923	1.11811	0.89437	170.73788	168.5816	64.12924	0.3312	 	1.03585E10	 	4.82089E-10	 	25445.15774	30.73452	 
745.0	1.0	0.0	8.47129	7.28389	-6.55802	14.89579	22.3386	1.11666	0.89553	171.09101	168.79297	64.2685	0.33106	 	1.2151399999999998E10	 	4.08953E-10	 	25291.73724	30.6841	 
740.0	1.0	0.0	8.47355	7.28195	-6.58296	14.87154	22.25797	1.1152	0.8967	171.44352	169.00337	64.40756	0.33093	 	1.4276999999999998E10	 	3.46357E-10	 	25138.56829	30.63379	 
735.0	1.0	0.0	8.47581	7.28001	-6.60783	14.8473	22.17734	1.11373	0.89788	171.7954	169.21282	64.54642	0.33079	 	1.6801299999999998E10	 	2.92867E-10	 	24985.65037	30.58358	 
730.0	1.0	0.0	8.47806	7.27807	-6.63263	14.82306	22.0967	1.11226	0.89907	172.14666	169.42132	64.68507	0.33065	 	1.9804E10	 	2.4723E-10	 	24832.98297	30.53348	 
725.0	1.0	0.0	8.4803	7.27615	-6.65737	14.79883	22.01606	1.11077	0.90028	172.4973	169.62887	64.82351	0.33051	 	2.3381799999999996E10	 	2.08355E-10	 	24680.56556	30.48348	 
720.0	1.0	0.0	8.48254	7.27422	-6.68203	14.77461	21.93541	1.10926	0.9015	172.84731	169.83546	64.96174	0.33038	 	2.7652199999999996E10	 	1.75296E-10	 	24528.39764	30.43359	 
715.0	1.0	0.0	8.48478	7.2723	-6.70663	14.75039	21.85476	1.10775	0.90273	173.19669	170.04111	65.09977	0.33024	 	3.2758099999999996E10	 	1.47228E-10	 	24376.47868	30.38379	 
710.0	1.0	0.0	8.48701	7.27039	-6.73117	14.72618	21.7741	1.10623	0.90397	173.54545	170.24581	65.2376	0.3301	 	3.88738E10	 	1.23438E-10	 	24224.80817	30.3341	 
705.0	1.0	0.0	8.48924	7.26848	-6.75564	14.70198	21.69344	1.1047	0.90523	173.89358	170.44956	65.37521	0.32997	 	4.62119E10	 	1.03309E-10	 	24073.38561	30.28451	 
700.0	1.0	0.0	8.49146	7.26658	-6.78004	14.67778	21.61277	1.10315	0.90649	174.24109	170.65238	65.51262	0.32983	 	5.503309999999999E10	 	8.63064E-11	 	23922.21049	30.23502	 
695.0	1.0	0.0	8.49368	7.26469	-6.80437	14.65359	21.5321	1.1016	0.90777	174.58798	170.85426	65.64982	0.32969	 	6.565629999999999E10	 	7.19702E-11	 	23771.2823	30.18564	 
690.0	1.0	0.0	8.49589	7.26279	-6.82864	14.6294	21.45142	1.10003	0.90907	174.93424	171.0552	65.78682	0.32955	 	7.8474E10	 	5.99039E-11	 	23620.60054	30.13635	 
685.0	1.0	0.0	8.4981	7.26091	-6.85284	14.60522	21.37074	1.09845	0.91037	175.27987	171.25521	65.92361	0.32942	 	9.396859999999998E10	 	4.97665E-11	 	23470.1647	30.08717	 
680.0	1.0	0.0	8.5003	7.25903	-6.87697	14.58105	21.29006	1.09686	0.91169	175.62488	171.45428	66.06019	0.32928	 	1.12736E11	 	4.12655E-11	 	23319.97428	30.03808	 
675.0	1.0	0.0	8.5025	7.25715	-6.90104	14.55688	21.20937	1.09526	0.91303	175.96926	171.65243	66.19657	0.32914	 	1.35511E11	 	3.415E-11	 	23170.0288	29.9891	 
670.0	1.0	0.0	8.50469	7.25528	-6.92504	14.53272	21.12867	1.09364	0.91438	176.31302	171.84964	66.33274	0.329	 	1.63205E11	 	2.82056E-11	 	23020.32775	29.94021	 
665.0	1.0	0.0	8.50688	7.25341	-6.94897	14.50857	21.04797	1.09201	0.91574	176.65616	172.04594	66.4687	0.32887	 	1.96949E11	 	2.32491E-11	 	22870.87064	29.89142	 
660.0	1.0	0.0	8.50906	7.25155	-6.97283	14.48442	20.96726	1.09037	0.91712	176.99867	172.2413	66.60445	0.32873	 	2.38149E11	 	1.91245E-11	 	22721.65699	29.84273	 
655.0	1.0	0.0	8.51124	7.2497	-6.99663	14.46028	20.88655	1.08872	0.91851	177.34055	172.43575	66.74	0.32859	 	2.88557E11	 	1.5699E-11	 	22572.68629	29.79414	 
650.0	1.0	0.0	8.51341	7.24785	-7.02037	14.43615	20.80584	1.08706	0.91991	177.68181	172.62928	66.87534	0.32846	 	3.50364E11	 	1.286E-11	 	22423.95807	29.74564	 
645.0	1.0	0.0	8.51558	7.246	-7.04403	14.41202	20.72512	1.08538	0.92133	178.02244	172.82189	67.01047	0.32832	 	4.26309E11	 	1.05118E-11	 	22275.47185	29.69724	 
640.0	1.0	0.0	8.51774	7.24416	-7.06763	14.3879	20.64439	1.08369	0.92277	178.36245	173.01359	67.1454	0.32818	 	5.19831E11	 	8.57366E-12	 	22127.22715	29.64894	 
635.0	1.0	0.0	8.5199	7.24233	-7.09117	14.36378	20.56366	1.08199	0.92422	178.70183	173.20438	67.28012	0.32804	 	6.35257E11	 	6.97742E-12	 	21979.22348	29.60073	 
630.0	1.0	0.0	8.52205	7.2405	-7.11463	14.33967	20.48292	1.08027	0.92569	179.04058	173.39425	67.41463	0.32791	 	7.78037E11	 	5.66561E-12	 	21831.46037	29.55262	 
625.0	1.0	0.0	8.5242	7.23868	-7.13803	14.31557	20.40218	1.07855	0.92717	179.37871	173.58322	67.54893	0.32777	 	9.55062E11	 	4.58991E-12	 	21683.93734	29.5046	 
620.0	1.0	0.0	8.52634	7.23686	-7.16137	14.29147	20.32143	1.0768	0.92868	179.71622	173.77128	67.68302	0.32763	 	1.17506E12	 	3.70981E-12	 	21536.65395	29.45668	 
615.0	1.0	0.0	8.52848	7.23504	-7.18463	14.26738	20.24068	1.07505	0.93019	180.0531	173.95844	67.81691	0.32749	 	1.44911E12	 	2.99138E-12	 	21389.6097	29.40885	 
610.0	1.0	0.0	8.53061	7.23324	-7.20783	14.2433	20.15992	1.07328	0.93173	180.38935	174.14469	67.95059	0.32736	 	1.79132E12	 	2.40628E-12	 	21242.80413	29.36111	 
605.0	1.0	0.0	8.53274	7.23143	-7.23097	14.21922	20.07916	1.07149	0.93328	180.72498	174.33005	68.08406	0.32722	 	2.21971E12	 	1.9309E-12	 	21096.23681	29.31346	 
600.0	1.0	0.0	8.53486	7.22963	-7.25404	14.19515	19.99839	1.06969	0.93485	181.05999	174.51451	68.21732	0.32708	 	2.75729E12	 	1.54558E-12	 	20949.90725	29.26591	 
595.0	1.0	0.0	8.53698	7.22784	-7.27704	14.17108	19.91762	1.06788	0.93643	181.39436	174.69807	68.35038	0.32694	 	3.43365E12	 	1.23403E-12	 	20803.81501	29.21845	 
590.0	1.0	0.0	8.53909	7.22605	-7.29997	14.14702	19.83684	1.06606	0.93804	181.72811	174.88075	68.48322	0.32681	 	4.28679E12	 	9.82745E-13	 	20657.95963	29.17108	 
585.0	1.0	0.0	8.5412	7.22427	-7.32284	14.12297	19.75605	1.06421	0.93966	182.06124	175.06252	68.61586	0.32667	 	5.36576E12	 	7.80582E-13	 	20512.34066	29.12379	 
580.0	1.0	0.0	8.5433	7.22249	-7.34564	14.09892	19.67526	1.06236	0.9413	182.39374	175.24342	68.74829	0.32653	 	6.73401E12	 	6.18355E-13	 	20366.95767	29.0766	 
575.0	1.0	0.0	8.5454	7.22072	-7.36838	14.07488	19.59447	1.06049	0.94296	182.72562	175.42342	68.88051	0.3264	 	8.47382E12	 	4.88518E-13	 	20221.81021	29.02949	 
570.0	1.0	0.0	8.54749	7.21895	-7.39105	14.05085	19.51366	1.0586	0.94464	183.05686	175.60254	69.01252	0.32626	 	1.06922E13	 	3.84878E-13	 	20076.89785	28.98247	 
565.0	1.0	0.0	8.54957	7.21719	-7.41365	14.02682	19.43285	1.0567	0.94634	183.38749	175.78077	69.14433	0.32612	 	1.35289E13	 	3.02375E-13	 	19932.22015	28.93554	 
560.0	1.0	0.0	8.55166	7.21543	-7.43619	14.0028	19.35204	1.05478	0.94806	183.71748	175.95813	69.27592	0.32598	 	1.71665E13	 	2.36879E-13	 	19787.77668	28.88869	 
555.0	1.0	0.0	8.55373	7.21368	-7.45866	13.97879	19.27122	1.05285	0.9498	184.04686	176.13461	69.40731	0.32585	 	2.1845E13	 	1.85031E-13	 	19643.56701	28.84193	 
550.0	1.0	0.0	8.5558	7.21194	-7.48107	13.95478	19.1904	1.0509	0.95157	184.3756	176.31021	69.53848	0.32571	 	2.788E13	 	1.44103E-13	 	19499.59072	28.79526	 
545.0	1.0	0.0	8.55787	7.2102	-7.50341	13.93078	19.10956	1.04893	0.95335	184.70372	176.48493	69.66945	0.32557	 	3.56885E13	 	1.1189E-13	 	19355.8474	28.74866	 
540.0	1.0	0.0	8.55993	7.20846	-7.52568	13.90678	19.02873	1.04695	0.95515	185.03121	176.65878	69.80021	0.32543	 	4.5823E13	 	8.66112E-14	 	19212.33662	28.70216	 
535.0	1.0	0.0	8.56199	7.20673	-7.54789	13.88279	18.94788	1.04495	0.95698	185.35808	176.83177	69.93076	0.3253	 	5.90175E13	 	6.6834E-14	 	19069.05798	28.65573	 
530.0	1.0	0.0	8.56404	7.205	-7.57003	13.85881	18.86703	1.04294	0.95883	185.68432	177.00388	70.0611	0.32516	 	7.62513E13	 	5.14086E-14	 	18926.01108	28.60938	 
525.0	1.0	0.0	8.56608	7.20328	-7.59211	13.83483	18.78618	1.04091	0.9607	186.00994	177.17513	70.19124	0.32502	 	9.88342E13	 	3.94152E-14	 	18783.19551	28.56311	 
520.0	1.0	0.0	8.56813	7.20157	-7.61412	13.81086	18.70532	1.03886	0.9626	186.33493	177.34551	70.32116	0.32489	 	1.2852499999999998E14	 	3.01199E-14	 	18640.61088	28.51693	 
515.0	1.0	0.0	8.57016	7.19986	-7.63606	13.7869	18.62445	1.03679	0.96451	186.65929	177.51503	70.45087	0.32475	 	1.67693E14	 	2.29393E-14	 	18498.25678	28.47082	 
510.0	1.0	0.0	8.57219	7.19815	-7.65794	13.76294	18.54357	1.03471	0.96646	186.98303	177.68369	70.58038	0.32461	 	2.19543E14	 	1.74105E-14	 	18356.13275	28.42481	 
505.0	1.0	0.0	8.57422	7.19645	-7.67975	13.73899	18.46269	1.03261	0.96842	187.30614	177.85149	70.70967	0.32447	 	2.88421E14	 	1.31681E-14	 	18214.23845	28.37886	 
500.0	1.0	0.0	8.57624	7.19475	-7.70149	13.71505	18.38181	1.03048	0.97042	187.62862	178.01844	70.83875	0.32434	 	3.80247E14	 	9.92395E-15	 	18072.57349	28.33299	 
495.0	1.0	0.0	8.57825	7.19306	-7.72317	13.69111	18.30091	1.02835	0.97244	187.95048	178.18453	70.96763	0.3242	 	5.0311599999999994E14	 	7.45186E-15	 	17931.13753	28.28719	 
490.0	1.0	0.0	8.58026	7.19138	-7.74479	13.66718	18.22002	1.02619	0.97448	188.27171	178.34976	71.09629	0.32406	 	6.68134E14	 	5.57484E-15	 	17789.93019	28.24147	 
485.0	1.0	0.0	8.58227	7.1897	-7.76634	13.64325	18.13911	1.02401	0.97655	188.59232	178.51415	71.22475	0.32392	 	8.90604E14	 	4.15487E-15	 	17648.95111	28.19582	 
480.0	1.0	0.0	8.58427	7.18803	-7.78782	13.61933	18.0582	1.02182	0.97865	188.91229	178.67769	71.353	0.32379	 	1.19169E15	 	3.08465E-15	 	17508.19996	28.15023	 
475.0	1.0	0.0	8.58626	7.18636	-7.80923	13.59542	17.97728	1.0196	0.98077	189.23165	178.84038	71.48103	0.32365	 	1.60078E15	 	2.2811E-15	 	17367.6764	28.10471	 
470.0	1.0	0.0	8.58825	7.18469	-7.83059	13.57151	17.89635	1.01737	0.98293	189.55037	179.00223	71.60886	0.32351	 	2.15886E15	 	1.68011E-15	 	17227.38006	28.05927	 
465.0	1.0	0.0	8.59023	7.18303	-7.85187	13.54761	17.81542	1.01511	0.98511	189.86847	179.16323	71.73647	0.32337	 	2.92333E15	 	1.23241E-15	 	17087.31065	28.01388	 
460.0	1.0	0.0	8.59221	7.18138	-7.87309	13.52372	17.73448	1.01284	0.98732	190.18595	179.3234	71.86388	0.32324	 	3.9749E15	 	9.0023E-16	 	16947.46783	27.96856	 
455.0	1.0	0.0	8.59418	7.17973	-7.89425	13.49983	17.65354	1.01054	0.98957	190.50279	179.48272	71.99107	0.3231	 	5.42759E15	 	6.54787E-16	 	16807.85128	27.92331	 
450.0	1.0	0.0	8.59615	7.17809	-7.91533	13.47595	17.57258	1.00823	0.99184	190.81901	179.64121	72.11805	0.32296	 	7.4432E15	 	4.74194E-16	 	16668.46071	27.87811	 
445.0	1.0	0.0	8.59812	7.17645	-7.93636	13.45207	17.49162	1.00589	0.99414	191.13461	179.79886	72.24483	0.32283	 	1.02523E16	 	3.41885E-16	 	16529.29578	27.83298	 
440.0	1.0	0.0	8.60007	7.17481	-7.95731	13.4282	17.41066	1.00353	0.99648	191.44957	179.95568	72.37139	0.32269	 	1.41851E16	 	2.45377E-16	 	16390.35624	27.78791	 
435.0	1.0	0.0	8.60203	7.17318	-7.97821	13.40434	17.32968	1.00115	0.99885	191.76391	180.11167	72.49774	0.32255	 	1.97168E16	 	1.75297E-16	 	16251.64177	27.74289	 
430.0	1.0	0.0	8.60397	7.17156	-7.99903	13.38048	17.2487	0.99875	1.00125	192.07763	180.26682	72.62389	0.32241	 	2.75342E16	 	1.24641E-16	 	16113.15211	27.69793	 
425.0	1.0	0.0	8.60591	7.16994	-8.01979	13.35663	17.16772	0.99633	1.00369	192.39071	180.42116	72.74982	0.32228	 	3.86356E16	 	8.81958E-17	 	15974.88697	27.65303	 
420.0	1.0	0.0	8.60785	7.16833	-8.04049	13.33279	17.08672	0.99388	1.00616	192.70317	180.57466	72.87554	0.32214	 	5.44784E16	 	6.20997E-17	 	15836.84612	27.60817	 
415.0	1.0	0.0	8.60978	7.16672	-8.06112	13.30895	17.00572	0.99141	1.00866	193.01501	180.72734	73.00105	0.322	 	7.72022E16	 	4.35051E-17	 	15699.02929	27.56337	 
410.0	1.0	0.0	8.61171	7.16512	-8.08168	13.28512	16.92471	0.98892	1.0112	193.32621	180.8792	73.12634	0.32186	 	1.09964E17	 	3.03216E-17	 	15561.43623	27.51861	 
405.0	1.0	0.0	8.61363	7.16352	-8.10218	13.2613	16.84369	0.9864	1.01378	193.63679	181.03024	73.25143	0.32173	 	1.57448E17	 	2.1022E-17	 	15424.06671	27.4739	 
400.0	1.0	0.0	8.61555	7.16193	-8.12262	13.23748	16.76267	0.98386	1.0164	193.94675	181.18046	73.37631	0.32159	 	2.26642E17	 	1.44963E-17	 	15286.92052	27.42924	 
395.0	1.0	0.0	8.61746	7.16034	-8.14298	13.21367	16.68164	0.9813	1.01906	194.25607	181.32987	73.50097	0.32145	 	3.28029E17	 	9.94143E-18	 	15149.99742	27.38462	 
390.0	1.0	0.0	8.61936	7.15876	-8.16329	13.18986	16.6006	0.97871	1.02175	194.56477	181.47846	73.62542	0.32132	 	4.77423E17	 	6.77946E-18	 	15013.29723	27.34004	 
385.0	1.0	0.0	8.62126	7.15718	-8.18352	13.16606	16.51956	0.9761	1.02449	194.87284	181.62624	73.74967	0.32118	 	6.98831E17	 	4.59663E-18	 	14876.81975	27.2955	 
380.0	1.0	0.0	8.62316	7.15561	-8.2037	13.14227	16.4385	0.97346	1.02727	195.18029	181.77321	73.8737	0.32104	 	1.0289E18	 	3.09832E-18	 	14740.5648	27.25099	 
375.0	1.0	0.0	8.62505	7.15404	-8.2238	13.11848	16.35744	0.97079	1.03009	195.48711	181.91937	73.99752	0.3209	 	1.52394E18	 	2.07584E-18	 	14604.53221	27.20652	 
370.0	1.0	0.0	8.62693	7.15248	-8.24385	13.0947	16.27637	0.9681	1.03295	195.7933	182.06472	74.12112	0.32077	 	2.27098E18	 	1.38225E-18	 	14468.72183	27.16208	 
365.0	1.0	0.0	8.62881	7.15092	-8.26382	13.07093	16.1953	0.96538	1.03586	196.09886	182.20927	74.24452	0.32063	 	3.40545E18	 	9.14607E-19	 	14333.1335	27.11767	 
360.0	1.0	0.0	8.63068	7.14937	-8.28374	13.04716	16.11421	0.96264	1.03881	196.4038	182.35301	74.3677	0.32049	 	5.13943E18	 	6.01282E-19	 	14197.76709	27.07328	 
355.0	1.0	0.0	8.63255	7.14782	-8.30358	13.0234	16.03312	0.95987	1.04181	196.70811	182.49595	74.49068	0.32035	 	7.8073E18	 	3.9269E-19	 	14062.6225	27.02892	 
350.0	1.0	0.0	8.63441	7.14628	-8.32336	12.99964	15.95202	0.95707	1.04486	197.01179	182.63809	74.61344	0.32022	 	1.19399E19	 	2.54729E-19	 	13927.69962	26.98458	 
345.0	1.0	0.0	8.63627	7.14474	-8.34308	12.9759	15.87091	0.95424	1.04795	197.31485	182.77944	74.73598	0.32008	 	1.83859E19	 	1.64095E-19	 	13792.99835	26.94025	 
340.0	1.0	0.0	8.63812	7.14321	-8.36273	12.95215	15.78979	0.95139	1.0511	197.61728	182.91999	74.85832	0.31994	 	2.8512E19	 	1.04961E-19	 	13658.51864	26.89594	 
335.0	1.0	0.0	8.63997	7.14168	-8.38232	12.92842	15.70867	0.9485	1.0543	197.91908	183.05974	74.98044	0.3198	 	4.45351E19	 	6.66492E-20	 	13524.26041	26.85165	 
330.0	1.0	0.0	8.64181	7.14016	-8.40184	12.90469	15.62754	0.94559	1.05755	198.22025	183.1987	75.10236	0.31967	 	7.00791E19	 	4.20072E-20	 	13390.22363	26.80736	 
325.0	1.0	0.0	8.64365	7.13864	-8.4213	12.88096	15.5464	0.94264	1.06085	198.5208	183.33687	75.22406	0.31953	 	1.1111299999999998E20	 	2.62742E-20	 	13256.40827	26.76307	 
320.0	1.0	0.0	8.64548	7.13713	-8.44069	12.85725	15.46525	0.93967	1.06421	198.82072	183.47426	75.34554	0.31939	 	1.7755E20	 	1.63054E-20	 	13122.81434	26.71879	 
315.0	1.0	0.0	8.6473	7.13563	-8.46002	12.83354	15.38409	0.93666	1.06762	199.12001	183.61085	75.46682	0.31926	 	2.8597799999999997E20	 	1.00379E-20	 	12989.44184	26.6745	 
310.0	1.0	0.0	8.64912	7.13413	-8.47928	12.80983	15.30292	0.93362	1.0711	199.41868	183.74666	75.58788	0.31912	 	4.6440499999999997E20	 	6.12873E-21	 	12856.2908	26.63021	 
305.0	1.0	0.0	8.65094	7.13263	-8.49848	12.78613	15.22175	0.93055	1.07463	199.71672	183.88169	75.70873	0.31898	 	7.605059999999999E20	 	3.71043E-21	 	12723.36129	26.5859	 
300.0	1.0	0.0	8.65275	7.13114	-8.51761	12.76244	15.14057	0.92745	1.07822	200.01413	184.01593	75.82937	0.31884	 	1.25616E21	 	2.22695E-21	 	12590.65337	26.54158	 
295.0	1.0	0.0	8.65455	7.12965	-8.53668	12.73876	15.05937	0.92432	1.08188	200.31091	184.1494	75.94979	0.31871	 	2.09327E21	 	1.32472E-21	 	12458.16715	26.49724	 
290.0	1.0	0.0	8.65635	7.12817	-8.55568	12.71508	14.97817	0.92115	1.0856	200.60707	184.28208	76.07	0.31857	 	3.51999E21	 	7.80853E-22	 	12325.90273	26.45288	 
285.0	1.0	0.0	8.65814	7.12669	-8.57462	12.69141	14.89697	0.91795	1.08938	200.9026	184.41399	76.19	0.31843	 	5.97452E21	 	4.55969E-22	 	12193.86026	26.40849	 
280.0	1.0	0.0	8.65993	7.12522	-8.59349	12.66774	14.81575	0.91471	1.09324	201.1975	184.54513	76.30979	0.31829	 	1.02381E22	 	2.63701E-22	 	12062.03992	26.36407	 
275.0	1.0	0.0	8.66171	7.12376	-8.6123	12.64408	14.73452	0.91144	1.09716	201.49178	184.67549	76.42936	0.31816	 	1.7717399999999998E22	 	1.51003E-22	 	11930.44189	26.31961	 
270.0	1.0	0.0	8.66349	7.1223	-8.63104	12.62043	14.65328	0.90814	1.10116	201.78542	184.80508	76.54872	0.31802	 	3.0971899999999998E22	 	8.55932E-23	 	11799.06642	26.2751	 
265.0	1.0	0.0	8.66526	7.12084	-8.64972	12.59678	14.57204	0.90479	1.10523	202.07844	184.9339	76.66787	0.31788	 	5.470689999999999E22	 	4.80118E-23	 	11667.91372	26.23054	 
260.0	1.0	0.0	8.66703	7.11939	-8.66833	12.57314	14.49079	0.90141	1.10937	202.37084	185.06195	76.7868	0.31774	 	9.76678E22	 	2.66431E-23	 	11536.9841	26.18592	 
255.0	1.0	0.0	8.66879	7.11794	-8.68688	12.5495	14.40952	0.89799	1.11359	202.6626	185.18924	76.90552	0.31761	 	1.76289E23	 	1.46224E-23	 	11406.27786	26.14125	 
250.0	1.0	0.0	8.67054	7.1165	-8.70537	12.52587	14.32825	0.89454	1.11789	202.95374	185.31576	77.02403	0.31747	 	3.2181299999999995E23	 	7.93431E-24	 	11275.79535	26.0965	 
245.0	1.0	0.0	8.67229	7.11507	-8.72379	12.50225	14.24697	0.89104	1.12228	203.24425	185.44152	77.14232	0.31733	 	5.943269999999999E23	 	4.25517E-24	 	11145.53696	26.05168	 
240.0	1.0	0.0	8.67404	7.11363	-8.74215	12.47864	14.16568	0.88751	1.12675	203.53413	185.56652	77.2604	0.3172	 	1.11081E24	 	2.25472E-24	 	11015.50309	26.00678	 
235.0	1.0	0.0	8.67577	7.11221	-8.76044	12.45503	14.08438	0.88394	1.1313	203.82339	185.69076	77.37826	0.31706	 	2.10183E24	 	1.18E-24	 	10885.69419	25.96178	 
230.0	1.0	0.0	8.67751	7.11079	-8.77867	12.43142	14.00306	0.88032	1.13595	204.11202	185.81424	77.49592	0.31692	 	4.02774E24	 	6.09709E-25	 	10756.11077	25.91668	 
225.0	1.0	0.0	8.67924	7.10937	-8.79683	12.40783	13.92174	0.87666	1.14069	204.40002	185.93697	77.61336	0.31678	 	7.8198E24	 	3.10922E-25	 	10626.75336	25.87148	 
220.0	1.0	0.0	8.68096	7.10796	-8.81493	12.38424	13.84041	0.87296	1.14552	204.68739	186.05894	77.73058	0.31665	 	1.53876E25	 	1.56421E-25	 	10497.62253	25.82617	 
215.0	1.0	0.0	8.68268	7.10656	-8.83296	12.36065	13.75908	0.86922	1.15046	204.97414	186.18016	77.84759	0.31651	 	3.07023E25	 	7.76014E-26	 	10368.71891	25.78072	 
210.0	1.0	0.0	8.68439	7.10515	-8.85093	12.33707	13.67773	0.86543	1.15549	205.26026	186.30063	77.96439	0.31637	 	6.214100000000001E25	 	3.79481E-26	 	10240.04318	25.73515	 
205.0	1.0	0.0	8.68609	7.10376	-8.86884	12.3135	13.59637	0.8616	1.16063	205.54575	186.42035	78.08097	0.31623	 	1.2764100000000001E26	 	1.82835E-26	 	10111.59605	25.68943	 
200.0	1.0	0.0	8.68779	7.10237	-8.88668	12.28994	13.515	0.85773	1.16587	205.83061	186.53933	78.19734	0.3161	 	2.66201E26	 	8.67513E-27	 	9983.37831	25.64355	 
195.0	1.0	0.0	8.68949	7.10098	-8.90445	12.26638	13.43362	0.8538	1.17123	206.11485	186.65755	78.3135	0.31596	 	5.639580000000001E26	 	4.05158E-27	 	9855.39078	25.59751	 
190.0	1.0	0.0	8.69118	7.0996	-8.92217	12.24283	13.35223	0.84983	1.1767	206.39846	186.77504	78.42944	0.31582	 	1.2143E27	 	1.86159E-27	 	9727.63436	25.55128	 
185.0	1.0	0.0	8.69286	7.09823	-8.93981	12.21928	13.27083	0.84582	1.18229	206.68144	186.89178	78.54517	0.31569	 	2.65871E27	 	8.41052E-28	 	9600.11001	25.50487	 
180.0	1.0	0.0	8.69454	7.09686	-8.9574	12.19574	13.18941	0.84175	1.188	206.9638	187.00778	78.66068	0.31555	 	5.92284E27	 	3.73421E-28	 	9472.81875	25.45825	 
175.0	1.0	0.0	8.69622	7.09549	-8.97492	12.17221	13.10799	0.83763	1.19384	207.24553	187.12304	78.77598	0.31541	 	1.34323E28	 	1.6284E-28	 	9345.76166	25.41142	 
170.0	1.0	0.0	8.69788	7.09413	-8.99237	12.14868	13.02656	0.83346	1.19981	207.52663	187.23757	78.89107	0.31527	 	3.10309E28	 	6.97016E-29	 	9218.93991	25.36435	 
165.0	1.0	0.0	8.69955	7.09277	-9.00977	12.12516	12.94512	0.82925	1.20592	207.8071	187.35136	79.00594	0.31514	 	7.307000000000001E28	 	2.92665E-29	 	9092.35476	25.31703	 
160.0	1.0	0.0	8.7012	7.09142	-9.02709	12.10164	12.86367	0.82497	1.21216	208.08695	187.46441	79.12059	0.315	 	1.75497E29	 	1.20463E-29	 	8966.0075	25.26945	 
155.0	1.0	0.0	8.70286	7.09008	-9.04436	12.07814	12.7822	0.82065	1.21855	208.36617	187.57674	79.23503	0.31486	 	4.30219E29	 	4.85728E-30	 	8839.89956	25.22159	 
150.0	1.0	0.0	8.7045	7.08874	-9.06155	12.05463	12.70073	0.81627	1.22509	208.64477	187.68833	79.34926	0.31472	 	1.07724E30	 	1.91721E-30	 	8714.03244	25.17342	 
145.0	1.0	0.0	8.70614	7.0874	-9.07869	12.03114	12.61924	0.81183	1.23179	208.92273	187.7992	79.46327	0.31459	 	2.7571899999999997E30	 	7.40204E-31	 	8588.40774	25.12494	 
140.0	1.0	0.0	8.70778	7.08607	-9.09576	12.00765	12.53774	0.80734	1.23864	209.20007	187.90933	79.57707	0.31445	 	7.2194E30	 	2.79314E-31	 	8463.02717	25.07611	 
135.0	1.0	0.0	8.70941	7.08474	-9.11277	11.98417	12.45623	0.80278	1.24566	209.47679	188.01875	79.69065	0.31431	 	1.93543E31	 	1.02927E-31	 	8337.89254	25.02693	 
130.0	1.0	0.0	8.71103	7.08342	-9.12971	11.96069	12.37471	0.79817	1.25286	209.75287	188.12743	79.80402	0.31417	 	5.3171299999999995E31	 	3.70063E-32	 	8213.00577	24.97735	 
125.0	1.0	0.0	8.71265	7.08211	-9.14659	11.93722	12.29318	0.7935	1.26023	210.02833	188.2354	79.91717	0.31404	 	1.49831E32	 	1.29698E-32	 	8088.36892	24.92737	 
120.0	1.0	0.0	8.71426	7.0808	-9.16341	11.91376	12.21164	0.78877	1.2678	210.30317	188.34265	80.03011	0.3139	 	4.33479E32	 	4.42667E-33	 	7963.98417	24.87695	 
115.0	1.0	0.0	8.71587	7.07949	-9.18016	11.8903	12.13008	0.78397	1.27555	210.57737	188.44917	80.14284	0.31376	 	1.28891E33	 	1.46982E-33	 	7839.85384	24.82607	 
110.0	1.0	0.0	8.71747	7.07819	-9.19685	11.86685	12.04852	0.77911	1.28351	210.85096	188.55499	80.25535	0.31363	 	3.9430000000000004E33	 	4.74274E-34	 	7715.98042	24.77468	 
105.0	1.0	0.0	8.71907	7.07689	-9.21347	11.8434	11.96694	0.77419	1.29167	211.12391	188.66008	80.36764	0.31349	 	1.24243E34	 	1.48552E-34	 	7592.36653	24.72278	 
100.0	1.0	0.0	8.72066	7.0756	-9.23003	11.81996	11.88535	0.7692	1.30006	211.39624	188.76446	80.47972	0.31335	 	4.03717E34	 	4.51121E-35	 	7469.01498	24.67031	 
95.0	1.0	0.0	8.72224	7.07432	-9.24653	11.79653	11.80375	0.76414	1.30867	211.66794	188.86813	80.59159	0.31321	 	1.35452E35	 	1.32656E-35	 	7345.92873	24.61725	 
90.0	1.0	0.0	8.72382	7.07304	-9.26296	11.77311	11.72213	0.75901	1.31751	211.93902	188.97109	80.70324	0.31308	 	4.6985799999999994E35	 	3.7723E-36	 	7223.11097	24.56355	 
85.0	1.0	0.0	8.7254	7.07176	-9.27933	11.74969	11.64051	0.75381	1.3266	212.20947	189.07334	80.81467	0.31294	 	1.6874599999999998E36	 	1.0359E-36	 	7100.56509	24.50918	 
80.0	1.0	0.0	8.72696	7.07049	-9.29563	11.72627	11.55887	0.74853	1.33595	212.4793	189.17489	80.92589	0.3128	 	6.28378E36	 	2.74299E-37	 	6978.29469	24.45408	 
75.0	1.0	0.0	8.72853	7.06922	-9.31187	11.70287	11.47722	0.74318	1.34556	212.7485	189.27572	81.0369	0.31266	 	2.43002E37	 	6.99266E-38	 	6856.30359	24.39822	 
70.0	1.0	0.0	8.73009	7.06796	-9.32805	11.67947	11.39555	0.73776	1.35546	213.01707	189.37586	81.14769	0.31253	 	9.77502E37	 	1.71338E-38	 	6734.59591	24.34154	 
65.0	1.0	0.0	8.73164	7.06671	-9.34417	11.65607	11.31388	0.73226	1.36564	213.28503	189.47529	81.25826	0.31239	 	4.09733E38	 	4.02805E-39	 	6613.176	24.28398	 
60.0	1.0	0.0	8.73318	7.06546	-9.36022	11.63268	11.23219	0.72668	1.37613	213.55235	189.57403	81.36862	0.31225	 	1.79294E39	 	9.069E-40	 	6492.04853	24.22549	 
55.0	1.0	0.0	8.73472	7.06421	-9.3762	11.6093	11.15049	0.72102	1.38693	213.81905	189.67206	81.47877	0.31212	 	8.206700000000001E39	 	1.9516E-40	 	6371.21846	24.16601	 
50.0	1.0	0.0	8.73626	7.06297	-9.39213	11.58593	11.06877	0.71527	1.39807	214.08513	189.7694	81.5887	0.31198	 	3.93742E40	 	4.0057E-41	 	6250.69114	24.10546	 
45.0	1.0	0.0	8.73779	7.06173	-9.40799	11.56256	10.98704	0.70944	1.40956	214.35059	189.86605	81.69842	0.31184	 	1.98455E41	 	7.82449E-42	 	6130.47223	24.04378	 
40.0	1.0	0.0	8.73931	7.0605	-9.42378	11.53919	10.9053	0.70353	1.42141	214.61542	189.962	81.80792	0.3117	 	1.05328E42	 	1.45109E-42	 	6010.56781	23.98088	 
35.0	1.0	0.0	8.74083	7.05927	-9.43952	11.51584	10.82355	0.69752	1.43364	214.87962	190.05726	81.9172	0.31157	 	5.90134E42	 	2.54858E-43	 	5890.9844	23.91668	 
30.0	1.0	0.0	8.74234	7.05805	-9.45519	11.49249	10.74178	0.69143	1.44628	215.14321	190.15183	82.02628	0.31143	 	3.4998E43	 	4.22767E-44	 	5771.72897	23.85109	 
25.0	1.0	0.0	8.74385	7.05684	-9.47079	 	10.66	0.68524	1.45934	215.40617	190.24571	82.13513	0.31129	 	2.20326E44	 	6.60473E-45	 	5652.80898	 	 
