T (C)	Fraction solid (wt)-TOTAL	Fraction liquid (wt)-LIQUID	Density (g/(cm)^3)-TOTAL	Molar volume (cm^3)-TOTAL	Volume change (%)-  	Average expansion coeff. (10e-6 1/K)-  	Thermal conductivity (W/(m*K))-TOTAL	Electrical resistivity (10e-6 Ohm*m)-TOTAL	Electrical conductivity (10e6 1/(Ohm*m))-TOTAL	Young's modulus (GPa)-TOTAL	Bulk modulus (GPa)-TOTAL	Shear modulus(GPa)-TOTAL	Poisson's ratio-TOTAL	Liquid viscosity (mPa s)-  	Total viscosity (mPa s)-  	Liquid diffusivity (10e-9 (m^2)/s)-  	Total diffusivity (10e-9 (m^2)/s)-  	Surface Tension (mN/m)-  	Enthalpy (J/mole)-TOTAL	Specific heat (J/(mole K))-TOTAL	Latent heat (J/mole)-TOTAL
1400.0	0.0	1.0	8.05146	7.85021	0.0	25.63585	28.82072	1.42232	0.70308	0.0	134.8389	0.0	0.5	9.95136	9.95136	0.82061	0.82061	1889.03178	62123.709	 	0.0
1395.0	0.0	1.0	8.05549	7.84628	-0.0500574	25.59474	28.74291	1.4219	0.70328	0.0	135.01197	0.0	0.5	10.06521	10.06521	0.80891	0.80891	1891.16209	61919.913	40.7592	0.0
1390.0	0.0	1.0	8.05952	7.84236	-0.099965	25.55373	28.6651	1.42149	0.70349	0.0	135.18505	0.0	0.5	10.18107	10.18107	0.79731	0.79731	1893.2961	61716.596	40.6634	0.0
1385.0	0.0	1.0	8.06353	7.83846	-0.14972	25.51282	28.58729	1.42107	0.70369	0.0	135.35812	0.0	0.5	10.29897	10.29897	0.78581	0.78581	1895.43389	61513.757	40.5678	0.0
1380.0	0.0	1.0	8.06754	7.83456	-0.19933	25.47203	28.50948	1.42066	0.7039	0.0	135.5312	0.0	0.5	10.41896	10.41896	0.77442	0.77442	1897.5755	61311.392	40.473	0.0
1375.29	0.0	1.0	8.07131	7.8309	-0.24596	25.43366	28.43612	1.42026	0.7041	0.0	135.69437	0.0	0.5	10.53404	10.53404	0.76377	0.76377	1899.59805	61121.048	40.38042	0.0
1375.0	0.0132	0.9868	8.07457	7.82771	-0.28668	25.32787	28.48055	1.4178	0.70532	3.43076E-6	135.79619	1.14503E-6	0.49811	10.54911	10.73937	0.76255	0.74904	1899.81505	60912.197	729.66146	197.303
1370.0	0.23157	0.76843	8.12847	7.77579	-0.94801	23.60975	29.22908	1.3773	0.72606	0.33418	137.38238	0.11394	0.46646	10.81658	154.62871	0.74144	0.0518649	1903.62573	57476.097	687.22	3431.977
1365.0	0.39345	0.60655	8.16919	7.73694	-1.44285	22.33671	29.79722	1.34693	0.74243	2.84598	138.55542	0.98642	0.44258	11.09089	1255.52912	0.7209	0.00636815	1907.43786	54901.736	514.8722	5805.379
1360.0	0.51546	0.48454	8.20053	7.70741	-1.81905	21.38171	30.23269	1.32347	0.75559	8.52648	139.45629	2.99316	0.42433	11.37214	3889.33678	0.70092	0.00204945	1911.24731	52930.643	394.2186	7575.976
1355.0	0.60881	0.39119	8.2251	7.68439	-2.11232	20.64935	30.56436	1.3051	0.76622	16.81864	140.17161	5.9633	0.41018	11.66063	8016.98692	0.68149	9.9122E-4	1915.05307	51389.971	308.1344	8916.61
1350.0	0.68117	0.31883	8.2447	7.66612	-2.34508	20.07979	30.81341	1.29058	0.77485	26.6522	140.76085	9.52489	0.39908	11.9564	13336.40563	0.66259	5.94028E-4	1918.85324	50161.709	245.6524	9945.293
1345.0	0.73796	0.26204	8.2606	7.65137	-2.53291	19.63139	30.99672	1.279	0.78186	37.05741	141.26395	13.32735	0.39028	12.25953	19522.23371	0.64422	4.04554E-4	1922.64615	49163.754	199.591	10744.122
1340.0	0.78302	0.21698	8.27373	7.63923	-2.68759	19.27247	31.12775	1.26968	0.7876	47.34474	141.70588	17.11403	0.38321	12.57049	26315.22925	0.62634	2.99195E-4	1926.43113	48338.008	165.1492	11371.195
1335.0	0.81913	0.18087	8.28474	7.62908	-2.81683	18.98241	31.21741	1.26211	0.79233	57.09524	142.10541	20.72434	0.37749	12.88917	33539.6789	0.60896	2.34021E-4	1930.20655	47642.709	139.0598	11868.271
1330.01	0.84827	0.15173	8.29411	7.62045	-2.9268	18.74439	31.27397	1.25591	0.79623	66.06651	142.47333	24.0623	0.37282	13.2152	41068.94191	0.59209	1.90524E-4	1933.96487	47048.665	 	12264.961
1330.0	0.84836	0.15164	8.29415	7.62043	-2.92706	18.7438	31.27424	1.2559	0.79624	66.09623	142.47469	24.07337	0.37281	13.21556	41092.03416	0.59207	1.90416E-4	1933.96056	47046.864	119.169	12266.337
1325.0	0.89529	0.10471	8.30872	7.60706	-3.09745	18.3328	31.40624	1.24672	0.80211	82.54939	143.02218	30.22976	0.36537	13.366	54001.42154	0.58358	1.44444E-4	1932.00742	46181.287	173.1154	12934.58
1320.5	0.92567	0.07433	8.31888	7.59778	-3.21566	18.06014	31.46973	1.2407	0.806	94.88407	143.42982	34.87184	0.36047	13.50457	65204.05141	0.57597	1.1929E-4	1930.08818	45572.799	 	13365.833
1320.0	0.93291	0.067088	8.32109	7.59575	-3.24147	17.99367	31.4919	1.23944	0.80682	98.04979	143.53838	36.06617	0.3593	13.51669	67672.33894	0.57527	1.14903E-4	1930.01183	45450.123	146.2328	13468.851
1315.19	1.0	-3.435E-9	8.342	7.57671	-3.48397	17.36796	31.68729	1.22807	0.81428	131.45262	144.58221	48.74145	0.34847	 	94835.68195	 	8.17445E-5	 	44301.743	 	14428.238
1315.0	1.0	0.0	8.3421	7.57663	-3.48503	17.36751	31.68416	1.22805	0.8143	131.46845	144.595	48.7475	0.34846	 	95073.417	 	8.15303E-5	 	44294.73666	231.07727	 
1310.0	1.0	0.0	8.34483	7.57415	-3.51656	17.34464	31.601	1.2274	0.81473	131.87753	144.90733	48.9044	0.34832	 	101564.8945	 	7.60791E-5	 	44110.48378	36.85058	 
1305.0	1.0	0.0	8.34755	7.57168	-3.54803	17.32177	31.51784	1.22676	0.81516	132.28596	145.21837	49.06109	0.34818	 	108545.0196	 	7.09619E-5	 	43926.52963	36.79083	 
1300.0	1.0	0.0	8.35027	7.56922	-3.57944	17.29891	31.43467	1.2261	0.81559	132.69376	145.52813	49.21759	0.34803	 	116053.8825	 	6.61603E-5	 	43742.87365	36.73119	 
1295.0	1.0	0.0	8.35299	7.56676	-3.61078	17.27605	31.3515	1.22545	0.81603	133.10092	145.8366	49.37388	0.34789	 	124135.1278	 	6.16566E-5	 	43559.51532	36.67167	 
1290.0	1.0	0.0	8.3557	7.5643	-3.64206	17.25319	31.26833	1.22479	0.81647	133.50745	146.14379	49.52997	0.34774	 	132836.2918	 	5.74342E-5	 	43376.45406	36.61225	 
1285.0	1.0	0.0	8.35841	7.56185	-3.67328	17.23034	31.18516	1.22413	0.81691	133.91334	146.4497	49.68585	0.3476	 	142209.1754	 	5.34772E-5	 	43193.68934	36.55294	 
1280.0	1.0	0.0	8.36111	7.55941	-3.70443	17.20749	31.10199	1.22346	0.81735	134.31859	146.75435	49.84153	0.34746	 	152310.2543	 	4.97704E-5	 	43011.22061	36.49375	 
1275.0	1.0	0.0	8.36381	7.55696	-3.73552	17.18464	31.01882	1.2228	0.8178	134.72321	147.05772	49.99701	0.34731	 	163201.1317	 	4.62995E-5	 	42829.04732	36.43466	 
1270.0	1.0	0.0	8.36651	7.55453	-3.76655	17.16179	30.93564	1.22212	0.81825	135.12718	147.35983	50.15229	0.34717	 	174949.0376	 	4.3051E-5	 	42647.16895	36.37568	 
1265.0	1.0	0.0	8.3692	7.5521	-3.79752	17.13895	30.85247	1.22145	0.8187	135.53053	147.66067	50.30736	0.34702	 	187627.3797	 	4.00119E-5	 	42465.58492	36.3168	 
1260.0	1.0	0.0	8.37189	7.54967	-3.82842	17.11611	30.76929	1.22077	0.81916	135.93323	147.96026	50.46223	0.34688	 	201316.3529	 	3.717E-5	 	42284.29472	36.25804	 
1255.0	1.0	0.0	8.37458	7.54725	-3.85926	17.09327	30.68611	1.22009	0.81961	136.3353	148.2586	50.6169	0.34674	 	216103.6112	 	3.45136E-5	 	42103.29778	36.19939	 
1250.0	1.0	0.0	8.37726	7.54484	-3.89004	17.07044	30.60292	1.2194	0.82008	136.73674	148.55568	50.77136	0.34659	 	232085.0122	 	3.20319E-5	 	41922.59358	36.14084	 
1245.0	1.0	0.0	8.37994	7.54242	-3.92075	17.04761	30.51974	1.21871	0.82054	137.13753	148.85152	50.92562	0.34645	 	249365.4399	 	2.97143E-5	 	41742.18157	36.0824	 
1240.0	1.0	0.0	8.38261	7.54002	-3.9514	17.02478	30.43655	1.21801	0.82101	137.53769	149.14611	51.07968	0.34631	 	268059.7158	 	2.7551E-5	 	41562.06121	36.02407	 
1235.0	1.0	0.0	8.38528	7.53762	-3.98199	17.00196	30.35337	1.21732	0.82148	137.93722	149.43946	51.23353	0.34616	 	288293.6077	 	2.55327E-5	 	41382.23197	35.96585	 
1230.0	1.0	0.0	8.38795	7.53522	-4.01251	16.97914	30.27018	1.21662	0.82195	138.3361	149.73157	51.38718	0.34602	 	310204.9483	 	2.36505E-5	 	41202.6933	35.90773	 
1225.0	1.0	0.0	8.39061	7.53283	-4.04298	16.95632	30.18698	1.21591	0.82243	138.73435	150.02246	51.54063	0.34587	 	333944.8751	 	2.18961E-5	 	41023.44467	35.84973	 
1220.0	1.0	0.0	8.39327	7.53044	-4.07338	16.9335	30.10379	1.2152	0.82291	139.13197	150.31211	51.69387	0.34573	 	359679.2063	 	2.02617E-5	 	40844.48554	35.79183	 
1215.0	1.0	0.0	8.39592	7.52806	-4.10371	16.91069	30.0206	1.21449	0.82339	139.52895	150.60053	51.84691	0.34559	 	387589.9682	 	1.87396E-5	 	40665.81538	35.73403	 
1210.0	1.0	0.0	8.39858	7.52568	-4.13398	16.88788	29.9374	1.21377	0.82388	139.92529	150.88773	51.99974	0.34544	 	417877.0924	 	1.7323E-5	 	40487.43364	35.67635	 
1205.0	1.0	0.0	8.40122	7.52331	-4.1642	16.86508	29.8542	1.21305	0.82437	140.32099	151.17371	52.15237	0.3453	 	450760.3017	 	1.60051E-5	 	40309.33981	35.61877	 
1200.0	1.0	0.0	8.40387	7.52095	-4.19434	16.84227	29.771	1.21233	0.82486	140.71606	151.45848	52.3048	0.34515	 	486481.2081	 	1.47798E-5	 	40131.53334	35.56129	 
1195.0	1.0	0.0	8.40651	7.51858	-4.22443	16.81947	29.6878	1.2116	0.82536	141.11049	151.74203	52.45702	0.34501	 	525305.6472	 	1.3641E-5	 	39954.01371	35.50393	 
1190.0	1.0	0.0	8.40914	7.51623	-4.25445	16.79668	29.60459	1.21087	0.82586	141.50429	152.02437	52.60904	0.34487	 	567526.2788	 	1.25832E-5	 	39776.78037	35.44667	 
1185.0	1.0	0.0	8.41177	7.51388	-4.28441	16.77388	29.52138	1.21013	0.82636	141.89744	152.30551	52.76085	0.34472	 	613465.4834	 	1.16011E-5	 	39599.83281	35.38951	 
1180.0	1.0	0.0	8.4144	7.51153	-4.31431	16.75109	29.43817	1.20939	0.82686	142.28997	152.58544	52.91246	0.34458	 	663478.5934	 	1.06898E-5	 	39423.17048	35.33246	 
1175.0	1.0	0.0	8.41703	7.50919	-4.34414	16.7283	29.35496	1.20864	0.82737	142.68185	152.86417	53.06387	0.34444	 	717957.4967	 	9.84468E-6	 	39246.79287	35.27552	 
1170.0	1.0	0.0	8.41965	7.50685	-4.37391	16.70552	29.27175	1.20789	0.82789	143.0731	153.14171	53.21507	0.34429	 	777334.6613	 	9.06129E-6	 	39070.69945	35.21869	 
1165.0	1.0	0.0	8.42226	7.50452	-4.40362	16.68274	29.18854	1.20714	0.8284	143.46371	153.41806	53.36607	0.34415	 	842087.6307	 	8.33554E-6	 	38894.88967	35.16196	 
1160.0	1.0	0.0	8.42488	7.50219	-4.43326	16.65996	29.10532	1.20638	0.82892	143.85369	153.69321	53.51686	0.344	 	912744.0501	 	7.66354E-6	 	38719.36303	35.10533	 
1155.0	1.0	0.0	8.42749	7.49987	-4.46285	16.63718	29.0221	1.20562	0.82945	144.24303	153.96718	53.66745	0.34386	 	989887.2887	 	7.04166E-6	 	38544.11899	35.04881	 
1150.0	1.0	0.0	8.43009	7.49755	-4.49237	16.61441	28.93888	1.20486	0.82997	144.63173	154.23996	53.81783	0.34372	 	1074162.733	 	6.46647E-6	 	38369.15704	34.99239	 
1145.0	1.0	0.0	8.43269	7.49524	-4.52182	16.59164	28.85566	1.20409	0.83051	145.0198	154.51157	53.96801	0.34357	 	1166284.84	 	5.93477E-6	 	38194.47664	34.93608	 
1140.0	1.0	0.0	8.43529	7.49293	-4.55122	16.56887	28.77243	1.20331	0.83104	145.40723	154.782	54.11799	0.34343	 	1267045.034	 	5.44356E-6	 	38020.07727	34.87987	 
1135.0	1.0	0.0	8.43788	7.49063	-4.58055	16.54611	28.6892	1.20253	0.83158	145.79402	155.05125	54.26776	0.34328	 	1377320.582	 	4.99E-6	 	37845.95842	34.82377	 
1130.0	1.0	0.0	8.44047	7.48833	-4.60982	16.52335	28.60597	1.20175	0.83212	146.18018	155.31934	54.41732	0.34314	 	1498084.535	 	4.57146E-6	 	37672.11956	34.76777	 
1125.0	1.0	0.0	8.44306	7.48604	-4.63902	16.50059	28.52274	1.20096	0.83267	146.5657	155.58626	54.56668	0.343	 	1630416.916	 	4.18545E-6	 	37498.56016	34.71188	 
1120.0	1.0	0.0	8.44564	7.48375	-4.66817	16.47784	28.43951	1.20017	0.83322	146.95058	155.85201	54.71583	0.34285	 	1775517.282	 	3.82966E-6	 	37325.27972	34.65609	 
1115.0	1.0	0.0	8.44821	7.48147	-4.69725	16.45509	28.35627	1.19937	0.83377	147.33483	156.11661	54.86478	0.34271	 	1934718.862	 	3.50191E-6	 	37152.27771	34.6004	 
1110.0	1.0	0.0	8.45079	7.47919	-4.72627	16.43234	28.27303	1.19857	0.83433	147.71844	156.38004	55.01353	0.34256	 	2109504.476	 	3.20019E-6	 	36979.55361	34.54482	 
1105.0	1.0	0.0	8.45336	7.47692	-4.75522	16.40959	28.18979	1.19776	0.83489	148.10141	156.64232	55.16207	0.34242	 	2301524.459	 	2.92259E-6	 	36807.10691	34.48934	 
1100.0	1.0	0.0	8.45592	7.47465	-4.78412	16.38685	28.10655	1.19695	0.83546	148.48375	156.90345	55.3104	0.34228	 	2512616.882	 	2.66734E-6	 	36634.9371	34.43396	 
1095.0	1.0	0.0	8.45848	7.47238	-4.81295	16.36411	28.02331	1.19614	0.83603	148.86545	157.16344	55.45853	0.34213	 	2744830.359	 	2.43279E-6	 	36463.04364	34.37869	 
1090.0	1.0	0.0	8.46104	7.47013	-4.84172	16.34138	27.94006	1.19532	0.8366	149.24651	157.42228	55.60645	0.34199	 	3000449.801	 	2.2174E-6	 	36291.42604	34.32352	 
1085.0	1.0	0.0	8.46359	7.46787	-4.87042	16.31864	27.85681	1.19449	0.83718	149.62694	157.67997	55.75417	0.34185	 	3282025.52	 	2.01973E-6	 	36120.08379	34.26845	 
1080.0	1.0	0.0	8.46614	7.46562	-4.89907	16.29591	27.77356	1.19366	0.83776	150.00673	157.93653	55.90168	0.3417	 	3592406.142	 	1.83843E-6	 	35949.01636	34.21349	 
1075.0	1.0	0.0	8.46869	7.46338	-4.92765	16.27318	27.6903	1.19282	0.83835	150.38588	158.19195	56.04898	0.34156	 	3934775.859	 	1.67226E-6	 	35778.22324	34.15862	 
1070.0	1.0	0.0	8.47123	7.46114	-4.95616	16.25046	27.60705	1.19198	0.83894	150.7644	158.44624	56.19608	0.34141	 	4312696.619	 	1.52007E-6	 	35607.70394	34.10386	 
1065.0	1.0	0.0	8.47377	7.45891	-4.98462	16.22774	27.52379	1.19114	0.83953	151.14228	158.6994	56.34298	0.34127	 	4730155.958	 	1.38075E-6	 	35437.45793	34.0492	 
1060.0	1.0	0.0	8.4763	7.45668	-5.01301	16.20502	27.44053	1.19029	0.84013	151.51952	158.95144	56.48967	0.34113	 	5191621.261	 	1.25332E-6	 	35267.48471	33.99465	 
1055.0	1.0	0.0	8.47883	7.45446	-5.04134	16.18231	27.35726	1.18943	0.84074	151.89613	159.20235	56.63615	0.34098	 	5702101.379	 	1.13684E-6	 	35097.78376	33.94019	 
1050.0	1.0	0.0	8.48135	7.45224	-5.06961	16.15959	27.274	1.18857	0.84134	152.2721	159.45214	56.78243	0.34084	 	6267216.639	 	1.03044E-6	 	34928.3546	33.88583	 
1045.0	1.0	0.0	8.48387	7.45002	-5.09782	16.13689	27.19073	1.18771	0.84196	152.64743	159.70081	56.9285	0.34069	 	6893278.478	 	9.3331E-7	 	34759.1967	33.83158	 
1040.0	1.0	0.0	8.48639	7.44781	-5.12596	16.11418	27.10746	1.18684	0.84257	153.02213	159.94837	57.07436	0.34055	 	7587380.085	 	8.44713E-7	 	34590.30956	33.77743	 
1035.0	1.0	0.0	8.4889	7.44561	-5.15404	16.09148	27.02418	1.18596	0.8432	153.39618	160.19482	57.22002	0.34041	 	8357499.668	 	7.63955E-7	 	34421.69269	33.72337	 
1030.0	1.0	0.0	8.49141	7.44341	-5.18206	16.06878	26.94091	1.18508	0.84382	153.76961	160.44016	57.36547	0.34026	 	9212618.198	 	6.90396E-7	 	34253.34558	33.66942	 
1025.0	1.0	0.0	8.49391	7.44121	-5.21002	16.04608	26.85763	1.1842	0.84446	154.14239	160.68439	57.51072	0.34012	 	1.016285379E7	 	6.23442E-7	 	34085.26771	33.61557	 
1020.0	1.0	0.0	8.49641	7.43902	-5.23791	16.02339	26.77435	1.1833	0.84509	154.51454	160.92752	57.65575	0.33998	 	1.121961522E7	 	5.62545E-7	 	33917.4586	33.56182	 
1015.0	1.0	0.0	8.49891	7.43684	-5.26574	16.00069	26.69107	1.18241	0.84573	154.88605	161.16955	57.80059	0.33983	 	1.239577736E7	 	5.072E-7	 	33749.91775	33.50817	 
1010.0	1.0	0.0	8.5014	7.43466	-5.29351	15.97801	26.60778	1.1815	0.84638	155.25693	161.41049	57.94521	0.33969	 	1.370588204E7	 	4.56938E-7	 	33582.64466	33.45462	 
1005.0	1.0	0.0	8.50389	7.43248	-5.32122	15.95532	26.52449	1.18059	0.84703	155.62716	161.65033	58.08963	0.33954	 	1.516636803E7	 	4.11327E-7	 	33415.63882	33.40117	 
1000.0	1.0	0.0	8.50637	7.43031	-5.34886	15.93264	26.4412	1.17968	0.84769	155.99676	161.88908	58.23384	0.3394	 	1.679583466E7	 	3.69968E-7	 	33248.89974	33.34782	 
995.0	1.0	0.0	8.50885	7.42815	-5.37644	15.90996	26.35791	1.17876	0.84835	156.36573	162.12675	58.37785	0.33926	 	1.861534446E7	 	3.32496E-7	 	33082.42693	33.29456	 
990.0	1.0	0.0	8.51133	7.42599	-5.40396	15.88729	26.27461	1.17784	0.84901	156.73405	162.36332	58.52165	0.33911	 	2.064877055E7	 	2.98571E-7	 	32916.2199	33.24141	 
985.0	1.0	0.0	8.5138	7.42383	-5.43142	15.86461	26.19131	1.1769	0.84969	157.10174	162.59882	58.66524	0.33897	 	2.292319621E7	 	2.67882E-7	 	32750.27813	33.18835	 
980.0	1.0	0.0	8.51627	7.42168	-5.45881	15.84194	26.10801	1.17597	0.85036	157.46879	162.83324	58.80862	0.33882	 	2.546937456E7	 	2.40144E-7	 	32584.60116	33.13539	 
975.0	1.0	0.0	8.51873	7.41954	-5.48615	15.81928	26.02471	1.17502	0.85105	157.83521	163.06658	58.9518	0.33868	 	2.83222581E7	 	2.15093E-7	 	32419.18849	33.08253	 
970.0	1.0	0.0	8.52119	7.4174	-5.51342	15.79661	25.9414	1.17408	0.85173	158.20099	163.29885	59.09477	0.33854	 	3.152160926E7	 	1.92487E-7	 	32254.03961	33.02978	 
965.0	1.0	0.0	8.52364	7.41526	-5.54062	15.77395	25.85809	1.17312	0.85243	158.56613	163.53005	59.23753	0.33839	 	3.511270513E7	 	1.72106E-7	 	32089.15405	32.97711	 
960.0	1.0	0.0	8.52609	7.41313	-5.56777	15.7513	25.77478	1.17216	0.85313	158.93063	163.76018	59.38009	0.33825	 	3.914715151E7	 	1.53746E-7	 	31924.53131	32.92455	 
955.0	1.0	0.0	8.52854	7.411	-5.59485	15.72864	25.69146	1.17119	0.85383	159.2945	163.98924	59.52243	0.3381	 	4.368382453E7	 	1.3722E-7	 	31760.17091	32.87208	 
950.0	1.0	0.0	8.53098	7.40888	-5.62187	15.70599	25.60814	1.17022	0.85454	159.65773	164.21724	59.66457	0.33796	 	4.878996066E7	 	1.22359E-7	 	31596.07236	32.81971	 
945.0	1.0	0.0	8.53342	7.40677	-5.64883	15.68334	25.52482	1.16924	0.85526	160.02032	164.44419	59.80651	0.33782	 	5.454241991E7	 	1.09007E-7	 	31432.23518	32.76744	 
940.0	1.0	0.0	8.53585	7.40465	-5.67573	15.6607	25.4415	1.16826	0.85598	160.38227	164.67008	59.94823	0.33767	 	6.102915137E7	 	9.70206E-8	 	31268.65888	32.71526	 
935.0	1.0	0.0	8.53828	7.40255	-5.70256	15.63805	25.35817	1.16726	0.8567	160.74359	164.89491	60.08975	0.33753	 	6.835089522E7	 	8.62707E-8	 	31105.34298	32.66318	 
930.0	1.0	0.0	8.54071	7.40045	-5.72934	15.61541	25.27485	1.16627	0.85744	161.10427	165.11869	60.23106	0.33739	 	7.662316144E7	 	7.66384E-8	 	30942.287	32.6112	 
925.0	1.0	0.0	8.54313	7.39835	-5.75605	15.59278	25.19151	1.16526	0.85818	161.46431	165.34143	60.37216	0.33724	 	8.597853296E7	 	6.80155E-8	 	30779.49046	32.55931	 
920.0	1.0	0.0	8.54554	7.39626	-5.7827	15.57014	25.10818	1.16425	0.85892	161.82372	165.56311	60.51305	0.3371	 	9.656934909E7	 	6.03035E-8	 	30616.95288	32.50752	 
915.0	1.0	0.0	8.54795	7.39417	-5.80928	15.54751	25.02484	1.16323	0.85967	162.18248	165.78376	60.65374	0.33695	 	1.085708358E8	 	5.34127E-8	 	30454.67377	32.45582	 
910.0	1.0	0.0	8.55036	7.39209	-5.83581	15.52489	24.9415	1.16221	0.86043	162.54061	166.00337	60.79421	0.33681	 	1.221847614E8	 	4.72617E-8	 	30292.65267	32.40422	 
905.0	1.0	0.0	8.55277	7.39001	-5.86227	15.50226	24.85816	1.16118	0.8612	162.89811	166.22194	60.93448	0.33667	 	1.376437101E8	 	4.17764E-8	 	30130.8891	32.35271	 
900.0	1.0	0.0	8.55517	7.38794	-5.88867	15.47964	24.77481	1.16014	0.86197	163.25496	166.43947	61.07454	0.33652	 	1.552160848E8	 	3.68896E-8	 	29969.38258	32.3013	 
895.0	1.0	0.0	8.55756	7.38587	-5.915	15.45702	24.69146	1.15909	0.86274	163.61118	166.65597	61.21439	0.33638	 	1.752119693E8	 	3.25403E-8	 	29808.13263	32.24999	 
890.0	1.0	0.0	8.55995	7.38381	-5.94128	15.43441	24.60811	1.15804	0.86353	163.96676	166.87145	61.35404	0.33623	 	1.979900066E8	 	2.86734E-8	 	29647.1388	32.19877	 
885.0	1.0	0.0	8.56234	7.38175	-5.96749	15.4118	24.52475	1.15698	0.86432	164.3217	167.08589	61.49347	0.33609	 	2.239654784E8	 	2.52389E-8	 	29486.4006	32.14764	 
880.0	1.0	0.0	8.56472	7.3797	-5.99365	15.38919	24.44139	1.15592	0.86512	164.676	167.29932	61.6327	0.33595	 	2.536198075E8	 	2.21916E-8	 	29325.91757	32.09661	 
875.0	1.0	0.0	8.5671	7.37765	-6.01973	15.36658	24.35803	1.15484	0.86592	165.02967	167.51172	61.77172	0.3358	 	2.87511748E8	 	1.94908E-8	 	29165.68923	32.04567	 
870.0	1.0	0.0	8.56947	7.37561	-6.04576	15.34398	24.27467	1.15376	0.86673	165.3827	167.7231	61.91053	0.33566	 	3.26290578E8	 	1.70996E-8	 	29005.71512	31.99482	 
865.0	1.0	0.0	8.57184	7.37357	-6.07173	15.32138	24.1913	1.15267	0.86755	165.73509	167.93347	62.04913	0.33552	 	3.707116745E8	 	1.49848E-8	 	28845.99479	31.94407	 
860.0	1.0	0.0	8.5742	7.37153	-6.09763	15.29878	24.10793	1.15158	0.86837	166.08685	168.14283	62.18752	0.33537	 	4.216549233E8	 	1.31165E-8	 	28686.52774	31.89341	 
855.0	1.0	0.0	8.57656	7.36951	-6.12347	15.27619	24.02455	1.15048	0.86921	166.43796	168.35117	62.3257	0.33523	 	4.801465082E8	 	1.14678E-8	 	28527.31353	31.84284	 
850.0	1.0	0.0	8.57892	7.36748	-6.14925	15.2536	23.94117	1.14937	0.87004	166.78844	168.55851	62.46367	0.33508	 	5.473847339E8	 	1.00146E-8	 	28368.3517	31.79237	 
845.0	1.0	0.0	8.58127	7.36546	-6.17497	15.23101	23.85779	1.14825	0.87089	167.13828	168.76484	62.60144	0.33494	 	6.247706691E8	 	8.73506E-9	 	28212.81351	31.10764	 
840.0	1.0	0.0	8.58362	7.36345	-6.20062	15.20843	23.77441	1.14712	0.87175	167.48748	168.97017	62.73899	0.3348	 	7.139445606E8	 	7.60985E-9	 	28054.35003	31.6927	 
835.0	1.0	0.0	8.58596	7.36144	-6.22622	15.18584	23.69102	1.14599	0.87261	167.83605	169.17449	62.87634	0.33465	 	8.168291611E8	 	6.62146E-9	 	27896.13755	31.6425	 
830.0	1.0	0.0	8.5883	7.35944	-6.25175	15.16326	23.60763	1.14485	0.87348	168.18397	169.37782	63.01347	0.33451	 	9.356813573E8	 	5.75431E-9	 	27738.17561	31.59239	 
825.0	1.0	0.0	8.59063	7.35744	-6.27722	15.14069	23.52423	1.1437	0.87435	168.53126	169.58016	63.1504	0.33436	 	1.073153773E9	 	4.99444E-9	 	27580.46376	31.54237	 
820.0	1.0	0.0	8.59296	7.35544	-6.30263	15.11812	23.44084	1.14254	0.87524	168.87791	169.7815	63.28711	0.33422	 	1.23236838E9	 	4.32938E-9	 	27423.00157	31.49244	 
815.0	1.0	0.0	8.59529	7.35345	-6.32797	15.09555	23.35744	1.14138	0.87613	169.22392	169.98185	63.42362	0.33408	 	1.417004578E9	 	3.74804E-9	 	27265.78855	31.4426	 
810.0	1.0	0.0	8.59761	7.35147	-6.35326	15.07298	23.27403	1.14021	0.87704	169.5693	170.18122	63.55992	0.33393	 	1.631404751E9	 	3.24051E-9	 	27108.82427	31.39286	 
805.0	1.0	0.0	8.59992	7.34949	-6.37848	15.05042	23.19062	1.13902	0.87794	169.91404	170.3796	63.69601	0.33379	 	1.880700945E9	 	2.79799E-9	 	26952.10829	31.3432	 
800.0	1.0	0.0	8.60224	7.34751	-6.40364	15.02786	23.10721	1.13783	0.87886	170.25813	170.577	63.83188	0.33364	 	2.170967122E9	 	2.41265E-9	 	26795.64013	31.29363	 
795.0	1.0	0.0	8.60454	7.34554	-6.42874	15.0053	23.0238	1.13664	0.87979	170.60159	170.77342	63.96755	0.3335	 	2.509402434E9	 	2.07754E-9	 	26639.41938	31.24415	 
790.0	1.0	0.0	8.60685	7.34358	-6.45377	14.98274	22.94038	1.13543	0.88072	170.94442	170.96886	64.10301	0.33336	 	2.904552175E9	 	1.7865E-9	 	26483.44556	31.19476	 
785.0	1.0	0.0	8.60914	7.34162	-6.47875	14.96019	22.85696	1.13421	0.88167	171.2866	171.16332	64.23826	0.33321	 	3.36657456E9	 	1.53407E-9	 	26327.71825	31.14546	 
780.0	1.0	0.0	8.61144	7.33966	-6.50366	14.93764	22.77353	1.13299	0.88262	171.62814	171.35682	64.3733	0.33307	 	3.907563358E9	 	1.31544E-9	 	26172.23702	31.09625	 
775.0	1.0	0.0	8.61373	7.33771	-6.52851	14.9151	22.6901	1.13176	0.88358	171.96905	171.54934	64.50812	0.33293	 	4.54193869E9	 	1.12634E-9	 	26017.0014	31.04712	 
770.0	1.0	0.0	8.61601	7.33576	-6.5533	14.89256	22.60667	1.13051	0.88455	172.30932	171.7409	64.64274	0.33278	 	5.286921146E9	 	9.6301E-10	 	25862.01096	30.99809	 
765.0	1.0	0.0	8.61829	7.33382	-6.57803	14.87002	22.52324	1.12926	0.88553	172.64895	171.93149	64.77715	0.33264	 	6.163107947E9	 	8.22142E-10	 	25707.26528	30.94914	 
760.0	1.0	0.0	8.62057	7.33189	-6.6027	14.84748	22.4398	1.128	0.88652	172.98794	172.12112	64.91134	0.33249	 	7.195174264E9	 	7.00824E-10	 	25552.76391	30.90027	 
755.0	1.0	0.0	8.62284	7.32995	-6.6273	14.82495	22.35635	1.12673	0.88752	173.3263	172.30979	65.04533	0.33235	 	8.412728326E9	 	5.96494E-10	 	25398.50641	30.8515	 
750.0	1.0	0.0	8.62511	7.32803	-6.65184	14.80242	22.2729	1.12546	0.88853	173.66401	172.4975	65.1791	0.33221	 	9.851355813E9	 	5.06909E-10	 	25244.49237	30.80281	 
745.0	1.0	0.0	8.62737	7.32611	-6.67632	14.77989	22.18945	1.12417	0.88955	174.00109	172.68426	65.31266	0.33206	 	1.15539E10	 	4.30101E-10	 	25090.72135	30.7542	 
740.0	1.0	0.0	8.62963	7.32419	-6.70074	14.75737	22.106	1.12287	0.89057	174.33752	172.87006	65.44602	0.33192	 	1.3571999999999998E10	 	3.64348E-10	 	24937.1929	30.70569	 
735.0	1.0	0.0	8.63188	7.32228	-6.7251	14.73485	22.02254	1.12156	0.89161	174.67332	173.05492	65.57916	0.33177	 	1.5968099999999998E10	 	3.08147E-10	 	24783.90663	30.65725	 
730.0	1.0	0.0	8.63413	7.32037	-6.7494	14.71233	21.93908	1.12025	0.89266	175.00848	173.23882	65.71209	0.33163	 	1.88177E10	 	2.60187E-10	 	24630.8621	30.60891	 
725.0	1.0	0.0	8.63638	7.31847	-6.77363	14.68981	21.85561	1.11892	0.89372	175.34301	173.42178	65.84481	0.33149	 	2.22124E10	 	2.19325E-10	 	24478.05888	30.56064	 
720.0	1.0	0.0	8.63862	7.31657	-6.7978	14.6673	21.77214	1.11758	0.89479	175.67689	173.6038	65.97732	0.33134	 	2.6263199999999996E10	 	1.84567E-10	 	24325.49655	30.51246	 
715.0	1.0	0.0	8.64085	7.31468	-6.82191	14.64479	21.68867	1.11624	0.89587	176.01013	173.78487	66.10961	0.3312	 	3.1105499999999996E10	 	1.5505E-10	 	24173.17471	30.46437	 
710.0	1.0	0.0	8.64308	7.31279	-6.84596	14.62229	21.60519	1.11488	0.89696	176.34274	173.96501	66.2417	0.33106	 	3.6904E10	 	1.30027E-10	 	24021.09293	30.41636	 
705.0	1.0	0.0	8.64531	7.31091	-6.86995	14.59978	21.52171	1.11351	0.89806	176.67471	174.14421	66.37357	0.33091	 	4.386E10	 	1.08849E-10	 	23869.25078	30.36843	 
700.0	1.0	0.0	8.64753	7.30903	-6.89387	14.57728	21.43822	1.11213	0.89917	177.00604	174.32248	66.50524	0.33077	 	5.221979999999999E10	 	9.0956E-11	 	23717.64788	30.32058	 
695.0	1.0	0.0	8.64975	7.30715	-6.91774	14.55479	21.35473	1.11075	0.9003	177.33672	174.49982	66.63669	0.33062	 	6.228509999999999E10	 	7.58656E-11	 	23566.28379	30.27282	 
690.0	1.0	0.0	8.65196	7.30529	-6.94154	14.53229	21.27124	1.10935	0.90143	177.66678	174.67623	66.76793	0.33048	 	7.44265E10	 	6.31616E-11	 	23415.15813	30.22513	 
685.0	1.0	0.0	8.65417	7.30342	-6.96528	14.5098	21.18774	1.10794	0.90258	177.99619	174.85171	66.89896	0.33034	 	8.91002E10	 	5.24858E-11	 	23264.27045	30.17753	 
680.0	1.0	0.0	8.65637	7.30156	-6.98896	14.48731	21.10424	1.10652	0.90374	178.32496	175.02626	67.02977	0.33019	 	1.06868E11	 	4.3531E-11	 	23113.62039	30.13001	 
675.0	1.0	0.0	8.65857	7.29971	-7.01258	14.46483	21.02073	1.10508	0.90491	178.65309	175.1999	67.16038	0.33005	 	1.28426E11	 	3.60338E-11	 	22963.20753	30.08257	 
670.0	1.0	0.0	8.66076	7.29786	-7.03614	14.44235	20.93722	1.10364	0.90609	178.98059	175.37261	67.29077	0.3299	 	1.54633E11	 	2.9769E-11	 	22813.03147	30.03521	 
665.0	1.0	0.0	8.66295	7.29602	-7.05963	14.41987	20.85371	1.10219	0.90729	179.30744	175.54441	67.42095	0.32976	 	1.86557E11	 	2.45441E-11	 	22663.09181	29.98793	 
660.0	1.0	0.0	8.66514	7.29418	-7.08306	14.39739	20.77019	1.10072	0.9085	179.63366	175.71529	67.55092	0.32962	 	2.25525E11	 	2.0195E-11	 	22513.38816	29.94073	 
655.0	1.0	0.0	8.66732	7.29234	-7.10644	14.37492	20.68666	1.09924	0.90972	179.95924	175.88526	67.68067	0.32947	 	2.73191E11	 	1.65821E-11	 	22363.92012	29.89361	 
650.0	1.0	0.0	8.66949	7.29051	-7.12975	14.35245	20.60314	1.09775	0.91095	180.28417	176.05432	67.81021	0.32933	 	3.31618E11	 	1.35869E-11	 	22214.68732	29.84656	 
645.0	1.0	0.0	8.67166	7.28869	-7.153	14.32998	20.5196	1.09625	0.9122	180.60847	176.22247	67.93955	0.32919	 	4.03393E11	 	1.11089E-11	 	22065.68934	29.7996	 
640.0	1.0	0.0	8.67383	7.28687	-7.17618	14.30752	20.43607	1.09474	0.91346	180.93213	176.38971	68.06866	0.32904	 	4.91755E11	 	9.06316E-12	 	21916.92582	29.7527	 
635.0	1.0	0.0	8.67599	7.28505	-7.19931	14.28506	20.35253	1.09321	0.91473	181.25515	176.55605	68.19757	0.3289	 	6.00783E11	 	7.3778E-12	 	21768.39637	29.70589	 
630.0	1.0	0.0	8.67815	7.28324	-7.22237	14.2626	20.26898	1.09168	0.91602	181.57753	176.72149	68.32626	0.32875	 	7.35612E11	 	5.99236E-12	 	21620.1006	29.65915	 
625.0	1.0	0.0	8.6803	7.28143	-7.24538	14.24015	20.18543	1.09013	0.91732	181.89927	176.88603	68.45474	0.32861	 	9.02733E11	 	4.85597E-12	 	21472.03815	29.61249	 
620.0	1.0	0.0	8.68245	7.27963	-7.26832	14.2177	20.10188	1.08856	0.91864	182.22038	177.04967	68.58301	0.32847	 	1.11036E12	 	3.92596E-12	 	21324.20864	29.5659	 
615.0	1.0	0.0	8.68459	7.27784	-7.2912	14.19525	20.01832	1.08699	0.91997	182.54084	177.21242	68.71106	0.32832	 	1.36894E12	 	3.16658E-12	 	21176.61168	29.51939	 
610.0	1.0	0.0	8.68673	7.27605	-7.31402	14.1728	19.93475	1.0854	0.92132	182.86066	177.37428	68.83891	0.32818	 	1.69173E12	 	2.54795E-12	 	21029.24694	29.47295	 
605.0	1.0	0.0	8.68886	7.27426	-7.33678	14.15036	19.85119	1.0838	0.92268	183.17985	177.53524	68.96653	0.32803	 	2.09568E12	 	2.04517E-12	 	20882.11401	29.42658	 
600.0	1.0	0.0	8.69099	7.27248	-7.35947	14.12792	19.76761	1.08218	0.92406	183.49839	177.69532	69.09395	0.32789	 	2.60247E12	 	1.63753E-12	 	20735.21256	29.38029	 
595.0	1.0	0.0	8.69312	7.2707	-7.38211	14.10549	19.68404	1.08055	0.92545	183.81629	177.8545	69.22115	0.32775	 	3.23987E12	 	1.30784E-12	 	20588.54221	29.33407	 
590.0	1.0	0.0	8.69523	7.26893	-7.40468	14.08305	19.60045	1.07891	0.92686	184.13356	178.01281	69.34814	0.3276	 	4.04365E12	 	1.04184E-12	 	20442.10262	29.28792	 
585.0	1.0	0.0	8.69735	7.26716	-7.42719	14.06062	19.51687	1.07726	0.92828	184.45018	178.17023	69.47492	0.32746	 	5.05988E12	 	8.27769E-13	 	20295.89342	29.24184	 
580.0	1.0	0.0	8.69946	7.2654	-7.44964	14.0382	19.43328	1.07559	0.92973	184.76617	178.32678	69.60148	0.32731	 	6.34817E12	 	6.55939E-13	 	20149.91428	29.19583	 
575.0	1.0	0.0	8.70156	7.26364	-7.47203	14.01577	19.34968	1.0739	0.93118	185.08152	178.48245	69.72783	0.32717	 	7.9858E12	 	5.18371E-13	 	20004.16483	29.14989	 
570.0	1.0	0.0	8.70366	7.26189	-7.49436	13.99335	19.26608	1.0722	0.93266	185.39622	178.63724	69.85396	0.32703	 	1.00733E13	 	4.08527E-13	 	19858.64474	29.10402	 
565.0	1.0	0.0	8.70576	7.26014	-7.51663	13.97093	19.18247	1.07049	0.93415	185.71029	178.79116	69.97988	0.32688	 	1.27416E13	 	3.21058E-13	 	19713.35367	29.05821	 
560.0	1.0	0.0	8.70785	7.2584	-7.53883	13.94852	19.09886	1.06876	0.93566	186.02371	178.9442	70.10559	0.32674	 	1.61624E13	 	2.51596E-13	 	19568.29129	29.01248	 
555.0	1.0	0.0	8.70994	7.25666	-7.56098	13.92611	19.01524	1.06702	0.93719	186.3365	179.09638	70.23108	0.3266	 	2.05604E13	 	1.96591E-13	 	19423.45724	28.96681	 
550.0	1.0	0.0	8.71202	7.25493	-7.58306	13.9037	18.93162	1.06526	0.93873	186.64865	179.24769	70.35636	0.32645	 	2.62319E13	 	1.53157E-13	 	19278.85122	28.9212	 
545.0	1.0	0.0	8.71409	7.2532	-7.60508	13.88129	18.848	1.06349	0.9403	186.96015	179.39814	70.48143	0.32631	 	3.35675E13	 	1.1896E-13	 	19134.4729	28.87566	 
540.0	1.0	0.0	8.71617	7.25147	-7.62705	13.85889	18.76436	1.0617	0.94188	187.27102	179.54773	70.60628	0.32616	 	4.3085E13	 	9.21151E-14	 	18990.32195	28.83019	 
535.0	1.0	0.0	8.71823	7.24975	-7.64895	13.83649	18.68073	1.0599	0.94349	187.58125	179.69645	70.73091	0.32602	 	5.54722E13	 	7.11056E-14	 	18846.39807	28.78478	 
530.0	1.0	0.0	8.72029	7.24804	-7.67078	13.81409	18.59709	1.05808	0.94511	187.89083	179.84432	70.85533	0.32588	 	7.16457E13	 	5.47134E-14	 	18702.70093	28.73943	 
525.0	1.0	0.0	8.72235	7.24633	-7.69256	13.7917	18.51344	1.05624	0.94675	188.19978	179.99133	70.97954	0.32573	 	9.28319E13	 	4.19637E-14	 	18559.23023	28.69414	 
520.0	1.0	0.0	8.7244	7.24462	-7.71428	13.76931	18.42979	1.05439	0.94842	188.50809	180.13748	71.10354	0.32559	 	1.20677E14	 	3.20789E-14	 	18415.98566	28.64891	 
515.0	1.0	0.0	8.72645	7.24292	-7.73593	13.74692	18.34613	1.05252	0.9501	188.81575	180.28279	71.22731	0.32544	 	1.57396E14	 	2.444E-14	 	18272.9669	28.60375	 
510.0	1.0	0.0	8.7285	7.24123	-7.75753	13.72453	18.26247	1.05063	0.95181	189.12278	180.42724	71.35088	0.3253	 	2.05986E14	 	1.85564E-14	 	18130.1736	28.55866	 
505.0	1.0	0.0	8.73053	7.23954	-7.77906	13.70215	18.1788	1.04873	0.95353	189.42916	180.57085	71.47423	0.32516	 	2.7050999999999997E14	 	1.404E-14	 	17987.60547	28.51362	 
500.0	1.0	0.0	8.73257	7.23785	-7.80053	13.67977	18.09512	1.04681	0.95528	189.73491	180.71361	71.59736	0.32501	 	3.56501E14	 	1.0585E-14	 	17845.26226	28.46864	 
495.0	1.0	0.0	8.73459	7.23617	-7.82194	13.6574	18.01145	1.04487	0.95705	190.04001	180.85552	71.72028	0.32487	 	4.71517E14	 	7.95125E-15	 	17703.14367	28.42372	 
490.0	1.0	0.0	8.73662	7.2345	-7.84329	13.63503	17.92776	1.04292	0.95885	190.34448	180.9966	71.84299	0.32473	 	6.2593E14	 	5.95074E-15	 	17561.24946	28.37884	 
485.0	1.0	0.0	8.73864	7.23283	-7.86458	13.61266	17.84407	1.04094	0.96067	190.6483	181.13683	71.96548	0.32458	 	8.34021E14	 	4.43675E-15	 	17419.57935	28.33402	 
480.0	1.0	0.0	8.74065	7.23116	-7.88581	13.59029	17.76037	1.03895	0.96251	190.95149	181.27623	72.08775	0.32444	 	1.11553E15	 	3.29523E-15	 	17278.13308	28.28925	 
475.0	1.0	0.0	8.74266	7.2295	-7.90697	13.56793	17.67667	1.03694	0.96437	191.25403	181.41479	72.20981	0.32429	 	1.49788E15	 	2.4378E-15	 	17136.9104	28.24453	 
470.0	1.0	0.0	8.74466	7.22784	-7.92808	13.54557	17.59297	1.03491	0.96627	191.55593	181.55252	72.33165	0.32415	 	2.01927E15	 	1.79626E-15	 	16995.91108	28.19986	 
465.0	1.0	0.0	8.74666	7.22619	-7.94912	13.52321	17.50925	1.03286	0.96818	191.8572	181.68941	72.45328	0.32401	 	2.73318E15	 	1.31814E-15	 	16855.13488	28.15524	 
460.0	1.0	0.0	8.74866	7.22454	-7.9701	13.50085	17.42553	1.0308	0.97012	192.15782	181.82548	72.57469	0.32386	 	3.7148E15	 	9.63261E-16	 	16714.58155	28.11067	 
455.0	1.0	0.0	8.75065	7.2229	-7.99103	13.4785	17.34181	1.02871	0.97209	192.4578	181.96072	72.69589	0.32372	 	5.07029E15	 	7.0093E-16	 	16574.25087	28.06614	 
450.0	1.0	0.0	8.75263	7.22126	-8.01189	13.45615	17.25808	1.0266	0.97409	192.75714	182.09513	72.81687	0.32357	 	6.95022E15	 	5.07828E-16	 	16434.14263	28.02165	 
445.0	1.0	0.0	8.75461	7.21963	-8.03269	13.43381	17.17434	1.02447	0.97611	193.05584	182.22872	72.93764	0.32343	 	9.56912E15	 	3.66294E-16	 	16294.25661	27.9772	 
440.0	1.0	0.0	8.75659	7.218	-8.05343	13.41147	17.0906	1.02233	0.97816	193.3539	182.36149	73.05819	0.32329	 	1.3234E16	 	2.63012E-16	 	16154.59261	27.9328	 
435.0	1.0	0.0	8.75855	7.21638	-8.07411	13.38913	17.00685	1.02016	0.98024	193.65132	182.49344	73.17852	0.32314	 	1.83866E16	 	1.8798E-16	 	16015.15042	27.88844	 
430.0	1.0	0.0	8.76052	7.21476	-8.09472	13.36679	16.9231	1.01797	0.98235	193.94809	182.62457	73.29864	0.323	 	2.5665E16	 	1.33719E-16	 	15875.92986	27.84411	 
425.0	1.0	0.0	8.76248	7.21314	-8.11528	13.34446	16.83934	1.01576	0.98449	194.24423	182.75488	73.41854	0.32286	 	3.5996100000000004E16	 	9.4663E-17	 	15736.93074	27.79982	 
420.0	1.0	0.0	8.76443	7.21154	-8.13577	13.32213	16.75557	1.01352	0.98666	194.53973	182.88438	73.53823	0.32271	 	5.07328E16	 	6.66845E-17	 	15598.15289	27.75557	 
415.0	1.0	0.0	8.76638	7.20993	-8.15621	13.2998	16.6718	1.01127	0.98886	194.83458	183.01307	73.6577	0.32257	 	7.1860200000000008E16	 	4.67392E-17	 	15459.59615	27.71135	 
410.0	1.0	0.0	8.76833	7.20833	-8.17658	13.27748	16.58802	1.00899	0.99109	195.1288	183.14095	73.77695	0.32242	 	1.02306E17	 	3.25913E-17	 	15321.26035	27.66716	 
405.0	1.0	0.0	8.77027	7.20674	-8.1969	13.25516	16.50423	1.00669	0.99335	195.42237	183.26802	73.89599	0.32228	 	1.46412E17	 	2.26066E-17	 	15183.14535	27.623	 
400.0	1.0	0.0	8.77221	7.20515	-8.21715	13.23284	16.42044	1.00437	0.99565	195.7153	183.39429	74.01481	0.32214	 	2.10652E17	 	1.55967E-17	 	15045.251	27.57887	 
395.0	1.0	0.0	8.77414	7.20356	-8.23734	13.21052	16.33664	1.00202	0.99798	196.0076	183.51975	74.13341	0.32199	 	3.04731E17	 	1.07015E-17	 	14907.57719	27.53476	 
390.0	1.0	0.0	8.77606	7.20198	-8.25747	13.18821	16.25284	0.99965	1.00035	196.29925	183.64441	74.2518	0.32185	 	4.43289E17	 	7.30148E-18	 	14770.12378	27.49068	 
385.0	1.0	0.0	8.77798	7.20041	-8.27754	13.1659	16.16902	0.99726	1.00275	196.59026	183.76827	74.36997	0.3217	 	6.48531E17	 	4.95314E-18	 	14632.89067	27.44662	 
380.0	1.0	0.0	8.7799	7.19884	-8.29755	13.1436	16.08521	0.99484	1.00519	196.88063	183.89133	74.48792	0.32156	 	9.54343E17	 	3.34038E-18	 	14495.87776	27.40258	 
375.0	1.0	0.0	8.78181	7.19727	-8.31749	13.12129	16.00138	0.99239	1.00766	197.17035	184.01359	74.60566	0.32142	 	1.41275E18	 	2.23922E-18	 	14359.08496	27.35856	 
370.0	1.0	0.0	8.78371	7.19571	-8.33738	13.09899	15.91755	0.98992	1.01018	197.45944	184.13506	74.72318	0.32127	 	2.10415E18	 	1.49184E-18	 	14222.51219	27.31455	 
365.0	1.0	0.0	8.78561	7.19415	-8.35721	13.0767	15.83371	0.98743	1.01273	197.74788	184.25573	74.84048	0.32113	 	3.15355E18	 	9.87666E-19	 	14086.15939	27.27056	 
360.0	1.0	0.0	8.78751	7.1926	-8.37697	13.0544	15.74987	0.98491	1.01532	198.03569	184.37562	74.95757	0.32099	 	4.7566E18	 	6.49676E-19	 	13950.02652	27.22657	 
355.0	1.0	0.0	8.7894	7.19105	-8.39668	13.03211	15.66602	0.98236	1.01796	198.32285	184.49472	75.07444	0.32084	 	7.22163E18	 	4.24536E-19	 	13814.11351	27.1826	 
350.0	1.0	0.0	8.79128	7.18951	-8.41632	13.00982	15.58216	0.97979	1.02063	198.60937	184.61303	75.19109	0.3207	 	1.10379E19	 	2.75546E-19	 	13678.42035	27.13863	 
345.0	1.0	0.0	8.79316	7.18798	-8.4359	12.98754	15.49829	0.97718	1.02335	198.89525	184.73055	75.30752	0.32055	 	1.69869E19	 	1.7761E-19	 	13542.94703	27.09466	 
340.0	1.0	0.0	8.79504	7.18644	-8.45543	12.96526	15.41442	0.97455	1.02611	199.18049	184.84729	75.42374	0.32041	 	2.63268E19	 	1.13673E-19	 	13407.69356	27.05069	 
335.0	1.0	0.0	8.79691	7.18491	-8.47489	12.94298	15.33054	0.9719	1.02892	199.46509	184.96325	75.53974	0.32027	 	4.10969E19	 	7.2225E-20	 	13272.65993	27.00673	 
330.0	1.0	0.0	8.79877	7.18339	-8.49429	12.9207	15.24665	0.96921	1.03177	199.74905	185.07843	75.65552	0.32012	 	6.46291E19	 	4.55495E-20	 	13137.84619	26.96275	 
325.0	1.0	0.0	8.80063	7.18187	-8.51363	12.89843	15.16276	0.96649	1.03467	200.03236	185.19283	75.77108	0.31998	 	1.02408E20	 	2.85077E-20	 	13003.25239	26.91876	 
320.0	1.0	0.0	8.80249	7.18036	-8.53291	12.87616	15.07886	0.96375	1.03762	200.31504	185.30646	75.88643	0.31983	 	1.63535E20	 	1.77027E-20	 	12868.87858	26.87476	 
315.0	1.0	0.0	8.80434	7.17885	-8.55213	12.8539	14.99495	0.96097	1.04062	200.59707	185.41931	76.00155	0.31969	 	2.6323499999999997E20	 	1.09052E-20	 	12734.72485	26.83075	 
310.0	1.0	0.0	8.80618	7.17735	-8.57129	12.83163	14.91103	0.95816	1.04367	200.87846	185.53139	76.11646	0.31955	 	4.2718899999999997E20	 	6.66264E-21	 	12600.7913	26.78671	 
305.0	1.0	0.0	8.80802	7.17585	-8.59039	12.80937	14.82711	0.95532	1.04677	201.15921	185.6427	76.23115	0.3194	 	6.99093E20	 	4.03638E-21	 	12467.07805	26.74265	 
300.0	1.0	0.0	8.80986	7.17435	-8.60942	12.78711	14.74318	0.95245	1.04992	201.43932	185.75325	76.34563	0.31926	 	1.15394E21	 	2.42423E-21	 	12333.58523	26.69856	 
295.0	1.0	0.0	8.81169	7.17286	-8.6284	12.76486	14.65924	0.94955	1.05313	201.71879	185.86302	76.45988	0.31912	 	1.9215800000000001E21	 	1.44308E-21	 	12200.31302	26.65444	 
290.0	1.0	0.0	8.81351	7.17138	-8.64731	12.74261	14.57529	0.94661	1.0564	201.99761	185.97203	76.57392	0.31897	 	3.22901E21	 	8.51218E-22	 	12067.26156	26.61029	 
285.0	1.0	0.0	8.81533	7.1699	-8.66617	12.72036	14.49134	0.94364	1.05972	202.2758	186.08028	76.68774	0.31883	 	5.4767E21	 	4.97415E-22	 	11934.43109	26.5661	 
280.0	1.0	0.0	8.81715	7.16842	-8.68497	12.69812	14.40737	0.94064	1.0631	202.55334	186.18776	76.80134	0.31868	 	9.37812E21	 	2.87881E-22	 	11801.82181	26.52185	 
275.0	1.0	0.0	8.81896	7.16695	-8.7037	12.67587	14.3234	0.9376	1.06655	202.83024	186.29449	76.91472	0.31854	 	1.62171E22	 	1.64973E-22	 	11669.43399	26.47756	 
270.0	1.0	0.0	8.82076	7.16549	-8.72237	12.65363	14.23943	0.93453	1.07006	203.1065	186.40045	77.02789	0.3184	 	2.83278E22	 	9.35824E-23	 	11537.26789	26.43322	 
265.0	1.0	0.0	8.82256	7.16403	-8.74099	12.6314	14.15544	0.93142	1.07363	203.38212	186.50567	77.14083	0.31825	 	4.999789999999999E22	 	5.25338E-23	 	11405.32382	26.38881	 
260.0	1.0	0.0	8.82435	7.16257	-8.75954	12.60916	14.07145	0.92828	1.07727	203.65709	186.61012	77.25356	0.31811	 	8.919049999999999E22	 	2.91755E-23	 	11273.6021	26.34434	 
255.0	1.0	0.0	8.82614	7.16112	-8.77803	12.58693	13.98745	0.92509	1.08097	203.93143	186.71383	77.36606	0.31796	 	1.60859E23	 	1.6025E-23	 	11142.10309	26.2998	 
250.0	1.0	0.0	8.82793	7.15967	-8.79646	12.56471	13.90344	0.92187	1.08475	204.20512	186.81678	77.47835	0.31782	 	2.93405E23	 	8.70253E-24	 	11010.82719	26.25518	 
245.0	1.0	0.0	8.8297	7.15823	-8.81483	12.54248	13.81942	0.91861	1.0886	204.47817	186.91899	77.59042	0.31768	 	5.41411E23	 	4.67106E-24	 	10879.77481	26.21048	 
240.0	1.0	0.0	8.83148	7.15679	-8.83314	12.52026	13.73539	0.91531	1.09252	204.75059	187.02045	77.70227	0.31753	 	1.0110500000000001E24	 	2.47719E-24	 	10748.94639	26.16568	 
235.0	1.0	0.0	8.83325	7.15536	-8.85139	12.49804	13.65136	0.91197	1.09652	205.02235	187.12116	77.8139	0.31739	 	1.91141E24	 	1.29755E-24	 	10618.34244	26.12079	 
230.0	1.0	0.0	8.83501	7.15393	-8.86958	12.47583	13.56731	0.90859	1.1006	205.29348	187.22113	77.92532	0.31725	 	3.6596000000000003E24	 	6.71042E-25	 	10487.96347	26.07579	 
225.0	1.0	0.0	8.83677	7.15251	-8.88771	12.45362	13.48326	0.90517	1.10476	205.56397	187.32036	78.03651	0.3171	 	7.09866E24	 	3.42508E-25	 	10357.81005	26.03068	 
220.0	1.0	0.0	8.83852	7.15109	-8.90578	12.43141	13.3992	0.90171	1.10901	205.83381	187.41885	78.14748	0.31696	 	1.39558E25	 	1.7247E-25	 	10227.88278	25.98545	 
215.0	1.0	0.0	8.84027	7.14968	-8.92379	12.4092	13.31513	0.8982	1.11334	206.10301	187.5166	78.25824	0.31681	 	2.78192E25	 	8.56437E-26	 	10098.18231	25.9401	 
210.0	1.0	0.0	8.84201	7.14827	-8.94174	12.387	13.23105	0.89465	1.11775	206.37158	187.61361	78.36877	0.31667	 	5.62518E25	 	4.19211E-26	 	9968.70932	25.8946	 
205.0	1.0	0.0	8.84375	7.14686	-8.95963	12.3648	13.14696	0.89106	1.12226	206.6395	187.70989	78.47909	0.31653	 	1.1543100000000001E26	 	2.02175E-26	 	9839.46456	25.84895	 
200.0	1.0	0.0	8.84548	7.14546	-8.97745	12.3426	13.06287	0.88741	1.12687	206.90677	187.80544	78.58918	0.31638	 	2.40496E26	 	9.60234E-27	 	9710.44881	25.80315	 
195.0	1.0	0.0	8.84721	7.14407	-8.99522	12.32041	12.97876	0.88373	1.13157	207.17341	187.90025	78.69906	0.31624	 	5.0898300000000005E26	 	4.4892E-27	 	9581.66289	25.75718	 
190.0	1.0	0.0	8.84893	7.14268	-9.01293	12.29822	12.89465	0.87999	1.13638	207.43941	187.99434	78.80872	0.31609	 	1.09478E27	 	2.06481E-27	 	9453.10772	25.71103	 
185.0	1.0	0.0	8.85064	7.14129	-9.03057	12.27603	12.81052	0.87621	1.14128	207.70476	188.08769	78.91816	0.31595	 	2.3944899999999998E27	 	9.3386E-28	 	9324.78422	25.6647	 
180.0	1.0	0.0	8.85236	7.13991	-9.04816	12.25385	12.72639	0.87237	1.1463	207.96947	188.18032	79.02737	0.31581	 	5.32842E27	 	4.15079E-28	 	9196.69342	25.61816	 
175.0	1.0	0.0	8.85406	7.13854	-9.06569	12.23167	12.64225	0.86849	1.15142	208.23354	188.27223	79.13637	0.31566	 	1.20708E28	 	1.81207E-28	 	9068.83639	25.57141	 
170.0	1.0	0.0	8.85576	7.13716	-9.08315	12.20949	12.5581	0.86456	1.15666	208.49697	188.36341	79.24515	0.31552	 	2.7853900000000002E28	 	7.76518E-29	 	8941.21426	25.52443	 
165.0	1.0	0.0	8.85746	7.1358	-9.10056	12.18731	12.47394	0.86057	1.16202	208.75976	188.45388	79.35371	0.31538	 	6.551260000000001E28	 	3.26426E-29	 	8813.82826	25.4772	 
160.0	1.0	0.0	8.85915	7.13444	-9.1179	12.16514	12.38976	0.85653	1.1675	209.02191	188.54362	79.46204	0.31523	 	1.57159E29	 	1.3452E-29	 	8686.67966	25.42972	 
155.0	1.0	0.0	8.86083	7.13308	-9.13519	12.14297	12.30558	0.85243	1.17311	209.28342	188.63265	79.57016	0.31509	 	3.84795E29	 	5.43067E-30	 	8559.76983	25.38197	 
150.0	1.0	0.0	8.86251	7.13173	-9.15241	12.1208	12.22139	0.84828	1.17885	209.54428	188.72096	79.67806	0.31494	 	9.62298E29	 	2.14621E-30	 	8433.10023	25.33392	 
145.0	1.0	0.0	8.86419	7.13038	-9.16957	12.09864	12.13719	0.84407	1.18473	209.80451	188.80856	79.78574	0.3148	 	2.45986E30	 	8.29676E-31	 	8306.67239	25.28557	 
140.0	1.0	0.0	8.86586	7.12904	-9.18668	12.07648	12.05298	0.83981	1.19075	210.06409	188.89544	79.89319	0.31466	 	6.432449999999999E30	 	3.13486E-31	 	8180.48794	25.23689	 
135.0	1.0	0.0	8.86752	7.1277	-9.20372	12.05432	11.96876	0.83548	1.19692	210.32303	188.98161	80.00043	0.31451	 	1.72215E31	 	1.15674E-31	 	8054.54863	25.18786	 
130.0	1.0	0.0	8.86918	7.12637	-9.2207	12.03217	11.88453	0.83109	1.20323	210.58133	189.06708	80.10745	0.31437	 	4.7247E31	 	4.16466E-32	 	7928.85628	25.13847	 
125.0	1.0	0.0	8.87083	7.12504	-9.23763	12.01002	11.80029	0.82665	1.20971	210.839	189.15184	80.21424	0.31422	 	1.32949E32	 	1.46166E-32	 	7803.41286	25.08868	 
120.0	1.0	0.0	8.87248	7.12371	-9.25449	11.98787	11.71604	0.82214	1.21634	211.09602	189.23589	80.32082	0.31408	 	3.84084E32	 	4.99596E-33	 	7678.22044	25.03848	 
115.0	1.0	0.0	8.87413	7.1224	-9.27129	11.96572	11.63178	0.81756	1.22315	211.35239	189.31924	80.42717	0.31394	 	1.14035E33	 	1.66131E-33	 	7553.28123	24.98784	 
110.0	1.0	0.0	8.87576	7.12108	-9.28804	11.94358	11.54751	0.81292	1.23014	211.60813	189.40188	80.53331	0.31379	 	3.48323E33	 	5.36876E-34	 	7428.59755	24.93673	 
105.0	1.0	0.0	8.8774	7.11977	-9.30472	11.92144	11.46322	0.80821	1.2373	211.86323	189.48383	80.63922	0.31365	 	1.09585E34	 	1.68422E-34	 	7304.1719	24.88513	 
100.0	1.0	0.0	8.87902	7.11847	-9.32134	11.89931	11.37893	0.80343	1.24466	212.11769	189.56508	80.74491	0.3135	 	3.55517E34	 	5.12283E-35	 	7180.0069	24.833	 
95.0	1.0	0.0	8.88065	7.11717	-9.3379	11.87717	11.29463	0.79858	1.25222	212.37151	189.64563	80.85039	0.31336	 	1.1908399999999999E35	 	1.50889E-35	 	7056.10537	24.78031	 
90.0	1.0	0.0	8.88226	7.11587	-9.35441	11.85504	11.21031	0.79366	1.25999	212.62469	189.72548	80.95564	0.31322	 	4.12384E35	 	4.29805E-36	 	6932.47027	24.72702	 
85.0	1.0	0.0	8.88387	7.11458	-9.37085	11.83292	11.12599	0.78866	1.26797	212.87722	189.80465	81.06067	0.31307	 	1.4784699999999998E36	 	1.18233E-36	 	6809.10479	24.6731	 
80.0	1.0	0.0	8.88548	7.11329	-9.38723	11.81079	11.04165	0.78359	1.27617	213.12912	189.88312	81.16548	0.31293	 	5.49573E36	 	3.13632E-37	 	6686.01227	24.6185	 
75.0	1.0	0.0	8.88708	7.11201	-9.40355	11.78867	10.9573	0.77845	1.28461	213.38038	189.9609	81.27007	0.31279	 	2.1213699999999999E37	 	8.01008E-38	 	6563.19631	24.56319	 
70.0	1.0	0.0	8.88868	7.11074	-9.41981	11.76655	10.87294	0.77322	1.29329	213.631	190.03799	81.37444	0.31264	 	8.517299999999999E37	 	1.96639E-38	 	6440.66073	24.50712	 
65.0	1.0	0.0	8.89027	7.10946	-9.43602	11.74444	10.78857	0.76791	1.30223	213.88098	190.1144	81.47859	0.3125	 	3.5632E38	 	4.63187E-39	 	6318.40959	24.45023	 
60.0	1.0	0.0	8.89185	7.1082	-9.45216	11.72232	10.70418	0.76252	1.31144	214.13032	190.19012	81.58252	0.31235	 	1.5560900000000002E39	 	1.04494E-39	 	6196.44722	24.39247	 
55.0	1.0	0.0	8.89343	7.10693	-9.46824	11.70022	10.61979	0.75705	1.32092	214.37903	190.26516	81.68623	0.31221	 	7.10785E39	 	2.25331E-40	 	6074.77824	24.3338	 
50.0	1.0	0.0	8.89501	7.10568	-9.48426	11.67811	10.53538	0.75148	1.3307	214.62709	190.33952	81.78972	0.31207	 	3.40296E40	 	4.63483E-41	 	5953.40758	24.27413	 
45.0	1.0	0.0	8.89657	7.10442	-9.50022	11.65601	10.45096	0.74583	1.34078	214.87451	190.4132	81.89298	0.31192	 	1.7114000000000001E41	 	9.07332E-42	 	5832.34049	24.21342	 
40.0	1.0	0.0	8.89814	7.10318	-9.51612	11.63391	10.36653	0.74009	1.35119	215.1213	190.4862	81.99603	0.31178	 	9.062530000000001E41	 	1.68651E-42	 	5711.58259	24.15158	 
35.0	1.0	0.0	8.8997	7.10193	-9.53197	11.61181	10.28209	0.73425	1.36192	215.36745	190.55852	82.09886	0.31163	 	5.0656899999999994E42	 	2.969E-43	 	5591.1399	24.08854	 
30.0	1.0	0.0	8.90125	7.10069	-9.54775	11.58972	10.19764	0.72832	1.37302	215.61297	190.63017	82.20146	0.31149	 	2.99696E43	 	4.937E-44	 	5471.01885	24.02421	 
25.0	1.0	0.0	8.9028	7.09946	-9.56347	 	10.11317	0.72229	1.38448	215.85784	190.70115	82.30385	0.31135	 	1.8820000000000002E44	 	7.7322E-45	 	5351.22631	 	 
