T (C)	Fraction solid (wt)-TOTAL	Fraction liquid (wt)-LIQUID	Density (g/(cm)^3)-TOTAL	Molar volume (cm^3)-TOTAL	Volume change (%)-  	Average expansion coeff. (10e-6 1/K)-  	Thermal conductivity (W/(m*K))-TOTAL	Electrical resistivity (10e-6 Ohm*m)-TOTAL	Electrical conductivity (10e6 1/(Ohm*m))-TOTAL	Young's modulus (GPa)-TOTAL	Bulk modulus (GPa)-TOTAL	Shear modulus(GPa)-TOTAL	Poisson's ratio-TOTAL	Liquid viscosity (mPa s)-  	Total viscosity (mPa s)-  	Liquid diffusivity (10e-9 (m^2)/s)-  	Total diffusivity (10e-9 (m^2)/s)-  	Surface Tension (mN/m)-  	Enthalpy (J/mole)-TOTAL	Specific heat (J/(mole K))-TOTAL	Latent heat (J/mole)-TOTAL
1400.0	0.0	1.0	8.18107	7.75514	0.0	24.99034	28.34204	1.44634	0.6914	0.0	133.44469	0.0	0.5	9.67603	9.67603	0.84396	0.84396	1955.16613	63330.999	 	0.0
1395.0	0.0	1.0	8.1853	7.75113	-0.0517254	24.94272	28.2731	1.44553	0.69179	0.0	133.61422	0.0	0.5	9.78626	9.78626	0.83197	0.83197	1958.21501	63125.251	41.1496	0.0
1390.0	0.0	1.0	8.18953	7.74713	-0.1033	24.89516	28.20417	1.44472	0.69217	0.0	133.78374	0.0	0.5	9.89842	9.89842	0.82007	0.82007	1961.27646	62919.986	41.053	0.0
1385.66	0.0	1.0	8.19319	7.74367	-0.14795	24.85392	28.14433	1.44401	0.69251	0.0	133.93092	0.0	0.5	9.99739	9.99739	0.80984	0.80984	1963.94459	62742.184	40.96103	0.0
1385.0	0.03295	0.96705	8.20089	7.73641	-0.24162	24.61271	28.25647	1.43771	0.69555	1.4282E-4	134.42183	4.77589E-5	0.49522	10.02915	10.52399	0.80695	0.76901	1965.03004	62149.738	898.6803	565.462
1380.0	0.25839	0.74161	8.25315	7.68744	-0.87303	22.99013	29.04326	1.39455	0.71708	0.5541	137.59628	0.18949	0.46208	10.27823	186.54983	0.78502	0.0432518	1973.22951	58099.92	809.9636	4410.974
1375.0	0.41833	0.58167	8.29067	7.65261	-1.32216	21.85199	29.6208	1.36322	0.73356	3.88135	139.79437	1.34941	0.43816	10.53646	1270.93702	0.76346	0.00632935	1981.32789	55189.216	582.1408	7117.846
1370.0	0.53484	0.46516	8.31843	7.62699	-1.6525	21.03015	30.05166	1.3396	0.74649	10.52055	141.37405	3.70315	0.42049	10.80364	3569.69768	0.74232	0.00224663	1989.29839	53032.68	431.3072	9071.021
1365.0	0.62166	0.37834	8.33953	7.60756	-1.90301	20.42121	30.37297	1.32139	0.75678	19.42103	142.55192	6.90084	0.40715	11.07979	6895.34686	0.72162	0.00115954	1997.12089	51388.773	328.7814	10512.038
1360.0	0.68767	0.31233	8.356	7.59244	-2.09806	19.96049	30.61063	1.30713	0.76503	29.34513	143.4624	10.5037	0.3969	11.36481	10948.89371	0.70138	7.28019E-4	2004.7794	50101.756	257.4034	11596.634
1355.0	0.73877	0.26123	8.36918	7.5803	-2.25454	19.60292	30.78393	1.2958	0.77173	39.38037	144.19011	14.1771	0.38887	11.65874	15482.01458	0.6816	5.13279E-4	2012.26773	49068.681	206.615	12427.751
1352.66	0.75813	0.24187	8.37438	7.57552	-2.31616	19.46676	30.84445	1.2914	0.77435	43.80609	144.48252	15.80522	0.38581	11.79891	17662.27243	0.67254	4.49274E-4	2015.71854	48661.606	 	12740.64
1350.0	0.79105	0.20895	8.38303	7.56777	-2.41616	19.22839	30.95902	1.28451	0.77851	51.89147	144.93161	18.79096	0.38076	11.84277	21466.63541	0.66895	3.69047E-4	2014.13717	48014.379	210.8604	13280.558
1345.0	0.84057	0.15943	8.39652	7.55579	-2.57055	18.87115	31.11833	1.274	0.78493	66.22587	145.54954	24.11643	0.37304	11.9372	28844.27126	0.66161	2.73808E-4	2011.12582	47006.617	201.5524	14087.283
1340.0	0.87574	0.12426	8.40691	7.54667	-2.68825	18.6138	31.21046	1.26631	0.78969	78.22187	145.99313	28.60108	0.36746	12.04428	35992.54673	0.6537	2.1875E-4	2008.17036	46237.587	153.806	14655.735
1335.0	0.90126	0.0987355	8.41525	7.53945	-2.78129	18.4237	31.25595	1.26055	0.7933	87.99876	146.3399	32.27322	0.36334	12.16285	42876.49103	0.64532	1.8306E-4	2005.30824	45628.424	121.8326	15064.773
1330.0	0.92017	0.0798263	8.42217	7.53354	-2.85754	18.27944	31.26886	1.25611	0.79611	95.90249	146.63303	35.25238	0.36023	12.29174	49560.08701	0.63657	1.57881E-4	2002.56779	45128.281	100.0286	15365.248
1325.0	0.93446	0.0655356	8.42811	7.52852	-2.92227	18.16666	31.25872	1.2526	0.79834	102.30606	146.8965	37.67281	0.35782	12.42997	56140.65182	0.62753	1.3894E-4	1999.96817	44703.943	84.8676	15590.364
1320.0	0.94547	0.0545252	8.43334	7.52413	-2.97891	18.076	31.23202	1.24975	0.80016	107.53133	147.14382	39.65228	0.35593	12.57667	62717.25767	0.61827	1.23981E-4	1997.52086	44333.382	74.1122	15762.152
1315.0	0.95411	0.0458904	8.43808	7.52019	-3.02967	18.00138	31.19323	1.24738	0.80168	111.83864	147.38286	41.28699	0.35441	12.731	69382.95078	0.60886	1.11719E-4	1995.22865	44001.735	66.3294	15895.471
1310.0	0.96099	0.0390061	8.44244	7.51659	-3.07605	17.9387	31.14549	1.24535	0.80298	115.43059	147.61773	42.65231	0.35316	12.89225	76221.74776	0.59935	1.01375E-4	1993.08925	43698.793	60.5884	16000.529
1305.0	0.96656	0.0334354	8.44651	7.51324	-3.11926	17.88465	31.091	1.2436	0.80412	118.46293	147.85053	43.80645	0.35212	13.05999	83309.72685	0.58978	9.24569E-5	1991.10319	43417.418	56.275	16084.459
1300.0	0.97113	0.0288662	8.45037	7.51009	-3.15994	17.83746	31.03139	1.24204	0.80513	121.05304	148.08322	44.79342	0.35124	13.23372	90716.35112	0.5802	8.46391E-5	1989.2597	43152.533	52.977	16152.339
1295.0	0.97493	0.0250703	8.45405	7.50707	-3.19879	17.7952	30.9678	1.24063	0.80604	123.29173	148.31589	45.64738	0.35048	13.41305	98506.90359	0.57062	7.76976E-5	1987.55933	42900.463	50.414	16207.84
1290.0	0.97812	0.0218827	8.45761	7.50418	-3.23612	17.75705	30.90111	1.23935	0.80688	125.24839	148.54913	46.39446	0.34982	13.59775	106745.0533	0.56107	7.14726E-5	1985.98947	42658.505	48.3916	16253.661
1285.0	0.98082	0.0191771	8.46105	7.50138	-3.27224	17.7221	30.83196	1.23815	0.80765	126.97595	148.78292	47.05464	0.34924	13.78742	115492.6436	0.55159	6.58479E-5	1984.54364	42424.644	46.7722	16291.819
1280.0	0.98314	0.0168605	8.46441	7.49865	-3.30739	17.68972	30.76085	1.23703	0.80839	128.51686	149.01738	47.64398	0.34872	13.98197	124813.2432	0.54217	6.07351E-5	1983.21437	42197.353	45.4582	16323.836
1275.0	0.98514	0.0148594	8.4677	7.49598	-3.34178	17.65931	30.68815	1.23597	0.80908	129.90352	149.25242	48.17474	0.34825	14.18138	134771.2438	0.53282	5.60664E-5	1981.99929	41975.461	44.3784	16350.881
1270.0	0.98688	0.0131167	8.47092	7.49337	-3.37548	17.63071	30.61416	1.23496	0.80974	131.16202	149.48772	48.65679	0.34783	14.38531	145435.0159	0.52357	5.17876E-5	1980.88199	41758.058	43.4806	16373.863
1265.28	0.98833	0.0116701	8.47392	7.49094	-3.40681	17.60492	30.54335	1.23403	0.81035	132.25045	149.7101	49.07398	0.34746	14.582	156210.0437	0.51493	4.8068E-5	1979.91976	41556.353	 	16392.458
1265.0	0.98862	0.0113768	8.47414	7.49076	-3.4091	17.60213	30.53907	1.23398	0.81038	132.43121	149.72327	49.1432	0.3474	14.59276	157017.2379	0.51446	4.78121E-5	1980.02233	41540.492	43.5132	16397.43
1262.85	0.99083	0.00916631	8.47582	7.48942	-3.42641	17.5812	30.50606	1.23359	0.81064	133.79828	149.8235	49.66688	0.34696	14.67459	163308.9125	0.51087	4.5906E-5	1980.83198	41420.032	 	16434.752
1262.85	0.99083	0.00916631	8.47582	7.48942	-3.42642	17.5812	30.50606	1.23359	0.81064	133.79828	149.8235	49.66688	0.34696	14.67459	163308.9354	0.51087	4.5906E-5	1980.832	41420.031	 	16434.753
1260.0	1.0	0.0	8.47925	7.4868	-3.46024	17.52113	30.45102	1.23353	0.81068	139.37921	150.15057	51.80268	0.34529	 	176762.129	 	4.23333E-5	 	41147.119	78.6746	16597.225
1255.0	1.0	0.0	8.4821	7.48425	-3.49303	17.49432	30.37103	1.23274	0.8112	139.73079	150.39363	51.93874	0.34515	 	189650.3196	 	3.93278E-5	 	40971.40055	35.14369	 
1250.0	1.0	0.0	8.48494	7.48176	-3.52524	17.46904	30.29113	1.23195	0.81172	140.08242	150.63786	52.07479	0.34501	 	203577.6231	 	3.65174E-5	 	40787.20498	36.83911	 
1245.0	1.0	0.0	8.48776	7.47926	-3.55738	17.44377	30.21123	1.23115	0.81225	140.43341	150.88098	52.21062	0.34487	 	218629.7225	 	3.38916E-5	 	40603.33182	36.77463	 
1240.0	1.0	0.0	8.49059	7.47678	-3.58945	17.4185	30.13133	1.23035	0.81277	140.78376	151.12301	52.34624	0.34474	 	234905.4541	 	3.14395E-5	 	40419.78039	36.71029	 
1235.0	1.0	0.0	8.49341	7.4743	-3.62145	17.39324	30.05142	1.22955	0.81331	141.13347	151.36395	52.48166	0.3446	 	252513.0146	 	2.91506E-5	 	40236.55002	36.64607	 
1230.0	1.0	0.0	8.49622	7.47182	-3.65338	17.36798	29.97152	1.22874	0.81384	141.48253	151.60379	52.61685	0.34446	 	271570.915	 	2.7015E-5	 	40053.64005	36.582	 
1225.0	1.0	0.0	8.49903	7.46935	-3.68524	17.34272	29.89161	1.22793	0.81438	141.83096	151.84254	52.75184	0.34432	 	292209.0469	 	2.50235E-5	 	39871.0498	36.51805	 
1220.0	1.0	0.0	8.50184	7.46688	-3.71703	17.31746	29.8117	1.22711	0.81492	142.17874	152.08021	52.88662	0.34418	 	314569.855	 	2.31672E-5	 	39688.77861	36.45424	 
1215.0	1.0	0.0	8.50464	7.46442	-3.74875	17.29221	29.73179	1.22629	0.81547	142.52588	152.3168	53.02118	0.34405	 	338809.6226	 	2.14377E-5	 	39506.82582	36.39056	 
1210.0	1.0	0.0	8.50744	7.46197	-3.78041	17.26696	29.65188	1.22546	0.81602	142.87237	152.5523	53.15553	0.34391	 	365099.9102	 	1.98271E-5	 	39325.19076	36.32701	 
1205.0	1.0	0.0	8.51023	7.45952	-3.81199	17.24172	29.57196	1.22463	0.81657	143.21823	152.78673	53.28967	0.34377	 	393629.1821	 	1.83281E-5	 	39143.87276	36.2636	 
1200.0	1.0	0.0	8.51302	7.45708	-3.8435	17.21648	29.49204	1.22379	0.81713	143.56344	153.02008	53.42359	0.34363	 	424604.5629	 	1.69336E-5	 	38962.87116	36.20032	 
1195.0	1.0	0.0	8.5158	7.45464	-3.87494	17.19124	29.41213	1.22295	0.81769	143.90801	153.25237	53.55731	0.3435	 	458253.8259	 	1.56369E-5	 	38782.1853	36.13717	 
1190.0	1.0	0.0	8.51858	7.4522	-3.90631	17.166	29.3322	1.22211	0.81826	144.25194	153.48358	53.69081	0.34336	 	494827.5858	 	1.44318E-5	 	38601.81452	36.07416	 
1185.0	1.0	0.0	8.52136	7.44978	-3.93762	17.14077	29.25228	1.22126	0.81883	144.59523	153.71373	53.8241	0.34322	 	534601.7988	 	1.33125E-5	 	38421.75815	36.01127	 
1180.0	1.0	0.0	8.52413	7.44735	-3.96885	17.11554	29.17236	1.22041	0.8194	144.93787	153.94282	53.95717	0.34308	 	577880.4183	 	1.22732E-5	 	38242.01554	35.94852	 
1175.0	1.0	0.0	8.5269	7.44494	-4.00001	17.09032	29.09243	1.21955	0.81997	145.27988	154.17085	54.09004	0.34294	 	624998.5432	 	1.13089E-5	 	38062.58602	35.8859	 
1170.0	1.0	0.0	8.52966	7.44253	-4.03111	17.0651	29.0125	1.21869	0.82055	145.62124	154.39782	54.22269	0.34281	 	676325.7166	 	1.04146E-5	 	37883.46893	35.82342	 
1165.0	1.0	0.0	8.53242	7.44012	-4.06213	17.03988	28.93257	1.21782	0.82114	145.96196	154.62374	54.35512	0.34267	 	732269.8241	 	9.58561E-6	 	37704.66361	35.76106	 
1160.0	1.0	0.0	8.53517	7.43772	-4.09308	17.01467	28.85263	1.21695	0.82173	146.30203	154.84861	54.48735	0.34253	 	793281.2858	 	8.81762E-6	 	37526.16941	35.69884	 
1155.0	1.0	0.0	8.53792	7.43532	-4.12397	16.98946	28.7727	1.21607	0.82232	146.64147	155.07243	54.61936	0.34239	 	859857.8392	 	8.10651E-6	 	37347.98566	35.63675	 
1150.0	1.0	0.0	8.54067	7.43293	-4.15478	16.96425	28.69276	1.21519	0.82292	146.98026	155.2952	54.75116	0.34226	 	932549.7714	 	7.44844E-6	 	37170.1117	35.57479	 
1145.0	1.0	0.0	8.54341	7.43055	-4.18553	16.93905	28.61282	1.2143	0.82352	147.31841	155.51694	54.88274	0.34212	 	1011965.986	 	6.83979E-6	 	36992.54688	35.51296	 
1140.0	1.0	0.0	8.54614	7.42817	-4.2162	16.91385	28.53287	1.21341	0.82412	147.65592	155.73763	55.01411	0.34198	 	1098780.592	 	6.27717E-6	 	36815.29054	35.45127	 
1135.0	1.0	0.0	8.54888	7.4258	-4.24681	16.88865	28.45293	1.21252	0.82473	147.99279	155.95729	55.14527	0.34184	 	1193740.389	 	5.75739E-6	 	36638.34202	35.3897	 
1130.0	1.0	0.0	8.5516	7.42343	-4.27735	16.86346	28.37298	1.21162	0.82534	148.32902	156.17591	55.27622	0.34171	 	1297673.255	 	5.27747E-6	 	36461.70066	35.32827	 
1125.0	1.0	0.0	8.55433	7.42107	-4.30781	16.83827	28.29303	1.21071	0.82596	148.6646	156.39351	55.40695	0.34157	 	1411497.555	 	4.8346E-6	 	36285.3658	35.26697	 
1120.0	1.0	0.0	8.55704	7.41871	-4.33821	16.81308	28.21308	1.2098	0.82658	148.99954	156.61007	55.53747	0.34143	 	1536232.713	 	4.42616E-6	 	36109.3368	35.2058	 
1115.0	1.0	0.0	8.55976	7.41636	-4.36854	16.7879	28.13312	1.20888	0.82721	149.33384	156.82561	55.66777	0.3413	 	1673011.099	 	4.04971E-6	 	35933.61299	35.14476	 
1110.0	1.0	0.0	8.56247	7.41401	-4.3988	16.76272	28.05316	1.20796	0.82784	149.6675	157.04013	55.79787	0.34116	 	1823091.402	 	3.70295E-6	 	35758.19373	35.08385	 
1105.0	1.0	0.0	8.56517	7.41167	-4.42899	16.73754	27.9732	1.20704	0.82848	150.00051	157.25363	55.92774	0.34102	 	1987873.691	 	3.38372E-6	 	35583.07834	35.02308	 
1100.0	1.0	0.0	8.56787	7.40933	-4.45911	16.71237	27.89324	1.20611	0.82912	150.33289	157.46611	56.05741	0.34088	 	2168916.382	 	3.09002E-6	 	35408.26618	34.96243	 
1095.0	1.0	0.0	8.57057	7.407	-4.48916	16.6872	27.81327	1.20517	0.82976	150.66462	157.67758	56.18686	0.34075	 	2367955.368	 	2.81999E-6	 	35233.75659	34.90192	 
1090.0	1.0	0.0	8.57326	7.40468	-4.51914	16.66203	27.7333	1.20423	0.83041	150.99571	157.88804	56.31609	0.34061	 	2586925.613	 	2.57185E-6	 	35059.54893	34.84153	 
1085.0	1.0	0.0	8.57594	7.40236	-4.54905	16.63687	27.65333	1.20328	0.83106	151.32616	158.09748	56.44512	0.34047	 	2827985.533	 	2.344E-6	 	34885.64253	34.78128	 
1080.0	1.0	0.0	8.57863	7.40004	-4.57889	16.61171	27.57335	1.20233	0.83172	151.65597	158.30592	56.57392	0.34033	 	3093544.556	 	2.13489E-6	 	34712.03673	34.72116	 
1075.0	1.0	0.0	8.5813	7.39774	-4.60866	16.58656	27.49337	1.20137	0.83238	151.98513	158.51336	56.70252	0.3402	 	3386294.291	 	1.94312E-6	 	34538.73089	34.66117	 
1070.0	1.0	0.0	8.58398	7.39543	-4.63837	16.5614	27.41339	1.20041	0.83305	152.31365	158.7198	56.8309	0.34006	 	3709243.817	 	1.76736E-6	 	34365.72437	34.60131	 
1065.0	1.0	0.0	8.58665	7.39313	-4.668	16.53625	27.33341	1.19944	0.83373	152.64153	158.92523	56.95906	0.33992	 	4065759.65	 	1.60639E-6	 	34193.01648	34.54158	 
1060.0	1.0	0.0	8.58931	7.39084	-4.69757	16.51111	27.25342	1.19846	0.8344	152.96877	159.12968	57.08701	0.33979	 	4459611.073	 	1.45905E-6	 	34020.6066	34.48198	 
1055.0	1.0	0.0	8.59197	7.38855	-4.72706	16.48597	27.17343	1.19748	0.83509	153.29537	159.33313	57.21475	0.33965	 	4895021.556	 	1.32428E-6	 	33848.49406	34.42251	 
1053.85	1.0	0.0	8.59258	7.38803	-4.73383	16.48019	27.15504	1.19726	0.83524	153.37037	159.37977	57.24409	0.33962	 	5001496.299	 	1.29496E-6	 	33808.96254	 	 
1050.0	1.0	0.0	8.59461	7.38629	-4.75631	16.46146	27.09344	1.1965	0.83577	153.6221	159.53679	57.34255	0.33951	 	5376987.7	 	1.20104E-6	 	33676.34399	34.43001	 
1045.0	1.0	0.0	8.59724	7.38403	-4.78545	16.4371	27.01345	1.1955	0.83647	153.94838	159.73976	57.4702	0.33938	 	5910685.276	 	1.08846E-6	 	33504.41056	34.38669	 
1040.0	1.0	0.0	8.59986	7.38177	-4.81453	16.41272	26.93345	1.19451	0.83717	154.27398	159.94166	57.59761	0.33924	 	6502018.351	 	9.85718E-7	 	33332.7938	34.32335	 
1035.0	1.0	0.0	8.60249	7.37952	-4.84356	16.3883	26.85346	1.1935	0.83787	154.59889	160.14251	57.7248	0.3391	 	7157704.492	 	8.92012E-7	 	33161.49215	34.26033	 
1030.0	1.0	0.0	8.60511	7.37727	-4.87252	16.36386	26.77346	1.19249	0.83858	154.92311	160.34231	57.85176	0.33897	 	7885300.375	 	8.06609E-7	 	32990.50408	34.19761	 
1025.0	1.0	0.0	8.60772	7.37503	-4.90143	16.3394	26.69346	1.19148	0.83929	155.24665	160.54107	57.97849	0.33883	 	8693313.962	 	7.2883E-7	 	32819.82807	34.1352	 
1020.0	1.0	0.0	8.61033	7.37279	-4.93028	16.31491	26.61345	1.19046	0.84001	155.56951	160.73879	58.10499	0.33869	 	9591331.952	 	6.58047E-7	 	32649.46264	34.07309	 
1015.0	1.0	0.0	8.61294	7.37056	-4.95906	16.29039	26.53344	1.18943	0.84074	155.8917	160.93548	58.23126	0.33856	 	1.059016647E7	 	5.93677E-7	 	32479.40634	34.01126	 
1010.0	1.0	0.0	8.61555	7.36833	-4.98779	16.26585	26.45343	1.1884	0.84147	156.2132	161.13114	58.35731	0.33842	 	1.17020208E7	 	5.35184E-7	 	32309.65774	33.94972	 
1005.0	1.0	0.0	8.61815	7.36611	-5.01645	16.24129	26.37341	1.18736	0.84221	156.53403	161.32578	58.48313	0.33828	 	1.294068125E7	 	4.82071E-7	 	32140.21545	33.88846	 
1000.0	1.0	0.0	8.62074	7.36389	-5.04506	16.21671	26.29339	1.18631	0.84295	156.85418	161.5194	58.60872	0.33815	 	1.432173487E7	 	4.33881E-7	 	31971.0781	33.82747	 
995.0	1.0	0.0	8.62333	7.36168	-5.0736	16.19211	26.21337	1.18526	0.8437	157.17366	161.712	58.73408	0.33801	 	1.586282166E7	 	3.90191E-7	 	31802.24436	33.76675	 
990.0	1.0	0.0	8.62592	7.35947	-5.10208	16.16749	26.13335	1.1842	0.84445	157.49247	161.9036	58.85922	0.33787	 	1.75839215E7	 	3.50611E-7	 	31633.71288	33.7063	 
985.0	1.0	0.0	8.62851	7.35727	-5.13049	16.14286	26.05332	1.18314	0.84521	157.81061	162.0942	58.98413	0.33774	 	1.950768526E7	 	3.14785E-7	 	31465.48238	33.6461	 
980.0	1.0	0.0	8.63109	7.35507	-5.15885	16.1182	25.97328	1.18207	0.84598	158.12808	162.2838	59.10882	0.3376	 	2.165981395E7	 	2.82381E-7	 	31297.55159	33.58616	 
975.0	1.0	0.0	8.63366	7.35287	-5.18714	16.09354	25.89324	1.18099	0.84675	158.44488	162.4724	59.23329	0.33746	 	2.406949995E7	 	2.53097E-7	 	31129.91928	33.52646	 
970.0	1.0	0.0	8.63623	7.35068	-5.21537	16.06885	25.8132	1.17991	0.84752	158.76101	162.66002	59.35753	0.33733	 	2.67699263E7	 	2.26654E-7	 	30962.5842	33.46701	 
965.0	1.0	0.0	8.6388	7.3485	-5.24353	16.04416	25.73316	1.17882	0.84831	159.07647	162.84665	59.48154	0.33719	 	2.979885387E7	 	2.02796E-7	 	30795.54517	33.40781	 
960.0	1.0	0.0	8.64136	7.34632	-5.27163	16.01945	25.65311	1.17772	0.8491	159.39128	163.0323	59.60533	0.33706	 	3.31992884E7	 	1.8129E-7	 	30628.80101	33.34883	 
955.0	1.0	0.0	8.64392	7.34415	-5.29967	15.99472	25.57305	1.17662	0.84989	159.70541	163.21698	59.7289	0.33692	 	3.702026047E7	 	1.61919E-7	 	30462.35055	33.29009	 
950.0	1.0	0.0	8.64647	7.34198	-5.32764	15.96999	25.49299	1.17551	0.8507	160.01889	163.40068	59.85224	0.33678	 	4.131771889E7	 	1.44487E-7	 	30296.19266	33.23158	 
945.0	1.0	0.0	8.64902	7.33981	-5.35555	15.94524	25.41293	1.17439	0.85151	160.3317	163.58341	59.97536	0.33665	 	4.615557772E7	 	1.28814E-7	 	30130.32623	33.17329	 
940.0	1.0	0.0	8.65157	7.33765	-5.38339	15.92049	25.33286	1.17327	0.85232	160.64386	163.76518	60.09826	0.33651	 	5.160691161E7	 	1.14734E-7	 	29964.75016	33.11521	 
935.0	1.0	0.0	8.65411	7.3355	-5.41117	15.89573	25.25279	1.17213	0.85314	160.95535	163.94599	60.22094	0.33637	 	5.775536665E7	 	1.02098E-7	 	29799.46337	33.05736	 
930.0	1.0	0.0	8.65665	7.33335	-5.43888	15.87095	25.17271	1.171	0.85397	161.26618	164.12585	60.34339	0.33624	 	6.469677457E7	 	9.07661E-8	 	29634.46481	32.99971	 
925.0	1.0	0.0	8.65918	7.33121	-5.46653	15.84617	25.09263	1.16985	0.85481	161.57636	164.30475	60.46563	0.3361	 	7.254104837E7	 	8.06147E-8	 	29469.75344	32.94227	 
920.0	1.0	0.0	8.6617	7.32907	-5.49411	15.82138	25.01254	1.1687	0.85565	161.88588	164.4827	60.58764	0.33596	 	8.141438445E7	 	7.15287E-8	 	29305.32823	32.88504	 
915.0	1.0	0.0	8.66423	7.32693	-5.52163	15.79659	24.93245	1.16754	0.8565	162.19474	164.65971	60.70942	0.33583	 	9.146182314E7	 	6.34042E-8	 	29141.18817	32.82801	 
910.0	1.0	0.0	8.66675	7.32481	-5.54908	15.77179	24.85236	1.16638	0.85736	162.50295	164.83578	60.83099	0.33569	 	1.028502414E8	 	5.61463E-8	 	28977.33228	32.77118	 
905.0	1.0	0.0	8.66926	7.32268	-5.57646	15.74698	24.77226	1.1652	0.85822	162.8105	165.01091	60.95234	0.33556	 	1.157718567E8	 	4.96689E-8	 	28813.75957	32.71454	 
900.0	1.0	0.0	8.67177	7.32056	-5.60378	15.72217	24.69215	1.16402	0.85909	163.1174	165.1851	61.07346	0.33542	 	1.30448306E8	 	4.38937E-8	 	28650.4691	32.65809	 
895.0	1.0	0.0	8.67427	7.31845	-5.63103	15.69735	24.61204	1.16283	0.85997	163.42364	165.35837	61.19437	0.33528	 	1.471354414E8	 	3.87497E-8	 	28487.4599	32.60184	 
890.0	1.0	0.0	8.67677	7.31634	-5.65821	15.67253	24.53192	1.16164	0.86085	163.72923	165.53071	61.31505	0.33515	 	1.661289429E8	 	3.41725E-8	 	28324.73106	32.54577	 
885.0	1.0	0.0	8.67927	7.31424	-5.68533	15.64771	24.4518	1.16043	0.86175	164.03417	165.70212	61.43551	0.33501	 	1.877708948E8	 	3.01039E-8	 	28162.28166	32.48988	 
880.0	1.0	0.0	8.68176	7.31214	-5.71238	15.62288	24.37167	1.15922	0.86265	164.33846	165.87261	61.55576	0.33487	 	2.124575531E8	 	2.64911E-8	 	28000.11078	32.43417	 
875.0	1.0	0.0	8.68424	7.31005	-5.73937	15.59805	24.29154	1.158	0.86356	164.64209	166.04218	61.67578	0.33474	 	2.406484325E8	 	2.32864E-8	 	27838.21754	32.37865	 
870.0	1.0	0.0	8.68672	7.30796	-5.76629	15.57321	24.2114	1.15678	0.86447	164.94508	166.21084	61.79558	0.3346	 	2.728770427E8	 	2.04467E-8	 	27676.60105	32.3233	 
865.0	1.0	0.0	8.6892	7.30588	-5.79314	15.54838	24.13125	1.15554	0.86539	165.24741	166.37859	61.91516	0.33447	 	3.097635495E8	 	1.79331E-8	 	27515.26044	32.26812	 
860.0	1.0	0.0	8.69167	7.3038	-5.81992	15.52354	24.0511	1.1543	0.86633	165.5491	166.54543	62.03452	0.33433	 	3.520297323E8	 	1.57107E-8	 	27354.19486	32.21312	 
855.0	1.0	0.0	8.69414	7.30173	-5.84664	15.4987	23.97095	1.15305	0.86727	165.85013	166.71136	62.15366	0.33419	 	4.005166471E8	 	1.37478E-8	 	27193.40345	32.15828	 
850.0	1.0	0.0	8.6966	7.29966	-5.87328	15.47386	23.89079	1.15179	0.86821	166.15052	166.87639	62.27259	0.33406	 	4.562055491E8	 	1.20161E-8	 	27032.88537	32.10362	 
845.0	1.0	0.0	8.69905	7.2976	-5.89988	15.44895	23.81062	1.15052	0.86917	166.45018	167.04041	62.39126	0.33392	 	5.202402141E8	 	1.04902E-8	 	26875.87605	31.40186	 
840.0	1.0	0.0	8.70151	7.29554	-5.92641	15.42404	23.73044	1.14925	0.87013	166.7492	167.20354	62.50972	0.33379	 	5.939634562E8	 	9.14704E-9	 	26715.92913	31.98938	 
835.0	1.0	0.0	8.70396	7.29349	-5.95287	15.39913	23.65026	1.14797	0.87111	167.04757	167.36579	62.62795	0.33365	 	6.789455062E8	 	7.96618E-9	 	26556.25091	31.93564	 
830.0	1.0	0.0	8.7064	7.29144	-5.97927	15.37423	23.57007	1.14667	0.87209	167.3453	167.52715	62.74597	0.33351	 	7.770278041E8	 	6.92923E-9	 	26396.84074	31.88204	 
825.0	1.0	0.0	8.70884	7.2894	-6.00559	15.34933	23.48988	1.14537	0.87308	167.64239	167.68763	62.86378	0.33338	 	8.903727095E8	 	6.01972E-9	 	26237.69794	31.82856	 
820.0	1.0	0.0	8.71127	7.28737	-6.03184	15.32443	23.40968	1.14406	0.87408	167.93884	167.84723	62.98136	0.33324	 	1.021522844E9	 	5.22298E-9	 	26078.82186	31.77522	 
815.0	1.0	0.0	8.7137	7.28533	-6.05803	15.29954	23.32947	1.14275	0.87508	168.23465	168.00595	63.09873	0.33311	 	1.173472038E9	 	4.52588E-9	 	25920.21179	31.72201	 
810.0	1.0	0.0	8.71612	7.28331	-6.08415	15.27465	23.24926	1.14142	0.8761	168.52981	168.1638	63.21588	0.33297	 	1.349750266E9	 	3.91671E-9	 	25761.86712	31.66894	 
805.0	1.0	0.0	8.71854	7.28129	-6.1102	15.24976	23.16904	1.14009	0.87713	168.82433	168.32078	63.33281	0.33283	 	1.55452549E9	 	3.38507E-9	 	25603.78712	31.616	 
800.0	1.0	0.0	8.72095	7.27927	-6.13618	15.22488	23.08881	1.13874	0.87816	169.11821	168.47688	63.44952	0.3327	 	1.792725944E9	 	2.92168E-9	 	25445.97114	31.5632	 
795.0	1.0	0.0	8.72336	7.27726	-6.16209	15.20001	23.00858	1.13739	0.87921	169.41145	168.63212	63.56602	0.33256	 	2.070187186E9	 	2.51831E-9	 	25288.4185	31.51053	 
790.0	1.0	0.0	8.72577	7.27526	-6.18794	15.17514	22.92833	1.13603	0.88026	169.70405	168.78649	63.68229	0.33243	 	2.39382922E9	 	2.16764E-9	 	25131.12851	31.458	 
785.0	1.0	0.0	8.72816	7.27326	-6.21371	15.15027	22.84809	1.13465	0.88133	169.996	168.94	63.79835	0.33229	 	2.77187014E9	 	1.86321E-9	 	24974.10049	31.4056	 
780.0	1.0	0.0	8.73056	7.27127	-6.23942	15.1254	22.76783	1.13327	0.8824	170.28731	169.09264	63.91419	0.33216	 	3.214084243E9	 	1.59926E-9	 	24817.33374	31.35335	 
775.0	1.0	0.0	8.73294	7.26928	-6.26506	15.10054	22.68757	1.13188	0.88348	170.57798	169.24443	64.02981	0.33202	 	3.73211437E9	 	1.37074E-9	 	24660.82758	31.30123	 
770.0	1.0	0.0	8.73533	7.2673	-6.29063	15.07568	22.6073	1.13048	0.88458	170.86801	169.39536	64.14521	0.33188	 	4.339850454E9	 	1.17316E-9	 	24504.5813	31.24926	 
765.0	1.0	0.0	8.73771	7.26532	-6.31613	15.05083	22.52702	1.12907	0.88568	171.15739	169.54543	64.26039	0.33175	 	5.053889077E9	 	1.00258E-9	 	24348.5942	31.19742	 
760.0	1.0	0.0	8.74008	7.26335	-6.34156	15.02598	22.44674	1.12765	0.8868	171.44613	169.69465	64.37536	0.33161	 	5.89409228E9	 	8.55526E-10	 	24192.86557	31.14572	 
755.0	1.0	0.0	8.74245	7.26138	-6.36693	15.00114	22.36645	1.12623	0.88792	171.73423	169.84302	64.4901	0.33148	 	6.884268203E9	 	7.28929E-10	 	24037.39472	31.09417	 
750.0	1.0	0.0	8.74481	7.25942	-6.39223	14.9763	22.28614	1.12479	0.88906	172.02169	169.99054	64.60463	0.33134	 	8.053001525E9	 	6.20109E-10	 	23882.1809	31.04276	 
745.0	1.0	0.0	8.74717	7.25746	-6.41745	14.95146	22.20584	1.12334	0.8902	172.30851	170.13721	64.71893	0.33121	 	9.434668415E9	 	5.2671E-10	 	23727.2234	30.9915	 
740.0	1.0	0.0	8.74952	7.25551	-6.44262	14.92663	22.12552	1.12188	0.89136	172.59468	170.28304	64.83302	0.33107	 	1.10707E10	 	4.46669E-10	 	23572.5215	30.94038	 
735.0	1.0	0.0	8.75187	7.25356	-6.46771	14.9018	22.0452	1.12041	0.89253	172.88021	170.42802	64.94689	0.33094	 	1.3010999999999998E10	 	3.78182E-10	 	23418.07444	30.88941	 
730.0	1.0	0.0	8.75421	7.25162	-6.49273	14.87697	21.96486	1.11893	0.89371	173.1651	170.57217	65.06054	0.3308	 	1.5315999999999998E10	 	3.19673E-10	 	23263.88149	30.83859	 
725.0	1.0	0.0	8.75654	7.24969	-6.51769	14.85215	21.88452	1.11744	0.8949	173.44934	170.71547	65.17397	0.33066	 	1.80589E10	 	2.69768E-10	 	23109.94189	30.78792	 
720.0	1.0	0.0	8.75888	7.24776	-6.54257	14.82733	21.80417	1.11594	0.8961	173.73295	170.85794	65.28718	0.33053	 	2.13284E10	 	2.27271E-10	 	22956.25488	30.7374	 
715.0	1.0	0.0	8.7612	7.24583	-6.56739	14.80252	21.72381	1.11443	0.89732	174.01591	170.99958	65.40017	0.33039	 	2.5232199999999996E10	 	1.91142E-10	 	22802.81969	30.68704	 
710.0	1.0	0.0	8.76352	7.24391	-6.59214	14.77771	21.64344	1.11291	0.89855	174.29823	171.14038	65.51294	0.33026	 	2.9901599999999996E10	 	1.60477E-10	 	22649.63553	30.63683	 
705.0	1.0	0.0	8.76584	7.242	-6.61683	14.7529	21.56307	1.11138	0.89979	174.57991	171.28035	65.62549	0.33012	 	3.54966E10	 	1.34495E-10	 	22496.70161	30.58678	 
700.0	1.0	0.0	8.76815	7.24009	-6.64144	14.7281	21.48268	1.10983	0.90104	174.86094	171.4195	65.73782	0.32999	 	4.2213E10	 	1.12518E-10	 	22344.01713	30.5369	 
695.0	1.0	0.0	8.77046	7.23819	-6.66599	14.7033	21.40229	1.10828	0.9023	175.14133	171.55781	65.84994	0.32985	 	5.029009999999999E10	 	9.39609E-11	 	22191.58127	30.48717	 
690.0	1.0	0.0	8.77276	7.23629	-6.69046	14.67851	21.32188	1.10671	0.90358	175.42108	171.69531	65.96183	0.32972	 	6.002169999999999E10	 	7.832E-11	 	22039.3932	30.43761	 
685.0	1.0	0.0	8.77505	7.2344	-6.71487	14.65372	21.24147	1.10513	0.90487	175.70019	171.83198	66.0735	0.32958	 	7.17688E10	 	6.51605E-11	 	21887.45207	30.38823	 
680.0	1.0	0.0	8.77735	7.23251	-6.73922	14.62893	21.16104	1.10355	0.90617	175.97866	171.96783	66.18495	0.32945	 	8.5976E10	 	5.41091E-11	 	21735.75703	30.33901	 
675.0	1.0	0.0	8.77963	7.23063	-6.76349	14.60415	21.08061	1.10195	0.90749	176.25648	172.10286	66.29618	0.32931	 	1.03192E11	 	4.48453E-11	 	21584.30718	30.28997	 
670.0	1.0	0.0	8.78191	7.22875	-6.7877	14.57937	21.00017	1.10033	0.90882	176.53366	172.23708	66.4072	0.32918	 	1.24096E11	 	3.70946E-11	 	21433.10166	30.24111	 
665.0	1.0	0.0	8.78418	7.22688	-6.81183	14.55459	20.91971	1.09871	0.91016	176.8102	172.37048	66.51799	0.32904	 	1.49527E11	 	3.06224E-11	 	21282.13951	30.19243	 
660.0	1.0	0.0	8.78645	7.22501	-6.8359	14.52982	20.83925	1.09707	0.91152	177.0861	172.50307	66.62856	0.32891	 	1.80531E11	 	2.52282E-11	 	21131.42088	30.14373	 
655.0	1.0	0.0	8.78872	7.22315	-6.8599	14.50506	20.75877	1.09542	0.91289	177.36135	172.63485	66.73891	0.32877	 	2.18406E11	 	2.07415E-11	 	20980.9511	30.09396	 
650.0	1.0	0.0	8.79098	7.22129	-6.88384	14.48029	20.67829	1.09376	0.91427	177.63596	172.76582	66.84904	0.32864	 	2.64773E11	 	1.70171E-11	 	20830.73743	30.04273	 
645.0	1.0	0.0	8.79323	7.21944	-6.9077	14.45553	20.59779	1.09209	0.91567	177.90993	172.89598	66.95895	0.3285	 	3.21657E11	 	1.39318E-11	 	20680.77922	29.99164	 
640.0	1.0	0.0	8.79548	7.2176	-6.9315	14.43078	20.51728	1.09041	0.91709	178.18325	173.02534	67.06864	0.32836	 	3.91595E11	 	1.13813E-11	 	20531.07581	29.94068	 
635.0	1.0	0.0	8.79772	7.21576	-6.95523	14.40603	20.43676	1.08871	0.91852	178.45594	173.1539	67.1781	0.32823	 	4.77775E11	 	9.27728E-12	 	20381.62656	29.88985	 
630.0	1.0	0.0	8.79996	7.21392	-6.97889	14.38128	20.35623	1.087	0.91997	178.72798	173.28165	67.28735	0.32809	 	5.84206E11	 	7.54537E-12	 	20232.43081	29.83915	 
625.0	1.0	0.0	8.80219	7.21209	-7.00249	14.35654	20.27569	1.08527	0.92143	178.99938	173.40861	67.39638	0.32796	 	7.15947E11	 	6.12286E-12	 	20083.48792	29.78858	 
620.0	1.0	0.0	8.80442	7.21027	-7.02601	14.3318	20.19514	1.08354	0.9229	179.27014	173.53477	67.50518	0.32782	 	8.79396E11	 	4.95709E-12	 	19934.79725	29.73814	 
615.0	1.0	0.0	8.80664	7.20845	-7.04947	14.30706	20.11457	1.08179	0.9244	179.54025	173.66014	67.61377	0.32769	 	1.08266E12	 	4.00386E-12	 	19786.35816	29.68782	 
610.0	1.0	0.0	8.80886	7.20663	-7.07286	14.28233	20.03399	1.08002	0.92591	179.80972	173.78471	67.72213	0.32756	 	1.33606E12	 	3.22623E-12	 	19638.17001	29.63763	 
605.0	1.0	0.0	8.81107	7.20482	-7.09618	14.2576	19.9534	1.07825	0.92743	180.07855	173.90849	67.83027	0.32742	 	1.65271E12	 	2.59333E-12	 	19490.23217	29.58757	 
600.0	1.0	0.0	8.81328	7.20302	-7.11943	14.23288	19.8728	1.07646	0.92898	180.34674	174.03148	67.93819	0.32729	 	2.0494E12	 	2.07945E-12	 	19342.544	29.53763	 
595.0	1.0	0.0	8.81548	7.20122	-7.14262	14.20816	19.79218	1.07465	0.93054	180.61428	174.15369	68.04589	0.32715	 	2.54761E12	 	1.66321E-12	 	19195.10489	29.48782	 
590.0	1.0	0.0	8.81767	7.19943	-7.16574	14.18344	19.71155	1.07283	0.93211	180.88118	174.27511	68.15337	0.32702	 	3.17493E12	 	1.3269E-12	 	19047.9142	29.43814	 
585.0	1.0	0.0	8.81986	7.19764	-7.18879	14.15873	19.63091	1.071	0.93371	181.14744	174.39575	68.26063	0.32688	 	3.96688E12	 	1.05585E-12	 	18900.97131	29.38858	 
580.0	1.0	0.0	8.82205	7.19586	-7.21177	14.13402	19.55026	1.06915	0.93532	181.41306	174.5156	68.36766	0.32675	 	4.96933E12	 	8.37943E-13	 	18754.27561	29.33914	 
575.0	1.0	0.0	8.82423	7.19408	-7.23469	14.10932	19.46959	1.06729	0.93695	181.67803	174.63468	68.47448	0.32661	 	6.24166E12	 	6.63223E-13	 	18607.82647	29.28983	 
570.0	1.0	0.0	8.8264	7.19231	-7.25753	14.08462	19.3889	1.06541	0.9386	181.94236	174.75297	68.58107	0.32648	 	7.86097E12	 	5.23498E-13	 	18461.62328	29.24064	 
565.0	1.0	0.0	8.82857	7.19055	-7.28031	14.05992	19.3082	1.06352	0.94027	182.20605	174.87049	68.68744	0.32634	 	9.92768E12	 	4.1206E-13	 	18315.66546	29.19157	 
560.0	1.0	0.0	8.83073	7.18878	-7.30303	14.03523	19.22749	1.06161	0.94196	182.4691	174.98724	68.79358	0.32621	 	1.25729E13	 	3.23425E-13	 	18169.95237	29.14262	 
555.0	1.0	0.0	8.83289	7.18703	-7.32567	14.01054	19.14677	1.05969	0.94367	182.7315	175.10322	68.89951	0.32607	 	1.59685E13	 	2.53123E-13	 	18024.48342	29.09379	 
550.0	1.0	0.0	8.83504	7.18528	-7.34825	13.98586	19.06602	1.05775	0.9454	182.99326	175.21842	69.00521	0.32594	 	2.034E13	 	1.97521E-13	 	17879.25802	29.04508	 
545.0	1.0	0.0	8.83719	7.18353	-7.37076	13.96118	18.98527	1.0558	0.94715	183.25438	175.33286	69.11069	0.3258	 	2.59851E13	 	1.53672E-13	 	17734.27557	28.99649	 
540.0	1.0	0.0	8.83933	7.18179	-7.3932	13.9365	18.90449	1.05383	0.94892	183.51486	175.44652	69.21595	0.32567	 	3.3297E13	 	1.19193E-13	 	17589.53548	28.94802	 
535.0	1.0	0.0	8.84147	7.18006	-7.41557	13.91183	18.82371	1.05185	0.95071	183.77469	175.55943	69.32099	0.32553	 	4.27976E13	 	9.21636E-14	 	17445.03718	28.89966	 
530.0	1.0	0.0	8.8436	7.17833	-7.43788	13.88716	18.7429	1.04985	0.95252	184.03388	175.67157	69.42581	0.3254	 	5.51811E13	 	7.10384E-14	 	17300.78007	28.85142	 
525.0	1.0	0.0	8.84572	7.1766	-7.46011	13.86249	18.66208	1.04783	0.95435	184.29243	175.78295	69.5304	0.32527	 	7.13746E13	 	5.45793E-14	 	17156.76359	28.8033	 
520.0	1.0	0.0	8.84784	7.17488	-7.48228	13.83783	18.58124	1.0458	0.95621	184.55033	175.89357	69.63477	0.32513	 	9.26203E13	 	4.17961E-14	 	17012.98715	28.75529	 
515.0	1.0	0.0	8.84996	7.17317	-7.50439	13.81318	18.50039	1.04374	0.95809	184.8076	176.00343	69.73891	0.325	 	1.20588E14	 	3.19E-14	 	16869.4502	28.70739	 
510.0	1.0	0.0	8.85206	7.17146	-7.52642	13.78852	18.41952	1.04168	0.95999	185.06422	176.11253	69.84284	0.32486	 	1.57531E14	 	2.42642E-14	 	16726.15217	28.65961	 
505.0	1.0	0.0	8.85417	7.16976	-7.54839	13.76387	18.33863	1.03959	0.96192	185.32019	176.22088	69.94654	0.32473	 	2.065E14	 	1.83921E-14	 	16583.0925	28.61193	 
500.0	1.0	0.0	8.85627	7.16806	-7.57029	13.73923	18.25772	1.03749	0.96387	185.57553	176.32848	70.05002	0.32459	 	2.7163999999999997E14	 	1.38918E-14	 	16440.27065	28.56437	 
495.0	1.0	0.0	8.85836	7.16636	-7.59212	13.71459	18.17679	1.03537	0.96584	185.83022	176.43533	70.15328	0.32446	 	3.58606E14	 	1.04548E-14	 	16297.68606	28.51692	 
490.0	1.0	0.0	8.86045	7.16468	-7.61389	13.68995	18.09585	1.03323	0.96784	186.08427	176.54143	70.25631	0.32432	 	4.7514E14	 	7.83926E-15	 	16155.3382	28.46957	 
485.0	1.0	0.0	8.86253	7.16299	-7.63559	13.66531	18.01489	1.03107	0.96986	186.33768	176.64678	70.35912	0.32419	 	6.31885E14	 	5.85604E-15	 	16013.22653	28.42233	 
480.0	1.0	0.0	8.8646	7.16132	-7.65722	13.64069	17.9339	1.0289	0.97191	186.59044	176.75138	70.46171	0.32406	 	8.43526E14	 	4.35783E-15	 	15871.35052	28.3752	 
475.0	1.0	0.0	8.86667	7.15964	-7.67878	13.61606	17.8529	1.02671	0.97399	186.84256	176.85524	70.56407	0.32392	 	1.13041E15	 	3.23028E-15	 	15729.70965	28.32817	 
470.0	1.0	0.0	8.86874	7.15798	-7.70027	13.59144	17.77188	1.02449	0.97609	187.09404	176.95836	70.66621	0.32379	 	1.52084E15	 	2.38495E-15	 	15588.3034	28.28125	 
465.0	1.0	0.0	8.8708	7.15631	-7.7217	13.56682	17.69084	1.02226	0.97822	187.34487	177.06074	70.76813	0.32365	 	2.05436E15	 	1.7537E-15	 	15447.13125	28.23443	 
460.0	1.0	0.0	8.87285	7.15466	-7.74306	13.54221	17.60977	1.02001	0.98038	187.59507	177.16238	70.86982	0.32352	 	2.78645E15	 	1.28419E-15	 	15306.19271	28.18771	 
455.0	1.0	0.0	8.8749	7.15301	-7.76435	13.5176	17.52869	1.01774	0.98257	187.84462	177.26328	70.97129	0.32338	 	3.79529E15	 	9.36403E-16	 	15165.48728	28.14109	 
450.0	1.0	0.0	8.87694	7.15136	-7.78558	13.49299	17.44758	1.01545	0.98478	188.09352	177.36345	71.07254	0.32325	 	5.1915E15	 	6.79864E-16	 	15025.01447	28.09456	 
445.0	1.0	0.0	8.87898	7.14972	-7.80674	13.46839	17.36646	1.01314	0.98703	188.34179	177.46289	71.17356	0.32312	 	7.13241E15	 	4.91435E-16	 	14884.77379	28.04814	 
440.0	1.0	0.0	8.88101	7.14808	-7.82783	13.44379	17.2853	1.01081	0.9893	188.58941	177.56159	71.27436	0.32298	 	9.84268E15	 	3.53634E-16	 	14744.76478	28.0018	 
435.0	1.0	0.0	8.88304	7.14645	-7.84885	13.41919	17.20413	1.00846	0.99161	188.83639	177.65956	71.37493	0.32285	 	1.36448E16	 	2.53306E-16	 	14604.98695	27.95557	 
430.0	1.0	0.0	8.88506	7.14483	-7.86981	13.3946	17.12293	1.00609	0.99395	189.08272	177.75681	71.47528	0.32271	 	1.90036E16	 	1.80592E-16	 	14465.43985	27.90942	 
425.0	1.0	0.0	8.88707	7.14321	-7.8907	13.37002	17.04171	1.00369	0.99632	189.32842	177.85332	71.57541	0.32258	 	2.65929E16	 	1.28135E-16	 	14326.12306	27.86336	 
420.0	1.0	0.0	8.88908	7.14159	-7.91152	13.34543	16.96047	1.00128	0.99872	189.57347	177.94912	71.67532	0.32245	 	3.7394E16	 	9.04716E-17	 	14187.03609	27.81739	 
415.0	1.0	0.0	8.89109	7.13998	-7.93227	13.32085	16.8792	0.99884	1.00116	189.81787	178.04419	71.77499	0.32231	 	5.28432E16	 	6.35596E-17	 	14048.17859	27.7715	 
410.0	1.0	0.0	8.89308	7.13838	-7.95296	13.29628	16.7979	0.99639	1.00363	190.06164	178.13853	71.87445	0.32218	 	7.50541E16	 	4.44251E-17	 	13909.5502	27.72568	 
405.0	1.0	0.0	8.89508	7.13678	-7.97358	13.27171	16.71658	0.9939	1.00613	190.30476	178.23216	71.97368	0.32204	 	1.07154E17	 	3.08891E-17	 	13771.15061	27.67992	 
400.0	1.0	0.0	8.89706	7.13519	-7.99413	13.24714	16.63523	0.9914	1.00867	190.54724	178.32507	72.07269	0.32191	 	1.53793E17	 	2.1363E-17	 	13632.9795	27.63422	 
395.0	1.0	0.0	8.89905	7.1336	-8.01462	13.22258	16.55385	0.98887	1.01125	190.78908	178.41726	72.17147	0.32178	 	2.2193E17	 	1.46942E-17	 	13495.03656	27.58859	 
390.0	1.0	0.0	8.90102	7.13202	-8.03504	13.19802	16.47245	0.98632	1.01387	191.03027	178.50874	72.27003	0.32164	 	3.22029E17	 	1.00509E-17	 	13357.32149	27.54301	 
385.0	1.0	0.0	8.90299	7.13044	-8.05539	13.17346	16.39102	0.98375	1.01652	191.27082	178.5995	72.36836	0.32151	 	4.69929E17	 	6.83564E-18	 	13219.83401	27.4975	 
380.0	1.0	0.0	8.90496	7.12886	-8.07567	13.14891	16.30956	0.98115	1.01921	191.51073	178.68955	72.46647	0.32137	 	6.89735E17	 	4.62186E-18	 	13082.57386	27.45203	 
375.0	1.0	0.0	8.90691	7.1273	-8.09589	13.12436	16.22807	0.97853	1.02194	191.74999	178.77889	72.56435	0.32124	 	1.01837E18	 	3.10641E-18	 	12945.54075	27.40662	 
370.0	1.0	0.0	8.90887	7.12573	-8.11604	13.09982	16.14655	0.97589	1.02471	191.98861	178.86753	72.66201	0.32111	 	1.51271E18	 	2.07512E-18	 	12808.73446	27.36126	 
365.0	1.0	0.0	8.91082	7.12418	-8.13612	13.07528	16.065	0.97321	1.02752	192.22659	178.95545	72.75944	0.32097	 	2.261E18	 	1.37755E-18	 	12672.15473	27.31595	 
360.0	1.0	0.0	8.91276	7.12262	-8.15614	13.05075	15.98341	0.97052	1.03038	192.46393	179.04267	72.85665	0.32084	 	3.40097E18	 	9.08637E-19	 	12535.80134	27.27068	 
355.0	1.0	0.0	8.91469	7.12108	-8.17609	13.02621	15.9018	0.96779	1.03328	192.70062	179.12919	72.95363	0.32071	 	5.14905E18	 	5.95419E-19	 	12399.67409	27.22545	 
350.0	1.0	0.0	8.91662	7.11953	-8.19597	13.00169	15.82015	0.96505	1.03622	192.93667	179.215	73.05039	0.32057	 	7.8477E18	 	3.87558E-19	 	12263.77279	27.18026	 
345.0	1.0	0.0	8.91855	7.118	-8.21578	12.97716	15.73847	0.96227	1.03921	193.17207	179.30012	73.14692	0.32044	 	1.20425E19	 	2.50531E-19	 	12128.09726	27.13511	 
340.0	1.0	0.0	8.92047	7.11647	-8.23553	12.95264	15.65675	0.95947	1.04224	193.40684	179.38453	73.24323	0.32031	 	1.86092E19	 	1.60815E-19	 	11992.64732	27.08999	 
335.0	1.0	0.0	8.92238	7.11494	-8.25521	12.92813	15.575	0.95664	1.04532	193.64096	179.46825	73.33932	0.32017	 	2.8963E19	 	1.02483E-19	 	11857.42284	27.0449	 
330.0	1.0	0.0	8.92429	7.11342	-8.27482	12.90361	15.49321	0.95378	1.04846	193.87444	179.55127	73.43517	0.32004	 	4.54094E19	 	6.48285E-20	 	11722.42368	26.99983	 
325.0	1.0	0.0	8.92619	7.1119	-8.29437	12.8791	15.41139	0.9509	1.05164	194.10727	179.63359	73.5308	0.3199	 	7.17321E19	 	4.0699E-20	 	11587.64974	26.95479	 
320.0	1.0	0.0	8.92809	7.11039	-8.31385	12.8546	15.32952	0.94799	1.05487	194.33946	179.71523	73.62621	0.31977	 	1.1418999999999998E20	 	2.53526E-20	 	11453.10091	26.90977	 
315.0	1.0	0.0	8.92998	7.10889	-8.33326	12.8301	15.24762	0.94504	1.05815	194.57101	179.79617	73.72139	0.31964	 	1.83221E20	 	1.56675E-20	 	11318.77712	26.86476	 
310.0	1.0	0.0	8.93186	7.10739	-8.35261	12.8056	15.16568	0.94207	1.06149	194.80192	179.87643	73.81634	0.3195	 	2.96378E20	 	9.60333E-21	 	11184.67833	26.81976	 
305.0	1.0	0.0	8.93374	7.10589	-8.37188	12.78111	15.0837	0.93907	1.06488	195.03218	179.95599	73.91107	0.31937	 	4.8342299999999997E20	 	5.83714E-21	 	11050.80449	26.77477	 
300.0	1.0	0.0	8.93562	7.1044	-8.3911	12.75662	15.00168	0.93604	1.06833	195.2618	180.03487	74.00558	0.31924	 	7.95273E20	 	3.51754E-21	 	10917.1556	26.72978	 
295.0	1.0	0.0	8.93748	7.10292	-8.41024	12.73214	14.91961	0.93298	1.07184	195.49077	180.11306	74.09985	0.3191	 	1.31981E21	 	2.10106E-21	 	10783.73165	26.68479	 
290.0	1.0	0.0	8.93935	7.10144	-8.42932	12.70766	14.8375	0.92989	1.0754	195.71911	180.19057	74.1939	0.31897	 	2.2101000000000001E21	 	1.24365E-21	 	10650.5327	26.63979	 
285.0	1.0	0.0	8.9412	7.09996	-8.44833	12.68318	14.75534	0.92676	1.07903	195.9468	180.2674	74.28773	0.31884	 	3.73529E21	 	7.29312E-22	 	10517.55881	26.59478	 
280.0	1.0	0.0	8.94305	7.09849	-8.46727	12.65871	14.67314	0.9236	1.08271	196.17384	180.34355	74.38133	0.3187	 	6.373190000000001E21	 	4.23617E-22	 	10384.81004	26.54975	 
275.0	1.0	0.0	8.9449	7.09703	-8.48615	12.63424	14.59089	0.92041	1.08647	196.40025	180.41902	74.4747	0.31857	 	1.09805E22	 	2.43648E-22	 	10252.28653	26.5047	 
270.0	1.0	0.0	8.94674	7.09557	-8.50496	12.60977	14.5086	0.91719	1.09028	196.62601	180.49381	74.56785	0.31844	 	1.9108999999999997E22	 	1.38729E-22	 	10119.9884	26.45963	 
265.0	1.0	0.0	8.94857	7.09412	-8.5237	12.58531	14.42625	0.91394	1.09417	196.85113	180.56793	74.66076	0.3183	 	3.35989E22	 	7.81746E-23	 	9987.91583	26.41451	 
260.0	1.0	0.0	8.9504	7.09267	-8.54238	12.56085	14.34385	0.91065	1.09812	197.0756	180.64137	74.75346	0.31817	 	5.97047E22	 	4.35841E-23	 	9856.06903	26.36936	 
255.0	1.0	0.0	8.95222	7.09123	-8.56099	12.5364	14.2614	0.90732	1.10215	197.29943	180.71414	74.84592	0.31804	 	1.07255E23	 	2.40339E-23	 	9724.44821	26.32416	 
250.0	1.0	0.0	8.95404	7.08979	-8.57953	12.51195	14.17889	0.90396	1.10624	197.52262	180.78624	74.93816	0.3179	 	1.9484699999999998E23	 	1.31045E-23	 	9593.05366	26.27891	 
245.0	1.0	0.0	8.95585	7.08836	-8.59801	12.4875	14.09633	0.90057	1.11041	197.74517	180.85767	75.03018	0.31777	 	3.5807299999999995E23	 	7.06269E-24	 	9461.88568	26.2336	 
240.0	1.0	0.0	8.95765	7.08693	-8.61642	12.46306	14.01371	0.89713	1.11466	197.96707	180.92843	75.12196	0.31764	 	6.65886E23	 	3.76124E-24	 	9330.9446	26.18822	 
235.0	1.0	0.0	8.95945	7.08551	-8.63476	12.43862	13.93104	0.89366	1.11899	198.18833	180.99852	75.21352	0.3175	 	1.25352E24	 	1.97856E-24	 	9200.23082	26.14276	 
230.0	1.0	0.0	8.96124	7.08409	-8.65304	12.41419	13.8483	0.89016	1.1234	198.40895	181.06795	75.30485	0.31737	 	2.38958E24	 	1.02769E-24	 	9069.74475	26.09721	 
225.0	1.0	0.0	8.96303	7.08268	-8.67125	12.38976	13.7655	0.88661	1.12789	198.62892	181.13671	75.39596	0.31724	 	4.61462E24	 	5.26879E-25	 	8939.48685	26.05158	 
220.0	1.0	0.0	8.96481	7.08127	-8.68939	12.36533	13.68264	0.88303	1.13246	198.84825	181.20481	75.48684	0.31711	 	9.03123E24	 	2.66513E-25	 	8809.45764	26.00584	 
215.0	1.0	0.0	8.96658	7.07987	-8.70747	12.34091	13.59971	0.87941	1.13713	199.06694	181.27226	75.57749	0.31697	 	1.7919700000000002E25	 	1.32956E-25	 	8679.65766	25.95999	 
210.0	1.0	0.0	8.96835	7.07847	-8.72548	12.31649	13.51671	0.87574	1.14189	199.28498	181.33904	75.66791	0.31684	 	3.60641E25	 	6.53872E-26	 	8550.08756	25.91402	 
205.0	1.0	0.0	8.97012	7.07708	-8.74342	12.29208	13.43365	0.87204	1.14674	199.50238	181.40516	75.75811	0.31671	 	7.3649900000000005E25	 	3.16868E-26	 	8420.74795	25.86792	 
200.0	1.0	0.0	8.97187	7.07569	-8.7613	12.26767	13.35051	0.86829	1.15168	199.71914	181.47063	75.84808	0.31657	 	1.5269400000000001E26	 	1.51239E-26	 	8291.63958	25.82168	 
195.0	1.0	0.0	8.97363	7.07431	-8.77911	12.24326	13.2673	0.86451	1.15673	199.93525	181.53544	75.93782	0.31644	 	3.21541E26	 	7.10616E-27	 	8162.76321	25.77527	 
190.0	1.0	0.0	8.97537	7.07294	-8.79686	12.21886	13.18401	0.86068	1.16188	200.15072	181.5996	76.02733	0.31631	 	6.880720000000001E26	 	3.2853E-27	 	8034.11968	25.72871	 
185.0	1.0	0.0	8.97711	7.07156	-8.81453	12.19446	13.10064	0.8568	1.16713	200.36555	181.6631	76.11662	0.31617	 	1.4970699999999998E27	 	1.49366E-27	 	7905.70989	25.68196	 
180.0	1.0	0.0	8.97885	7.0702	-8.83214	12.17007	13.01719	0.85289	1.17249	200.57974	181.72596	76.20568	0.31604	 	3.31361E27	 	6.67464E-28	 	7777.53481	25.63502	 
175.0	1.0	0.0	8.98057	7.06884	-8.84969	12.14567	12.93366	0.84892	1.17796	200.79328	181.78817	76.29451	0.31591	 	7.46551E27	 	2.92988E-28	 	7649.59549	25.58786	 
170.0	1.0	0.0	8.9823	7.06748	-8.86717	12.12129	12.85004	0.84491	1.18355	201.00618	181.84973	76.38311	0.31578	 	1.71308E28	 	1.26258E-28	 	7521.89305	25.54049	 
165.0	1.0	0.0	8.98401	7.06613	-8.88458	12.0969	12.76633	0.84086	1.18926	201.21843	181.91064	76.47149	0.31564	 	4.00618E28	 	5.33801E-29	 	7394.42868	25.49287	 
160.0	1.0	0.0	8.98572	7.06479	-8.90192	12.07253	12.68253	0.83676	1.19509	201.43005	181.9709	76.55964	0.31551	 	9.55431E28	 	2.21272E-29	 	7267.20367	25.445	 
155.0	1.0	0.0	8.98743	7.06345	-8.9192	12.04815	12.59864	0.8326	1.20105	201.64102	182.03053	76.64755	0.31538	 	2.3253300000000003E29	 	8.98665E-30	 	7140.21939	25.39686	 
150.0	1.0	0.0	8.98913	7.06211	-8.93641	12.02378	12.51464	0.8284	1.20714	201.85134	182.08951	76.73525	0.31525	 	5.7796200000000004E29	 	3.5734E-30	 	7013.47731	25.34842	 
145.0	1.0	0.0	8.99082	7.06078	-8.95356	11.99941	12.43054	0.82415	1.21337	202.06103	182.14785	76.82271	0.31511	 	1.46815E30	 	1.39011E-30	 	6886.97902	25.29966	 
140.0	1.0	0.0	8.99251	7.05946	-8.97064	11.97505	12.34634	0.81985	1.21973	202.27007	182.20555	76.90994	0.31498	 	3.81453E30	 	5.28632E-31	 	6760.72619	25.25057	 
135.0	1.0	0.0	8.99419	7.05814	-8.98765	11.95069	12.26203	0.8155	1.22624	202.47847	182.26261	76.99695	0.31485	 	1.01454E31	 	1.96352E-31	 	6634.7206	25.20112	 
130.0	1.0	0.0	8.99586	7.05682	-9.00459	11.92633	12.1776	0.81109	1.2329	202.68622	182.31904	77.08373	0.31471	 	2.7646399999999997E31	 	7.11729E-32	 	6508.9642	25.15128	 
125.0	1.0	0.0	8.99753	7.05552	-9.02147	11.90198	12.09306	0.80663	1.23972	202.89333	182.37483	77.17028	0.31458	 	7.725769999999999E31	 	2.51531E-32	 	6383.459	25.10104	 
120.0	1.0	0.0	8.99919	7.05421	-9.03829	11.87763	12.00839	0.80212	1.2467	203.0998	182.42999	77.2566	0.31445	 	2.21614E32	 	8.65862E-33	 	6258.2072	25.05036	 
115.0	1.0	0.0	9.00085	7.05291	-9.05504	11.85329	11.9236	0.79755	1.25384	203.30562	182.48452	77.34269	0.31432	 	6.53193E32	 	2.90031E-33	 	6133.21112	24.99922	 
110.0	1.0	0.0	9.0025	7.05162	-9.07172	11.82895	11.83868	0.79292	1.26115	203.51081	182.53841	77.42855	0.31418	 	1.9803400000000002E33	 	9.44314E-34	 	6008.47325	24.94757	 
105.0	1.0	0.0	9.00415	7.05033	-9.08833	11.80461	11.75362	0.78824	1.26865	203.71535	182.59168	77.51419	0.31405	 	6.18266E33	 	2.98522E-34	 	5883.99623	24.8954	 
100.0	1.0	0.0	9.00579	7.04905	-9.10488	11.78028	11.66842	0.7835	1.27633	203.91924	182.64431	77.59959	0.31392	 	1.99004E34	 	9.15185E-35	 	5759.78289	24.84267	 
95.0	1.0	0.0	9.00742	7.04777	-9.12136	11.75595	11.58307	0.77869	1.2842	204.1225	182.69632	77.68477	0.31379	 	6.612070000000001E34	 	2.71753E-35	 	5635.83625	24.78933	 
90.0	1.0	0.0	9.00905	7.0465	-9.13778	11.73163	11.49757	0.77383	1.29227	204.32511	182.74771	77.76972	0.31365	 	2.27077E35	 	7.80547E-36	 	5512.1595	24.73535	 
85.0	1.0	0.0	9.01067	7.04523	-9.15413	11.70731	11.41191	0.7689	1.30055	204.52708	182.79847	77.85444	0.31352	 	8.07182E35	 	2.16561E-36	 	5388.75609	24.68068	 
80.0	1.0	0.0	9.01228	7.04397	-9.17041	11.68299	11.32609	0.76392	1.30905	204.7284	182.84861	77.93893	0.31339	 	2.9741699999999995E36	 	5.79536E-37	 	5265.62969	24.62528	 
75.0	1.0	0.0	9.01389	7.04271	-9.18663	11.65868	11.24009	0.75886	1.31776	204.92908	182.89812	78.02319	0.31326	 	1.1377E37	 	1.49357E-37	 	5142.7842	24.5691	 
70.0	1.0	0.0	9.0155	7.04146	-9.20278	11.63437	11.15391	0.75374	1.32671	205.12912	182.94702	78.10722	0.31313	 	4.52554E37	 	3.70084E-38	 	5020.22378	24.51208	 
65.0	1.0	0.0	9.01709	7.04021	-9.21887	11.61007	11.06754	0.74856	1.33591	205.32852	182.9953	78.19102	0.31299	 	1.87519E38	 	8.80136E-39	 	4897.95291	24.45418	 
60.0	1.0	0.0	9.01869	7.03897	-9.23488	11.58577	10.98098	0.7433	1.34535	205.52727	183.04296	78.2746	0.31286	 	8.10874E38	 	2.00527E-39	 	4775.97633	24.39531	 
55.0	1.0	0.0	9.02027	7.03773	-9.25084	11.56147	10.89421	0.73798	1.35506	205.72539	183.09001	78.35794	0.31273	 	3.6663900000000004E39	 	4.36837E-40	 	4654.29916	24.33543	 
50.0	1.0	0.0	9.02185	7.0365	-9.26672	11.53718	10.80723	0.73258	1.36504	205.92286	183.13644	78.44106	0.3126	 	1.73701E40	 	9.08004E-41	 	4532.92685	24.27446	 
45.0	1.0	0.0	9.02342	7.03527	-9.28254	11.51288	10.72003	0.72711	1.3753	206.11968	183.18225	78.52394	0.31246	 	8.64173E40	 	1.79687E-41	 	4411.8652	24.21233	 
40.0	1.0	0.0	9.02499	7.03405	-9.2983	11.4886	10.63259	0.72157	1.38586	206.31587	183.22746	78.6066	0.31233	 	4.52533E41	 	3.37745E-42	 	4291.1205	24.14894	 
35.0	1.0	0.0	9.02655	7.03283	-9.31399	11.46432	10.5449	0.71596	1.39674	206.51141	183.27206	78.68902	0.3122	 	2.5005399999999997E42	 	6.01472E-43	 	4170.69941	24.08422	 
30.0	1.0	0.0	9.02811	7.03162	-9.32961	11.44004	10.45696	0.71026	1.40793	206.70631	183.31604	78.77122	0.31207	 	1.46186E43	 	1.01213E-43	 	4050.60912	24.01806	 
25.0	1.0	0.0	9.02966	7.03041	-9.34517	 	10.36874	0.70449	1.41947	206.90057	183.35942	78.85319	0.31194	 	9.06775E43	 	1.6048E-44	 	3930.85734	 	 
