T (C)	Fraction solid (wt)-TOTAL	Fraction liquid (wt)-LIQUID	Density (g/(cm)^3)-TOTAL	Molar volume (cm^3)-TOTAL	Volume change (%)-  	Average expansion coeff. (10e-6 1/K)-  	Thermal conductivity (W/(m*K))-TOTAL	Electrical resistivity (10e-6 Ohm*m)-TOTAL	Electrical conductivity (10e6 1/(Ohm*m))-TOTAL	Young's modulus (GPa)-TOTAL	Bulk modulus (GPa)-TOTAL	Shear modulus(GPa)-TOTAL	Poisson's ratio-TOTAL	Liquid viscosity (mPa s)-  	Total viscosity (mPa s)-  	Liquid diffusivity (10e-9 (m^2)/s)-  	Total diffusivity (10e-9 (m^2)/s)-  	Surface Tension (mN/m)-  	Enthalpy (J/mole)-TOTAL	Specific heat (J/(mole K))-TOTAL	Latent heat (J/mole)-TOTAL
1400.0	0.0	1.0	7.87912	7.87646	0.0	28.63052	29.36444	1.39598	0.71634	0.0	127.56803	0.0	0.5	8.50481	8.50481	0.96019	0.96019	1836.37902	49345.962	 	0.0
1395.0	0.0	1.0	7.88332	7.87227	-0.0532	28.59028	29.28579	1.39555	0.71657	0.0	127.7166	0.0	0.5	8.60009	8.60009	0.94671	0.94671	1840.39633	49141.442	40.904	0.0
1390.0	0.0	1.0	7.8875	7.86809	-0.10625	28.55017	29.20715	1.39511	0.71679	0.0	127.86516	0.0	0.5	8.69702	8.69702	0.93336	0.93336	1844.45189	48937.408	40.8068	0.0
1385.0	0.0	1.0	7.89168	7.86393	-0.15914	28.51019	29.1285	1.39467	0.71702	0.0	128.01373	0.0	0.5	8.79564	8.79564	0.92012	0.92012	1848.54548	48733.855	40.7106	0.0
1380.0	0.0	1.0	7.89585	7.85977	-0.21188	28.47033	29.04986	1.39423	0.71724	0.0	128.1623	0.0	0.5	8.89599	8.89599	0.90699	0.90699	1852.67685	48530.781	40.6148	0.0
1375.0	0.0	1.0	7.90001	7.85563	-0.26446	28.43061	28.97121	1.39379	0.71747	0.0	128.31086	0.0	0.5	8.9981	8.9981	0.89399	0.89399	1856.8457	48328.183	40.5196	0.0
1370.0	0.0	1.0	7.90417	7.8515	-0.31689	28.39101	28.89257	1.39334	0.7177	0.0	128.45943	0.0	0.5	9.10201	9.10201	0.8811	0.8811	1861.05177	48126.058	40.425	0.0
1365.0	0.0	1.0	7.90832	7.84738	-0.36917	28.35155	28.81392	1.39289	0.71793	0.0	128.60799	0.0	0.5	9.20777	9.20777	0.86833	0.86833	1865.29472	47924.403	40.331	0.0
1360.5	0.0	1.0	7.91204	7.84369	-0.41606	28.31617	28.74317	1.39249	0.71814	0.0	128.74165	0.0	0.5	9.30452	9.30452	0.85694	0.85694	1869.14298	47743.399	40.24055	0.0
1360.0	0.01473	0.98527	7.91624	7.8395	-0.46921	28.17843	28.78192	1.39018	0.71933	5.00843E-6	129.07332	1.67164E-6	0.49806	9.31433	9.49902	0.85578	0.83914	1868.90352	47499.681	485.54238	223.533
1355.0	0.15287	0.84713	7.95576	7.80056	-0.96363	26.89888	29.14932	1.36846	0.73075	0.0593587	132.10566	0.0200579	0.47968	9.4138	29.65035	0.84414	0.26801	1866.52856	45216.64	456.6082	2305.852
1350.0	0.26598	0.73402	7.9887	7.76836	-1.37241	25.85055	29.44624	1.3505	0.74047	0.55376	134.56086	0.18907	0.46443	9.51603	189.92242	0.83251	0.0417128	1864.18901	43326.7	377.988	3995.531
1345.0	0.35952	0.64048	8.01648	7.7415	-1.71352	24.98535	29.68823	1.33537	0.74886	1.87773	136.57667	0.64675	0.45166	9.62116	640.9182	0.82088	0.0123226	1861.89866	41743.245	316.691	5379.185
1340.0	0.43765	0.56235	8.04013	7.71876	-2.00224	24.26206	29.88576	1.32244	0.75618	4.17789	138.25181	1.44977	0.44088	9.72922	1476.10426	0.80925	0.00533389	1859.67102	40401.251	268.3988	6521.836
1335.0	0.50344	0.49656	8.06047	7.69929	-2.24938	23.65155	30.04647	1.31129	0.76261	7.40034	139.66032	2.58444	0.43171	9.84028	2733.64275	0.79764	0.00287125	1857.51593	39251.341	229.982	7472.855
1330.0	0.55928	0.44072	8.07813	7.68244	-2.46327	23.1313	30.17639	1.30159	0.76829	11.38724	140.85956	3.99876	0.42385	9.95432	4416.94647	0.78605	0.00177149	1855.44174	38255.621	199.144	8270.136
1325.0	0.607	0.393	8.09359	7.66779	-2.64925	22.68707	30.27986	1.29309	0.77334	15.94413	141.89266	5.62577	0.41706	10.07154	6511.32957	0.77448	0.00119794	1853.45267	37384.72	174.1802	8943.046
1320.0	0.64806	0.35194	8.10724	7.65488	-2.81317	22.30291	30.36074	1.28561	0.77784	20.88425	142.79163	7.39962	0.41117	10.19194	8996.32108	0.76293	8.64328E-4	1851.55466	36615.662	153.8116	9514.56
1315.0	0.68358	0.31642	8.11939	7.64346	-2.95823	21.97025	30.42223	1.27899	0.78187	26.04547	143.58335	9.26208	0.40603	10.31567	11852.64485	0.75142	6.53978E-4	1849.74942	35930.316	137.0692	10002.807
1310.0	0.71448	0.28552	8.13028	7.63322	-3.08817	21.67887	30.46696	1.27309	0.78549	31.295	144.28693	11.16475	0.40151	10.44267	15063.95517	0.73994	5.12944E-4	1848.04058	35314.261	123.211	10422.202
1305.0	0.74149	0.25851	8.1401	7.62401	-3.2051	21.42308	30.4971	1.26781	0.78876	36.53018	144.91839	13.06963	0.39752	10.57311	18619.94598	0.7285	4.13672E-4	1846.42819	34755.939	111.6644	10784.303
1300.0	0.76522	0.23478	8.14902	7.61566	-3.3112	21.19696	30.51474	1.26307	0.79172	41.67598	145.49055	14.9485	0.39399	10.70696	22516.52912	0.71712	3.41001E-4	1844.91306	34246.016	101.9846	11098.44
1295.0	0.78616	0.21384	8.15717	7.60804	-3.40785	20.99676	30.52144	1.25878	0.79442	46.67905	146.01379	16.78094	0.39084	10.84438	26755.77725	0.70578	2.8606E-4	1843.49384	33776.909	93.8214	11372.194
1290.0	0.80471	0.19529	8.16467	7.60103	-3.49685	20.81754	30.51862	1.25488	0.79689	51.5074	146.49582	18.55437	0.38801	10.98542	31347.32702	0.6945	2.43381E-4	1842.17117	33342.415	86.8988	11611.767
1285.0	0.82122	0.17878	8.1716	7.59457	-3.57887	20.65755	30.50744	1.25132	0.79915	56.13058	146.94334	20.25675	0.38548	11.13007	36299.89745	0.68328	2.09503E-4	1840.94255	32937.429	80.9972	11822.26
1280.0	0.83595	0.16405	8.17805	7.58856	-3.65526	20.51299	30.48902	1.24806	0.80124	60.54532	147.36189	21.88615	0.38319	11.27853	41636.4596	0.67212	1.82065E-4	1839.80792	32557.727	75.9404	12007.895
1275.0	0.84914	0.15086	8.18408	7.58295	-3.72643	20.38284	30.4642	1.24506	0.80318	64.74199	147.75599	23.43832	0.38111	11.43084	47377.33931	0.66103	1.59488E-4	1838.76402	32199.792	71.587	12172.187
1270.0	0.86101	0.13899	8.18973	7.5777	-3.79312	20.26507	30.43371	1.24228	0.80497	68.72213	148.12904	24.91325	0.37923	11.58701	53550.36135	0.65002	1.40648E-4	1837.80891	31860.686	67.8212	12318.07
1265.0	0.87171	0.12829	8.19506	7.57273	-3.85625	20.15704	30.39826	1.2397	0.80665	72.49274	148.48385	26.31306	0.3775	11.74717	60188.63839	0.63908	1.2473E-4	1836.94313	31537.938	64.5496	12448.016
1260.0	0.88138	0.11862	8.20011	7.56803	-3.91585	20.05878	30.35839	1.23729	0.80822	76.05929	148.82334	27.6393	0.37593	11.91139	67328.58656	0.62822	1.1114E-4	1836.16186	31229.46	61.6956	12564.106
1255.0	0.89015	0.10985	8.20492	7.56356	-3.97256	19.96846	30.31465	1.23504	0.80969	79.43493	149.14955	28.89649	0.37447	12.07977	75014.90699	0.61744	9.94272E-5	1835.46438	30933.483	59.1954	12668.11
1250.0	0.89813	0.10187	8.2095	7.55932	-4.02649	19.88589	30.26736	1.23292	0.81108	82.62001	149.46399	30.0844	0.37314	12.25241	83285.85511	0.60675	8.92603E-5	1834.84717	30648.501	56.9964	12761.531
1245.0	0.90542	0.0945837	8.21388	7.55525	-4.07815	19.80957	30.21697	1.23092	0.8124	85.63358	149.7683	31.20987	0.3719	12.42937	92200.29275	0.59615	8.03654E-5	1834.30934	30373.223	55.0556	12845.657
1240.0	0.91207	0.0879308	8.2181	7.55134	-4.12776	19.73891	30.16382	1.22903	0.81365	88.48352	150.06367	32.27559	0.37075	12.61069	101812.6308	0.58564	7.25382E-5	1833.84868	30106.544	53.3358	12921.592
1235.0	0.91816	0.0818376	8.22216	7.54757	-4.17563	19.67304	30.10817	1.22723	0.81484	91.18243	150.35107	33.28606	0.36968	12.79665	112188.1195	0.57522	6.56122E-5	1833.46396	29847.51	51.8068	12990.286
1232.65	0.92083	0.079175	8.22401	7.54585	-4.19741	19.64406	30.08115	1.22642	0.81538	92.38845	150.48348	33.73797	0.36921	12.88538	117326.9495	0.57037	6.26408E-5	1833.30145	29728.591	 	13019.997
1230.0	0.92499	0.0750119	8.22617	7.54377	-4.22386	19.60551	30.05503	1.22532	0.81611	94.26323	150.66072	34.44069	0.36849	12.99298	124073.26	0.56465	5.91304E-5	1833.23899	29577.503	54.0014	13070.355
1225.0	0.93228	0.0677233	8.23012	7.53996	-4.27229	19.53676	30.0035	1.22335	0.81743	97.63559	150.98267	35.70609	0.36721	13.19874	137554.8688	0.554	5.31577E-5	1833.17621	29300.695	55.3616	13157.627
1220.0	0.93879	0.061211	8.2339	7.53629	-4.31886	19.47326	29.94869	1.2215	0.81867	100.75699	151.29029	36.87892	0.36605	13.40862	152035.5812	0.54351	4.79341E-5	1833.15396	29034.662	53.2066	13234.521
1215.0	0.94463	0.0553686	8.23754	7.53275	-4.36378	19.4144	29.89103	1.21975	0.81984	103.65145	151.58597	37.96785	0.36499	13.62259	167614.6977	0.53318	4.33333E-5	1833.17019	28777.918	51.3488	13302.522
1210.0	0.94989	0.0501096	8.24105	7.52932	-4.40727	19.35953	29.83088	1.21811	0.82095	106.34198	151.87126	38.98128	0.36401	13.84068	184401.6835	0.52302	3.92561E-5	1833.2237	28529.227	49.7382	13362.863
1205.78	0.95392	0.0460825	8.24393	7.52651	-4.44303	19.31591	29.77831	1.21678	0.82184	108.46173	152.10537	39.78056	0.36325	14.02813	199592.4144	0.51456	3.61651E-5	1833.29079	28324.888	 	13408.437
1205.78	0.95392	0.0460825	8.24393	7.52651	-4.44303	19.31591	29.77831	1.21678	0.82184	108.46173	152.10537	39.78056	0.36325	14.02813	199592.6501	0.51456	3.6165E-5	1833.29078	28324.884	 	13408.438
1205.0	0.95463	0.0453691	8.24449	7.52597	-4.44989	19.30694	29.76808	1.21656	0.82199	108.84112	152.14771	39.9237	0.36311	14.05736	202500.0025	0.51322	3.56271E-5	1833.23642	28286.976	48.4502	13417.156
1200.0	0.95906	0.0409368	8.2481	7.52252	-4.4936	19.25047	29.70107	1.21518	0.82292	111.22961	152.41673	40.82538	0.36226	14.24746	222154.9308	0.50466	3.23652E-5	1832.96532	28045.63	48.2692	13470.934
1195.0	0.96309	0.0369147	8.25159	7.51917	-4.53613	19.19726	29.63199	1.21388	0.8238	113.46113	152.67891	41.66869	0.36147	14.44201	243410.11	0.49617	2.94387E-5	1832.74643	27810.368	47.0524	13519.014
1190.0	0.96674	0.0332565	8.25499	7.51591	-4.57759	19.14702	29.56156	1.21263	0.82466	115.55023	152.93525	42.45896	0.36073	14.64108	266421.3801	0.48776	2.68044E-5	1832.57708	27580.48	45.9776	13562.105
1185.0	0.97008	0.0299188	8.2583	7.51272	-4.61809	19.09942	29.4901	1.21141	0.82548	117.51042	153.1864	43.20119	0.36004	14.84467	291360.6124	0.47942	2.44263E-5	1832.45516	27355.357	45.0246	13600.814
1180.0	0.97313	0.0268667	8.26154	7.5096	-4.65771	19.05427	29.41773	1.21023	0.82629	119.3529	153.4328	43.89949	0.35939	15.05288	318414.096	0.47117	2.22743E-5	1832.37809	27134.472	44.177	13635.665
1175.0	0.97593	0.0240695	8.26472	7.50654	-4.6966	19.01106	29.34458	1.20907	0.82708	121.08983	153.67531	44.55838	0.35878	15.26589	347791.9272	0.463	2.03227E-5	1832.34463	26917.386	43.4172	13667.096
1170.0	0.9785	0.0214985	8.26783	7.50352	-4.73482	18.96966	29.27069	1.20794	0.82786	122.72943	153.91394	45.1809	0.3582	15.4837	379717.6361	0.45491	1.85497E-5	1832.35337	26703.703	42.7366	13695.501
1165.0	0.98087	0.0191314	8.27089	7.50056	-4.77244	18.92987	29.19613	1.20683	0.82862	124.28061	154.14914	45.77036	0.35765	15.70642	414442.2349	0.4469	1.69366E-5	1832.4026	26493.084	42.1238	13721.215
1160.0	0.98305	0.0169479	8.2739	7.49764	-4.80954	18.89144	29.12097	1.20573	0.82937	125.75194	154.3814	46.32995	0.35713	15.93417	452244.0397	0.43898	1.5467E-5	1832.49057	26285.234	41.57	13744.533
1156.64	0.98442	0.015581	8.2759	7.4957	-4.83421	18.86636	29.07004	1.20501	0.82987	126.69535	154.53602	46.68901	0.3568	16.09038	479545.8653	0.4337	1.45522E-5	1832.55918	26146.899	 	13758.895
1155.0	0.98505	0.0149505	8.27688	7.49476	-4.84605	18.85461	29.04521	1.20466	0.83011	127.13727	154.61097	46.85728	0.35664	16.1635	493374.1055	0.43125	1.41281E-5	1832.43727	26080.044	41.038	13765.559
1153.27	0.9857	0.0142992	8.2779	7.49378	-4.85856	18.84221	29.01888	1.20429	0.83036	127.59732	154.69013	47.0325	0.35648	16.24151	508440.8546	0.42865	1.36928E-5	1832.31448	26009.54	 	13772.402
1153.27	0.9857	0.0142992	8.2779	7.49378	-4.85856	18.84221	29.01888	1.20429	0.83036	127.59732	154.69013	47.0325	0.35648	16.24151	508440.8546	0.42865	1.36928E-5	1832.31448	26009.54	 	13772.402
1150.0	0.98712	0.0128753	8.2799	7.49184	-4.88319	18.81538	28.9705	1.20354	0.83088	128.59044	154.85511	47.41052	0.35614	16.35476	538694.1266	0.42471	1.28942E-5	1831.96483	25871.622	41.6844	13790.188
1145.0	0.98917	0.0108305	8.28292	7.4889	-4.92045	18.77539	28.8956	1.20242	0.83166	130.04678	155.10437	47.96521	0.35564	16.53377	588426.8825	0.41864	1.1763E-5	1831.47691	25663.084	41.7076	13815.296
1140.0	0.99105	0.00895383	8.2859	7.48602	-4.95712	18.73699	28.82006	1.20132	0.83242	131.42124	155.34936	48.48915	0.35516	16.71984	642664.5086	0.41252	1.07322E-5	1831.01672	25457.488	41.1192	13837.828
1135.64	0.99256	0.00744474	8.28846	7.48353	-4.98867	18.70468	28.75311	1.2004	0.83305	132.55694	155.55957	48.92241	0.35477	16.88769	693984.6793	0.40716	9.90793E-6	1830.63437	25280.428	 	13855.541
1135.64	0.99256	0.00744474	8.28846	7.48353	-4.98867	18.70469	28.75311	1.2004	0.83305	132.55691	155.55955	48.9224	0.35477	16.88771	693980.3893	0.40716	9.908E-6	1830.63433	25280.446	 	13855.536
1135.0	0.99278	0.00722044	8.28882	7.48317	-4.99329	18.69997	28.7435	1.20026	0.83315	132.7271	155.59097	48.98733	0.35471	16.91425	701889.3653	0.40633	9.7919E-6	1830.57967	25254.484	40.6008	13858.129
1130.0	0.99448	0.0055178	8.29166	7.48034	-5.0292	18.66347	28.66809	1.19914	0.83393	134.03314	155.83464	49.48579	0.35426	17.12386	766942.7395	0.39993	8.92951E-6	1830.2653	25052.681	40.3606	13877.588
1125.0	0.99604	0.00395765	8.29447	7.47754	-5.06467	18.6281	28.59189	1.19806	0.83469	135.26514	156.07393	49.9564	0.35383	17.33982	838009.7362	0.39355	8.14313E-6	1829.99915	24853.377	39.8608	13894.906
1120.0	0.99747	0.0025271	8.29727	7.47478	-5.09983	18.59351	28.51493	1.19699	0.83543	136.43023	156.30953	50.40183	0.35343	17.56176	915707.4873	0.38718	7.42554E-6	1832.45886	24656.10373	39.45465	13910.341
1115.0	0.99879	0.00121219	8.29999	7.47217	-5.13296	18.56551	28.43683	1.19597	0.83614	137.52513	156.53174	50.82083	0.35304	17.78976	1000819.985	0.38085	6.76966E-6	1834.93195	24460.72307	39.07613	13924.113
1110.0	1.0	0.0	8.30278	7.46936	-5.16852	18.52892	28.35935	1.19492	0.83688	138.58737	156.77257	51.22748	0.35267	 	1093950.576	 	6.17104E-6	 	24267.18074	38.70847	13936.416
1105.0	1.0	0.0	8.30523	7.46716	-5.19648	18.51821	28.27605	1.19411	0.83744	138.93238	156.97084	51.36185	0.35249	 	1190673.728	 	5.64925E-6	 	24058.10529	41.81509	 
1100.0	1.0	0.0	8.30767	7.46496	-5.2244	18.50754	28.19275	1.19329	0.83802	139.27664	157.16787	51.49598	0.35231	 	1296746.087	 	5.16832E-6	 	23881.85452	35.25015	 
1095.0	1.0	0.0	8.31012	7.46277	-5.25228	18.49691	28.10944	1.19247	0.8386	139.62017	157.36365	51.62987	0.35213	 	1413146.537	 	4.72534E-6	 	23705.88159	35.19459	 
1090.0	1.0	0.0	8.31256	7.46057	-5.28012	18.48632	28.02613	1.19164	0.83918	139.96295	157.5582	51.76352	0.35195	 	1540964.18	 	4.31755E-6	 	23530.18536	35.13925	 
1085.0	1.0	0.0	8.315	7.45838	-5.30792	18.47577	27.94282	1.19081	0.83976	140.305	157.75152	51.89693	0.35177	 	1681411.563	 	3.9424E-6	 	23354.76471	35.08413	 
1080.0	1.0	0.0	8.31744	7.4562	-5.33568	18.46528	27.85949	1.18998	0.84035	140.6463	157.94362	52.0301	0.35159	 	1835839.717	 	3.59748E-6	 	23179.61855	35.02923	 
1075.0	1.0	0.0	8.31988	7.45402	-5.3634	18.45483	27.77617	1.18914	0.84095	140.98687	158.13451	52.16302	0.35141	 	2005755.027	 	3.28055E-6	 	23004.74583	34.97454	 
1070.0	1.0	0.0	8.32231	7.45184	-5.39107	18.44443	27.69284	1.18829	0.84154	141.3267	158.3242	52.29571	0.35123	 	2192838.146	 	2.98954E-6	 	22830.14551	34.92007	 
1065.0	1.0	0.0	8.32474	7.44966	-5.4187	18.43408	27.6095	1.18744	0.84215	141.66579	158.51268	52.42816	0.35105	 	2398966.006	 	2.7225E-6	 	22655.81657	34.86579	 
1060.0	1.0	0.0	8.32717	7.44749	-5.44629	18.42379	27.52616	1.18659	0.84275	142.00415	158.69997	52.56036	0.35087	 	2626235.69	 	2.4776E-6	 	22481.75804	34.81171	 
1055.0	1.0	0.0	8.3296	7.44532	-5.47384	18.41355	27.44281	1.18573	0.84336	142.34177	158.88607	52.69233	0.35069	 	2876992.468	 	2.25318E-6	 	22307.96896	34.75782	 
1050.0	1.0	0.0	8.33202	7.44315	-5.50134	18.40337	27.35945	1.18486	0.84398	142.67866	159.07099	52.82406	0.35051	 	3153861.118	 	2.04764E-6	 	22134.44841	34.70411	 
1045.0	1.0	0.0	8.33444	7.44099	-5.5288	18.39326	27.27609	1.18399	0.8446	143.01482	159.25474	52.95554	0.35033	 	3459781.177	 	1.85953E-6	 	21961.19546	34.65059	 
1040.0	1.0	0.0	8.33686	7.43883	-5.55621	18.3832	27.19273	1.18312	0.84522	143.35025	159.43731	53.08679	0.35015	 	3798047.646	 	1.68749E-6	 	21788.20924	34.59724	 
1035.0	1.0	0.0	8.33928	7.43667	-5.58358	18.37321	27.10935	1.18224	0.84585	143.68495	159.61872	53.2178	0.34997	 	4172356.664	 	1.53025E-6	 	21615.48888	34.54407	 
1030.0	1.0	0.0	8.34169	7.43452	-5.6109	18.36329	27.02597	1.18135	0.84649	144.01891	159.79898	53.34857	0.34979	 	4586857.912	 	1.38665E-6	 	21443.03353	34.49107	 
1028.42	1.0	0.0	8.34245	7.43384	-5.61951	18.36018	26.99967	1.18107	0.84669	144.12409	159.85559	53.38977	0.34974	 	4726663.019	 	1.344E-6	 	21388.69279	 	 
1025.0	1.0	0.0	8.3457	7.43095	-5.6562	18.2863	26.86709	1.18378	0.84475	144.65653	160.11023	53.59952	0.34942	 	5091095.067	 	1.24452E-6	 	21189.74593	50.65752	 
1020.0	1.0	0.0	8.35038	7.42678	-5.70913	18.1799	26.6778	1.18759	0.84204	145.41855	160.4738	53.89986	0.34897	 	5677887.94	 	1.1116E-6	 	20902.16349	57.51649	 
1015.0	1.0	0.0	8.35501	7.42267	-5.76133	18.07523	26.49329	1.19123	0.83947	146.1628	160.82804	54.19334	0.34853	 	6336819.34	 	9.9216E-7	 	20618.07154	56.81839	 
1010.0	1.0	0.0	8.35957	7.41862	-5.8128	17.97222	26.31338	1.19472	0.83701	146.89016	161.17356	54.48029	0.3481	 	7077305.824	 	8.84904E-7	 	20337.36151	56.14201	 
1005.0	1.0	0.0	8.36408	7.41462	-5.86357	17.87082	26.13787	1.19806	0.83468	147.60144	161.5109	54.76103	0.34769	 	7910062.762	 	7.88658E-7	 	20059.92999	55.4863	 
1000.0	1.0	0.0	8.36853	7.41067	-5.91367	17.77098	25.96659	1.20124	0.83247	148.29743	161.84056	55.03585	0.34728	 	8847293.969	 	7.02354E-7	 	19785.67921	54.85016	 
995.0	1.0	0.0	8.37293	7.40678	-5.9631	17.67264	25.79937	1.20428	0.83037	148.97881	162.16299	55.305	0.34688	 	9902909.543	 	6.25021E-7	 	19514.51629	54.23258	 
990.0	1.0	0.0	8.37728	7.40294	-6.0119	17.57576	25.63604	1.20717	0.82838	149.64626	162.4786	55.56875	0.3465	 	1.109277747E7	 	5.55778E-7	 	19246.35243	53.63277	 
985.0	1.0	0.0	8.38158	7.39914	-6.06006	17.4803	25.47645	1.20993	0.8265	150.30038	162.78775	55.82733	0.34612	 	1.243501326E7	 	4.93825E-7	 	18981.10348	53.04979	 
980.0	1.0	0.0	8.38582	7.3954	-6.10762	17.38621	25.32045	1.21254	0.82471	150.94175	163.09077	56.08096	0.34575	 	1.395031637E7	 	4.38435E-7	 	18718.6893	52.48284	 
975.0	1.0	0.0	8.39002	7.3917	-6.15459	17.29345	25.16791	1.21503	0.82303	151.57091	163.38799	56.32983	0.34539	 	1.566235888E7	 	3.88952E-7	 	18459.03282	51.9313	 
970.0	1.0	0.0	8.39417	7.38804	-6.20098	17.20199	25.01868	1.21738	0.82144	152.18836	163.67967	56.57415	0.34503	 	1.759823375E7	 	3.44779E-7	 	18202.06091	51.39438	 
965.0	1.0	0.0	8.39827	7.38443	-6.24681	17.11178	24.87263	1.2196	0.81994	152.79457	163.96608	56.8141	0.34469	 	1.978897923E7	 	3.05377E-7	 	17947.70353	50.87148	 
960.0	1.0	0.0	8.40233	7.38087	-6.29209	17.02281	24.72965	1.2217	0.81853	153.39	164.24746	57.04985	0.34435	 	2.227018077E7	 	2.70258E-7	 	17695.89304	50.3621	 
955.0	1.0	0.0	8.40634	7.37734	-6.33683	16.93502	24.58961	1.22367	0.81721	153.97506	164.52402	57.28155	0.34402	 	2.508267642E7	 	2.38981E-7	 	17446.56514	49.86558	 
950.0	1.0	0.0	8.41031	7.37386	-6.38105	16.8484	24.4524	1.22553	0.81597	154.55016	164.79596	57.50937	0.3437	 	2.827337356E7	 	2.11149E-7	 	17199.6573	49.38157	 
945.0	1.0	0.0	8.41424	7.37042	-6.42476	16.76291	24.3179	1.22727	0.81482	155.11566	165.06349	57.73345	0.34338	 	3.189620037E7	 	1.86401E-7	 	16955.11001	48.90946	 
940.0	1.0	0.0	8.41813	7.36701	-6.46796	16.67852	24.18602	1.2289	0.81374	155.67194	165.32676	57.95393	0.34307	 	3.601321315E7	 	1.64414E-7	 	16712.86505	48.44899	 
935.0	1.0	0.0	8.42198	7.36365	-6.51068	16.59521	24.05666	1.23042	0.81273	156.21933	165.58594	58.17093	0.34276	 	4.069588912E7	 	1.44896E-7	 	16472.86677	47.99966	 
930.0	1.0	0.0	8.42578	7.36032	-6.55292	16.51294	23.92971	1.23182	0.8118	156.75816	165.8412	58.3846	0.34246	 	4.602663831E7	 	1.27584E-7	 	16235.06127	47.5611	 
925.0	1.0	0.0	8.42955	7.35703	-6.59469	16.4317	23.80509	1.23313	0.81095	157.28873	166.09266	58.59504	0.34217	 	5.210056127E7	 	1.12242E-7	 	15999.39577	47.1331	 
920.0	1.0	0.0	8.43328	7.35378	-6.63601	16.35145	23.6827	1.23433	0.81016	157.81135	166.34046	58.80237	0.34188	 	5.902751924E7	 	9.86568E-8	 	15765.81971	46.71521	 
915.0	1.0	0.0	8.43697	7.35056	-6.67687	16.27217	23.56245	1.23543	0.80944	158.3263	166.58474	59.0067	0.3416	 	6.693454245E7	 	8.66379E-8	 	15534.28349	46.30725	 
910.0	1.0	0.0	8.44063	7.34738	-6.7173	16.19384	23.44428	1.23643	0.80878	158.83383	166.82561	59.20814	0.34132	 	7.596867088E7	 	7.60137E-8	 	15304.73871	45.90895	 
905.0	1.0	0.0	8.44425	7.34422	-6.75731	16.11643	23.32809	1.23734	0.80819	159.33423	167.06317	59.40679	0.34104	 	8.630027595E7	 	6.66308E-8	 	15077.13889	45.51996	 
900.0	1.0	0.0	8.44784	7.34111	-6.79689	16.03992	23.21381	1.23815	0.80766	159.82773	167.29755	59.60274	0.34077	 	9.812696355E7	 	5.83515E-8	 	14851.43813	45.14015	 
895.0	1.0	0.0	8.45139	7.33802	-6.83606	15.9643	23.10137	1.23887	0.80718	160.31457	167.52884	59.79609	0.34051	 	1.116781835E8	 	5.10525E-8	 	14627.59154	44.76932	 
890.0	1.0	0.0	8.45491	7.33497	-6.87483	15.88952	22.99069	1.23951	0.80677	160.79499	167.75713	59.98693	0.34025	 	1.272206258E8	 	4.46236E-8	 	14405.55594	44.40712	 
885.0	1.0	0.0	8.45839	7.33194	-6.91321	15.81557	22.88171	1.24006	0.80641	161.26919	167.98252	60.17534	0.33999	 	1.450646196E8	 	3.89664E-8	 	14185.2886	44.05347	 
880.0	1.0	0.0	8.46185	7.32895	-6.95121	15.74244	22.77436	1.24053	0.80611	161.7374	168.20509	60.36141	0.33974	 	1.655716552E8	 	3.39928E-8	 	13966.74779	43.70816	 
875.0	1.0	0.0	8.46527	7.32599	-6.98883	15.67009	22.66859	1.24091	0.80586	162.19982	168.42493	60.54521	0.33949	 	1.89163313E8	 	2.96243E-8	 	13749.89224	43.37111	 
870.0	1.0	0.0	8.46866	7.32305	-7.02608	15.59851	22.56432	1.24122	0.80566	162.65664	168.64212	60.72683	0.33925	 	2.1633178E8	 	2.57911E-8	 	13534.6829	43.04187	 
865.0	1.0	0.0	8.47202	7.32015	-7.06297	15.52767	22.4615	1.24144	0.80551	163.10805	168.85673	60.90633	0.33901	 	2.476523474E8	 	2.24307E-8	 	13321.08069	42.72044	 
860.0	1.0	0.0	8.47536	7.31727	-7.09951	15.45756	22.36008	1.2416	0.80542	163.55424	169.06883	61.08379	0.33877	 	2.837982242E8	 	1.94879E-8	 	13109.04776	42.40659	 
855.0	1.0	0.0	8.47866	7.31442	-7.13571	15.38815	22.26	1.24167	0.80536	163.99537	169.2785	61.25928	0.33853	 	3.255581414E8	 	1.69132E-8	 	12898.54693	42.10017	 
850.0	1.0	0.0	8.48194	7.3116	-7.17156	15.31942	22.16121	1.24168	0.80536	164.43162	169.4858	61.43286	0.3383	 	3.738572553E8	 	1.46629E-8	 	12689.54182	41.80102	 
845.0	1.0	0.0	8.48423	7.30962	-7.19666	15.29876	22.09027	1.24012	0.80637	164.73653	169.63853	61.55386	0.33815	 	4.25970892E8	 	1.28117E-8	 	12529.69266	31.96983	 
840.0	1.0	0.0	8.48652	7.30765	-7.22171	15.27809	22.01932	1.23856	0.80739	165.04084	169.79039	61.67466	0.338	 	4.859182003E8	 	1.11809E-8	 	12366.81987	32.57456	 
835.0	1.0	0.0	8.48881	7.30568	-7.2467	15.2574	21.94836	1.23698	0.80842	165.34455	169.94137	61.79526	0.33784	 	5.549609607E8	 	9.74592E-9	 	12204.18759	32.52645	 
830.0	1.0	0.0	8.49109	7.30371	-7.27164	15.23671	21.87739	1.23539	0.80946	165.64765	170.09149	61.91567	0.33769	 	6.345776054E8	 	8.4847E-9	 	12041.79532	32.47846	 
825.0	1.0	0.0	8.49337	7.30175	-7.29652	15.216	21.80641	1.2338	0.81051	165.95016	170.24073	62.03588	0.33753	 	7.265027042E8	 	7.37753E-9	 	11879.64251	32.43056	 
820.0	1.0	0.0	8.49564	7.2998	-7.32136	15.19528	21.73542	1.23219	0.81156	166.25207	170.38912	62.15589	0.33738	 	8.327740606E8	 	6.40677E-9	 	11717.72865	32.38277	 
815.0	1.0	0.0	8.49792	7.29785	-7.34613	15.17455	21.66442	1.23057	0.81263	166.55339	170.53664	62.2757	0.33723	 	9.557889662E8	 	5.55666E-9	 	11556.05319	32.33509	 
810.0	1.0	0.0	8.50018	7.2959	-7.37086	15.15381	21.59341	1.22895	0.8137	166.8541	170.68329	62.39531	0.33707	 	1.098371488E9	 	4.81311E-9	 	11394.61557	32.28752	 
805.0	1.0	0.0	8.50245	7.29395	-7.39554	15.13305	21.52239	1.22731	0.81479	167.15421	170.8291	62.51473	0.33692	 	1.263853076E9	 	4.1636E-9	 	11233.41522	32.24007	 
800.0	1.0	0.0	8.50471	7.29202	-7.42016	15.11228	21.45135	1.22567	0.81588	167.45372	170.97404	62.63394	0.33676	 	1.456169258E9	 	3.59696E-9	 	11072.45156	32.19273	 
795.0	1.0	0.0	8.50697	7.29008	-7.44472	15.0915	21.38031	1.22401	0.81699	167.75263	171.11814	62.75296	0.33661	 	1.67997582E9	 	3.10324E-9	 	10911.72399	32.14551	 
790.0	1.0	0.0	8.50922	7.28815	-7.46924	15.07071	21.30925	1.22234	0.8181	168.05094	171.26138	62.87178	0.33646	 	1.940788608E9	 	2.67364E-9	 	10751.23191	32.09842	 
785.0	1.0	0.0	8.51147	7.28622	-7.4937	15.04991	21.23819	1.22066	0.81923	168.34866	171.40378	62.9904	0.3363	 	2.24515199E9	 	2.30032E-9	 	10590.97467	32.05145	 
780.0	1.0	0.0	8.51372	7.2843	-7.5181	15.02909	21.16711	1.21898	0.82036	168.64577	171.54533	63.10883	0.33615	 	2.600842209E9	 	1.97635E-9	 	10430.95164	32.00461	 
775.0	1.0	0.0	8.51596	7.28238	-7.54246	15.00826	21.09602	1.21728	0.82151	168.94228	171.68604	63.22705	0.336	 	3.017113203E9	 	1.69558E-9	 	10271.16215	31.9579	 
770.0	1.0	0.0	8.5182	7.28047	-7.56676	14.98742	21.02491	1.21557	0.82266	169.2382	171.82591	63.34508	0.33584	 	3.504994258E9	 	1.4526E-9	 	10111.60552	31.91133	 
765.0	1.0	0.0	8.52043	7.27856	-7.59101	14.96657	20.9538	1.21385	0.82383	169.53351	171.96494	63.4629	0.33569	 	4.077650995E9	 	1.24262E-9	 	9952.28104	31.8649	 
760.0	1.0	0.0	8.52267	7.27665	-7.6152	14.9457	20.88267	1.21211	0.825	169.82823	172.10314	63.58053	0.33554	 	4.750823898E9	 	1.06141E-9	 	9793.188	31.81861	 
755.0	1.0	0.0	8.52489	7.27475	-7.63934	14.92482	20.81153	1.21037	0.82619	170.12234	172.2405	63.69796	0.33538	 	5.543361908E9	 	9.05253E-10	 	9634.32562	31.77248	 
750.0	1.0	0.0	8.52712	7.27285	-7.66343	14.90393	20.74037	1.20862	0.82739	170.41586	172.37703	63.81519	0.33523	 	6.477872807E9	 	7.70892E-10	 	9475.69314	31.72649	 
745.0	1.0	0.0	8.52934	7.27096	-7.68746	14.88303	20.66921	1.20685	0.8286	170.70877	172.51274	63.93222	0.33508	 	7.581517298E9	 	6.55454E-10	 	9317.28977	31.68067	 
740.0	1.0	0.0	8.53155	7.26907	-7.71144	14.86212	20.59803	1.20508	0.82982	171.00109	172.64761	64.04905	0.33492	 	8.886980213E9	 	5.56424E-10	 	9159.11466	31.63502	 
735.0	1.0	0.0	8.53377	7.26719	-7.73536	14.84119	20.52683	1.20329	0.83106	171.2928	172.78167	64.16569	0.33477	 	1.04337E10	 	4.71601E-10	 	9001.16695	31.58954	 
730.0	1.0	0.0	8.53597	7.26531	-7.75923	14.82025	20.45563	1.20149	0.8323	171.58392	172.9149	64.28212	0.33462	 	1.2269099999999998E10	 	3.99061E-10	 	8843.44574	31.54424	 
725.0	1.0	0.0	8.53818	7.26343	-7.78305	14.7993	20.38441	1.19968	0.83356	171.87444	173.04732	64.39835	0.33446	 	1.4450899999999998E10	 	3.37122E-10	 	8685.95012	31.49913	 
720.0	1.0	0.0	8.54038	7.26156	-7.80681	14.77834	20.31317	1.19785	0.83483	172.16435	173.17892	64.51439	0.33431	 	1.7048799999999998E10	 	2.8432E-10	 	8528.6791	31.4542	 
715.0	1.0	0.0	8.54258	7.25969	-7.83052	14.75737	20.24192	1.19602	0.83611	172.45367	173.3097	64.63022	0.33416	 	2.01474E10	 	2.39382E-10	 	8371.63167	31.40949	 
710.0	1.0	0.0	8.54477	7.25783	-7.85418	14.73638	20.17066	1.19417	0.8374	172.74239	173.43967	64.74586	0.334	 	2.3849599999999996E10	 	2.01199E-10	 	8214.8068	31.36497	 
705.0	1.0	0.0	8.54696	7.25597	-7.87778	14.71538	20.09938	1.19231	0.83871	173.0305	173.56884	64.86129	0.33385	 	2.8280799999999996E10	 	1.68811E-10	 	8058.20338	31.32068	 
700.0	1.0	0.0	8.54914	7.25412	-7.90133	14.69437	20.02809	1.19044	0.84003	173.31802	173.69719	64.97653	0.3337	 	3.3594099999999996E10	 	1.41385E-10	 	7901.82026	31.27662	 
695.0	1.0	0.0	8.55132	7.25227	-7.92482	14.67334	19.95678	1.18855	0.84136	173.60494	173.82474	65.09156	0.33354	 	3.99768E10	 	1.18201E-10	 	7745.65625	31.2328	 
690.0	1.0	0.0	8.5535	7.25042	-7.94826	14.65231	19.88545	1.18666	0.8427	173.89125	173.95149	65.2064	0.33339	 	4.765799999999999E10	 	9.86381E-11	 	7589.71009	31.18923	 
685.0	1.0	0.0	8.55568	7.24858	-7.97164	14.63126	19.81411	1.18475	0.84406	174.17697	174.07744	65.32103	0.33324	 	5.691949999999999E10	 	8.21598E-11	 	7433.98046	31.14593	 
680.0	1.0	0.0	8.55784	7.24674	-7.99497	14.6102	19.74276	1.18282	0.84544	174.46209	174.20259	65.43547	0.33309	 	6.810749999999999E10	 	6.83051E-11	 	7278.46599	31.10289	 
675.0	1.0	0.0	8.56001	7.24491	-8.01825	14.58913	19.67139	1.18089	0.84682	174.7466	174.32694	65.5497	0.33293	 	8.16491E10	 	5.66778E-11	 	7123.16524	31.06015	 
670.0	1.0	0.0	8.56217	7.24308	-8.04147	14.56804	19.6	1.17894	0.84822	175.03052	174.4505	65.66374	0.33278	 	9.807139999999998E10	 	4.69381E-11	 	6968.07666	31.01771	 
665.0	1.0	0.0	8.56433	7.24125	-8.06463	14.54695	19.5286	1.17698	0.84964	175.31384	174.57327	65.77757	0.33263	 	1.18027E11	 	3.87951E-11	 	6813.19869	30.9756	 
660.0	1.0	0.0	8.56648	7.23943	-8.08775	14.52584	19.45717	1.175	0.85106	175.59655	174.69525	65.8912	0.33247	 	1.42326E11	 	3.20004E-11	 	6658.53353	30.93303	 
655.0	1.0	0.0	8.56863	7.23762	-8.1108	14.50472	19.38574	1.17301	0.85251	175.87867	174.81644	66.00463	0.33232	 	1.71973E11	 	2.63417E-11	 	6504.10282	30.88614	 
650.0	1.0	0.0	8.57078	7.23581	-8.13381	14.48358	19.31428	1.17101	0.85397	176.16019	174.93685	66.11787	0.33217	 	2.08223E11	 	2.16387E-11	 	6349.93531	30.8335	 
645.0	1.0	0.0	8.57292	7.234	-8.15675	14.46244	19.24281	1.16899	0.85544	176.4411	175.05647	66.2309	0.33202	 	2.52639E11	 	1.77378E-11	 	6196.03032	30.781	 
640.0	1.0	0.0	8.57506	7.23219	-8.17965	14.44128	19.17132	1.16696	0.85693	176.72142	175.17532	66.34373	0.33186	 	3.0718E11	 	1.45089E-11	 	6042.38721	30.72862	 
635.0	1.0	0.0	8.57719	7.2304	-8.20249	14.42011	19.09981	1.16492	0.85843	177.00114	175.29338	66.45636	0.33171	 	3.743E11	 	1.1842E-11	 	5889.00534	30.67638	 
630.0	1.0	0.0	8.57932	7.2286	-8.22527	14.39893	19.02828	1.16286	0.85995	177.28025	175.41067	66.56878	0.33156	 	4.57085E11	 	9.64383E-12	 	5735.88402	30.62426	 
625.0	1.0	0.0	8.58145	7.22681	-8.248	14.37774	18.95673	1.16078	0.86149	177.55877	175.52719	66.68101	0.3314	 	5.59423E11	 	7.83602E-12	 	5583.02227	30.57235	 
620.0	1.0	0.0	8.58357	7.22502	-8.27067	14.35653	18.88516	1.1587	0.86304	177.83668	175.64293	66.79304	0.33125	 	6.86224E11	 	6.35251E-12	 	5430.41857	30.52074	 
615.0	1.0	0.0	8.58568	7.22324	-8.29329	14.33531	18.81358	1.15659	0.86461	178.114	175.7579	66.90486	0.3311	 	8.43705E11	 	5.13786E-12	 	5278.0727	30.46917	 
610.0	1.0	0.0	8.5878	7.22147	-8.31586	14.31408	18.74197	1.15448	0.86619	178.39071	175.87211	67.01648	0.33095	 	1.03976E12	 	4.14563E-12	 	5125.98406	30.41773	 
605.0	1.0	0.0	8.58991	7.21969	-8.33837	14.29284	18.67035	1.15234	0.8678	178.66683	175.98555	67.1279	0.33079	 	1.28441E12	 	3.33696E-12	 	4974.15201	30.36641	 
600.0	1.0	0.0	8.59201	7.21792	-8.36082	14.27158	18.5987	1.1502	0.86942	178.94234	176.09823	67.23912	0.33064	 	1.59049E12	 	2.67945E-12	 	4822.57591	30.31522	 
595.0	1.0	0.0	8.59411	7.21616	-8.38322	14.25032	18.52704	1.14803	0.87105	179.21726	176.21014	67.35014	0.33049	 	1.97435E12	 	2.14614E-12	 	4671.25516	30.26415	 
590.0	1.0	0.0	8.59621	7.2144	-8.40556	14.22904	18.45535	1.14586	0.87271	179.49157	176.3213	67.46096	0.33034	 	2.45701E12	 	1.71462E-12	 	4520.18911	30.21321	 
585.0	1.0	0.0	8.5983	7.21264	-8.42785	14.20775	18.38364	1.14366	0.87438	179.76529	176.4317	67.57157	0.33018	 	3.06546E12	 	1.36633E-12	 	4369.37716	30.16239	 
580.0	1.0	0.0	8.60039	7.21089	-8.45008	14.18644	18.31191	1.14145	0.87608	180.0384	176.54134	67.68199	0.33003	 	3.83451E12	 	1.08593E-12	 	4218.81868	30.1117	 
575.0	1.0	0.0	8.60247	7.20915	-8.47226	14.16513	18.24015	1.13923	0.87779	180.31091	176.65023	67.7922	0.32988	 	4.80919E12	 	8.60771E-13	 	4068.51305	30.06113	 
570.0	1.0	0.0	8.60455	7.2074	-8.49438	14.1438	18.16838	1.13699	0.87952	180.58282	176.75837	67.90221	0.32973	 	6.04783E12	 	6.80443E-13	 	3918.45967	30.01068	 
565.0	1.0	0.0	8.60663	7.20567	-8.51645	14.12246	18.09658	1.13473	0.88127	180.85414	176.86577	68.01201	0.32957	 	7.62632E12	 	5.36406E-13	 	3768.65792	29.96035	 
560.0	1.0	0.0	8.6087	7.20393	-8.53846	14.10111	18.02476	1.13245	0.88304	181.12485	176.97241	68.12162	0.32942	 	9.6436E12	 	4.21668E-13	 	3619.10719	29.91015	 
555.0	1.0	0.0	8.61076	7.2022	-8.56042	14.07974	17.95291	1.13016	0.88483	181.39496	177.07831	68.23102	0.32927	 	1.22291E13	 	3.30523E-13	 	3469.80686	29.86007	 
550.0	1.0	0.0	8.61283	7.20048	-8.58232	14.05837	17.88104	1.12785	0.88664	181.66447	177.18347	68.34022	0.32912	 	1.55526E13	 	2.58323E-13	 	3320.75637	29.8101	 
545.0	1.0	0.0	8.61489	7.19876	-8.60416	14.03698	17.80915	1.12553	0.88847	181.93338	177.28788	68.44922	0.32897	 	1.98375E13	 	2.01295E-13	 	3171.95507	29.76026	 
540.0	1.0	0.0	8.61694	7.19704	-8.62595	14.01558	17.73723	1.12318	0.89033	182.20169	177.39156	68.55801	0.32881	 	2.53788E13	 	1.56382E-13	 	3023.4024	29.71053	 
535.0	1.0	0.0	8.61899	7.19533	-8.64768	13.99416	17.66529	1.12082	0.8922	182.4694	177.4945	68.6666	0.32866	 	3.25671E13	 	1.21116E-13	 	2875.09773	29.66093	 
530.0	1.0	0.0	8.62104	7.19362	-8.66936	13.97274	17.59332	1.11845	0.8941	182.73651	177.59671	68.77499	0.32851	 	4.19213E13	 	9.35079E-14	 	2727.0405	29.61145	 
525.0	1.0	0.0	8.62308	7.19192	-8.69098	13.9513	17.52132	1.11605	0.89602	183.00302	177.69818	68.88318	0.32836	 	5.41334E13	 	7.19625E-14	 	2579.2301	29.56208	 
520.0	1.0	0.0	8.62511	7.19022	-8.71255	13.92985	17.4493	1.11364	0.89796	183.26892	177.79893	68.99116	0.32821	 	7.01286E13	 	5.5201E-14	 	2431.66596	29.51283	 
515.0	1.0	0.0	8.62715	7.18853	-8.73406	13.90839	17.37724	1.1112	0.89992	183.53423	177.89894	69.09894	0.32805	 	9.1149E13	 	4.2203E-14	 	2284.34748	29.46369	 
510.0	1.0	0.0	8.62918	7.18684	-8.75551	13.88691	17.30517	1.10875	0.90191	183.79894	177.99823	69.20652	0.3279	 	1.18867E14	 	3.21565E-14	 	2137.27411	29.41467	 
505.0	1.0	0.0	8.6312	7.18515	-8.77691	13.86543	17.23306	1.10628	0.90393	184.06304	178.09679	69.31389	0.32775	 	1.55545E14	 	2.44172E-14	 	1990.44524	29.36577	 
500.0	1.0	0.0	8.63322	7.18347	-8.79825	13.84393	17.16092	1.1038	0.90596	184.32655	178.19463	69.42106	0.3276	 	2.04248E14	 	1.84754E-14	 	1843.86032	29.31698	 
495.0	1.0	0.0	8.63523	7.18179	-8.81953	13.82242	17.08876	1.10129	0.90803	184.58945	178.29175	69.52803	0.32745	 	2.6915399999999997E14	 	1.39294E-14	 	1697.51878	29.26831	 
490.0	1.0	0.0	8.63725	7.18012	-8.84076	13.8009	17.01657	1.09876	0.91011	184.85175	178.38815	69.6348	0.32729	 	3.55971E14	 	1.04636E-14	 	1551.42005	29.21975	 
485.0	1.0	0.0	8.63925	7.17845	-8.86193	13.77936	16.94434	1.09622	0.91223	185.11346	178.48383	69.74136	0.32714	 	4.7253E14	 	7.83092E-15	 	1405.56356	29.1713	 
480.0	1.0	0.0	8.64125	7.17679	-8.88305	13.75782	16.87208	1.09365	0.91437	185.37456	178.5788	69.84771	0.32699	 	6.29618E14	 	5.83836E-15	 	1259.94878	29.12296	 
475.0	1.0	0.0	8.64325	7.17513	-8.90411	13.73626	16.7998	1.09107	0.91654	185.63506	178.67305	69.95387	0.32684	 	8.42154E14	 	4.33595E-15	 	1114.57515	29.07473	 
470.0	1.0	0.0	8.64525	7.17348	-8.92511	13.71468	16.72748	1.08846	0.91873	185.89496	178.76659	70.05982	0.32669	 	1.13085E15	 	3.20743E-15	 	969.4421	29.02661	 
465.0	1.0	0.0	8.64723	7.17183	-8.94606	13.6931	16.65513	1.08583	0.92095	186.15426	178.85943	70.16556	0.32654	 	1.52459E15	 	2.36308E-15	 	824.54911	28.9786	 
460.0	1.0	0.0	8.64922	7.17018	-8.96695	13.67151	16.58274	1.08318	0.9232	186.41296	178.95155	70.2711	0.32638	 	2.06382E15	 	1.73384E-15	 	679.89564	28.93069	 
455.0	1.0	0.0	8.6512	7.16854	-8.98779	13.6499	16.51032	1.08052	0.92548	186.67105	179.04297	70.37644	0.32623	 	2.80541E15	 	1.26681E-15	 	535.48114	28.8829	 
450.0	1.0	0.0	8.65317	7.16691	-9.00856	13.62828	16.43787	1.07783	0.92779	186.92855	179.13369	70.48158	0.32608	 	3.82969E15	 	9.21619E-16	 	391.30511	28.83521	 
445.0	1.0	0.0	8.65515	7.16527	-9.02928	13.60665	16.36538	1.07512	0.93013	187.18545	179.2237	70.58651	0.32593	 	5.25066E15	 	6.67557E-16	 	247.367	28.78762	 
440.0	1.0	0.0	8.65711	7.16365	-9.04995	13.585	16.29285	1.07238	0.9325	187.44174	179.31301	70.69123	0.32578	 	7.23078E15	 	4.81374E-16	 	103.6663	28.74014	 
435.0	1.0	0.0	8.65907	7.16202	-9.07056	13.56334	16.22029	1.06963	0.9349	187.69744	179.40163	70.79575	0.32563	 	1.00028E16	 	3.45535E-16	 	-39.7975	28.69276	 
430.0	1.0	0.0	8.66103	7.1604	-9.09111	13.54168	16.14769	1.06685	0.93734	187.95253	179.48955	70.90007	0.32547	 	1.39014E16	 	2.46875E-16	 	-183.0249	28.64548	 
425.0	1.0	0.0	8.66298	7.15879	-9.1116	13.52	16.07506	1.06405	0.9398	188.20702	179.57677	71.00418	0.32532	 	1.94108E16	 	1.75546E-16	 	-326.01636	28.59829	 
420.0	1.0	0.0	8.66493	7.15718	-9.13204	13.4983	16.00238	1.06123	0.9423	188.46091	179.6633	71.10809	0.32517	 	2.72346E16	 	1.2422E-16	 	-468.77246	28.55122	 
415.0	1.0	0.0	8.66688	7.15557	-9.15242	13.4766	15.92966	1.05838	0.94484	188.7142	179.74914	71.21179	0.32502	 	3.84005E16	 	8.74648E-17	 	-611.29345	28.5042	 
410.0	1.0	0.0	8.66882	7.15397	-9.17274	13.45488	15.85691	1.05551	0.94741	188.96689	179.83429	71.31529	0.32487	 	5.44171E16	 	6.12727E-17	 	-753.57949	28.45721	 
405.0	1.0	0.0	8.67075	7.15238	-9.19301	13.43315	15.78411	1.05262	0.95001	189.21898	179.91876	71.41858	0.32472	 	7.75117E16	 	4.27017E-17	 	-895.63075	28.41025	 
400.0	1.0	0.0	8.67268	7.15079	-9.21322	13.41141	15.71127	1.0497	0.95265	189.47046	180.00254	71.52167	0.32457	 	1.10989E17	 	2.96018E-17	 	-1037.44736	28.36332	 
395.0	1.0	0.0	8.67461	7.1492	-9.23337	13.38965	15.63839	1.04676	0.95533	189.72135	180.08563	71.62455	0.32442	 	1.59782E17	 	2.04095E-17	 	-1179.02945	28.31642	 
390.0	1.0	0.0	8.67653	7.14762	-9.25346	13.36789	15.56546	1.0438	0.95804	189.97163	180.16804	71.72723	0.32426	 	2.31293E17	 	1.39938E-17	 	-1320.37718	28.26955	 
385.0	1.0	0.0	8.67844	7.14604	-9.2735	13.34611	15.49249	1.04081	0.96079	190.22132	180.24977	71.8297	0.32411	 	3.36695E17	 	9.54058E-18	 	-1461.49065	28.22269	 
380.0	1.0	0.0	8.68035	7.14446	-9.29348	13.32432	15.41947	1.03779	0.96359	190.4704	180.33083	71.93197	0.32396	 	4.92956E17	 	6.46683E-18	 	-1602.36998	28.17587	 
375.0	1.0	0.0	8.68226	7.14289	-9.3134	13.30252	15.34641	1.03475	0.96642	190.71888	180.41121	72.03403	0.32381	 	7.25995E17	 	4.35741E-18	 	-1743.01528	28.12906	 
370.0	1.0	0.0	8.68416	7.14133	-9.33327	13.2807	15.2733	1.03168	0.96929	190.96676	180.49091	72.13589	0.32366	 	1.07566E18	 	2.91827E-18	 	-1883.42666	28.08227	 
365.0	1.0	0.0	8.68606	7.13977	-9.35308	13.25888	15.20013	1.02859	0.97221	191.21404	180.56994	72.23754	0.32351	 	1.60357E18	 	1.94232E-18	 	-2023.60419	28.03551	 
360.0	1.0	0.0	8.68795	7.13821	-9.37283	13.23704	15.12692	1.02547	0.97516	191.46071	180.6483	72.33898	0.32336	 	2.40571E18	 	1.28455E-18	 	-2163.54796	27.98876	 
355.0	1.0	0.0	8.68984	7.13666	-9.39252	13.21519	15.05366	1.02232	0.97817	191.70679	180.72598	72.44022	0.32321	 	3.63247E18	 	8.44012E-19	 	-2303.25805	27.94202	 
350.0	1.0	0.0	8.69173	7.13512	-9.41216	13.19332	14.98035	1.01915	0.98121	191.95226	180.803	72.54126	0.32306	 	5.52118E18	 	5.50868E-19	 	-2442.73451	27.89529	 
345.0	1.0	0.0	8.69361	7.13357	-9.43173	13.17145	14.90698	1.01595	0.98431	192.19713	180.87936	72.64209	0.3229	 	8.44897E18	 	3.57089E-19	 	-2581.97738	27.84858	 
340.0	1.0	0.0	8.69548	7.13204	-9.45125	13.14956	14.83356	1.01272	0.98744	192.44141	180.95505	72.74271	0.32275	 	1.30194E19	 	2.2986E-19	 	-2720.98672	27.80187	 
335.0	1.0	0.0	8.69735	7.1305	-9.47072	13.12766	14.76008	1.00946	0.99063	192.68508	181.03008	72.84312	0.3226	 	2.02052E19	 	1.46904E-19	 	-2859.76256	27.75517	 
330.0	1.0	0.0	8.69921	7.12898	-9.49012	13.10575	14.68655	1.00617	0.99387	192.92814	181.10444	72.94333	0.32245	 	3.15864E19	 	9.31991E-20	 	-2998.30489	27.70847	 
325.0	1.0	0.0	8.70107	7.12745	-9.50947	13.08382	14.61295	1.00286	0.99715	193.17061	181.17815	73.04334	0.3223	 	4.97488E19	 	5.86833E-20	 	-3136.61374	27.66177	 
320.0	1.0	0.0	8.70293	7.12593	-9.52876	13.06189	14.5393	0.99951	1.00049	193.41248	181.2512	73.14313	0.32215	 	7.89569E19	 	3.66658E-20	 	-3274.6891	27.61507	 
315.0	1.0	0.0	8.70478	7.12442	-9.54799	13.03994	14.46559	0.99613	1.00388	193.65374	181.32359	73.24272	0.322	 	1.2630199999999998E20	 	2.27282E-20	 	-3412.53092	27.56836	 
310.0	1.0	0.0	8.70662	7.12291	-9.56716	13.01798	14.39181	0.99273	1.00732	193.8944	181.39533	73.34211	0.32185	 	2.0367E20	 	1.39746E-20	 	-3550.13919	27.52166	 
305.0	1.0	0.0	8.70847	7.1214	-9.58628	12.996	14.31797	0.98929	1.01082	194.13446	181.46642	73.44128	0.3217	 	3.31156E20	 	8.52108E-21	 	-3687.51386	27.47493	 
300.0	1.0	0.0	8.7103	7.1199	-9.60533	12.97402	14.24406	0.98583	1.01438	194.37392	181.53685	73.54026	0.32155	 	5.4302799999999993E20	 	5.15149E-21	 	-3824.65485	27.4282	 
295.0	1.0	0.0	8.71213	7.1184	-9.62433	12.95202	14.17009	0.98233	1.01799	194.61278	181.60664	73.63902	0.3214	 	8.98241E20	 	3.08714E-21	 	-3961.5621	27.38145	 
290.0	1.0	0.0	8.71396	7.11691	-9.64327	12.93001	14.09605	0.9788	1.02166	194.85104	181.67577	73.73758	0.32125	 	1.49915E21	 	1.83344E-21	 	-4098.23549	27.33468	 
285.0	1.0	0.0	8.71578	7.11543	-9.66216	12.90799	14.02193	0.97523	1.02539	195.08869	181.74427	73.83593	0.3211	 	2.52512E21	 	1.07884E-21	 	-4234.67491	27.28789	 
280.0	1.0	0.0	8.7176	7.11394	-9.68098	12.88596	13.94775	0.97164	1.02919	195.32575	181.81212	73.93407	0.32095	 	4.29351E21	 	6.28807E-22	 	-4370.88024	27.24107	 
275.0	1.0	0.0	8.71941	7.11246	-9.69975	12.86391	13.87349	0.96801	1.03305	195.5622	181.87932	74.03201	0.32079	 	7.37137E21	 	3.62942E-22	 	-4506.85132	27.19422	 
270.0	1.0	0.0	8.72121	7.11099	-9.71845	12.84185	13.79915	0.96435	1.03697	195.79805	181.94589	74.12974	0.32064	 	1.27822E22	 	2.07396E-22	 	-4642.58798	27.14733	 
265.0	1.0	0.0	8.72302	7.10952	-9.7371	12.81978	13.72474	0.96065	1.04096	196.03329	182.01181	74.22726	0.32049	 	2.2392699999999998E22	 	1.17296E-22	 	-4778.09003	27.10041	 
260.0	1.0	0.0	8.72481	7.10806	-9.75569	12.7977	13.65024	0.95692	1.04502	196.26794	182.0771	74.32457	0.32034	 	3.9643699999999995E22	 	6.5639E-23	 	-4913.35725	27.05345	 
255.0	1.0	0.0	8.72661	7.1066	-9.77423	12.7756	13.57567	0.95315	1.04915	196.50198	182.14175	74.42168	0.32019	 	7.094769999999999E22	 	3.63334E-23	 	-5048.38942	27.00643	 
250.0	1.0	0.0	8.72839	7.10514	-9.7927	12.7535	13.501	0.94935	1.05335	196.73543	182.20576	74.51858	0.32004	 	1.2839099999999999E23	 	1.98874E-23	 	-5183.18627	26.95937	 
245.0	1.0	0.0	8.73018	7.10369	-9.81112	12.73138	13.42626	0.94551	1.05763	196.96827	182.26915	74.61527	0.31989	 	2.3501799999999997E23	 	1.07607E-23	 	-5317.74753	26.91225	 
240.0	1.0	0.0	8.73195	7.10225	-9.82947	12.70925	13.35142	0.94164	1.06198	197.20051	182.3319	74.71175	0.31974	 	4.35297E23	 	5.75367E-24	 	-5452.07287	26.86507	 
235.0	1.0	0.0	8.73372	7.10081	-9.84777	12.6871	13.27649	0.93772	1.06641	197.43214	182.39402	74.80803	0.31959	 	8.160899999999999E23	 	3.03907E-24	 	-5586.16197	26.81782	 
230.0	1.0	0.0	8.73549	7.09937	-9.86601	12.66495	13.20147	0.93377	1.07092	197.66318	182.45552	74.9041	0.31944	 	1.54923E24	 	1.58515E-24	 	-5720.01445	26.7705	 
225.0	1.0	0.0	8.73725	7.09794	-9.88419	12.64278	13.12635	0.92978	1.07552	197.89361	182.51638	74.99996	0.31929	 	2.97906E24	 	8.16144E-25	 	-5853.62993	26.7231	 
220.0	1.0	0.0	8.73901	7.09651	-9.90231	12.6206	13.05113	0.92576	1.0802	198.12344	182.57663	75.09561	0.31914	 	5.80501E24	 	4.14632E-25	 	-5987.00798	26.67561	 
215.0	1.0	0.0	8.74076	7.09509	-9.92037	12.59841	12.97581	0.92169	1.08496	198.35267	182.63624	75.19106	0.31899	 	1.1467300000000001E25	 	2.07768E-25	 	-6120.14814	26.62803	 
210.0	1.0	0.0	8.74251	7.09367	-9.93838	12.5762	12.90038	0.91758	1.08982	198.5813	182.69524	75.28629	0.31884	 	2.2974100000000003E25	 	1.02643E-25	 	-6253.04993	26.58036	 
205.0	1.0	0.0	8.74425	7.09226	-9.95632	12.55399	12.82485	0.91344	1.09477	198.80933	182.75362	75.38132	0.31869	 	4.67013E25	 	4.99715E-26	 	-6385.7128	26.53257	 
200.0	1.0	0.0	8.74599	7.09085	-9.97421	12.53176	12.7492	0.90925	1.09981	199.03675	182.81138	75.47614	0.31854	 	9.636720000000001E25	 	2.39638E-26	 	-6518.13621	26.48468	 
195.0	1.0	0.0	8.74772	7.08944	-9.99203	12.50952	12.67344	0.90502	1.10495	199.26357	182.86852	75.57075	0.31839	 	2.01953E26	 	1.13142E-26	 	-6650.31952	26.43666	 
190.0	1.0	0.0	8.74945	7.08804	-10.0098	12.48727	12.59756	0.90074	1.11019	199.48979	182.92504	75.66515	0.31824	 	4.30039E26	 	5.25654E-27	 	-6782.26209	26.38851	 
185.0	1.0	0.0	8.75117	7.08665	-10.02751	12.465	12.52155	0.89643	1.11554	199.71541	182.98095	75.75935	0.31809	 	9.309610000000001E26	 	2.40194E-27	 	-6913.96324	26.34023	 
180.0	1.0	0.0	8.75289	7.08526	-10.04516	12.44272	12.44543	0.89207	1.12099	199.94043	183.03625	75.85333	0.31794	 	2.05001E27	 	1.07888E-27	 	-7045.42222	26.2918	 
175.0	1.0	0.0	8.7546	7.08387	-10.06275	12.42043	12.36917	0.88766	1.12655	200.16484	183.09094	75.94711	0.31779	 	4.59443E27	 	4.76078E-28	 	-7176.63822	26.2432	 
170.0	1.0	0.0	8.75631	7.08249	-10.08028	12.39813	12.29278	0.88322	1.13223	200.38865	183.14501	76.04068	0.31764	 	1.0486100000000001E28	 	2.06263E-28	 	-7307.61042	26.19444	 
165.0	1.0	0.0	8.75801	7.08112	-10.09775	12.37582	12.21625	0.87872	1.13802	200.61186	183.19848	76.13403	0.31749	 	2.43882E28	 	8.76861E-29	 	-7438.33791	26.1455	 
160.0	1.0	0.0	8.75971	7.07974	-10.11516	12.35349	12.13957	0.87418	1.14393	200.83447	183.25134	76.22718	0.31734	 	5.78369E28	 	3.65528E-29	 	-7568.81974	26.09637	 
155.0	1.0	0.0	8.7614	7.07838	-10.13251	12.33115	12.06275	0.86959	1.14996	201.05647	183.3036	76.32012	0.31719	 	1.39956E29	 	1.49311E-29	 	-7699.05486	26.04703	 
150.0	1.0	0.0	8.76308	7.07702	-10.14981	12.3088	11.98578	0.86496	1.15613	201.27787	183.35525	76.41285	0.31704	 	3.45816E29	 	5.97222E-30	 	-7829.04221	25.99747	 
145.0	1.0	0.0	8.76476	7.07566	-10.16704	12.28644	11.90865	0.86027	1.16242	201.49868	183.40631	76.50538	0.31689	 	8.73163E29	 	2.33735E-30	 	-7958.78063	25.94768	 
140.0	1.0	0.0	8.76644	7.07431	-10.18421	12.26407	11.83136	0.85554	1.16886	201.71887	183.45676	76.59769	0.31674	 	2.25466E30	 	8.94361E-31	 	-8088.26888	25.89765	 
135.0	1.0	0.0	8.76811	7.07296	-10.20133	12.24168	11.75389	0.85075	1.17543	201.93847	183.50661	76.68979	0.31659	 	5.95884E30	 	3.34307E-31	 	-8217.50565	25.84735	 
130.0	1.0	0.0	8.76978	7.07161	-10.21838	12.21928	11.67626	0.84592	1.18215	202.15746	183.55586	76.78168	0.31644	 	1.61329E31	 	1.21967E-31	 	-8346.48955	25.79678	 
125.0	1.0	0.0	8.77144	7.07028	-10.23538	12.19687	11.59844	0.84103	1.18901	202.37586	183.60452	76.87337	0.31629	 	4.4784199999999995E31	 	4.33919E-32	 	-8475.21909	25.74591	 
120.0	1.0	0.0	8.77309	7.06894	-10.25231	12.17445	11.52043	0.83609	1.19604	202.59365	183.65258	76.96484	0.31614	 	1.2759E32	 	1.50393E-32	 	-8603.69271	25.69472	 
115.0	1.0	0.0	8.77474	7.06761	-10.26918	12.15201	11.44223	0.8311	1.20322	202.81083	183.70005	77.05611	0.31599	 	3.73443E32	 	5.07297E-33	 	-8731.90872	25.6432	 
110.0	1.0	0.0	8.77639	7.06629	-10.286	12.12956	11.36383	0.82606	1.21057	203.02742	183.74693	77.14716	0.31585	 	1.1241000000000001E33	 	1.66361E-33	 	-8859.86535	25.59132	 
105.0	1.0	0.0	8.77803	7.06497	-10.30275	12.1071	11.28522	0.82096	1.21809	203.2434	183.79322	77.238	0.3157	 	3.4836800000000004E33	 	5.298E-34	 	-8987.56068	25.53907	 
100.0	1.0	0.0	8.77966	7.06365	-10.31945	12.08463	11.20639	0.8158	1.22579	203.45878	183.83892	77.32864	0.31555	 	1.11286E34	 	1.63656E-34	 	-9114.9927	25.48641	 
95.0	1.0	0.0	8.78129	7.06234	-10.33608	12.06215	11.12734	0.81059	1.23367	203.67356	183.88403	77.41906	0.3154	 	3.66893E34	 	4.89747E-35	 	-9242.15928	25.43331	 
90.0	1.0	0.0	8.78291	7.06104	-10.35266	12.03965	11.04805	0.80532	1.24175	203.88774	183.92856	77.50928	0.31525	 	1.24999E35	 	1.41797E-35	 	-9369.0581	25.37977	 
85.0	1.0	0.0	8.78453	7.05974	-10.36917	12.01714	10.96852	0.79999	1.25002	204.10131	183.9725	77.59928	0.3151	 	4.40696E35	 	3.96654E-36	 	-9495.68675	25.32573	 
80.0	1.0	0.0	8.78614	7.05844	-10.38563	11.99462	10.88873	0.7946	1.2585	204.31428	184.01585	77.68907	0.31495	 	1.6101499999999998E36	 	1.07048E-36	 	-9622.04263	25.27118	 
75.0	1.0	0.0	8.78775	7.05715	-10.40202	11.97209	10.80868	0.78915	1.26719	204.52665	184.05863	77.77866	0.3148	 	6.10602E36	 	2.78288E-37	 	-9748.12297	25.21607	 
70.0	1.0	0.0	8.78935	7.05586	-10.41835	11.94954	10.72836	0.78364	1.2761	204.73842	184.10083	77.86803	0.31465	 	2.40724E37	 	6.95747E-38	 	-9873.92482	25.16037	 
65.0	1.0	0.0	8.79095	7.05458	-10.43463	11.92699	10.64774	0.77807	1.28523	204.94958	184.14244	77.95719	0.3145	 	9.88323E37	 	1.66993E-38	 	-9999.44503	25.10404	 
60.0	1.0	0.0	8.79254	7.0533	-10.45084	11.90442	10.56683	0.77243	1.29461	205.16015	184.18348	78.04614	0.31435	 	4.2333999999999994E38	 	3.84094E-39	 	-10124.68026	25.04705	 
55.0	1.0	0.0	8.79413	7.05203	-10.46699	11.88184	10.4856	0.76673	1.30423	205.37011	184.22395	78.13488	0.3142	 	1.8955400000000002E39	 	8.44939E-40	 	-10249.62692	24.98933	 
50.0	1.0	0.0	8.79571	7.05077	-10.48308	11.85924	10.40405	0.76097	1.31411	205.57946	184.26383	78.22341	0.31405	 	8.890460000000001E39	 	1.77405E-40	 	-10374.2812	24.93086	 
45.0	1.0	0.0	8.79728	7.0495	-10.49911	11.83664	10.32215	0.75514	1.32426	205.78822	184.30315	78.31173	0.3139	 	4.37735E40	 	3.54737E-41	 	-10498.63899	24.87156	 
40.0	1.0	0.0	8.79885	7.04824	-10.51508	11.81402	10.2399	0.74924	1.33468	205.99637	184.34189	78.39984	0.31376	 	2.2678100000000003E41	 	6.73958E-42	 	-10622.69591	24.81139	 
35.0	1.0	0.0	8.80042	7.04699	-10.53099	11.79139	10.15727	0.74328	1.34539	206.20393	184.38007	78.48773	0.31361	 	1.2393199999999999E42	 	1.21357E-42	 	-10746.4473	24.75028	 
30.0	1.0	0.0	8.80198	7.04574	-10.54684	11.76875	10.07424	0.73724	1.3564	206.41087	184.41767	78.57542	0.31346	 	7.16296E42	 	2.06562E-43	 	-10869.88814	24.68817	 
25.0	1.0	0.0	8.80353	7.0445	-10.56263	 	9.99081	0.73114	1.36773	206.61722	184.45471	78.66289	0.31331	 	4.39092E43	 	3.3141E-44	 	-10993.01304	 	 
