T (C)	Fraction solid (wt)-TOTAL	Fraction liquid (wt)-LIQUID	Density (g/(cm)^3)-TOTAL	Molar volume (cm^3)-TOTAL	Volume change (%)-  	Average expansion coeff. (10e-6 1/K)-  	Thermal conductivity (W/(m*K))-TOTAL	Electrical resistivity (10e-6 Ohm*m)-TOTAL	Electrical conductivity (10e6 1/(Ohm*m))-TOTAL	Young's modulus (GPa)-TOTAL	Bulk modulus (GPa)-TOTAL	Shear modulus(GPa)-TOTAL	Poisson's ratio-TOTAL	Liquid viscosity (mPa s)-  	Total viscosity (mPa s)-  	Liquid diffusivity (10e-9 (m^2)/s)-  	Total diffusivity (10e-9 (m^2)/s)-  	Surface Tension (mN/m)-  	Enthalpy (J/mole)-TOTAL	Specific heat (J/(mole K))-TOTAL	Latent heat (J/mole)-TOTAL
1400.0	0.0	1.0	7.33089	7.63156	0.0	28.4725	30.64262	1.33775	0.74752	0.0	127.46855	0.0	0.5	6.89355	6.89355	1.18462	1.18462	1782.63838	53441.574	 	0.0
1395.0	0.0	1.0	7.33499	7.6273	-0.0558877	28.42446	30.57071	1.33689	0.748	0.0	127.61957	0.0	0.5	6.96804	6.96804	1.16845	1.16845	1784.88049	53232.735	41.7678	0.0
1390.0	0.0	1.0	7.33908	7.62305	-0.11161	28.37652	30.4988	1.33603	0.74849	0.0	127.7706	0.0	0.5	7.0438	7.0438	1.15242	1.15242	1787.12335	53024.408	41.6654	0.0
1385.0	0.0	1.0	7.34317	7.61881	-0.16717	28.32868	30.42689	1.33516	0.74898	0.0	127.92162	0.0	0.5	7.12084	7.12084	1.13652	1.13652	1789.36676	52816.591	41.5634	0.0
1383.1	0.0	1.0	7.34472	7.6172	-0.1882	28.31056	30.39962	1.33483	0.74916	0.0	127.97889	0.0	0.5	7.1504	7.1504	1.13053	1.13053	1790.21761	52737.913	41.49443	0.0020
1380.0	0.20558	0.79442	7.39771	7.56267	-0.90278	26.41105	30.91552	1.31009	0.76331	0.15479	125.82848	0.0525691	0.47226	7.19109	66.52893	1.12203	0.12128	1789.24499	49380.284	1081.74871	3228.993
1375.0	0.43977	0.56023	7.45946	7.50008	-1.72293	24.24598	31.51532	1.28127	0.78047	3.36879	123.46447	1.16968	0.44005	7.25644	1281.26273	1.10856	0.00627835	1787.65152	45537.426	768.5716	6865.044
1370.0	0.58881	0.41119	7.5001	7.45948	-2.25488	22.86292	31.89471	1.26219	0.79227	11.11606	122.10758	3.91636	0.41918	7.3223	4341.87221	1.09526	0.00184708	1786.07939	43057.932	495.8988	9138.232
1365.0	0.68881	0.31119	7.5284	7.43148	-2.62177	21.92837	32.13664	1.24888	0.80072	21.22871	121.34454	7.55483	0.40498	7.38897	8622.56013	1.08207	9.27266E-4	1784.56138	41356.954	340.1956	10633.401
1360.0	0.75868	0.24132	7.54905	7.41119	-2.88771	21.26852	32.28807	1.23922	0.80696	31.72345	120.95129	11.37103	0.39492	7.45678	13476.50327	1.06896	5.91474E-4	1783.12074	40127.194	245.952	11657.848
1355.0	0.80913	0.19087	7.56474	7.39585	-3.08863	20.78576	32.37844	1.23198	0.8117	41.55491	120.79845	14.97391	0.38758	7.52589	18529.17772	1.0559	4.28869E-4	1781.77315	39196.532	186.1324	12383.686
1350.0	0.84656	0.15344	7.57708	7.38384	-3.24601	20.42176	32.4264	1.22638	0.81541	50.32452	120.807	18.20637	0.38206	7.59651	23611.92007	1.04287	3.35517E-4	1780.52862	38463.374	146.6316	12912.511
1345.0	0.87498	0.12502	7.5871	7.37412	-3.37335	20.13979	32.44424	1.22193	0.81838	57.96343	120.92696	21.03461	0.37781	7.66877	28669.43581	1.02986	2.75478E-4	1779.39288	37865.064	119.662	13306.974
1340.0	0.897	0.103	7.59546	7.36604	-3.47925	19.9164	32.44033	1.2183	0.82081	64.55307	121.12579	23.48284	0.37447	7.74272	33706.69726	1.01688	2.33585E-4	1778.36829	37361.497	100.7134	13607.177
1335.0	0.91435	0.0856535	7.60262	7.35914	-3.56968	19.73529	32.42026	1.21528	0.82286	70.22417	121.38111	25.59564	0.3718	7.81846	38754.27568	1.0039	2.02532E-4	1777.45511	36926.171	87.0652	13839.62
1330.0	0.92823	0.0717673	7.60887	7.35312	-3.64861	19.58561	32.38808	1.2127	0.8246	75.11616	121.67784	27.42227	0.36962	7.89606	43855.09984	0.99095	1.78419E-4	1776.6518	36541.081	77.018	14022.304
1325.0	0.9395	0.0604996	7.61443	7.34776	-3.71876	19.45994	32.34661	1.21047	0.82612	79.35501	122.00538	29.00794	0.36782	7.97558	49054.82571	0.97801	1.59009E-4	1775.95543	36193.695	69.4772	14167.762
1320.0	0.94875	0.0512454	7.61947	7.34293	-3.78217	19.3527	32.29793	1.2085	0.82747	83.05092	122.35605	30.39264	0.3663	8.05707	54399.82921	0.96509	1.42937E-4	1775.36243	35875.1	63.719	14284.899
1315.0	0.95644	0.0435586	7.62409	7.33849	-3.84027	19.25995	32.24358	1.20674	0.82868	86.29541	122.72421	31.60981	0.36501	8.14057	59935.40795	0.95219	1.29329E-4	1774.86863	35578.835	59.253	14380.176
1310.0	0.96289	0.037111	7.62838	7.33437	-3.89429	19.17829	32.18471	1.20514	0.82978	89.16506	123.10554	32.68759	0.3639	8.22606	65706.30205	0.93933	1.17598E-4	1774.47067	35300.139	55.7392	14458.352
1305.0	0.96835	0.0316523	7.63242	7.3305	-3.94492	19.10587	32.1222	1.20367	0.83079	91.72157	123.49714	33.6487	0.36293	8.31364	71756.57595	0.9265	1.07343E-4	1774.16306	35035.444	52.939	14522.99
1300.0	0.97301	0.0269924	7.63623	7.32684	-3.99289	19.04065	32.05672	1.20231	0.83173	94.01612	123.89642	34.5121	0.36207	8.40327	78130.03776	0.91371	9.8274E-5	1773.94283	34782.044	50.68	14576.795
1295.0	0.97702	0.0229844	7.63987	7.32336	-4.03859	18.98159	31.98882	1.20103	0.83262	96.09087	124.30171	35.29339	0.36132	8.49506	84871.9467	0.90096	9.018E-5	1773.80415	34537.858	48.8372	14621.846
1290.0	0.98049	0.0195116	7.64337	7.32001	-4.08244	18.9275	31.9189	1.19983	0.83345	97.97893	124.71148	36.00489	0.36063	8.58901	92026.90056	0.88827	8.29034E-5	1773.7439	34301.265	47.3186	14659.761
1285.0	0.98352	0.0164849	7.64675	7.31678	-4.12477	18.87747	31.84731	1.19868	0.83425	99.70949	125.12467	36.65746	0.36002	8.68509	99643.26592	0.87563	7.63217E-5	1773.75804	34070.993	46.0544	14691.808
1280.0	0.98617	0.0138286	7.65002	7.31365	-4.16578	18.83098	31.77429	1.19758	0.83502	101.30502	125.54031	37.25948	0.35945	8.78344	107769.9888	0.86305	7.034E-5	1773.84248	33846.03	44.9926	14718.998
1275.0	0.98851	0.0114863	7.6532	7.3106	-4.20569	18.78736	31.70007	1.19652	0.83576	102.78471	125.95767	37.81811	0.35893	8.88395	116459.2132	0.85054	6.48822E-5	1773.9949	33625.568	44.0924	14742.137
1270.0	0.99059	0.00940992	7.65631	7.30763	-4.24463	18.7463	31.62483	1.19549	0.83648	104.16486	126.37626	38.33944	0.35846	8.98682	125767.2298	0.83809	5.98863E-5	1774.20984	33408.951	43.3234	14761.877
1265.0	0.99244	0.00755897	7.65936	7.30472	-4.28278	18.7073	31.54872	1.19449	0.83718	105.45927	126.79553	38.82863	0.35801	9.09194	135753.9879	0.82571	5.5301E-5	1774.48693	33195.646	42.661	14778.749
1260.0	0.9941	0.00590349	7.66235	7.30186	-4.32021	18.67015	31.47186	1.19352	0.83786	106.678	127.21517	39.28944	0.35759	9.19944	146482.286	0.81341	5.10842E-5	1774.82138	32985.216	42.086	14793.188
1255.6	0.99541	0.0045871	7.66494	7.29939	-4.35261	18.63882	31.40368	1.19267	0.83845	107.69528	127.58443	39.67425	0.35724	9.29602	156590.1722	0.80265	4.76495E-5	1775.16094	32802.16	 	14804.15
1255.0	0.99571	0.00428517	7.66531	7.29901	-4.35761	18.6328	31.39483	1.19254	0.83854	107.89278	127.63541	39.74897	0.35718	9.309	158108.0257	0.80122	4.71736E-5	1775.33788	32775.439	41.9554	14807.412
1250.0	0.99804	0.00196075	7.66835	7.29586	-4.39884	18.58346	31.32041	1.19146	0.8393	109.46223	128.05964	40.34298	0.35665	9.41826	171247.1108	0.78933	4.34116E-5	1776.84319	32555.733	43.9412	14832.002
1245.0	1.0	0.0	7.67132	7.29278	-4.43919	18.53645	31.24468	1.19043	0.84003	110.87992	128.48308	40.87986	0.35617	 	185286.9509	 	3.99905E-5	 	32341.26	42.8946	14851.794
1240.0	1.0	0.0	7.67384	7.2904	-4.47042	18.51697	31.1627	1.18963	0.8406	111.37392	128.90214	41.06718	0.356	 	198966.2033	 	3.71184E-5	 	32130.22079	42.20784	 
1235.0	1.0	0.0	7.67637	7.288	-4.50183	18.49681	31.08069	1.18883	0.84116	111.86692	129.3186	41.25418	0.35583	 	213752.8742	 	3.44365E-5	 	31942.28182	37.58779	 
1230.0	1.0	0.0	7.67889	7.28561	-4.53318	18.47666	30.99868	1.18802	0.84173	112.35916	129.73324	41.44096	0.35565	 	229747.9844	 	3.19328E-5	 	31754.65067	37.52623	 
1225.0	1.0	0.0	7.6814	7.28322	-4.56447	18.45651	30.91666	1.18721	0.84231	112.85065	130.14608	41.62749	0.35548	 	247058.9814	 	2.95966E-5	 	31567.32688	37.46476	 
1220.0	1.0	0.0	7.68392	7.28084	-4.59571	18.43635	30.83465	1.1864	0.84289	113.34137	130.55712	41.8138	0.35531	 	265803.6094	 	2.74176E-5	 	31380.30997	37.40338	 
1215.0	1.0	0.0	7.68643	7.27846	-4.6269	18.4162	30.75263	1.18558	0.84347	113.83133	130.96638	41.99987	0.35514	 	286110.9784	 	2.53863E-5	 	31193.59946	37.3421	 
1210.0	1.0	0.0	7.68894	7.27608	-4.65803	18.39604	30.67062	1.18476	0.84406	114.32054	131.37385	42.1857	0.35497	 	308122.7323	 	2.34935E-5	 	31007.19486	37.28092	 
1205.0	1.0	0.0	7.69145	7.27371	-4.68911	18.37589	30.5886	1.18393	0.84465	114.80898	131.77955	42.3713	0.3548	 	331994.3823	 	2.17307E-5	 	30821.0957	37.21983	 
1200.0	1.0	0.0	7.69395	7.27134	-4.72013	18.35573	30.50658	1.18309	0.84524	115.29667	132.18347	42.55666	0.35463	 	357896.7083	 	2.00898E-5	 	30635.3015	37.15884	 
1195.0	1.0	0.0	7.69646	7.26898	-4.75111	18.33558	30.42456	1.18226	0.84584	115.7836	132.58564	42.74179	0.35445	 	386017.412	 	1.85631E-5	 	30449.81177	37.09794	 
1190.0	1.0	0.0	7.69895	7.26662	-4.78202	18.31542	30.34254	1.18142	0.84644	116.26977	132.98605	42.92668	0.35428	 	416562.9168	 	1.71433E-5	 	30264.62605	37.03714	 
1185.0	1.0	0.0	7.70145	7.26427	-4.81288	18.29527	30.26052	1.18057	0.84705	116.75518	133.38471	43.11134	0.35411	 	449760.3084	 	1.58237E-5	 	30079.74384	36.97644	 
1180.0	1.0	0.0	7.70394	7.26191	-4.84369	18.27512	30.1785	1.17972	0.84766	117.23983	133.78163	43.29576	0.35394	 	485859.6214	 	1.45978E-5	 	29895.16467	36.91584	 
1175.0	1.0	0.0	7.70643	7.25957	-4.87444	18.25497	30.09647	1.17886	0.84827	117.72372	134.17682	43.47994	0.35377	 	525136.2924	 	1.34595E-5	 	29710.88805	36.85532	 
1170.0	1.0	0.0	7.70892	7.25722	-4.90514	18.23482	30.01444	1.17801	0.84889	118.20685	134.57027	43.66389	0.3536	 	567893.883	 	1.24031E-5	 	29526.91351	36.79491	 
1165.0	1.0	0.0	7.71141	7.25489	-4.93578	18.21468	29.93242	1.17714	0.84952	118.68923	134.96201	43.84761	0.35343	 	614467.2334	 	1.14233E-5	 	29343.24056	36.73459	 
1160.0	1.0	0.0	7.71389	7.25255	-4.96637	18.19453	29.85039	1.17627	0.85014	119.17084	135.35203	44.03108	0.35326	 	665225.8424	 	1.0515E-5	 	29159.86873	36.67437	 
1155.0	1.0	0.0	7.71637	7.25022	-4.9969	18.17439	29.76835	1.1754	0.85078	119.6517	135.74034	44.21432	0.35309	 	720577.786	 	9.67341E-6	 	28976.79753	36.61424	 
1150.0	1.0	0.0	7.71884	7.2479	-5.02738	18.15425	29.68632	1.17452	0.85141	120.1318	136.12694	44.39733	0.35292	 	780973.9267	 	8.89408E-6	 	28794.02647	36.55421	 
1145.0	1.0	0.0	7.72132	7.24557	-5.05781	18.13412	29.60429	1.17364	0.85205	120.61113	136.51185	44.5801	0.35275	 	846912.7627	 	8.17279E-6	 	28611.55508	36.49428	 
1140.0	1.0	0.0	7.72379	7.24326	-5.08818	18.11399	29.52225	1.17275	0.8527	121.08971	136.89507	44.76263	0.35258	 	918945.8797	 	7.50559E-6	 	28429.38288	36.43444	 
1135.0	1.0	0.0	7.72626	7.24094	-5.11849	18.09386	29.44021	1.17186	0.85335	121.56753	137.27661	44.94492	0.35241	 	997683.8433	 	6.88879E-6	 	28247.50938	36.3747	 
1130.0	1.0	0.0	7.72872	7.23863	-5.14875	18.07373	29.35817	1.17096	0.854	122.04459	137.65647	45.12698	0.35224	 	1083803.136	 	6.31888E-6	 	28065.93409	36.31506	 
1125.0	1.0	0.0	7.73118	7.23633	-5.17895	18.05361	29.27613	1.17005	0.85466	122.5209	138.03466	45.3088	0.35207	 	1178053.558	 	5.79263E-6	 	27884.65655	36.25551	 
1120.0	1.0	0.0	7.73364	7.23403	-5.2091	18.0335	29.19408	1.16915	0.85532	122.99644	138.41118	45.49039	0.35189	 	1281266.925	 	5.30695E-6	 	27703.67626	36.19606	 
1115.0	1.0	0.0	7.7361	7.23173	-5.23919	18.01339	29.11203	1.16823	0.85599	123.47122	138.78605	45.67173	0.35172	 	1394366.572	 	4.85899E-6	 	27522.99273	36.13671	 
1110.0	1.0	0.0	7.73855	7.22944	-5.26923	17.99328	29.02998	1.16732	0.85667	123.94525	139.15926	45.85284	0.35155	 	1518378.012	 	4.44607E-6	 	27342.60548	36.07745	 
1105.0	1.0	0.0	7.741	7.22715	-5.29921	17.97318	28.94793	1.16639	0.85734	124.41851	139.53083	46.03371	0.35138	 	1654441.236	 	4.06567E-6	 	27162.51403	36.01829	 
1100.0	1.0	0.0	7.74345	7.22487	-5.32913	17.95308	28.86588	1.16547	0.85803	124.89102	139.90076	46.21435	0.35121	 	1803824.232	 	3.71544E-6	 	26982.71789	35.95923	 
1095.0	1.0	0.0	7.74589	7.22259	-5.359	17.93299	28.78382	1.16453	0.85871	125.36277	140.26905	46.39475	0.35104	 	1967938.419	 	3.3932E-6	 	26803.21658	35.90026	 
1090.0	1.0	0.0	7.74833	7.22031	-5.38882	17.91291	28.70176	1.16359	0.85941	125.83376	140.63572	46.57491	0.35088	 	2148355.789	 	3.09688E-6	 	26624.00961	35.84139	 
1085.0	1.0	0.0	7.75077	7.21804	-5.41858	17.89283	28.6197	1.16265	0.8601	126.30399	141.00076	46.75483	0.35071	 	2346828.742	 	2.82457E-6	 	26445.09648	35.78263	 
1080.0	1.0	0.0	7.75321	7.21577	-5.44828	17.87276	28.53763	1.1617	0.86081	126.77346	141.36419	46.93451	0.35054	 	2565311.981	 	2.5745E-6	 	26266.47673	35.72395	 
1075.0	1.0	0.0	7.75564	7.21351	-5.47793	17.8527	28.45556	1.16075	0.86152	127.24217	141.72601	47.11396	0.35037	 	2805987.518	 	2.34498E-6	 	26088.14984	35.66538	 
1070.0	1.0	0.0	7.75807	7.21125	-5.50752	17.83265	28.37349	1.15979	0.86223	127.71013	142.08622	47.29316	0.3502	 	3071292.907	 	2.13447E-6	 	25910.11535	35.6069	 
1065.0	1.0	0.0	7.76049	7.209	-5.53705	17.8126	28.29142	1.15882	0.86295	128.17732	142.44484	47.47213	0.35003	 	3363953.206	 	1.94152E-6	 	25732.37275	35.54852	 
1060.0	1.0	0.0	7.76291	7.20675	-5.56653	17.79256	28.20934	1.15785	0.86367	128.64376	142.80187	47.65086	0.34986	 	3687017.18	 	1.76478E-6	 	25554.92157	35.49024	 
1055.0	1.0	0.0	7.76533	7.2045	-5.59595	17.77253	28.12726	1.15687	0.8644	129.10943	143.1573	47.82936	0.34969	 	4043898.358	 	1.603E-6	 	25377.76128	35.43206	 
1050.0	1.0	0.0	7.76775	7.20226	-5.62532	17.75251	28.04517	1.15589	0.86513	129.57435	143.51116	48.00761	0.34952	 	4438421.739	 	1.45501E-6	 	25200.89143	35.37397	 
1045.0	1.0	0.0	7.77016	7.20003	-5.65463	17.7325	27.96309	1.1549	0.86587	130.03851	143.86344	48.18563	0.34935	 	4874876.253	 	1.31974E-6	 	25024.3115	35.31598	 
1040.0	1.0	0.0	7.77257	7.19779	-5.68388	17.7125	27.88099	1.15391	0.86662	130.50191	144.21416	48.3634	0.34918	 	5358075.557	 	1.19617E-6	 	24848.02102	35.2581	 
1035.0	1.0	0.0	7.77498	7.19557	-5.71308	17.6925	27.7989	1.15291	0.86737	130.96455	144.56331	48.54094	0.34901	 	5893426.028	 	1.08337E-6	 	24672.01948	35.20031	 
1030.0	1.0	0.0	7.77738	7.19334	-5.74222	17.67252	27.7168	1.15191	0.86813	131.42643	144.9109	48.71824	0.34884	 	6487004.769	 	9.80476E-7	 	24496.30638	35.14262	 
1025.0	1.0	0.0	7.77978	7.19112	-5.77131	17.65255	27.6347	1.1509	0.86889	131.88755	145.25694	48.8953	0.34867	 	7145648.384	 	8.86686E-7	 	24320.88124	35.08503	 
1020.0	1.0	0.0	7.78218	7.18891	-5.80033	17.63259	27.55259	1.14988	0.86966	132.34792	145.60144	49.07211	0.3485	 	7877054.228	 	8.01257E-7	 	24145.74355	35.02754	 
1015.0	1.0	0.0	7.78458	7.1867	-5.8293	17.61265	27.47048	1.14886	0.87043	132.80752	145.94439	49.24869	0.34834	 	8689895.996	 	7.235E-7	 	23970.89283	34.97015	 
1010.0	1.0	0.0	7.78697	7.18449	-5.85822	17.59271	27.38837	1.14783	0.87121	133.26637	146.28581	49.42504	0.34817	 	9593955.794	 	6.52779E-7	 	23796.32855	34.91286	 
1005.0	1.0	0.0	7.78935	7.18229	-5.88707	17.57279	27.30625	1.1468	0.872	133.72446	146.6257	49.60114	0.348	 	1.060027517E7	 	5.88507E-7	 	23622.05023	34.85566	 
1000.0	1.0	0.0	7.79174	7.18009	-5.91587	17.55288	27.22412	1.14575	0.87279	134.18179	146.96406	49.777	0.34783	 	1.1721328E7	 	5.30139E-7	 	23448.05737	34.79857	 
995.0	1.0	0.0	7.79412	7.1779	-5.94462	17.53298	27.142	1.14471	0.87358	134.63835	147.30091	49.95262	0.34766	 	1.297121858E7	 	4.77174E-7	 	23274.34946	34.74158	 
990.0	1.0	0.0	7.7965	7.17571	-5.9733	17.5131	27.05986	1.14366	0.87439	135.09417	147.63624	50.128	0.34749	 	1.436590874E7	 	4.29149E-7	 	23100.926	34.68469	 
985.0	1.0	0.0	7.79887	7.17352	-6.00193	17.49323	26.97773	1.1426	0.8752	135.54922	147.97007	50.30314	0.34732	 	1.592347861E7	 	3.85639E-7	 	22927.78647	34.62791	 
980.0	1.0	0.0	7.80124	7.17134	-6.0305	17.47338	26.89559	1.14153	0.87602	136.00351	148.30239	50.47804	0.34716	 	1.766442618E7	 	3.4625E-7	 	22754.93039	34.57122	 
975.0	1.0	0.0	7.80361	7.16917	-6.05902	17.45354	26.81344	1.14046	0.87684	136.45704	148.63322	50.6527	0.34699	 	1.961201183E7	 	3.10621E-7	 	22582.35722	34.51463	 
970.0	1.0	0.0	7.80598	7.16699	-6.08748	17.43372	26.73129	1.13938	0.87767	136.90982	148.96255	50.82712	0.34682	 	2.179265492E7	 	2.7842E-7	 	22410.06648	34.45815	 
965.0	1.0	0.0	7.80834	7.16483	-6.11588	17.41392	26.64913	1.1383	0.8785	137.36183	149.2904	51.0013	0.34665	 	2.423639084E7	 	2.4934E-7	 	22238.05764	34.40177	 
960.0	1.0	0.0	7.8107	7.16266	-6.14422	17.39413	26.56697	1.13721	0.87935	137.81309	149.61677	51.17524	0.34648	 	2.69773981E7	 	2.23102E-7	 	22066.33018	34.34549	 
955.0	1.0	0.0	7.81305	7.16051	-6.1725	17.37436	26.4848	1.13611	0.8802	138.26359	149.94166	51.34894	0.34631	 	3.005460704E7	 	1.99447E-7	 	21894.8836	34.28932	 
950.0	1.0	0.0	7.8154	7.15835	-6.20073	17.35461	26.40263	1.13501	0.88105	138.71333	150.26508	51.52239	0.34615	 	3.351240325E7	 	1.7814E-7	 	21723.71738	34.23324	 
948.41	1.0	0.0	7.81615	7.15767	-6.20971	17.34834	26.37646	1.13465	0.88133	138.85642	150.36779	51.57759	0.34609	 	3.470179258E7	 	1.7181E-7	 	21669.25055	 	 
945.0	1.0	0.0	7.81774	7.15621	-6.22879	17.33532	26.3205	1.13389	0.88192	139.16268	150.5876	51.69574	0.34598	 	3.740230742E7	 	1.5896E-7	 	21552.72158	34.19916	 
940.0	1.0	0.0	7.82007	7.15408	-6.25674	17.31626	26.23839	1.13277	0.88279	139.61143	150.90888	51.8689	0.34581	 	4.178193331E7	 	1.41714E-7	 	21381.95916	34.15248	 
936.48	1.0	0.0	7.82171	7.15258	-6.27637	17.30285	26.18064	1.13198	0.88341	139.92654	151.13394	51.99053	0.34569	 	4.519034427E7	 	1.30646E-7	 	21262.04024	 	 
935.0	1.0	0.0	7.8227	7.15167	-6.28828	17.28231	26.14358	1.1322	0.88324	140.1349	151.26692	52.07158	0.3456	 	4.685744223E7	 	1.25843E-7	 	21192.79029	37.83377	 
930.0	1.0	0.0	7.82603	7.14862	-6.32818	17.21356	26.02029	1.13285	0.88273	140.83099	151.71088	52.3424	0.34529	 	5.2971557E7	 	1.10857E-7	 	20960.57851	46.44236	 
925.0	1.0	0.0	7.82934	7.14561	-6.36773	17.14552	25.89881	1.13344	0.88227	141.51799	152.14859	52.60977	0.34498	 	5.993640386E7	 	9.7568E-8	 	20730.11955	46.09179	 
920.0	1.0	0.0	7.83262	7.14261	-6.40693	17.07817	25.77909	1.13395	0.88187	142.19622	152.58025	52.87378	0.34468	 	6.787777742E7	 	8.57935E-8	 	20501.37504	45.7489	 
915.0	1.0	0.0	7.83587	7.13965	-6.44579	17.01147	25.66107	1.13439	0.88153	142.86595	153.00608	53.13456	0.34438	 	7.694118427E7	 	7.53701E-8	 	20274.30839	45.41333	 
910.0	1.0	0.0	7.8391	7.13671	-6.48432	16.94542	25.54468	1.13476	0.88124	143.52746	153.42625	53.3922	0.34409	 	8.729510024E7	 	6.6151E-8	 	20048.88425	45.08483	 
905.0	1.0	0.0	7.8423	7.13379	-6.52252	16.88	25.42986	1.13507	0.881	144.18099	153.84095	53.6468	0.3438	 	9.913480659E7	 	5.80044E-8	 	19825.06789	44.76327	 
900.0	1.0	0.0	7.84548	7.1309	-6.56041	16.81518	25.31656	1.13531	0.88082	144.82679	154.25034	53.89845	0.34352	 	1.126868881E8	 	5.08121E-8	 	19602.82621	44.44834	 
895.0	1.0	0.0	7.84864	7.12803	-6.59798	16.75096	25.20472	1.13549	0.88068	145.46511	154.65459	54.14724	0.34324	 	1.282145482E8	 	4.4468E-8	 	19382.12701	44.13984	 
890.0	1.0	0.0	7.85177	7.12519	-6.63524	16.68731	25.09429	1.1356	0.88059	146.09615	155.05385	54.39326	0.34296	 	1.460238512E8	 	3.88775E-8	 	19162.9393	43.83754	 
885.0	1.0	0.0	7.85488	7.12237	-6.67221	16.62422	24.98522	1.13566	0.88055	146.72015	155.44824	54.63659	0.34269	 	1.664710994E8	 	3.39557E-8	 	18945.23245	43.54137	 
880.0	1.0	0.0	7.85797	7.11957	-6.70888	16.56168	24.87746	1.13565	0.88055	147.33729	155.83792	54.8773	0.34242	 	1.899715434E8	 	2.96267E-8	 	18728.97738	43.25101	 
875.0	1.0	0.0	7.86104	7.11679	-6.74526	16.49967	24.77096	1.13559	0.8806	147.94778	156.22301	55.11548	0.34216	 	2.170097199E8	 	2.5823E-8	 	18514.14516	42.96644	 
870.0	1.0	0.0	7.86408	7.11404	-6.78136	16.43817	24.66567	1.13547	0.88069	148.55181	156.60362	55.35119	0.3419	 	2.481516003E8	 	2.2484E-8	 	18300.70848	42.68734	 
865.0	1.0	0.0	7.8671	7.11131	-6.81718	16.37718	24.56156	1.1353	0.88083	149.14956	156.97987	55.58451	0.34165	 	2.840591122E8	 	1.95559E-8	 	18088.64064	42.41357	 
860.0	1.0	0.0	7.87011	7.10859	-6.85273	16.31667	24.45858	1.13507	0.881	149.7412	157.35187	55.81549	0.34139	 	3.255072902E8	 	1.69908E-8	 	17877.91561	42.14501	 
855.0	1.0	0.0	7.87309	7.1059	-6.88801	16.25664	24.35669	1.13479	0.88122	150.32689	157.71973	56.04421	0.34115	 	3.734047302E8	 	1.4746E-8	 	17668.50823	41.88148	 
850.0	1.0	0.0	7.87605	7.10323	-6.92303	16.19707	24.25585	1.13446	0.88148	150.9068	158.08354	56.27072	0.3409	 	4.288178872E8	 	1.27836E-8	 	17460.39343	41.62296	 
845.0	1.0	0.0	7.87833	7.10117	-6.94995	16.17356	24.17771	1.13305	0.88257	151.33444	158.3737	56.43686	0.34074	 	4.888439606E8	 	1.11639E-8	 	17298.29643	32.4194	 
840.0	1.0	0.0	7.8806	7.09912	-6.9768	16.15003	24.09957	1.13165	0.88367	151.76137	158.66257	56.60276	0.34058	 	5.579287662E8	 	9.73782E-9	 	17133.1571	33.02786	 
835.0	1.0	0.0	7.88287	7.09708	-7.0036	16.12648	24.02141	1.13023	0.88478	152.18757	158.95014	56.76843	0.34042	 	6.375368767E8	 	8.4836E-9	 	16968.28566	32.97429	 
830.0	1.0	0.0	7.88514	7.09504	-7.03034	16.10292	23.94325	1.1288	0.8859	152.61304	159.23644	56.93387	0.34027	 	7.293852367E8	 	7.38183E-9	 	16803.6815	32.92083	 
825.0	1.0	0.0	7.8874	7.093	-7.05702	16.07934	23.86509	1.12737	0.88702	153.03779	159.52145	57.09908	0.34011	 	8.35489316E8	 	6.41516E-9	 	16639.34403	32.86749	 
820.0	1.0	0.0	7.88966	7.09097	-7.08364	16.05575	23.78691	1.12592	0.88816	153.46182	159.80518	57.26405	0.33995	 	9.582181888E8	 	5.56804E-9	 	16475.27266	32.81428	 
815.0	1.0	0.0	7.89192	7.08894	-7.1102	16.03214	23.70873	1.12447	0.88931	153.88512	160.08765	57.42879	0.33979	 	1.100360357E9	 	4.82659E-9	 	16311.46677	32.76118	 
810.0	1.0	0.0	7.89417	7.08692	-7.1367	16.00852	23.63054	1.123	0.89047	154.30769	160.36884	57.59329	0.33963	 	1.265202531E9	 	4.17845E-9	 	16147.92573	32.70821	 
805.0	1.0	0.0	7.89642	7.0849	-7.16314	15.98488	23.55234	1.12153	0.89164	154.72955	160.64877	57.75757	0.33947	 	1.456624047E9	 	3.61259E-9	 	15984.64894	32.65536	 
800.0	1.0	0.0	7.89866	7.08289	-7.18952	15.96122	23.47414	1.12005	0.89282	155.15068	160.92743	57.9216	0.33932	 	1.679210206E9	 	3.11919E-9	 	15821.63575	32.60264	 
795.0	1.0	0.0	7.90091	7.08088	-7.21584	15.93755	23.39592	1.11856	0.89401	155.57108	161.20484	58.08541	0.33916	 	1.938388517E9	 	2.68954E-9	 	15658.88551	32.55005	 
790.0	1.0	0.0	7.90314	7.07888	-7.2421	15.91387	23.3177	1.11706	0.89521	155.99076	161.481	58.24898	0.339	 	2.240592729E9	 	2.31589E-9	 	15496.39757	32.49759	 
785.0	1.0	0.0	7.90537	7.07688	-7.26829	15.89017	23.23947	1.11554	0.89642	156.40972	161.75591	58.41232	0.33884	 	2.593460625E9	 	1.99138E-9	 	15334.17125	32.44526	 
780.0	1.0	0.0	7.9076	7.07488	-7.29443	15.86645	23.16123	1.11402	0.89765	156.82795	162.02957	58.57543	0.33868	 	3.006072892E9	 	1.70993E-9	 	15172.20588	32.39307	 
775.0	1.0	0.0	7.90983	7.07289	-7.32051	15.84272	23.08299	1.11249	0.89888	157.24546	162.302	58.7383	0.33853	 	3.489242059E9	 	1.46615E-9	 	15010.50076	32.34102	 
770.0	1.0	0.0	7.91205	7.07091	-7.34652	15.81897	23.00473	1.11095	0.90013	157.66225	162.57318	58.90094	0.33837	 	4.055862562E9	 	1.25531E-9	 	14849.05518	32.28912	 
765.0	1.0	0.0	7.91427	7.06893	-7.37248	15.79521	22.92647	1.1094	0.90139	158.07831	162.84314	59.06334	0.33821	 	4.721335544E9	 	1.0732E-9	 	14687.86842	32.23735	 
760.0	1.0	0.0	7.91648	7.06695	-7.39837	15.77143	22.84819	1.10784	0.90266	158.49365	163.11186	59.22551	0.33805	 	5.504085212E9	 	9.16147E-10	 	14526.93975	32.18573	 
755.0	1.0	0.0	7.91869	7.06498	-7.42421	15.74763	22.76991	1.10627	0.90394	158.90827	163.37936	59.38745	0.33789	 	6.426187509E9	 	7.8089E-10	 	14366.2684	32.13427	 
750.0	1.0	0.0	7.92089	7.06301	-7.44998	15.72383	22.69161	1.10469	0.90523	159.32217	163.64564	59.54915	0.33774	 	7.514136854E9	 	6.64579E-10	 	14205.8536	32.08296	 
745.0	1.0	0.0	7.92309	7.06105	-7.47569	15.7	22.61331	1.1031	0.90654	159.73534	163.91071	59.71062	0.33758	 	8.799782861E9	 	5.64711E-10	 	14045.69456	32.03181	 
740.0	1.0	0.0	7.92529	7.05909	-7.50134	15.67616	22.535	1.10149	0.90786	160.14779	164.17455	59.87186	0.33742	 	1.03215E10	 	4.79092E-10	 	13885.79048	31.98082	 
735.0	1.0	0.0	7.92749	7.05714	-7.52693	15.6523	22.45668	1.09988	0.90919	160.55952	164.43719	60.03286	0.33726	 	1.2125499999999998E10	 	4.05801E-10	 	13726.1405	31.93	 
730.0	1.0	0.0	7.92967	7.05519	-7.55246	15.62843	22.37834	1.09826	0.91053	160.97052	164.69863	60.19363	0.33711	 	1.4267699999999998E10	 	3.43162E-10	 	13566.74379	31.87934	 
725.0	1.0	0.0	7.93186	7.05325	-7.57793	15.60454	22.3	1.09662	0.91189	161.38081	164.95886	60.35416	0.33695	 	1.6815699999999998E10	 	2.89712E-10	 	13407.59943	31.82887	 
720.0	1.0	0.0	7.93404	7.05131	-7.60334	15.58064	22.22165	1.09498	0.91326	161.79037	165.21789	60.51446	0.33679	 	1.98516E10	 	2.44177E-10	 	13248.70655	31.77858	 
715.0	1.0	0.0	7.93622	7.04938	-7.62868	15.55672	22.14328	1.09332	0.91465	162.19921	165.47573	60.67453	0.33663	 	2.3474999999999996E10	 	2.05449E-10	 	13090.06419	31.72847	 
710.0	1.0	0.0	7.93839	7.04745	-7.65397	15.53279	22.0649	1.09165	0.91604	162.60732	165.73238	60.83436	0.33648	 	2.7807199999999996E10	 	1.72564E-10	 	12931.67139	31.67856	 
705.0	1.0	0.0	7.94056	7.04552	-7.67919	15.50884	21.98652	1.08997	0.91746	163.01472	165.98785	60.99396	0.33632	 	3.2995899999999996E10	 	1.44688E-10	 	12773.52716	31.62885	 
700.0	1.0	0.0	7.94272	7.0436	-7.70435	15.48488	21.90812	1.08828	0.91888	163.42139	166.24212	61.15332	0.33616	 	3.92217E10	 	1.21099E-10	 	12615.63044	31.57934	 
695.0	1.0	0.0	7.94488	7.04169	-7.72945	15.4609	21.82971	1.08658	0.92032	163.82734	166.49522	61.31245	0.336	 	4.670549999999999E10	 	1.01172E-10	 	12457.98017	31.53005	 
690.0	1.0	0.0	7.94704	7.03978	-7.75449	15.4369	21.75128	1.08486	0.92177	164.23257	166.74715	61.47134	0.33585	 	5.571819999999999E10	 	8.43692E-11	 	12300.57524	31.48099	 
685.0	1.0	0.0	7.94919	7.03787	-7.77946	15.41289	21.67285	1.08314	0.92324	164.63708	166.9979	61.63	0.33569	 	6.659249999999999E10	 	7.02255E-11	 	12143.41449	31.43215	 
680.0	1.0	0.0	7.95134	7.03597	-7.80438	15.38886	21.5944	1.0814	0.92473	165.04087	167.24749	61.78842	0.33553	 	7.97382E10	 	5.8342E-11	 	11986.49674	31.38355	 
675.0	1.0	0.0	7.95349	7.03407	-7.82923	15.36482	21.51594	1.07965	0.92623	165.44393	167.4959	61.94661	0.33538	 	9.566059999999998E10	 	4.83761E-11	 	11829.82072	31.3352	 
670.0	1.0	0.0	7.95563	7.03218	-7.85402	15.34076	21.43747	1.07789	0.92774	165.84628	167.74316	62.10457	0.33522	 	1.14984E11	 	4.00341E-11	 	11673.38514	31.28712	 
665.0	1.0	0.0	7.95776	7.03029	-7.87875	15.31669	21.35898	1.07611	0.92927	166.2479	167.98926	62.26229	0.33506	 	1.38482E11	 	3.30647E-11	 	11517.18865	31.2393	 
660.0	1.0	0.0	7.95989	7.02841	-7.90342	15.2926	21.28048	1.07433	0.93082	166.6488	168.23421	62.41977	0.3349	 	1.67115E11	 	2.72535E-11	 	11361.23259	31.19121	 
655.0	1.0	0.0	7.96202	7.02653	-7.92802	15.2685	21.20197	1.07253	0.93238	167.04899	168.47801	62.57702	0.33475	 	2.02077E11	 	2.24175E-11	 	11205.53216	31.14009	 
650.0	1.0	0.0	7.96414	7.02466	-7.95256	15.24438	21.12344	1.07071	0.93396	167.44845	168.72065	62.73404	0.33459	 	2.44857E11	 	1.84012E-11	 	11050.10756	31.08492	 
645.0	1.0	0.0	7.96626	7.02279	-7.97704	15.22024	21.0449	1.06889	0.93555	167.84719	168.96216	62.89082	0.33443	 	2.97314E11	 	1.50725E-11	 	10894.95811	31.02989	 
640.0	1.0	0.0	7.96838	7.02093	-8.00146	15.19609	20.96634	1.06705	0.93716	168.24521	169.20253	63.04736	0.33428	 	3.61778E11	 	1.23193E-11	 	10740.08313	30.975	 
635.0	1.0	0.0	7.97049	7.01907	-8.02582	15.17192	20.88777	1.0652	0.93879	168.64251	169.44176	63.20367	0.33412	 	4.41171E11	 	1.0047E-11	 	10585.48193	30.92024	 
630.0	1.0	0.0	7.97259	7.01721	-8.05011	15.14774	20.80919	1.06334	0.94044	169.03908	169.67985	63.35975	0.33396	 	5.3917E11	 	8.17563E-12	 	10431.15384	30.86562	 
625.0	1.0	0.0	7.97469	7.01537	-8.07434	15.12355	20.73059	1.06146	0.9421	169.43494	169.91682	63.51559	0.33381	 	6.60411E11	 	6.63776E-12	 	10277.09793	30.81118	 
620.0	1.0	0.0	7.97679	7.01352	-8.09851	15.09933	20.65197	1.05957	0.94378	169.83008	170.15266	63.67119	0.33365	 	8.10755E11	 	5.37677E-12	 	10123.31287	30.75701	 
615.0	1.0	0.0	7.97888	7.01168	-8.12262	15.0751	20.57334	1.05766	0.94548	170.2245	170.38738	63.82656	0.33349	 	9.97626E11	 	4.34516E-12	 	9969.79832	30.70291	 
610.0	1.0	0.0	7.98097	7.00985	-8.14666	15.05086	20.49469	1.05575	0.9472	170.6182	170.62098	63.98169	0.33334	 	1.23045E12	 	3.50312E-12	 	9816.55363	30.64894	 
605.0	1.0	0.0	7.98306	7.00802	-8.17064	15.0266	20.41602	1.05381	0.94893	171.01117	170.85347	64.13659	0.33318	 	1.52125E12	 	2.81744E-12	 	9663.57812	30.5951	 
600.0	1.0	0.0	7.98514	7.00619	-8.19456	15.00233	20.33734	1.05187	0.95069	171.40343	171.08484	64.29125	0.33302	 	1.88535E12	 	2.26039E-12	 	9510.87114	30.5414	 
595.0	1.0	0.0	7.98721	7.00437	-8.21842	14.97804	20.25864	1.04991	0.95247	171.79497	171.3151	64.44568	0.33287	 	2.34237E12	 	1.80895E-12	 	9358.43204	30.48782	 
590.0	1.0	0.0	7.98928	7.00255	-8.24221	14.95373	20.17992	1.04793	0.95426	172.18579	171.54426	64.59987	0.33271	 	2.91751E12	 	1.44398E-12	 	9206.26014	30.43438	 
585.0	1.0	0.0	7.99135	7.00074	-8.26594	14.92941	20.10119	1.04594	0.95608	172.57588	171.77231	64.75382	0.33255	 	3.64317E12	 	1.14966E-12	 	9054.35482	30.38107	 
580.0	1.0	0.0	7.99341	6.99894	-8.2896	14.90507	20.02243	1.04394	0.95791	172.96526	171.99927	64.90754	0.3324	 	4.56118E12	 	9.12924E-13	 	8902.71541	30.32788	 
575.0	1.0	0.0	7.99547	6.99714	-8.31321	14.88072	19.94366	1.04192	0.95977	173.35392	172.22513	65.06102	0.33224	 	5.72567E12	 	7.22991E-13	 	8751.34125	30.27483	 
570.0	1.0	0.0	7.99752	6.99534	-8.33675	14.85635	19.86487	1.03988	0.96164	173.74186	172.4499	65.21427	0.33208	 	7.20686E12	 	5.71012E-13	 	8600.23172	30.22191	 
565.0	1.0	0.0	7.99957	6.99355	-8.36023	14.83197	19.78606	1.03784	0.96354	174.12908	172.67358	65.36728	0.33193	 	9.09617E12	 	4.49728E-13	 	8449.38616	30.16911	 
560.0	1.0	0.0	8.00162	6.99176	-8.38364	14.80757	19.70723	1.03577	0.96546	174.51558	172.89618	65.52005	0.33177	 	1.15129E13	 	3.53204E-13	 	8298.80392	30.11645	 
555.0	1.0	0.0	8.00366	6.98998	-8.40699	14.78316	19.62837	1.03369	0.96741	174.90136	173.11769	65.67259	0.33162	 	1.46132E13	 	2.76599E-13	 	8148.48438	30.06391	 
550.0	1.0	0.0	8.00569	6.9882	-8.43028	14.75873	19.5495	1.0316	0.96937	175.28642	173.33812	65.82489	0.33146	 	1.86022E13	 	2.15974E-13	 	7998.42688	30.0115	 
545.0	1.0	0.0	8.00772	6.98643	-8.4535	14.73428	19.47061	1.02948	0.97136	175.67077	173.55748	65.97696	0.3313	 	2.37501E13	 	1.68133E-13	 	7848.6308	29.95922	 
540.0	1.0	0.0	8.00975	6.98466	-8.47666	14.70982	19.39169	1.02736	0.97337	176.05439	173.77576	66.12879	0.33115	 	3.04138E13	 	1.30493E-13	 	7699.09552	29.90706	 
535.0	1.0	0.0	8.01177	6.9829	-8.49976	14.68534	19.31276	1.02521	0.97541	176.4373	173.99298	66.28038	0.33099	 	3.90666E13	 	1.00965E-13	 	7549.82039	29.85503	 
530.0	1.0	0.0	8.01379	6.98114	-8.52279	14.66085	19.2338	1.02305	0.97747	176.81948	174.20912	66.43173	0.33084	 	5.03378E13	 	7.78734E-14	 	7400.80479	29.80312	 
525.0	1.0	0.0	8.0158	6.97939	-8.54576	14.63634	19.15482	1.02088	0.97955	177.20095	174.42421	66.58285	0.33068	 	6.50671E13	 	5.987E-14	 	7252.0481	29.75134	 
520.0	1.0	0.0	8.01781	6.97764	-8.56867	14.61182	19.07581	1.01868	0.98166	177.5817	174.63823	66.73373	0.33052	 	8.43791E13	 	4.58783E-14	 	7103.54969	29.69968	 
515.0	1.0	0.0	8.01981	6.9759	-8.59151	14.58728	18.99678	1.01647	0.9838	177.96173	174.8512	66.88438	0.33037	 	1.09784E14	 	3.50393E-14	 	6955.30896	29.64815	 
510.0	1.0	0.0	8.02181	6.97416	-8.61429	14.56273	18.91773	1.01424	0.98596	178.34104	175.06312	67.03479	0.33021	 	1.43319E14	 	2.66703E-14	 	6807.32529	29.59673	 
505.0	1.0	0.0	8.02381	6.97243	-8.637	14.53816	18.83865	1.012	0.98814	178.71963	175.27398	67.18496	0.33006	 	1.8774E14	 	2.02299E-14	 	6659.59808	29.54544	 
500.0	1.0	0.0	8.02579	6.9707	-8.65965	14.51357	18.75955	1.00974	0.99036	179.0975	175.4838	67.33489	0.3299	 	2.46789E14	 	1.52906E-14	 	6512.12669	29.49428	 
495.0	1.0	0.0	8.02778	6.96897	-8.68224	14.48897	18.68042	1.00745	0.9926	179.47466	175.69257	67.48459	0.32975	 	3.25567E14	 	1.15157E-14	 	6364.91056	29.44323	 
490.0	1.0	0.0	8.02976	6.96725	-8.70476	14.46436	18.60126	1.00516	0.99487	179.85109	175.9003	67.63405	0.32959	 	4.31055E14	 	8.641E-15	 	6217.94906	29.3923	 
485.0	1.0	0.0	8.03174	6.96554	-8.72722	14.43973	18.52208	1.00284	0.99717	180.22681	176.10699	67.78327	0.32943	 	5.72838E14	 	6.45966E-15	 	6071.24161	29.34149	 
480.0	1.0	0.0	8.03371	6.96383	-8.74961	14.41508	18.44287	1.0005	0.9995	180.60181	176.31265	67.93225	0.32928	 	7.64137E14	 	4.81057E-15	 	5924.78762	29.2908	 
475.0	1.0	0.0	8.03567	6.96213	-8.77194	14.39042	18.36363	0.99815	1.00185	180.97609	176.51727	68.081	0.32912	 	1.02325E15	 	3.56855E-15	 	5778.58649	29.24023	 
470.0	1.0	0.0	8.03764	6.96043	-8.79421	14.36574	18.28436	0.99578	1.00424	181.34966	176.72086	68.22951	0.32897	 	1.37563E15	 	2.63671E-15	 	5632.63765	29.18977	 
465.0	1.0	0.0	8.03959	6.95873	-8.81641	14.34104	18.20506	0.99339	1.00666	181.7225	176.92343	68.37778	0.32881	 	1.85678E15	 	1.94031E-15	 	5486.94051	29.13943	 
460.0	1.0	0.0	8.04154	6.95704	-8.83854	14.31634	18.12573	0.99098	1.00911	182.09463	177.12498	68.52582	0.32866	 	2.5165E15	 	1.42195E-15	 	5341.49451	29.0892	 
455.0	1.0	0.0	8.04349	6.95536	-8.86062	14.29161	18.04637	0.98855	1.01159	182.46604	177.3255	68.67361	0.3285	 	3.42489E15	 	1.03768E-15	 	5196.29907	29.03909	 
450.0	1.0	0.0	8.04543	6.95368	-8.88262	14.26687	17.96698	0.9861	1.0141	182.83673	177.52501	68.82117	0.32835	 	4.68108E15	 	7.53996E-16	 	5051.35364	28.98909	 
445.0	1.0	0.0	8.04737	6.95201	-8.90457	14.24212	17.88756	0.98363	1.01665	183.20671	177.72351	68.9685	0.32819	 	6.42593E15	 	5.45464E-16	 	4906.65764	28.9392	 
440.0	1.0	0.0	8.04931	6.95034	-8.92644	14.21734	17.80811	0.98114	1.01923	183.57596	177.92099	69.11558	0.32804	 	8.86044E15	 	3.92837E-16	 	4762.21052	28.88942	 
435.0	1.0	0.0	8.05123	6.94867	-8.94826	14.19256	17.72862	0.97863	1.02184	183.9445	178.11746	69.26242	0.32788	 	1.22728E16	 	2.81622E-16	 	4618.01175	28.83975	 
430.0	1.0	0.0	8.05316	6.94701	-8.97	14.16776	17.64909	0.97609	1.02449	184.31232	178.31293	69.40903	0.32773	 	1.7078400000000002E16	 	2.0095E-16	 	4474.06078	28.7902	 
425.0	1.0	0.0	8.05508	6.94536	-8.99169	14.14294	17.56953	0.97354	1.02718	184.67942	178.5074	69.5554	0.32757	 	2.38783E16	 	1.42703E-16	 	4330.3571	28.74074	 
420.0	1.0	0.0	8.05699	6.94371	-9.01331	14.11811	17.48994	0.97097	1.0299	185.04581	178.70086	69.70153	0.32742	 	3.3547500000000004E16	 	1.00845E-16	 	4186.90013	28.69139	 
415.0	1.0	0.0	8.0589	6.94206	-9.03486	14.09326	17.41031	0.96837	1.03266	185.41147	178.89333	69.84742	0.32726	 	4.73656E16	 	7.09099E-17	 	4043.6895	28.64213	 
410.0	1.0	0.0	8.0608	6.94042	-9.05635	14.06839	17.33064	0.96576	1.03546	185.77642	179.08481	69.99308	0.32711	 	6.7213800000000008E16	 	4.96072E-17	 	3900.72492	28.59292	 
405.0	1.0	0.0	8.0627	6.93879	-9.07777	14.04351	17.25093	0.96312	1.03829	186.14066	179.27529	70.13849	0.32695	 	9.58728E16	 	3.45237E-17	 	3758.00611	28.54376	 
400.0	1.0	0.0	8.0646	6.93716	-9.09913	14.01862	17.17118	0.96046	1.04117	186.50417	179.46479	70.28367	0.3268	 	1.37475E17	 	2.38987E-17	 	3615.53281	28.49466	 
395.0	1.0	0.0	8.06649	6.93553	-9.12042	13.99371	17.09139	0.95777	1.04409	186.86697	179.6533	70.42861	0.32664	 	1.98196E17	 	1.64538E-17	 	3473.30474	28.44561	 
390.0	1.0	0.0	8.06837	6.93391	-9.14165	13.96878	17.01156	0.95507	1.04705	187.22905	179.84083	70.57331	0.32649	 	2.87317E17	 	1.12652E-17	 	3331.32164	28.39662	 
385.0	1.0	0.0	8.07025	6.9323	-9.16281	13.94384	16.93169	0.95234	1.05005	187.59041	180.02738	70.71777	0.32633	 	4.18868E17	 	7.66892E-18	 	3189.58325	28.34768	 
380.0	1.0	0.0	8.07212	6.93069	-9.1839	13.91888	16.85177	0.94958	1.05309	187.95106	180.21295	70.86199	0.32618	 	6.14188E17	 	5.19037E-18	 	3048.08934	28.29878	 
375.0	1.0	0.0	8.07399	6.92908	-9.20493	13.89391	16.77181	0.94681	1.05618	188.31099	180.39755	71.00597	0.32602	 	9.05918E17	 	3.49199E-18	 	2906.83965	28.24994	 
370.0	1.0	0.0	8.07586	6.92748	-9.2259	13.86892	16.69181	0.94401	1.05931	188.6702	180.58117	71.14971	0.32587	 	1.34432E18	 	2.33506E-18	 	2765.83399	28.20113	 
365.0	1.0	0.0	8.07772	6.92589	-9.2468	13.84392	16.61175	0.94118	1.06249	189.02869	180.76383	71.29322	0.32571	 	2.00724E18	 	1.55171E-18	 	2625.07211	28.15238	 
360.0	1.0	0.0	8.07957	6.9243	-9.26763	13.8189	16.53165	0.93833	1.06572	189.38647	180.94552	71.43648	0.32556	 	3.01612E18	 	1.02458E-18	 	2484.55381	28.10366	 
355.0	1.0	0.0	8.08142	6.92271	-9.2884	13.79386	16.4515	0.93546	1.069	189.74353	181.12625	71.57951	0.3254	 	4.56154E18	 	6.72107E-19	 	2344.27888	28.05498	 
350.0	1.0	0.0	8.08327	6.92113	-9.3091	13.76881	16.3713	0.93256	1.07232	190.09988	181.30601	71.7223	0.32525	 	6.94478E18	 	4.37947E-19	 	2204.24716	28.00634	 
345.0	1.0	0.0	8.08511	6.91956	-9.32974	13.74375	16.29105	0.92963	1.0757	190.4555	181.48482	71.86484	0.3251	 	1.06453E19	 	2.83415E-19	 	2064.45844	27.95774	 
340.0	1.0	0.0	8.08694	6.91799	-9.35031	13.71867	16.21075	0.92668	1.07912	190.81041	181.66268	72.00715	0.32494	 	1.64317E19	 	1.82125E-19	 	1924.91257	27.90917	 
335.0	1.0	0.0	8.08877	6.91642	-9.37081	13.69357	16.13039	0.9237	1.0826	191.16461	181.83958	72.14922	0.32479	 	2.55451E19	 	1.16195E-19	 	1785.60938	27.86064	 
330.0	1.0	0.0	8.0906	6.91486	-9.39125	13.66846	16.04997	0.9207	1.08613	191.51808	182.01553	72.29105	0.32463	 	4.00047E19	 	7.35871E-20	 	1646.54875	27.81213	 
325.0	1.0	0.0	8.09242	6.91331	-9.41162	13.64333	15.9695	0.91767	1.08972	191.87084	182.19054	72.43264	0.32448	 	6.31204E19	 	4.62517E-20	 	1507.73053	27.76364	 
320.0	1.0	0.0	8.09423	6.91176	-9.43192	13.61819	15.88897	0.91461	1.09337	192.22289	182.3646	72.57398	0.32432	 	1.00362E20	 	2.88459E-20	 	1369.15459	27.71519	 
315.0	1.0	0.0	8.09604	6.91022	-9.45216	13.59303	15.80838	0.91152	1.09707	192.57421	182.53772	72.71509	0.32417	 	1.60838E20	 	1.78478E-20	 	1230.82084	27.66675	 
310.0	1.0	0.0	8.09784	6.90868	-9.47234	13.56785	15.72773	0.90841	1.10083	192.92482	182.7099	72.85596	0.32402	 	2.5985099999999997E20	 	1.09532E-20	 	1092.7292	27.61833	 
305.0	1.0	0.0	8.09964	6.90714	-9.49244	13.54267	15.64701	0.90526	1.10465	193.27472	182.88115	72.99659	0.32386	 	4.2331399999999993E20	 	6.66599E-21	 	954.87957	27.56993	 
300.0	1.0	0.0	8.10144	6.90561	-9.51248	13.51746	15.56623	0.90209	1.10853	193.62389	183.05146	73.13698	0.32371	 	6.955029999999999E20	 	4.02213E-21	 	817.2719	27.52153	 
295.0	1.0	0.0	8.10323	6.90409	-9.53246	13.49224	15.48539	0.89889	1.11248	193.97236	183.22083	73.27713	0.32355	 	1.15274E21	 	2.40558E-21	 	679.90615	27.47315	 
290.0	1.0	0.0	8.10501	6.90257	-9.55236	13.467	15.40447	0.89566	1.11649	194.3201	183.38929	73.41703	0.3234	 	1.9277800000000001E21	 	1.42578E-21	 	542.78228	27.42477	 
285.0	1.0	0.0	8.10679	6.90105	-9.5722	13.44175	15.32348	0.8924	1.12057	194.66713	183.55681	73.5567	0.32325	 	3.25377E21	 	8.37241E-22	 	405.90028	27.3764	 
280.0	1.0	0.0	8.10856	6.89955	-9.59198	13.41648	15.24242	0.88911	1.12472	195.01344	183.72341	73.69613	0.32309	 	5.54403E21	 	4.86972E-22	 	269.26016	27.32802	 
275.0	1.0	0.0	8.11033	6.89804	-9.61168	13.3912	15.16129	0.88579	1.12894	195.35904	183.88909	73.83532	0.32294	 	9.53864E21	 	2.80478E-22	 	132.86195	27.27964	 
270.0	1.0	0.0	8.11209	6.89654	-9.63132	13.3659	15.08008	0.88243	1.13323	195.70391	184.05385	73.97426	0.32278	 	1.6576299999999998E22	 	1.59926E-22	 	-3.29431	27.23125	 
265.0	1.0	0.0	8.11385	6.89505	-9.65089	13.34059	14.99879	0.87905	1.13759	196.04808	184.2177	74.11297	0.32263	 	2.91035E22	 	9.02494E-23	 	-139.20855	27.18285	 
260.0	1.0	0.0	8.1156	6.89356	-9.6704	13.31526	14.91742	0.87563	1.14203	196.39152	184.38063	74.25143	0.32248	 	5.16405E22	 	5.03901E-23	 	-274.88067	27.13442	 
255.0	1.0	0.0	8.11735	6.89208	-9.68984	13.28992	14.83596	0.87218	1.14655	196.73426	184.54265	74.38965	0.32232	 	9.262979999999999E22	 	2.78287E-23	 	-410.31058	27.08598	 
250.0	1.0	0.0	8.11909	6.8906	-9.70921	13.26455	14.75442	0.8687	1.15114	197.07627	184.70377	74.52764	0.32217	 	1.6802E23	 	1.51968E-23	 	-545.49813	27.03751	 
245.0	1.0	0.0	8.12082	6.88913	-9.72851	13.23918	14.6728	0.86518	1.15582	197.41757	184.86398	74.66538	0.32202	 	3.0829199999999996E23	 	8.20312E-24	 	-680.44316	26.98901	 
240.0	1.0	0.0	8.12256	6.88766	-9.74775	13.21379	14.59108	0.86163	1.16058	197.75815	185.02328	74.80288	0.32186	 	5.7240299999999993E23	 	4.37552E-24	 	-815.14549	26.94047	 
235.0	1.0	0.0	8.12428	6.88619	-9.76692	13.18838	14.50926	0.85805	1.16543	198.09802	185.18168	74.94014	0.32171	 	1.07579E24	 	2.30542E-24	 	-949.6049	26.89188	 
230.0	1.0	0.0	8.126	6.88474	-9.78602	13.16296	14.42735	0.85443	1.17037	198.43717	185.33919	75.07715	0.32155	 	2.0474E24	 	1.19945E-24	 	-1083.82114	26.84325	 
225.0	1.0	0.0	8.12772	6.88328	-9.80506	13.13752	14.34534	0.85078	1.1754	198.77561	185.4958	75.21393	0.3214	 	3.94717E24	 	6.15972E-25	 	-1217.79394	26.79456	 
220.0	1.0	0.0	8.12943	6.88184	-9.82403	13.11207	14.26323	0.84709	1.18052	199.11332	185.65152	75.35047	0.32125	 	7.71171E24	 	3.12115E-25	 	-1351.523	26.74581	 
215.0	1.0	0.0	8.13113	6.88039	-9.84293	13.0866	14.18101	0.84336	1.18574	199.45033	185.80634	75.48676	0.32109	 	1.52747E25	 	1.55979E-25	 	-1485.00797	26.69699	 
210.0	1.0	0.0	8.13283	6.87896	-9.86176	13.06111	14.09868	0.83959	1.19105	199.78662	185.96028	75.62281	0.32094	 	3.0686000000000002E25	 	7.68473E-26	 	-1618.24848	26.6481	 
205.0	1.0	0.0	8.13452	6.87753	-9.88052	13.03561	14.01624	0.83579	1.19647	200.12219	186.11333	75.75862	0.32079	 	6.25522E25	 	3.73085E-26	 	-1751.24411	26.59913	 
200.0	1.0	0.0	8.13621	6.8761	-9.89922	13.0101	13.93369	0.83195	1.20199	200.45704	186.2655	75.89419	0.32064	 	1.2944400000000002E26	 	1.78403E-26	 	-1883.99442	26.55006	 
195.0	1.0	0.0	8.13789	6.87468	-9.91785	12.98457	13.85101	0.82808	1.20762	200.79118	186.41678	76.02951	0.32048	 	2.72063E26	 	8.39852E-27	 	-2016.4989	26.5009	 
190.0	1.0	0.0	8.13957	6.87326	-9.93641	12.95902	13.76821	0.82416	1.21336	201.12461	186.56719	76.1646	0.32033	 	5.81059E26	 	3.89034E-27	 	-2148.75704	26.45163	 
185.0	1.0	0.0	8.14124	6.87185	-9.9549	12.93346	13.68528	0.8202	1.21921	201.45732	186.71672	76.29944	0.32018	 	1.26173E27	 	1.77227E-27	 	-2280.76822	26.40224	 
180.0	1.0	0.0	8.14291	6.87044	-9.97333	12.90788	13.60221	0.8162	1.22518	201.78931	186.86538	76.43404	0.32002	 	2.78703E27	 	7.93575E-28	 	-2412.53182	26.35272	 
175.0	1.0	0.0	8.14457	6.86904	-9.99169	12.88229	13.51901	0.81217	1.23128	202.12059	187.01316	76.5684	0.31987	 	6.26609E27	 	3.49071E-28	 	-2544.04717	26.30307	 
170.0	1.0	0.0	8.14622	6.86765	-10.00998	12.85668	13.43567	0.80809	1.23749	202.45115	187.16008	76.70251	0.31972	 	1.4348E28	 	1.50746E-28	 	-2675.31353	26.25327	 
165.0	1.0	0.0	8.14787	6.86626	-10.0282	12.83106	13.35219	0.80396	1.24384	202.781	187.30612	76.83639	0.31956	 	3.34811E28	 	6.38719E-29	 	-2806.33009	26.20331	 
160.0	1.0	0.0	8.14952	6.86487	-10.04635	12.80542	13.26855	0.7998	1.25031	203.11013	187.45131	76.97002	0.31941	 	7.96715E28	 	2.65352E-29	 	-2937.09601	26.15318	 
155.0	1.0	0.0	8.15116	6.86349	-10.06444	12.77976	13.18475	0.79559	1.25693	203.43855	187.59563	77.1034	0.31926	 	1.93464E29	 	1.08015E-29	 	-3067.61037	26.10287	 
150.0	1.0	0.0	8.15279	6.86211	-10.08245	12.75409	13.10079	0.79134	1.26368	203.76625	187.73909	77.23655	0.31911	 	4.7973600000000004E29	 	4.30506E-30	 	-3197.87217	26.05236	 
145.0	1.0	0.0	8.15442	6.86075	-10.1004	12.72841	13.01666	0.78704	1.27058	204.09324	187.88169	77.36945	0.31895	 	1.21573E30	 	1.67873E-30	 	-3327.88037	26.00164	 
140.0	1.0	0.0	8.15604	6.85938	-10.11828	12.7027	12.93236	0.7827	1.27763	204.41951	188.02344	77.50211	0.3188	 	3.15098E30	 	6.39954E-31	 	-3457.63383	25.95069	 
135.0	1.0	0.0	8.15766	6.85802	-10.13609	12.67699	12.84787	0.77831	1.28483	204.74506	188.16433	77.63453	0.31865	 	8.35966E30	 	2.38296E-31	 	-3587.13133	25.8995	 
130.0	1.0	0.0	8.15927	6.85667	-10.15383	12.65126	12.7632	0.77388	1.29219	205.0699	188.30438	77.7667	0.31849	 	2.27218E31	 	8.65986E-32	 	-3716.37156	25.84805	 
125.0	1.0	0.0	8.16087	6.85532	-10.17151	12.62551	12.67833	0.7694	1.29972	205.39403	188.44357	77.89863	0.31834	 	6.3329E31	 	3.06853E-32	 	-3845.35314	25.79632	 
120.0	1.0	0.0	8.16247	6.85398	-10.18911	12.59974	12.59326	0.76487	1.30742	205.71744	188.58192	78.03032	0.31819	 	1.8117E32	 	1.05915E-32	 	-3974.07457	25.74429	 
115.0	1.0	0.0	8.16407	6.85264	-10.20665	12.57396	12.50798	0.76029	1.31529	206.04013	188.71942	78.16176	0.31804	 	5.32513E32	 	3.55759E-33	 	-4102.53426	25.69194	 
110.0	1.0	0.0	8.16565	6.8513	-10.22411	12.54817	12.42248	0.75566	1.32335	206.36211	188.85608	78.29296	0.31788	 	1.60989E33	 	1.16161E-33	 	-4230.73052	25.63925	 
105.0	1.0	0.0	8.16724	6.84998	-10.24151	12.52236	12.33675	0.75098	1.33159	206.68337	188.9919	78.42392	0.31773	 	5.0114700000000003E33	 	3.68286E-34	 	-4358.66151	25.5862	 
100.0	1.0	0.0	8.16881	6.84865	-10.25884	12.49653	12.25078	0.74625	1.34003	207.00392	189.12689	78.55463	0.31758	 	1.60824E34	 	1.13245E-34	 	-4486.32529	25.53276	 
95.0	1.0	0.0	8.17039	6.84734	-10.2761	12.47069	12.16457	0.74147	1.34867	207.32376	189.26104	78.6851	0.31743	 	5.32714E34	 	3.37301E-35	 	-4613.71979	25.4789	 
90.0	1.0	0.0	8.17195	6.84602	-10.29329	12.44484	12.0781	0.73664	1.35752	207.64288	189.39435	78.81533	0.31727	 	1.82372E35	 	9.71883E-36	 	-4740.84278	25.4246	 
85.0	1.0	0.0	8.17351	6.84472	-10.31042	12.41897	11.99136	0.73175	1.36659	207.96128	189.52684	78.94531	0.31712	 	6.461689999999999E35	 	2.70524E-36	 	-4867.69188	25.36982	 
80.0	1.0	0.0	8.17507	6.84342	-10.32747	12.39308	11.90434	0.72681	1.37588	208.27897	189.65849	79.07505	0.31697	 	2.3729599999999997E36	 	7.26365E-37	 	-4994.26455	25.31453	 
75.0	1.0	0.0	8.17661	6.84212	-10.34445	12.36717	11.81703	0.72181	1.3854	208.59594	189.78932	79.20455	0.31682	 	9.04612E36	 	1.87841E-37	 	-5120.55809	25.25871	 
70.0	1.0	0.0	8.17816	6.84083	-10.36137	12.34126	11.72942	0.71676	1.39517	208.9122	189.91933	79.3338	0.31667	 	3.5856699999999996E37	 	4.6709E-38	 	-5246.56958	25.2023	 
65.0	1.0	0.0	8.17969	6.83954	-10.37821	12.31532	11.64148	0.71165	1.40518	209.22775	190.04851	79.4628	0.31651	 	1.48036E38	 	1.11489E-38	 	-5372.29592	25.14527	 
60.0	1.0	0.0	8.18123	6.83826	-10.39499	12.28937	11.55322	0.70648	1.41546	209.54258	190.17688	79.59157	0.31636	 	6.37743E38	 	2.54965E-39	 	-5497.73379	25.08757	 
55.0	1.0	0.0	8.18275	6.83699	-10.41169	12.26341	11.46461	0.70126	1.426	209.85669	190.30442	79.72009	0.31621	 	2.87246E39	 	5.57577E-40	 	-5622.87964	25.02917	 
50.0	1.0	0.0	8.18427	6.83572	-10.42833	12.23743	11.37563	0.69598	1.43683	210.17009	190.43115	79.84836	0.31606	 	1.35547E40	 	1.1636E-40	 	-5747.72966	24.97	 
45.0	1.0	0.0	8.18579	6.83445	-10.44489	12.21143	11.28627	0.69063	1.44795	210.48278	190.55707	79.97639	0.31591	 	6.71589E40	 	2.31215E-41	 	-5872.27976	24.91002	 
40.0	1.0	0.0	8.18729	6.8332	-10.46139	12.18542	11.19652	0.68523	1.45937	210.79475	190.68217	80.10417	0.31575	 	3.50197E41	 	4.36442E-42	 	-5996.52557	24.84916	 
35.0	1.0	0.0	8.1888	6.83194	-10.47782	12.1594	11.10634	0.67976	1.4711	211.106	190.80647	80.23171	0.3156	 	1.92662E42	 	7.80644E-43	 	-6120.46241	24.78737	 
30.0	1.0	0.0	8.19029	6.83069	-10.49417	12.13335	11.01572	0.67423	1.48316	211.41654	190.92995	80.35901	0.31545	 	1.12126E43	 	1.31959E-43	 	-6244.08522	24.72456	 
25.0	1.0	0.0	8.19178	6.82945	-10.51046	 	10.92464	0.66864	1.49557	211.72637	191.05264	80.48606	0.3153	 	6.922620000000001E43	 	2.10209E-44	 	-6367.38864	 	 
