T (C)	Fraction solid (wt)-TOTAL	Fraction liquid (wt)-LIQUID	Density (g/(cm)^3)-TOTAL	Molar volume (cm^3)-TOTAL	Volume change (%)-  	Average expansion coeff. (10e-6 1/K)-  	Thermal conductivity (W/(m*K))-TOTAL	Electrical resistivity (10e-6 Ohm*m)-TOTAL	Electrical conductivity (10e6 1/(Ohm*m))-TOTAL	Young's modulus (GPa)-TOTAL	Bulk modulus (GPa)-TOTAL	Shear modulus(GPa)-TOTAL	Poisson's ratio-TOTAL	Liquid viscosity (mPa s)-  	Total viscosity (mPa s)-  	Liquid diffusivity (10e-9 (m^2)/s)-  	Total diffusivity (10e-9 (m^2)/s)-  	Surface Tension (mN/m)-  	Enthalpy (J/mole)-TOTAL	Specific heat (J/(mole K))-TOTAL	Latent heat (J/mole)-TOTAL
1400.0	0.0	1.0	7.26288	7.83304	0.0	30.20049	28.99268	1.41388	0.70727	0.0	123.23573	0.0	0.5	6.88275	6.88275	1.18648	1.18648	1749.74325	53671.724	 	0.0
1395.0	0.0	1.0	7.26682	7.8288	-0.0542118	30.16238	28.91438	1.41347	0.70748	0.0	123.39143	0.0	0.5	6.95547	6.95547	1.17056	1.17056	1751.99888	53466.822	40.9804	0.0
1390.0	0.0	1.0	7.27075	7.82456	-0.10827	30.12442	28.83609	1.41306	0.70768	0.0	123.54712	0.0	0.5	7.0294	7.0294	1.15478	1.15478	1754.27715	53262.387	40.887	0.0
1385.0	0.0	1.0	7.27468	7.82034	-0.16216	30.08661	28.75781	1.41265	0.70789	0.0	123.70281	0.0	0.5	7.10457	7.10457	1.13913	1.13913	1756.57838	53058.415	40.7944	0.0
1380.0	0.0	1.0	7.27859	7.81613	-0.21591	30.04895	28.67952	1.41223	0.7081	0.0	123.85851	0.0	0.5	7.181	7.181	1.12361	1.12361	1758.90282	52854.905	40.702	0.0
1375.0	0.0	1.0	7.2825	7.81194	-0.26949	30.01146	28.60123	1.41182	0.70831	0.0	124.0142	0.0	0.5	7.25872	7.25872	1.10821	1.10821	1761.25074	52651.855	40.61	0.0
1370.0	0.0	1.0	7.28641	7.80775	-0.32292	29.97412	28.52294	1.4114	0.70852	0.0	124.16989	0.0	0.5	7.33777	7.33777	1.09295	1.09295	1763.62238	52449.262	40.5186	0.0
1365.0	0.0	1.0	7.2903	7.80358	-0.37619	29.93694	28.44465	1.41097	0.70873	0.0	124.32559	0.0	0.5	7.41817	7.41817	1.07781	1.07781	1766.01799	52247.124	40.4276	0.0
1360.0	0.0	1.0	7.29419	7.79942	-0.4293	29.89992	28.36636	1.41055	0.70894	0.0	124.48128	0.0	0.5	7.49995	7.49995	1.06281	1.06281	1768.43778	52045.439	40.337	0.0
1355.0	0.0	1.0	7.29807	7.79527	-0.48226	29.86307	28.28807	1.41012	0.70916	0.0	124.63698	0.0	0.5	7.58315	7.58315	1.04793	1.04793	1770.88198	51844.205	40.2468	0.0
1350.0	0.0	1.0	7.30195	7.79113	-0.53506	29.82639	28.20978	1.40969	0.70937	0.0	124.79267	0.0	0.5	7.66779	7.66779	1.03318	1.03318	1773.35079	51643.419	40.1572	0.0
1345.0	0.0	1.0	7.30582	7.78701	-0.5877	29.78987	28.13149	1.40926	0.70959	0.0	124.94836	0.0	0.5	7.7539	7.7539	1.01856	1.01856	1775.84439	51443.08	40.0678	0.0
1340.0	0.0	1.0	7.30967	7.7829	-0.64019	29.75352	28.0532	1.40883	0.70981	0.0	125.10406	0.0	0.5	7.84152	7.84152	1.00406	1.00406	1778.36296	51243.185	39.979	0.0
1338.74	0.0	1.0	7.31065	7.78186	-0.65339	29.74439	28.03348	1.40872	0.70986	0.0	125.14328	0.0	0.5	7.86384	7.86384	1.00043	1.00043	1779.00141	51192.895	39.92442	0.0020
1335.0	0.0891815	0.91082	7.33235	7.75885	-0.94723	28.98848	28.32614	1.39093	0.71894	0.00619336	125.27149	0.00208172	0.48756	7.94248	11.25619	0.98823	0.6973	1778.59727	49637.223	415.91393	1406.508
1330.0	0.19117	0.80883	7.3576	7.73223	-1.28705	28.12341	28.6584	1.37053	0.72965	0.133	125.46888	0.045139	0.4732	8.0492	62.21319	0.97209	0.12577	1778.19239	47837.96	359.8526	3006.759
1325.0	0.27644	0.72356	7.37918	7.7096	-1.5759	27.39868	28.93224	1.35332	0.73892	0.5901	125.69539	0.20194	0.46109	8.15791	252.41777	0.95615	0.0309018	1777.92532	46309.636	305.6648	4336.507
1320.0	0.34853	0.65147	7.39785	7.69011	-1.82481	26.78396	29.15967	1.33857	0.74707	1.51035	125.94711	0.52054	0.45077	8.26873	658.94966	0.94038	0.0118002	1777.78196	44995.153	262.8966	5452.854
1315.0	0.41007	0.58993	7.4142	7.67312	-2.04172	26.25745	29.34943	1.32574	0.7543	2.92779	126.22071	1.01526	0.44189	8.38166	1329.52822	0.9248	0.00583016	1777.74971	43851.586	228.7134	6398.715
1310.0	0.46307	0.53693	7.42864	7.65816	-2.23262	25.80272	29.50759	1.31448	0.76076	4.81108	126.51298	1.67729	0.43419	8.49696	2289.45627	0.90938	0.00337502	1777.8174	42846.197	201.0778	7206.831
1305.0	0.50909	0.49091	7.44152	7.64485	-2.40253	25.40592	29.63913	1.30451	0.76657	7.09444	126.82097	2.48499	0.42746	8.6146	3549.69259	0.89413	0.00216992	1777.97532	41953.687	178.502	7902.499
1300.0	0.54932	0.45068	7.45312	7.63289	-2.5553	25.05641	29.74783	1.29563	0.77183	9.70094	127.14212	3.41213	0.42154	8.73471	5114.32682	0.87904	0.0015013	1778.21484	41154.268	159.8838	8505.505
1295.0	0.58472	0.41528	7.46363	7.62202	-2.69404	24.74553	29.83676	1.28766	0.7766	12.55557	127.47423	4.43256	0.41629	8.85742	6985.307	0.86411	0.00109569	1778.5284	40432.294	144.3948	9031.491
1290.0	0.61606	0.38394	7.47324	7.61211	-2.82048	24.46864	29.90876	1.28047	0.78097	15.58917	127.81661	5.52174	0.41162	8.98276	9164.38034	0.84933	8.325E-4	1778.90883	39775.267	131.4054	9492.953
1285.0	0.64394	0.35606	7.48206	7.60306	-2.93609	24.22182	29.96581	1.27394	0.78497	18.74194	128.16803	6.65817	0.40744	9.1109	11654.97601	0.83471	6.52506E-4	1779.34971	39173.111	120.4312	9899.966
1280.0	0.66887	0.33113	7.49022	7.59464	-3.04352	23.99742	30.00969	1.268	0.78865	21.96607	128.52572	7.82448	0.40368	9.24191	14463.67927	0.82024	5.24109E-4	1779.84635	38617.634	111.0954	10260.72
1275.0	0.69127	0.30873	7.49781	7.58682	-3.14346	23.79372	30.04214	1.26255	0.79205	25.22253	128.88964	9.00629	0.40027	9.37582	17600.70429	0.80592	4.29309E-4	1780.39349	38102.12	103.1028	10581.929
1270.0	0.71147	0.28853	7.50491	7.57947	-3.23729	23.60676	30.06432	1.25754	0.7952	28.48065	129.25825	10.19219	0.39718	9.51288	21079.29083	0.79174	3.57305E-4	1780.9871	37621.022	96.2196	10869.138
1265.0	0.72978	0.27022	7.51157	7.57259	-3.32514	23.43637	30.07759	1.25292	0.79814	31.71501	129.63175	11.37259	0.39436	9.65304	24915.92547	0.77772	3.01306E-4	1781.62259	37169.729	90.2586	11126.956
1260.0	0.7464	0.2536	7.51785	7.56609	-3.40805	23.27958	30.08277	1.24863	0.80088	34.90664	130.00885	12.54025	0.39178	9.79651	29130.39811	0.76384	2.56877E-4	1782.2967	36744.383	85.0692	11359.239
1255.0	0.76158	0.23842	7.52381	7.55993	-3.48665	23.13467	30.08087	1.24463	0.80345	38.04442	130.38922	13.69079	0.38942	9.94338	33749.05526	0.7501	2.20999E-4	1783.00616	36341.734	80.5298	11569.235
1250.0	0.77546	0.22454	7.52947	7.55406	-3.56165	22.9996	30.07256	1.2409	0.80586	41.11802	130.7719	14.82017	0.38723	10.09372	38799.52908	0.73651	1.91603E-4	1783.74833	35959.031	76.5406	11759.694
1245.0	0.7882	0.2118	7.53487	7.54843	-3.63346	22.8732	30.0585	1.23741	0.80814	44.12087	131.15653	15.92569	0.38521	10.24769	44314.38058	0.72306	1.67208E-4	1784.52055	35593.931	73.02	11932.954
1240.0	0.79994	0.20006	7.54004	7.54308	-3.70185	22.75633	30.03939	1.23412	0.81029	47.04794	131.54358	17.00521	0.38334	10.40535	50330.87169	0.70976	1.46735E-4	1785.31953	35244.433	69.8996	12091.019
1235.0	0.81076	0.18924	7.545	7.53792	-3.76765	22.64652	30.01565	1.23101	0.81234	49.90016	131.93209	18.05888	0.3816	10.56692	56893.21622	0.6966	1.29381E-4	1786.14357	34908.812	67.1242	12235.608
1230.0	0.82078	0.17922	7.54977	7.53293	-3.83136	22.54231	29.98764	1.22808	0.81428	52.67326	132.32116	19.08495	0.37997	10.73247	64043.73611	0.68358	1.14555E-4	1786.9911	34585.583	64.6458	12368.206
1225.0	0.83009	0.16991	7.55438	7.52813	-3.89261	22.44489	29.95597	1.22529	0.81613	55.37063	132.71172	20.08442	0.37845	10.9021	71839.52278	0.67071	1.01784E-4	1787.85907	34273.455	62.4256	12490.101
1220.0	0.83874	0.16126	7.55883	7.52347	-3.9521	22.3522	29.92077	1.22263	0.81791	57.99103	133.10262	21.05673	0.37702	11.07605	80334.23942	0.65797	9.07172E-5	1788.74657	33971.308	60.4294	12602.413
1215.0	0.84681	0.15319	7.56315	7.51896	-4.00976	22.26447	29.88244	1.2201	0.8196	60.53445	133.49397	22.00169	0.37568	11.25439	89589.83471	0.64537	8.10727E-5	1789.6515	33678.159	58.6298	12706.12
1210.0	0.85435	0.14565	7.56734	7.51457	-4.06581	22.18112	29.84134	1.21768	0.82123	63.01033	133.88587	22.92268	0.37441	11.43732	99687.58828	0.63292	7.26157E-5	1790.57209	33393.149	57.002	12802.082
1205.0	0.86141	0.13859	7.57142	7.5103	-4.12034	22.10189	29.79762	1.21535	0.8228	65.41541	134.27788	23.81836	0.37321	11.6249	110697.9122	0.62061	6.51727E-5	1791.5069	33115.522	55.5254	12891.052
1204.1	0.86262	0.13738	7.57214	7.50953	-4.1301	22.08763	29.78943	1.21495	0.82308	65.83398	134.34793	23.97436	0.37301	11.65904	112765.0857	0.61841	6.39392E-5	1791.67628	33066.641	 	12906.161
1200.0	0.87048	0.12952	7.57615	7.50529	-4.18431	21.99185	29.74544	1.21337	0.82415	67.67667	134.73003	24.66793	0.37175	11.854	124052.2773	0.60655	5.79601E-5	1792.79871	32791.423	64.8198	13026.882
1195.0	0.8792	0.1208	7.5808	7.50037	-4.24706	21.88476	29.68969	1.21152	0.82541	69.78843	135.18614	25.46383	0.37034	12.09627	138821.9136	0.59239	5.16178E-5	1794.19143	32469.548	64.375	13160.877
1190.0	0.88708	0.11292	7.58523	7.49566	-4.3072	21.7852	29.63173	1.20976	0.82661	71.76497	135.63214	26.20976	0.36905	12.34381	154787.2601	0.57853	4.6136E-5	1795.61275	32161.103	61.689	13281.826
1185.0	0.89422	0.10578	7.58945	7.49115	-4.36471	21.69324	29.57183	1.20806	0.82777	73.62471	136.06987	26.91237	0.36786	12.59694	172069.1875	0.56497	4.13605E-5	1797.0616	31864.394	59.3418	13391.425
1180.0	0.90072	0.0992837	7.59349	7.48684	-4.41984	21.60822	29.51019	1.20644	0.82889	75.38719	136.49996	27.57881	0.36676	12.8556	190799.0083	0.5517	3.71724E-5	1798.53778	31577.981	57.2826	13491.107
1175.0	0.90664	0.0933564	7.59737	7.48266	-4.47316	21.52839	29.44696	1.20487	0.82997	77.0688	136.92305	28.21508	0.36574	13.12004	211116.6501	0.53872	3.34794E-5	1800.04267	31300.641	55.468	13582.097
1170.37	0.91168	0.0883219	7.60084	7.47893	-4.52077	21.45965	29.38712	1.20346	0.83094	78.57028	137.30988	28.78337	0.36486	13.3704	231501.4539	0.52694	3.04337E-5	1801.4615	31050.857	 	13659.503
1170.0	0.91213	0.0878717	7.60111	7.47863	-4.52461	21.45394	29.38263	1.20334	0.83102	78.71208	137.34163	28.837	0.36478	13.39143	233251.9662	0.52598	3.01976E-5	1801.60183	31030.214	54.0854	13666.551
1165.43	0.91756	0.0824385	7.60438	7.47496	-4.57152	21.38573	29.32604	1.20184	0.83206	80.45717	137.73537	29.49703	0.36382	13.65627	256094.3913	0.51415	2.74171E-5	1803.37538	30775.164	 	13751.979
1165.43	0.91756	0.0824385	7.60438	7.47496	-4.57152	21.38573	29.32604	1.20184	0.83206	80.45717	137.73538	29.49703	0.36382	13.65627	256094.589	0.51415	2.7417E-5	1803.37543	30775.159	 	13751.982
1165.0	0.91869	0.0813105	7.60488	7.47434	-4.57934	21.36808	29.32572	1.20149	0.8323	80.71263	137.79905	29.59456	0.36364	13.68533	259066.4806	0.5129	2.70944E-5	1803.76197	30732.921	59.4586	13778.248
1160.0	0.93042	0.0695816	7.61039	7.46764	-4.66487	21.17972	29.31182	1.19788	0.83481	83.95572	138.50433	30.82597	0.36177	14.02596	294397.032	0.49871	2.37599E-5	1808.22559	30275.927	91.3988	14050.019
1155.0	0.93973	0.0602727	7.61515	7.46172	-4.7405	21.02255	29.28285	1.19489	0.8369	87.73873	139.14371	32.25091	0.36025	14.37335	331073.3809	0.48496	2.10541E-5	1812.77424	29876.924	79.8006	14264.174
1150.0	0.94728	0.0527238	7.61938	7.45636	-4.80889	20.88811	29.24322	1.19232	0.8387	91.93839	139.73416	33.82598	0.35899	14.72748	369616.7907	0.47164	1.87925E-5	1817.3999	29520.012	71.3824	14436.606
1145.0	0.95351	0.0464882	7.62322	7.45144	-4.87177	20.77088	29.19558	1.19007	0.84029	96.24035	140.28726	35.43666	0.35792	15.08829	410501.1647	0.45874	1.68614E-5	1822.09356	29194.555	65.0914	14577.952
1144.0	0.95462	0.0453824	7.62394	7.4505	-4.88377	20.74931	29.1852	1.18965	0.84059	97.0775	140.39386	35.75002	0.35773	15.16171	418998.8447	0.4562	1.65078E-5	1823.05511	29132.699	 	14602.923
1140.0	0.95938	0.0406206	7.62688	7.4465	-4.93476	20.65226	29.13569	1.18831	0.84153	100.75862	140.83186	37.12884	0.35688	15.50838	455417.1378	0.44474	1.51449E-5	1826.21673	28883.199	62.2712	14705.564
1135.0	0.96443	0.035565	7.63027	7.44183	-4.99436	20.54402	29.07026	1.18677	0.84262	104.91509	141.35225	38.68689	0.35595	15.94825	503762.5134	0.43095	1.3643E-5	1830.12838	28591.609	58.318	14813.776
1130.0	0.96869	0.0313144	7.63341	7.43746	-5.05022	20.4475	29.00121	1.18537	0.84362	108.54505	141.84735	40.04922	0.35515	16.39558	555649.0879	0.4177	1.23251E-5	1834.00685	28318.372	54.6474	14903.996
1125.0	0.9723	0.0276963	7.63635	7.43333	-5.10297	20.36067	28.92958	1.18407	0.84454	111.6889	142.3224	41.23082	0.35443	16.8507	611604.9879	0.40497	1.11576E-5	1837.84982	28059.604	51.7536	14980.109
1120.0	0.97542	0.0245841	7.63915	7.42939	-5.15327	20.28144	28.85594	1.18285	0.84542	114.41051	142.7809	42.25534	0.3538	17.31347	672166.4458	0.39274	1.0116E-5	1841.65964	27812.435	49.4338	15044.983
1115.0	0.97812	0.0218809	7.64184	7.42561	-5.20152	20.20855	28.78074	1.18168	0.84625	116.77914	143.22574	43.14844	0.35323	17.78436	737905.5958	0.38096	9.18168E-6	1845.43657	27574.703	47.5464	15100.776
1110.0	0.98049	0.0195123	7.643	7.42192	-5.24855	20.13917	28.60539	1.18464	0.84414	118.95924	143.78879	43.97052	0.35272	18.26356	809437.7189	0.36963	8.34012E-6	1848.17699	27227.29931	69.48074	15149.143
1105.0	0.98258	0.0174224	7.64855	7.41571	-5.32793	19.95689	28.41788	1.18815	0.84165	121.15778	144.3681	44.80822	0.35196	18.75131	902618.3882	0.35872	7.45211E-6	1850.93816	26839.56707	77.54645	15191.374
1100.0	0.98443	0.0155668	7.65384	7.40976	-5.40382	19.78509	28.23696	1.19142	0.83933	123.14871	144.93094	45.56806	0.35126	19.24787	1005680.286	0.34819	6.66415E-6	1853.72108	26464.46297	75.02082	15228.479
1095.0	0.9868	0.0131968	7.65931	7.40384	-5.47936	19.61291	28.06093	1.19453	0.83715	125.34443	145.49905	46.406	0.35052	19.68118	1122283.449	0.33929	5.95001E-6	1856.52684	26091.06653	74.67929	15271.081
1090.0	0.98929	0.0107086	7.66474	7.39806	-5.55324	19.44495	27.88785	1.19755	0.83504	127.53054	146.0623	47.24111	0.34978	20.09113	1252847.03	0.33115	5.31046E-6	1859.35076	25724.82115	73.24908	15313.436
1085.0	0.99167	0.00833465	7.67002	7.39246	-5.62475	19.28375	27.72016	1.20038	0.83307	129.59737	146.61475	48.03171	0.34908	20.499	1398122.115	0.32337	4.74121E-6	1862.19281	25368.49208	71.26581	15352.481
1080.0	0.99394	0.0060598	7.67516	7.38702	-5.6941	19.12875	27.55748	1.20302	0.83124	131.56318	147.15723	48.78457	0.34841	20.90346	1559807.188	0.31595	4.23411E-6	1865.05226	25021.44296	69.40982	15388.56
1075.0	0.99611	0.00389188	7.68017	7.38175	-5.7614	18.97958	27.39946	1.20549	0.82954	133.43825	147.69004	49.50342	0.34777	21.30318	1739733.018	0.30887	3.78218E-6	1867.9287	24683.26899	67.63479	15421.788
1070.0	0.99814	0.00186494	7.68506	7.37664	-5.82665	18.83631	27.24624	1.20777	0.82797	135.21584	148.21235	50.1855	0.34716	21.69744	1939745.427	0.30214	3.37961E-6	1870.81948	24353.73842	65.90611	15452.117
1065.0	1.0	0.0	7.68983	7.37169	-5.88987	18.69899	27.09787	1.20986	0.82654	136.89572	148.72394	50.83057	0.34659	 	2161919.056	 	3.02101E-6	 	24032.74976	64.19773	15479.377
1060.0	1.0	0.0	7.69392	7.36777	-5.93994	18.608	26.96045	1.21148	0.82543	137.56536	149.157	51.0907	0.34629	 	2397988.344	 	2.71343E-6	 	23883.41963	29.86603	 
1055.0	1.0	0.0	7.69795	7.36391	-5.98911	18.51936	26.82737	1.21293	0.82445	138.22357	149.58282	51.34644	0.34599	 	2661584.524	 	2.43553E-6	 	23628.30325	51.02328	 
1050.0	1.0	0.0	7.70191	7.36013	-6.03744	18.43295	26.69835	1.2142	0.82359	138.87101	150.00182	51.59803	0.3457	 	2956106.177	 	2.18462E-6	 	23377.41288	50.17807	 
1045.0	1.0	0.0	7.70581	7.35641	-6.08497	18.34865	26.57309	1.21532	0.82283	139.50829	150.41441	51.84571	0.34542	 	3285397.502	 	1.95823E-6	 	23130.53972	49.37463	 
1040.0	1.0	0.0	7.70964	7.35274	-6.13172	18.26636	26.45133	1.21628	0.82218	140.136	150.82094	52.08971	0.34514	 	3653810.461	 	1.7541E-6	 	22887.48488	48.61097	 
1035.0	1.0	0.0	7.71343	7.34914	-6.17775	18.18598	26.33284	1.2171	0.82163	140.75469	151.22175	52.33024	0.34487	 	4066276.033	 	1.57017E-6	 	22648.05947	47.88508	 
1030.0	1.0	0.0	7.71715	7.34559	-6.22307	18.10739	26.2174	1.21779	0.82116	141.36487	151.61716	52.5675	0.3446	 	4528385.488	 	1.40455E-6	 	22412.08435	47.19502	 
1025.0	1.0	0.0	7.72083	7.34209	-6.26774	18.0305	26.10479	1.21835	0.82078	141.96702	152.00746	52.80167	0.34434	 	5046484.679	 	1.25552E-6	 	22179.39016	46.53884	 
1020.0	1.0	0.0	7.72446	7.33864	-6.31176	17.95523	25.99483	1.21879	0.82049	142.56159	152.3929	53.03293	0.34409	 	5627780.637	 	1.1215E-6	 	21949.81681	45.91467	 
1015.0	1.0	0.0	7.72804	7.33524	-6.35519	17.88149	25.88734	1.21912	0.82027	143.149	152.77374	53.26144	0.34383	 	6280467.503	 	1.00106E-6	 	21723.21329	45.3207	 
1010.0	1.0	0.0	7.73158	7.33188	-6.39804	17.80919	25.78216	1.21934	0.82012	143.72964	153.15021	53.48735	0.34359	 	7013867.185	 	8.92908E-7	 	21499.43716	44.75523	 
1005.0	1.0	0.0	7.73507	7.32857	-6.44034	17.73826	25.67913	1.21946	0.82004	144.30387	153.52251	53.7108	0.34334	 	7838596.17	 	7.95848E-7	 	21278.35439	44.21655	 
1000.0	1.0	0.0	7.73853	7.3253	-6.48211	17.66863	25.57812	1.21949	0.82002	144.87203	153.89083	53.93192	0.3431	 	8766754.168	 	7.08806E-7	 	21059.83883	43.70311	 
995.0	1.0	0.0	7.74195	7.32207	-6.52338	17.60022	25.479	1.21942	0.82006	145.43443	154.25537	54.15084	0.34286	 	9812144.965	 	6.30802E-7	 	20843.77177	43.21341	 
990.0	1.0	0.0	7.74533	7.31887	-6.56416	17.53297	25.38164	1.21927	0.82016	145.99138	154.61627	54.36767	0.34263	 	1.099052866E7	 	5.60949E-7	 	20630.04146	42.74606	 
985.0	1.0	0.0	7.74867	7.31571	-6.60449	17.46683	25.28593	1.21904	0.82031	146.54773	154.97856	54.58422	0.3424	 	1.231991715E7	 	4.98438E-7	 	20418.54293	42.29971	 
980.0	1.0	0.0	7.75198	7.31259	-6.64437	17.40173	25.19178	1.21874	0.82052	147.09456	155.33267	54.79719	0.34217	 	1.382091462E7	 	4.4254E-7	 	20209.17741	41.8731	 
975.0	1.0	0.0	7.75526	7.3095	-6.68383	17.33761	25.09909	1.21836	0.82078	147.63669	155.68357	55.00836	0.34195	 	1.55171113E7	 	3.92593E-7	 	20001.85195	41.46509	 
970.0	1.0	0.0	7.75851	7.30644	-6.72288	17.27444	25.00777	1.21791	0.82108	148.17434	156.03138	55.21781	0.34173	 	1.743554342E7	 	3.47996E-7	 	19796.47914	41.07456	 
965.0	1.0	0.0	7.76172	7.30341	-6.76154	17.21215	24.91773	1.21739	0.82143	148.70771	156.37622	55.42564	0.34151	 	1.960722429E7	 	3.08208E-7	 	19592.97668	40.70049	 
960.0	1.0	0.0	7.76491	7.30041	-6.79983	17.15071	24.82891	1.21681	0.82182	149.23699	156.71819	55.63191	0.34129	 	2.206776566E7	 	2.72737E-7	 	19391.26717	40.3419	 
955.0	1.0	0.0	7.76807	7.29744	-6.83775	17.09007	24.74123	1.21618	0.82225	149.76235	157.05738	55.83669	0.34107	 	2.485809747E7	 	2.41141E-7	 	19191.27754	39.99793	 
950.0	1.0	0.0	7.77121	7.2945	-6.87532	17.0302	24.65462	1.21548	0.82272	150.28397	157.3939	56.04005	0.34086	 	2.802533522E7	 	2.13018E-7	 	18992.9401	39.66749	 
949.93	1.0	0.0	7.77125	7.29446	-6.87584	17.02937	24.65341	1.21547	0.82273	150.2913	157.39862	56.04291	0.34086	 	2.807297093E7	 	2.12644E-7	 	18990.14983	 	 
945.0	1.0	0.0	7.77431	7.29159	-6.91248	16.97132	24.56906	1.21473	0.82323	150.80217	157.72811	56.24211	0.34065	 	3.162410623E7	 	1.88005E-7	 	18796.15191	39.35764	 
940.0	1.0	0.0	7.77739	7.2887	-6.94932	16.91313	24.48446	1.21392	0.82378	151.31693	158.0598	56.44286	0.34044	 	3.571663426E7	 	1.65779E-7	 	18600.88895	39.05259	 
935.0	1.0	0.0	7.78044	7.28584	-6.98585	16.85559	24.40075	1.21306	0.82436	151.82836	158.38902	56.64236	0.34024	 	4.037507868E7	 	1.46048E-7	 	18407.09416	38.75896	 
930.0	1.0	0.0	7.78347	7.283	-7.02207	16.79867	24.3179	1.21216	0.82497	152.33659	158.71585	56.84065	0.34003	 	4.568281225E7	 	1.28545E-7	 	18214.71274	38.47628	 
925.0	1.0	0.0	7.78648	7.28019	-7.05801	16.74233	24.23586	1.21121	0.82562	152.84174	159.04035	57.03777	0.33983	 	5.173624865E7	 	1.13032E-7	 	18023.69333	38.20388	 
920.0	1.0	0.0	7.78947	7.2774	-7.09366	16.68655	24.15458	1.21021	0.8263	153.34392	159.36256	57.23378	0.33963	 	5.864700046E7	 	9.9297E-8	 	17833.98691	37.94128	 
915.0	1.0	0.0	7.79244	7.27462	-7.12903	16.63129	24.07402	1.20917	0.82701	153.84323	159.68256	57.4287	0.33943	 	6.6544417E7	 	8.71458E-8	 	17645.54739	37.68791	 
910.0	1.0	0.0	7.79538	7.27187	-7.16414	16.57653	23.99415	1.20809	0.82775	154.33976	160.00039	57.62258	0.33923	 	7.557856094E7	 	7.64061E-8	 	17458.33115	37.44325	 
905.0	1.0	0.0	7.79831	7.26914	-7.199	16.52226	23.91492	1.20697	0.82852	154.83361	160.31609	57.81546	0.33903	 	8.592372188E7	 	6.69228E-8	 	17272.29649	37.20693	 
900.0	1.0	0.0	7.80122	7.26643	-7.2336	16.46843	23.83631	1.20581	0.82931	155.32485	160.62971	58.00736	0.33884	 	9.778254628E7	 	5.8557E-8	 	17087.40432	36.97843	 
895.0	1.0	0.0	7.80411	7.26374	-7.26796	16.41503	23.75829	1.20462	0.83014	155.81357	160.94129	58.19831	0.33864	 	1.113909252E8	 	5.11842E-8	 	16903.6172	36.75742	 
890.0	1.0	0.0	7.80698	7.26107	-7.30208	16.36205	23.68082	1.20339	0.83099	156.29984	161.25088	58.38834	0.33845	 	1.270237612E8	 	4.46928E-8	 	16720.89956	36.54353	 
885.0	1.0	0.0	7.80984	7.25841	-7.33597	16.30945	23.60387	1.20212	0.83186	156.78372	161.55851	58.57749	0.33826	 	1.450017744E8	 	3.89833E-8	 	16539.21797	36.33632	 
880.0	1.0	0.0	7.81268	7.25578	-7.36964	16.25723	23.52743	1.20082	0.83277	157.26528	161.86421	58.76577	0.33807	 	1.656995867E8	 	3.39665E-8	 	16358.53997	36.1356	 
875.0	1.0	0.0	7.8155	7.25316	-7.40308	16.20535	23.45146	1.19948	0.83369	157.74458	162.16801	58.95321	0.33788	 	1.895553172E8	 	2.95631E-8	 	16178.83515	35.94097	 
870.0	1.0	0.0	7.8183	7.25055	-7.43632	16.15381	23.37595	1.19812	0.83464	158.22168	162.46996	59.13983	0.33769	 	2.170819013E8	 	2.5702E-8	 	16000.0749	35.75205	 
865.0	1.0	0.0	7.82109	7.24797	-7.46934	16.10259	23.30087	1.19672	0.83562	158.69663	162.77008	59.32565	0.3375	 	2.488806714E8	 	2.232E-8	 	15822.23162	35.56866	 
860.0	1.0	0.0	7.82387	7.2454	-7.50216	16.05167	23.2262	1.1953	0.83661	159.16949	163.06839	59.5107	0.33732	 	2.856573736E8	 	1.9361E-8	 	15645.27885	35.39055	 
855.0	1.0	0.0	7.82663	7.24284	-7.53478	16.00104	23.15192	1.19384	0.83763	159.64029	163.36492	59.69498	0.33713	 	3.28241372E8	 	1.67749E-8	 	15469.19176	35.21742	 
850.0	1.0	0.0	7.82938	7.2403	-7.56721	15.95068	23.07801	1.19235	0.83868	160.10908	163.65971	59.87852	0.33695	 	3.77608524E8	 	1.45172E-8	 	15293.94631	35.04909	 
845.0	1.0	0.0	7.83167	7.23818	-7.59433	15.92396	23.00712	1.1907	0.83984	160.5167	163.9306	60.03748	0.3368	 	4.302300097E8	 	1.26849E-8	 	15148.01158	29.18695	 
840.0	1.0	0.0	7.83397	7.23606	-7.62138	15.89725	22.93622	1.18904	0.84101	160.92359	164.2003	60.19619	0.33666	 	4.907593782E8	 	1.10706E-8	 	14999.33259	29.7358	 
835.0	1.0	0.0	7.83625	7.23395	-7.64835	15.87054	22.86531	1.18737	0.84219	161.32975	164.4688	60.35467	0.33651	 	5.604700379E8	 	9.65012E-9	 	14850.88927	29.68866	 
830.0	1.0	0.0	7.83854	7.23184	-7.67525	15.84384	22.7944	1.18569	0.84339	161.73517	164.73611	60.5129	0.33637	 	6.408539929E8	 	8.4016E-9	 	14702.68095	29.64166	 
825.0	1.0	0.0	7.84082	7.22974	-7.70209	15.81714	22.72348	1.184	0.84459	162.13987	165.00222	60.67089	0.33622	 	7.336616728E8	 	7.30554E-9	 	14554.7069	29.59481	 
820.0	1.0	0.0	7.84309	7.22764	-7.72884	15.79045	22.65255	1.1823	0.84581	162.54382	165.26716	60.82864	0.33608	 	8.409494389E8	 	6.34449E-9	 	14406.96644	29.54809	 
815.0	1.0	0.0	7.84536	7.22555	-7.75553	15.76376	22.58161	1.18059	0.84703	162.94705	165.53091	60.98615	0.33593	 	9.651363256E8	 	5.50284E-9	 	14259.45883	29.50152	 
810.0	1.0	0.0	7.84762	7.22347	-7.78215	15.73707	22.51067	1.17887	0.84827	163.34954	165.79348	61.14342	0.33579	 	1.109071908E9	 	4.76668E-9	 	14112.18337	29.45509	 
805.0	1.0	0.0	7.84988	7.22139	-7.80869	15.71039	22.43972	1.17714	0.84952	163.75131	166.05488	61.30044	0.33565	 	1.276117602E9	 	4.12359E-9	 	13965.1393	29.40881	 
800.0	1.0	0.0	7.85214	7.21931	-7.83516	15.68371	22.36877	1.1754	0.85078	164.15234	166.31511	61.45723	0.3355	 	1.470244183E9	 	3.56252E-9	 	13818.32588	29.36268	 
795.0	1.0	0.0	7.85439	7.21725	-7.86156	15.65704	22.2978	1.17364	0.85205	164.55264	166.57417	61.61377	0.33536	 	1.696148962E9	 	3.07365E-9	 	13671.74235	29.3167	 
790.0	1.0	0.0	7.85663	7.21518	-7.88788	15.63037	22.22683	1.17188	0.85333	164.9522	166.83207	61.77007	0.33521	 	1.95939676E9	 	2.64825E-9	 	13525.38794	29.27088	 
785.0	1.0	0.0	7.85887	7.21313	-7.91414	15.6037	22.15586	1.1701	0.85462	165.35104	167.0888	61.92613	0.33507	 	2.266589803E9	 	2.27856E-9	 	13379.26185	29.22522	 
780.0	1.0	0.0	7.86111	7.21108	-7.94032	15.57704	22.08487	1.16832	0.85593	165.74915	167.34438	62.08195	0.33492	 	2.625572773E9	 	1.95773E-9	 	13233.36329	29.17971	 
775.0	1.0	0.0	7.86334	7.20903	-7.96643	15.55038	22.01388	1.16652	0.85725	166.14652	167.5988	62.23753	0.33478	 	3.045680684E9	 	1.67968E-9	 	13087.69144	29.13437	 
770.0	1.0	0.0	7.86556	7.20699	-7.99247	15.52373	21.94287	1.16471	0.85858	166.54317	167.85208	62.39287	0.33463	 	3.538039008E9	 	1.43903E-9	 	12942.24547	29.08919	 
765.0	1.0	0.0	7.86778	7.20496	-8.01844	15.49708	21.87186	1.16289	0.85992	166.93908	168.1042	62.54797	0.33449	 	4.11592765E9	 	1.23106E-9	 	12797.02451	29.04419	 
760.0	1.0	0.0	7.87	7.20293	-8.04433	15.47043	21.80085	1.16106	0.86128	167.33426	168.35518	62.70282	0.33434	 	4.795223083E9	 	1.05158E-9	 	12652.02771	28.99936	 
755.0	1.0	0.0	7.87221	7.20091	-8.07016	15.44379	21.72982	1.15922	0.86265	167.72872	168.60502	62.85743	0.3342	 	5.594936315E9	 	8.96908E-10	 	12507.25417	28.95471	 
750.0	1.0	0.0	7.87442	7.19889	-8.09591	15.41716	21.65878	1.15737	0.86403	168.12244	168.85372	63.0118	0.33406	 	6.537868567E9	 	7.63818E-10	 	12362.70298	28.91024	 
745.0	1.0	0.0	7.87662	7.19688	-8.12159	15.39052	21.58774	1.1555	0.86542	168.51543	169.10129	63.16593	0.33391	 	7.651411794E9	 	6.49467E-10	 	12218.3732	28.86596	 
740.0	1.0	0.0	7.87881	7.19487	-8.14719	15.36389	21.51669	1.15362	0.86683	168.90769	169.34773	63.31982	0.33377	 	8.96852772E9	 	5.51365E-10	 	12074.26388	28.82186	 
735.0	1.0	0.0	7.881	7.19287	-8.17273	15.33727	21.44562	1.15173	0.86826	169.29923	169.59304	63.47347	0.33362	 	1.05289E10	 	4.67333E-10	 	11930.37403	28.77797	 
730.0	1.0	0.0	7.88319	7.19088	-8.19819	15.31065	21.37455	1.14983	0.86969	169.69003	169.83722	63.62687	0.33348	 	1.2380599999999998E10	 	3.95466E-10	 	11786.70263	28.73428	 
725.0	1.0	0.0	7.88537	7.18889	-8.22359	15.28403	21.30347	1.14792	0.87114	170.08011	170.08028	63.78003	0.33333	 	1.4581599999999998E10	 	3.341E-10	 	11643.24864	28.6908	 
720.0	1.0	0.0	7.88755	7.1869	-8.24891	15.25742	21.23238	1.14599	0.87261	170.46945	170.32223	63.93295	0.33319	 	1.72022E10	 	2.81784E-10	 	11500.01099	28.64753	 
715.0	1.0	0.0	7.88972	7.18493	-8.27415	15.23081	21.16128	1.14406	0.87408	170.85807	170.56306	64.08563	0.33305	 	2.03278E10	 	2.37257E-10	 	11356.98855	28.60449	 
710.0	1.0	0.0	7.89188	7.18295	-8.29933	15.20421	21.09017	1.1421	0.87558	171.24596	170.80277	64.23807	0.3329	 	2.4061999999999996E10	 	1.99422E-10	 	11214.18021	28.56167	 
705.0	1.0	0.0	7.89404	7.18099	-8.32444	15.17761	21.01905	1.14014	0.87708	171.63312	171.04138	64.39026	0.33276	 	2.8531499999999996E10	 	1.67328E-10	 	11071.58475	28.51909	 
700.0	1.0	0.0	7.8962	7.17903	-8.34947	15.15101	20.94792	1.13816	0.87861	172.01955	171.27888	64.54222	0.33261	 	3.3890299999999996E10	 	1.40149E-10	 	10929.20095	28.47676	 
695.0	1.0	0.0	7.89835	7.17707	-8.37443	15.12442	20.87678	1.13617	0.88015	172.40525	171.51529	64.69393	0.33247	 	4.03273E10	 	1.17174E-10	 	10787.02757	28.43468	 
690.0	1.0	0.0	7.9005	7.17512	-8.39932	15.09784	20.80563	1.13417	0.8817	172.79022	171.75059	64.8454	0.33232	 	4.807369999999999E10	 	9.77853E-11	 	10645.06325	28.39286	 
685.0	1.0	0.0	7.90264	7.17318	-8.42414	15.07125	20.73447	1.13216	0.88327	173.17447	171.98479	64.99662	0.33218	 	5.741319999999999E10	 	8.14533E-11	 	10503.30663	28.35132	 
680.0	1.0	0.0	7.90478	7.17124	-8.44889	15.04467	20.6633	1.13013	0.88486	173.55798	172.2179	65.14761	0.33204	 	6.869489999999999E10	 	6.7721E-11	 	10361.75629	28.31007	 
675.0	1.0	0.0	7.90691	7.16931	-8.47356	15.0181	20.59212	1.12809	0.88646	173.94077	172.44993	65.29835	0.33189	 	8.23493E10	 	5.61958E-11	 	10220.41075	28.26911	 
670.0	1.0	0.0	7.90903	7.16738	-8.49817	14.99153	20.52092	1.12603	0.88808	174.32283	172.68086	65.44885	0.33175	 	9.890759999999998E10	 	4.65412E-11	 	10079.26845	28.22846	 
665.0	1.0	0.0	7.91115	7.16546	-8.5227	14.96496	20.44972	1.12396	0.88971	174.70417	172.91071	65.59911	0.3316	 	1.19028E11	 	3.84691E-11	 	9938.32779	28.18813	 
660.0	1.0	0.0	7.91327	7.16354	-8.54716	14.9384	20.3785	1.12188	0.89136	175.08477	173.13948	65.74913	0.33146	 	1.43525E11	 	3.1733E-11	 	9797.59046	28.14747	 
655.0	1.0	0.0	7.91538	7.16163	-8.57155	14.91184	20.30727	1.11978	0.89303	175.46465	173.36717	65.8989	0.33132	 	1.73413E11	 	2.61229E-11	 	9657.07492	28.10311	 
650.0	1.0	0.0	7.91749	7.15973	-8.59586	14.88529	20.23603	1.11767	0.89472	175.8438	173.59379	66.04843	0.33117	 	2.09956E11	 	2.14601E-11	 	9516.80576	28.05383	 
645.0	1.0	0.0	7.91959	7.15783	-8.62011	14.85874	20.16478	1.11554	0.89642	176.22222	173.81934	66.19772	0.33103	 	2.54729E11	 	1.75923E-11	 	9376.78219	28.00471	 
640.0	1.0	0.0	7.92168	7.15593	-8.64428	14.83219	20.09351	1.1134	0.89815	176.59992	174.04381	66.34677	0.33089	 	3.09704E11	 	1.43907E-11	 	9237.00343	27.95575	 
635.0	1.0	0.0	7.92377	7.15405	-8.66839	14.80565	20.02224	1.11125	0.89989	176.97689	174.26722	66.49558	0.33074	 	3.77356E11	 	1.17461E-11	 	9097.46867	27.90695	 
630.0	1.0	0.0	7.92586	7.15216	-8.69242	14.77911	19.95095	1.10908	0.90165	177.35313	174.48957	66.64414	0.3306	 	4.60792E11	 	9.56625E-12	 	8958.17712	27.85831	 
625.0	1.0	0.0	7.92794	7.15029	-8.71638	14.75258	19.87964	1.10689	0.90343	177.72865	174.71086	66.79246	0.33045	 	5.63929E11	 	7.7734E-12	 	8819.12769	27.80989	 
620.0	1.0	0.0	7.93001	7.14842	-8.74027	14.72605	19.80832	1.1047	0.90523	178.10344	174.93109	66.94053	0.33031	 	6.91714E11	 	6.30209E-12	 	8680.31884	27.76177	 
615.0	1.0	0.0	7.93208	7.14655	-8.76408	14.69952	19.73699	1.10248	0.90704	178.4775	175.15026	67.08837	0.33017	 	8.50407E11	 	5.09737E-12	 	8541.75017	27.71373	 
610.0	1.0	0.0	7.93415	7.14469	-8.78783	14.673	19.66565	1.10025	0.90888	178.85083	175.36839	67.23596	0.33002	 	1.04796E12	 	4.11318E-12	 	8403.42092	27.66585	 
605.0	1.0	0.0	7.93621	7.14284	-8.8115	14.64648	19.59429	1.09801	0.91074	179.22344	175.58547	67.38331	0.32988	 	1.29447E12	 	3.31103E-12	 	8265.33033	27.61812	 
600.0	1.0	0.0	7.93826	7.14099	-8.83511	14.61997	19.52292	1.09575	0.91262	179.59533	175.8015	67.53041	0.32974	 	1.60285E12	 	2.65878E-12	 	8127.47764	27.57054	 
595.0	1.0	0.0	7.94031	7.13914	-8.85864	14.59346	19.45153	1.09347	0.91452	179.96648	176.01649	67.67727	0.32959	 	1.98958E12	 	2.12971E-12	 	7989.86207	27.52311	 
590.0	1.0	0.0	7.94236	7.13731	-8.8821	14.56696	19.38013	1.09118	0.91644	180.33691	176.23044	67.82389	0.32945	 	2.47582E12	 	1.70159E-12	 	7852.48287	27.47584	 
585.0	1.0	0.0	7.9444	7.13547	-8.90549	14.54046	19.30871	1.08887	0.91838	180.70662	176.44335	67.97027	0.32931	 	3.08874E12	 	1.35603E-12	 	7715.33931	27.42871	 
580.0	1.0	0.0	7.94643	7.13365	-8.9288	14.51396	19.23728	1.08655	0.92035	181.0756	176.65523	68.11641	0.32916	 	3.86341E12	 	1.07781E-12	 	7578.43061	27.38174	 
575.0	1.0	0.0	7.94846	7.13183	-8.95205	14.48747	19.16584	1.0842	0.92234	181.44385	176.86607	68.2623	0.32902	 	4.84513E12	 	8.54385E-13	 	7441.75604	27.33491	 
570.0	1.0	0.0	7.95048	7.13001	-8.97523	14.46098	19.09437	1.08185	0.92435	181.81138	177.07589	68.40794	0.32888	 	6.09266E12	 	6.75437E-13	 	7305.31485	27.28824	 
565.0	1.0	0.0	7.9525	7.1282	-8.99833	14.43449	19.0229	1.07947	0.92638	182.17818	177.28468	68.55335	0.32873	 	7.68237E12	 	5.32492E-13	 	7169.10631	27.24171	 
560.0	1.0	0.0	7.95452	7.1264	-9.02136	14.40801	18.9514	1.07708	0.92844	182.54426	177.49245	68.69851	0.32859	 	9.71387E12	 	4.18618E-13	 	7033.12967	27.19533	 
555.0	1.0	0.0	7.95652	7.1246	-9.04432	14.38154	18.87989	1.07467	0.93052	182.90961	177.6992	68.84343	0.32845	 	1.23174E13	 	3.28153E-13	 	6897.38421	27.14909	 
550.0	1.0	0.0	7.95853	7.12281	-9.06721	14.35507	18.80836	1.07225	0.93262	183.27423	177.90494	68.9881	0.3283	 	1.56639E13	 	2.56487E-13	 	6761.86919	27.103	 
545.0	1.0	0.0	7.96052	7.12102	-9.09003	14.3286	18.73682	1.0698	0.93475	183.63813	178.10966	69.13253	0.32816	 	1.99782E13	 	1.99878E-13	 	6626.5839	27.05706	 
540.0	1.0	0.0	7.96252	7.11924	-9.11278	14.30214	18.66525	1.06734	0.93691	184.00131	178.31336	69.27672	0.32802	 	2.55571E13	 	1.55291E-13	 	6491.52761	27.01126	 
535.0	1.0	0.0	7.9645	7.11746	-9.13546	14.27568	18.59367	1.06486	0.93909	184.36376	178.51606	69.42066	0.32787	 	3.27936E13	 	1.20279E-13	 	6356.69961	26.9656	 
530.0	1.0	0.0	7.96649	7.11569	-9.15806	14.24922	18.52208	1.06236	0.9413	184.72548	178.71775	69.56436	0.32773	 	4.22101E13	 	9.28681E-14	 	6222.09917	26.92009	 
525.0	1.0	0.0	7.96846	7.11392	-9.1806	14.22277	18.45046	1.05985	0.94353	185.08648	178.91844	69.70782	0.32759	 	5.45026E13	 	7.1475E-14	 	6087.72561	26.87471	 
520.0	1.0	0.0	7.97043	7.11216	-9.20306	14.19632	18.37882	1.05731	0.94579	185.44676	179.11812	69.85103	0.32744	 	7.0602E13	 	5.48308E-14	 	5953.5782	26.82948	 
515.0	1.0	0.0	7.9724	7.11041	-9.22545	14.16988	18.30717	1.05476	0.94808	185.80631	179.31681	69.994	0.3273	 	9.17579E13	 	4.1923E-14	 	5819.65628	26.78439	 
510.0	1.0	0.0	7.97436	7.10866	-9.24777	14.14344	18.2355	1.05219	0.9504	186.16513	179.51451	70.13673	0.32716	 	1.19653E14	 	3.19454E-14	 	5685.95912	26.73943	 
505.0	1.0	0.0	7.97632	7.10692	-9.27002	14.11701	18.1638	1.0496	0.95275	186.52324	179.71121	70.27921	0.32702	 	1.56561E14	 	2.42586E-14	 	5552.48605	26.69461	 
500.0	1.0	0.0	7.97827	7.10518	-9.2922	14.09058	18.09209	1.04699	0.95512	186.88061	179.90692	70.42145	0.32687	 	2.05568E14	 	1.83567E-14	 	5419.23639	26.64993	 
495.0	1.0	0.0	7.98021	7.10345	-9.31431	14.06415	18.02036	1.04436	0.95753	187.23726	180.10164	70.56344	0.32673	 	2.7087299999999997E14	 	1.3841E-14	 	5286.20944	26.60539	 
490.0	1.0	0.0	7.98215	7.10172	-9.33635	14.03773	17.9486	1.04171	0.95996	187.59319	180.29537	70.70519	0.32659	 	3.58217E14	 	1.0398E-14	 	5153.40456	26.56098	 
485.0	1.0	0.0	7.98409	7.1	-9.35831	14.01131	17.87683	1.03904	0.96243	187.9484	180.48813	70.84669	0.32644	 	4.75476E14	 	7.7824E-15	 	5020.82107	26.5167	 
480.0	1.0	0.0	7.98601	7.09829	-9.38021	13.9849	17.80503	1.03635	0.96493	188.30288	180.67991	70.98796	0.3263	 	6.33495E14	 	5.80263E-15	 	4888.45831	26.47255	 
475.0	1.0	0.0	7.98794	7.09658	-9.40203	13.95849	17.73321	1.03364	0.96746	188.65663	180.8707	71.12897	0.32616	 	8.47274E14	 	4.30975E-15	 	4756.31563	26.42854	 
470.0	1.0	0.0	7.98986	7.09488	-9.42378	13.93208	17.66137	1.0309	0.97002	189.00966	181.06053	71.26974	0.32602	 	1.13764E15	 	3.18831E-15	 	4624.39238	26.38465	 
465.0	1.0	0.0	7.99177	7.09318	-9.44546	13.90568	17.58951	1.02815	0.97262	189.36197	181.24938	71.41027	0.32587	 	1.53362E15	 	2.34917E-15	 	4492.68792	26.34089	 
460.0	1.0	0.0	7.99368	7.09148	-9.46708	13.87928	17.51762	1.02538	0.97525	189.71355	181.43726	71.55056	0.32573	 	2.07587E15	 	1.72377E-15	 	4361.20163	26.29726	 
455.0	1.0	0.0	7.99558	7.0898	-9.48862	13.85289	17.44571	1.02258	0.97792	190.06441	181.62418	71.6906	0.32559	 	2.82155E15	 	1.25956E-15	 	4229.93286	26.25375	 
450.0	1.0	0.0	7.99748	7.08812	-9.51009	13.8265	17.37377	1.01977	0.98062	190.44303	181.83732	71.84113	0.32545	 	3.85141E15	 	9.16422E-16	 	4098.881	26.21037	 
445.0	1.0	0.0	7.99937	7.08644	-9.53148	13.80012	17.30182	1.01693	0.98336	190.79228	182.02213	71.98062	0.3253	 	5.27998E15	 	6.63849E-16	 	3968.04545	26.16711	 
440.0	1.0	0.0	8.00125	7.08477	-9.55281	13.77373	17.22983	1.01407	0.98613	191.1408	182.20598	72.11987	0.32516	 	7.27055E15	 	4.78741E-16	 	3837.4256	26.12397	 
435.0	1.0	0.0	8.00314	7.0831	-9.57407	13.74736	17.15782	1.01118	0.98894	191.4886	182.38888	72.25887	0.32502	 	1.00569E16	 	3.43675E-16	 	3707.02085	26.08095	 
430.0	1.0	0.0	8.00501	7.08144	-9.59525	13.72099	17.08579	1.00828	0.99179	191.83568	182.57082	72.39762	0.32488	 	1.39754E16	 	2.45568E-16	 	3576.83062	26.03805	 
425.0	1.0	0.0	8.00688	7.07979	-9.61637	13.69462	17.01372	1.00535	0.99468	192.18203	182.75181	72.53613	0.32473	 	1.95124E16	 	1.74632E-16	 	3446.85438	25.99525	 
420.0	1.0	0.0	8.00875	7.07814	-9.63741	13.66825	16.94163	1.00239	0.99761	192.52766	182.93184	72.67439	0.32459	 	2.73747E16	 	1.23585E-16	 	3317.09147	25.95258	 
415.0	1.0	0.0	8.01061	7.0765	-9.65839	13.64189	16.86952	0.99942	1.00058	192.87256	183.11094	72.81241	0.32445	 	3.85944E16	 	8.70254E-17	 	3187.54155	25.90998	 
410.0	1.0	0.0	8.01246	7.07486	-9.67929	13.61554	16.79737	0.99642	1.0036	193.21674	183.28908	72.95019	0.32431	 	5.46868E16	 	6.09706E-17	 	3058.20434	25.86744	 
405.0	1.0	0.0	8.01431	7.07323	-9.70012	13.58918	16.7252	0.99339	1.00665	193.5602	183.46628	73.08771	0.32416	 	7.78884E16	 	4.24952E-17	 	2929.07958	25.82495	 
400.0	1.0	0.0	8.01615	7.0716	-9.72088	13.56284	16.653	0.99034	1.00975	193.90293	183.64255	73.225	0.32402	 	1.11518E17	 	2.94614E-17	 	2800.16702	25.78251	 
395.0	1.0	0.0	8.01799	7.06998	-9.74158	13.53649	16.58076	0.98727	1.0129	194.24493	183.81788	73.36203	0.32388	 	1.60528E17	 	2.03147E-17	 	2671.46642	25.74012	 
390.0	1.0	0.0	8.01982	7.06837	-9.7622	13.51015	16.5085	0.98417	1.01608	194.58622	183.99227	73.49882	0.32374	 	2.32349E17	 	1.39302E-17	 	2542.97755	25.69777	 
385.0	1.0	0.0	8.02165	7.06676	-9.78274	13.48382	16.43621	0.98105	1.01932	194.92677	184.16572	73.63537	0.32359	 	3.38198E17	 	9.49818E-18	 	2414.7002	25.65547	 
380.0	1.0	0.0	8.02347	7.06515	-9.80322	13.45749	16.36388	0.9779	1.0226	195.26661	184.33825	73.77167	0.32345	 	4.95106E17	 	6.43875E-18	 	2286.63415	25.61321	 
375.0	1.0	0.0	8.02528	7.06356	-9.82363	13.43116	16.29152	0.97472	1.02594	195.60572	184.50985	73.90772	0.32331	 	7.29086E17	 	4.33894E-18	 	2158.77922	25.57099	 
370.0	1.0	0.0	8.02709	7.06196	-9.84397	13.40484	16.21913	0.97152	1.02932	195.94411	184.68053	74.04353	0.32317	 	1.08012E18	 	2.90621E-18	 	2031.13523	25.5288	 
365.0	1.0	0.0	8.0289	7.06037	-9.86424	13.37852	16.14671	0.96829	1.03275	196.28177	184.85028	74.17909	0.32303	 	1.61006E18	 	1.9345E-18	 	1903.70201	25.48664	 
360.0	1.0	0.0	8.0307	7.05879	-9.88443	13.3522	16.07425	0.96503	1.03623	196.61871	185.01911	74.3144	0.32288	 	2.41517E18	 	1.27951E-18	 	1776.47941	25.44452	 
355.0	1.0	0.0	8.03249	7.05722	-9.90456	13.32589	16.00176	0.96175	1.03977	196.95493	185.18703	74.44947	0.32274	 	3.64636E18	 	8.40797E-19	 	1649.46729	25.40242	 
350.0	1.0	0.0	8.03428	7.05565	-9.92461	13.29959	15.92923	0.95844	1.04336	197.29042	185.35402	74.58429	0.3226	 	5.54167E18	 	5.48831E-19	 	1522.66554	25.36035	 
345.0	1.0	0.0	8.03606	7.05408	-9.9446	13.27328	15.85666	0.9551	1.04701	197.62519	185.52011	74.71887	0.32246	 	8.47936E18	 	3.55809E-19	 	1396.07405	25.3183	 
340.0	1.0	0.0	8.03784	7.05252	-9.96451	13.24698	15.78406	0.95173	1.05072	197.95924	185.68528	74.8532	0.32232	 	1.30647E19	 	2.29063E-19	 	1269.69271	25.27627	 
335.0	1.0	0.0	8.03961	7.05097	-9.98436	13.22069	15.71142	0.94833	1.05448	198.29256	185.84954	74.98728	0.32217	 	2.02731E19	 	1.46412E-19	 	1143.52147	25.23425	 
330.0	1.0	0.0	8.04138	7.04942	-10.00413	13.1944	15.63873	0.94491	1.0583	198.62516	186.0129	75.12112	0.32203	 	3.16888E19	 	9.28979E-20	 	1017.56027	25.19224	 
325.0	1.0	0.0	8.04314	7.04787	-10.02383	13.16811	15.56601	0.94145	1.06219	198.95704	186.17535	75.25471	0.32189	 	4.9904E19	 	5.85008E-20	 	891.80909	25.15024	 
320.0	1.0	0.0	8.0449	7.04634	-10.04347	13.14183	15.49325	0.93797	1.06613	199.28819	186.3369	75.38805	0.32175	 	7.91934E19	 	3.65563E-20	 	766.26788	25.10824	 
315.0	1.0	0.0	8.04665	7.0448	-10.06303	13.11555	15.42045	0.93445	1.07015	199.61862	186.49755	75.52115	0.32161	 	1.2666399999999998E20	 	2.26632E-20	 	640.93667	25.06624	 
310.0	1.0	0.0	8.04839	7.04328	-10.08252	13.08928	15.3476	0.93091	1.07422	199.94833	186.65731	75.65399	0.32147	 	2.04228E20	 	1.39365E-20	 	515.81549	25.02424	 
305.0	1.0	0.0	8.05013	7.04176	-10.10194	13.06301	15.27471	0.92733	1.07837	200.27731	186.81616	75.7866	0.32132	 	3.3202E20	 	8.4989E-21	 	390.90437	24.98222	 
300.0	1.0	0.0	8.05186	7.04024	-10.12129	13.03675	15.20177	0.92372	1.08258	200.60557	186.97413	75.91895	0.32118	 	5.4437299999999997E20	 	5.13876E-21	 	266.20338	24.9402	 
295.0	1.0	0.0	8.05359	7.03873	-10.14057	13.01049	15.12879	0.92008	1.08686	200.93311	187.1312	76.05106	0.32104	 	9.003439999999999E20	 	3.07993E-21	 	141.71262	24.89815	 
290.0	1.0	0.0	8.05531	7.03722	-10.15978	12.98423	15.05576	0.9164	1.09122	201.25992	187.28739	76.18292	0.3209	 	1.50245E21	 	1.82941E-21	 	17.43222	24.85608	 
285.0	1.0	0.0	8.05703	7.03573	-10.17892	12.95798	14.98269	0.9127	1.09565	201.58602	187.44269	76.31454	0.32076	 	2.53033E21	 	1.07662E-21	 	-106.63768	24.81398	 
280.0	1.0	0.0	8.05874	7.03423	-10.19799	12.93173	14.90956	0.90896	1.10016	201.91139	187.59711	76.4459	0.32062	 	4.30175E21	 	6.27602E-22	 	-230.49692	24.77185	 
275.0	1.0	0.0	8.06044	7.03274	-10.21699	12.90548	14.83639	0.90518	1.10475	202.23603	187.75064	76.57702	0.32047	 	7.38446E21	 	3.62299E-22	 	-354.14529	24.72967	 
270.0	1.0	0.0	8.06214	7.03126	-10.23592	12.87924	14.76316	0.90138	1.10941	202.55996	187.9033	76.7079	0.32033	 	1.2803E22	 	2.07059E-22	 	-477.58255	24.68745	 
265.0	1.0	0.0	8.06384	7.02978	-10.25478	12.85301	14.68988	0.89753	1.11416	202.88316	188.05508	76.83852	0.32019	 	2.24258E22	 	1.17123E-22	 	-600.80845	24.64518	 
260.0	1.0	0.0	8.06553	7.02831	-10.27356	12.82677	14.61654	0.89366	1.119	203.20564	188.20598	76.9689	0.32005	 	3.9696199999999994E22	 	6.55522E-23	 	-723.82268	24.60285	 
255.0	1.0	0.0	8.06721	7.02685	-10.29228	12.80055	14.54315	0.88974	1.12392	203.5274	188.35601	77.09903	0.31991	 	7.1030599999999994E22	 	3.6291E-23	 	-846.62492	24.56045	 
250.0	1.0	0.0	8.06889	7.02538	-10.31093	12.77432	14.46971	0.88579	1.12893	203.84843	188.50517	77.22891	0.31977	 	1.2852E23	 	1.98674E-23	 	-969.21481	24.51798	 
245.0	1.0	0.0	8.07056	7.02393	-10.32951	12.7481	14.3962	0.88181	1.13403	204.16874	188.65346	77.35855	0.31963	 	2.35217E23	 	1.07516E-23	 	-1091.59192	24.47542	 
240.0	1.0	0.0	8.07223	7.02248	-10.34802	12.72189	14.32263	0.87778	1.13923	204.48833	188.80089	77.48793	0.31949	 	4.35594E23	 	5.74976E-24	 	-1213.75584	24.43278	 
235.0	1.0	0.0	8.07389	7.02104	-10.36645	12.69567	14.24901	0.87372	1.14453	204.8072	188.94745	77.61707	0.31934	 	8.16508E23	 	3.03751E-24	 	-1335.70606	24.39004	 
230.0	1.0	0.0	8.07554	7.0196	-10.38482	12.66947	14.17532	0.86962	1.14992	205.12534	189.09315	77.74596	0.3192	 	1.54975E24	 	1.58461E-24	 	-1457.44205	24.3472	 
225.0	1.0	0.0	8.07719	7.01816	-10.40312	12.64326	14.10156	0.86548	1.15542	205.44276	189.23799	77.8746	0.31906	 	2.97956E24	 	8.1601E-25	 	-1578.96326	24.30424	 
220.0	1.0	0.0	8.07883	7.01674	-10.42134	12.61706	14.02774	0.86131	1.16103	205.75946	189.38197	78.003	0.31892	 	5.80493E24	 	4.14638E-25	 	-1700.26904	24.26116	 
215.0	1.0	0.0	8.08047	7.01531	-10.4395	12.59087	13.95384	0.85709	1.16674	206.07544	189.5251	78.13114	0.31878	 	1.1465100000000001E25	 	2.07809E-25	 	-1821.35873	24.21794	 
210.0	1.0	0.0	8.0821	7.0139	-10.45759	12.56468	13.87988	0.85283	1.17257	206.3907	189.66737	78.25904	0.31864	 	2.29653E25	 	1.02682E-25	 	-1942.2316	24.17457	 
205.0	1.0	0.0	8.08373	7.01249	-10.4756	12.53849	13.80585	0.84853	1.17851	206.70523	189.80879	78.38669	0.3185	 	4.66745E25	 	5.00002E-26	 	-2062.88687	24.13105	 
200.0	1.0	0.0	8.08535	7.01108	-10.49355	12.51231	13.73174	0.84419	1.18457	207.01904	189.94937	78.51409	0.31836	 	9.62932E25	 	2.39822E-26	 	-2183.3237	24.08737	 
195.0	1.0	0.0	8.08697	7.00968	-10.51143	12.48613	13.65755	0.8398	1.19075	207.33213	190.08909	78.64125	0.31821	 	2.01758E26	 	1.13251E-26	 	-2303.54118	24.0435	 
190.0	1.0	0.0	8.08858	7.00828	-10.52923	12.45996	13.58329	0.83538	1.19706	207.6445	190.22797	78.76815	0.31807	 	4.2953700000000004E26	 	5.26269E-27	 	-2423.53835	23.99943	 
185.0	1.0	0.0	8.09018	7.0069	-10.54697	12.43379	13.50894	0.83091	1.2035	207.95615	190.36601	78.89481	0.31793	 	9.29681E26	 	2.40525E-27	 	-2543.31416	23.95516	 
180.0	1.0	0.0	8.09178	7.00551	-10.56464	12.40762	13.43451	0.82639	1.21008	208.26707	190.50321	79.02121	0.31779	 	2.04676E27	 	1.08059E-27	 	-2662.86751	23.91067	 
175.0	1.0	0.0	8.09337	7.00413	-10.58223	12.38146	13.35999	0.82183	1.21679	208.57728	190.63957	79.14737	0.31765	 	4.5861499999999996E27	 	4.76938E-28	 	-2782.19721	23.86594	 
170.0	1.0	0.0	8.09496	7.00276	-10.59976	12.3553	13.28539	0.81723	1.22365	208.88676	190.77509	79.27328	0.31751	 	1.0464900000000001E28	 	2.06681E-28	 	-2901.30199	23.82096	 
165.0	1.0	0.0	8.09654	7.00139	-10.61722	12.32915	13.21069	0.81257	1.23066	209.19552	190.90978	79.39894	0.31737	 	2.43333E28	 	8.78837E-29	 	-3020.18049	23.7757	 
160.0	1.0	0.0	8.09811	7.00003	-10.6346	12.303	13.1359	0.80788	1.23781	209.50355	191.04363	79.52436	0.31723	 	5.769340000000001E28	 	3.66436E-29	 	-3138.83128	23.73016	 
155.0	1.0	0.0	8.09968	6.99867	-10.65192	12.27685	13.06101	0.80313	1.24513	209.81087	191.17665	79.64952	0.31709	 	1.39575E29	 	1.49718E-29	 	-3257.2528	23.6843	 
150.0	1.0	0.0	8.10125	6.99732	-10.66917	12.25071	12.98602	0.79833	1.25261	210.11746	191.30885	79.77443	0.31695	 	3.4479300000000004E29	 	5.98994E-30	 	-3375.44342	23.63813	 
145.0	1.0	0.0	8.1028	6.99598	-10.68634	12.22457	12.91092	0.79349	1.26026	210.42334	191.44022	79.8991	0.31681	 	8.70363E29	 	2.34487E-30	 	-3493.40138	23.59159	 
140.0	1.0	0.0	8.10436	6.99464	-10.70345	12.19844	12.83572	0.78859	1.26808	210.72849	191.57077	80.02351	0.31667	 	2.2468599999999999E30	 	8.97466E-31	 	-3611.12482	23.54469	 
135.0	1.0	0.0	8.1059	6.9933	-10.72049	12.17231	12.76041	0.78365	1.27608	211.03292	191.70049	80.14768	0.31653	 	5.93667E30	 	3.35555E-31	 	-3728.61176	23.49739	 
130.0	1.0	0.0	8.10744	6.99197	-10.73746	12.14618	12.68498	0.77865	1.28427	211.33663	191.82939	80.27159	0.31638	 	1.60686E31	 	1.22455E-31	 	-3845.86008	23.44966	 
125.0	1.0	0.0	8.10898	6.99065	-10.75435	12.12006	12.60944	0.7736	1.29266	211.63962	191.95747	80.39526	0.31624	 	4.45935E31	 	4.35774E-32	 	-3962.86751	23.40149	 
120.0	1.0	0.0	8.11051	6.98933	-10.77118	12.09395	12.53377	0.7685	1.30124	211.94189	192.08474	80.51868	0.3161	 	1.27011E32	 	1.51079E-32	 	-4079.63168	23.35283	 
115.0	1.0	0.0	8.11203	6.98802	-10.78794	12.06783	12.45797	0.76334	1.31003	212.24343	192.2112	80.64185	0.31596	 	3.7164099999999996E32	 	5.09756E-33	 	-4196.15001	23.30367	 
110.0	1.0	0.0	8.11355	6.98671	-10.80463	12.04173	12.38204	0.75813	1.31904	212.54426	192.33684	80.76477	0.31582	 	1.11834E33	 	1.67217E-33	 	-4312.4198	23.25396	 
105.0	1.0	0.0	8.11506	6.98541	-10.82125	12.01562	12.30598	0.75286	1.32827	212.84436	192.46167	80.88743	0.31568	 	3.4648E33	 	5.32687E-34	 	-4428.43816	23.20367	 
100.0	1.0	0.0	8.11657	6.98412	-10.8378	11.98952	12.22977	0.74753	1.33773	213.14374	192.58569	81.00985	0.31554	 	1.10648E34	 	1.64599E-34	 	-4544.20199	23.15277	 
95.0	1.0	0.0	8.11807	6.98282	-10.85428	11.96343	12.15342	0.74215	1.34743	213.4424	192.70891	81.13202	0.3154	 	3.64674E34	 	4.92727E-35	 	-4659.70802	23.10121	 
90.0	1.0	0.0	8.11956	6.98154	-10.87069	11.93733	12.07691	0.73671	1.35739	213.74035	192.83132	81.25394	0.31526	 	1.24202E35	 	1.42706E-35	 	-4774.95275	23.04895	 
85.0	1.0	0.0	8.12105	6.98026	-10.88703	11.91125	12.00024	0.73121	1.3676	214.03757	192.95293	81.37561	0.31512	 	4.3773899999999994E35	 	3.99334E-36	 	-4889.93245	22.99594	 
80.0	1.0	0.0	8.12253	6.97898	-10.9033	11.88516	11.92341	0.72565	1.37808	214.33407	193.07374	81.49703	0.31498	 	1.59879E36	 	1.07809E-36	 	-5004.64315	22.94214	 
75.0	1.0	0.0	8.12401	6.97772	-10.9195	11.85908	11.84641	0.72002	1.38885	214.62985	193.19375	81.6182	0.31484	 	6.060769999999999E36	 	2.80366E-37	 	-5119.08061	22.88749	 
70.0	1.0	0.0	8.12548	6.97645	-10.93563	11.83301	11.76923	0.71434	1.3999	214.92491	193.31296	81.73912	0.3147	 	2.3885199999999997E37	 	7.01199E-38	 	-5233.24032	22.83194	 
65.0	1.0	0.0	8.12695	6.97519	-10.95169	11.80694	11.69187	0.70858	1.41126	215.21924	193.43138	81.85979	0.31456	 	9.80266E37	 	1.68365E-38	 	-5347.11745	22.77543	 
60.0	1.0	0.0	8.12841	6.97394	-10.96768	11.78087	11.61431	0.70277	1.42294	215.51286	193.54901	81.98021	0.31442	 	4.1972599999999996E38	 	3.87401E-39	 	-5460.70687	22.71788	 
55.0	1.0	0.0	8.12986	6.97269	-10.9836	11.75481	11.53654	0.69689	1.43495	215.80576	193.66585	82.10038	0.31428	 	1.8786000000000003E39	 	8.52559E-40	 	-5574.00307	22.65924	 
50.0	1.0	0.0	8.13131	6.97145	-10.99946	11.72875	11.45857	0.69094	1.44731	216.09794	193.78189	82.2203	0.31414	 	8.80736E39	 	1.79079E-40	 	-5687.00017	22.59942	 
45.0	1.0	0.0	8.13275	6.97022	-11.01524	11.70269	11.38038	0.68492	1.46002	216.3894	193.89715	82.33996	0.314	 	4.33458E40	 	3.58238E-41	 	-5799.69189	22.53834	 
40.0	1.0	0.0	8.13419	6.96899	-11.03095	11.67664	11.30196	0.67884	1.47311	216.68014	194.01163	82.45938	0.31386	 	2.2446600000000003E41	 	6.80908E-42	 	-5912.07151	22.47592	 
35.0	1.0	0.0	8.13562	6.96776	-11.0466	11.6506	11.22329	0.67268	1.48659	216.97016	194.12532	82.57855	0.31372	 	1.2261099999999999E42	 	1.22664E-42	 	-6024.13183	22.41206	 
30.0	1.0	0.0	8.13704	6.96654	-11.06217	11.62455	11.14438	0.66645	1.50049	217.25946	194.23824	82.69746	0.31358	 	7.08329E42	 	2.08886E-43	 	-6135.86513	22.34666	 
25.0	1.0	0.0	8.13846	6.96533	-11.07768	 	11.0652	0.66015	1.51481	217.54804	194.35037	82.81613	0.31344	 	4.33997E43	 	3.35301E-44	 	-6247.26314	 	 
