T (C)	Fraction solid (wt)-TOTAL	Fraction liquid (wt)-LIQUID	Density (g/(cm)^3)-TOTAL	Molar volume (cm^3)-TOTAL	Volume change (%)-  	Average expansion coeff. (10e-6 1/K)-  	Thermal conductivity (W/(m*K))-TOTAL	Electrical resistivity (10e-6 Ohm*m)-TOTAL	Electrical conductivity (10e6 1/(Ohm*m))-TOTAL	Young's modulus (GPa)-TOTAL	Bulk modulus (GPa)-TOTAL	Shear modulus(GPa)-TOTAL	Poisson's ratio-TOTAL	Liquid viscosity (mPa s)-  	Total viscosity (mPa s)-  	Liquid diffusivity (10e-9 (m^2)/s)-  	Total diffusivity (10e-9 (m^2)/s)-  	Surface Tension (mN/m)-  	Enthalpy (J/mole)-TOTAL	Specific heat (J/(mole K))-TOTAL	Latent heat (J/mole)-TOTAL
1400.0	0.87425	0.12575	7.37264	7.50372	0.0	20.47571	32.5472	1.25947	0.79399	55.44422	114.94948	20.1325	0.37698	7.43766	10662.54096	1.09796	7.6588E-4	1779.9031	44372.816	 	0.0
1395.0	0.90659	0.0934147	7.38183	7.49453	-0.1225	20.22722	32.63692	1.25225	0.79856	64.66164	114.98872	23.5623	0.37214	7.51114	13059.75005	1.08397	6.23429E-4	1776.78478	43738.099	126.9434	425.451
1390.0	0.92933	0.07067	7.38913	7.4873	-0.21884	20.04617	32.67898	1.24689	0.80199	71.93583	115.13214	26.27956	0.36867	7.58558	15281.67504	1.07011	5.31187E-4	1773.87837	43234.806	100.6586	719.982
1385.0	0.94588	0.0541248	7.39518	7.48133	-0.29841	19.90836	32.68955	1.24274	0.80467	77.71922	115.34479	28.44615	0.36608	7.66102	17384.98812	1.05639	4.65518E-4	1771.19496	42816.005	83.7602	930.522
1380.0	0.95825	0.0417495	7.40041	7.47621	-0.36659	19.79994	32.67863	1.23941	0.80684	82.38014	115.6051	30.19607	0.36409	7.73765	19420.92743	1.04277	4.1546E-4	1768.7354	42453.75	72.451	1085.016
1375.0	0.96773	0.0322696	7.40505	7.47169	-0.42689	19.71181	32.6526	1.23665	0.80864	86.19505	115.89893	31.63084	0.36252	7.81552	21431.37187	1.02926	3.75347E-4	1766.49588	42130.654	64.6192	1200.844
1370.0	0.97514	0.0248559	7.40928	7.46759	-0.48143	19.6385	32.61565	1.23429	0.81018	89.3677	116.21698	32.82572	0.36125	7.89478	23450.22554	1.01584	3.41993E-4	1764.46747	41835.489	59.033	1289.235
1365.0	0.98105	0.0189532	7.4132	7.46381	-0.53185	19.57578	32.57062	1.23224	0.81153	92.04858	116.55261	33.83658	0.36019	7.97545	25505.42671	1.0025	3.13479E-4	1762.64161	41560.766	54.9446	1357.674
1360.0	0.98582	0.0141794	7.41689	7.46027	-0.57905	19.52128	32.51948	1.23041	0.81274	94.34772	116.90133	34.70435	0.35931	8.05765	27620.33252	0.98925	2.88592E-4	1761.00628	41301.349	51.8834	1411.293
1355.0	0.98973	0.0102659	7.4204	7.45691	-0.62381	19.47301	32.46365	1.22875	0.81384	96.34768	117.25981	35.45985	0.35855	8.14143	29815.45242	0.97607	2.66526E-4	1759.55077	41053.63	49.5438	1453.701
1350.0	0.99298	0.00701587	7.42377	7.4537	-0.66662	19.4297	32.40415	1.22722	0.81485	98.10992	117.62569	36.12606	0.35788	8.22689	32109.07766	0.96296	2.46727E-4	1758.26294	40815.014	47.7232	1487.486
1345.0	0.99571	0.00428863	7.42703	7.4506	-0.70788	19.39031	32.34172	1.22581	0.81579	99.68151	117.99704	36.72061	0.3573	8.31407	34518.32021	0.94993	2.288E-4	1757.13329	40583.603	46.2822	1514.545
1340.0	0.99802	0.00197744	7.43019	7.4476	-0.74788	19.35406	32.27695	1.22447	0.81668	101.09895	118.37252	37.25717	0.35677	8.40301	37059.79543	0.93697	2.12451E-4	1756.15227	40357.984	45.1238	1536.291
1335.0	1.0	0.0	7.43329	7.44468	-0.78683	19.32045	32.21027	1.2232	0.81753	102.3899	118.75106	37.74615	0.3563	 	39749.67078	 	1.9746E-4	 	40137.086	44.1796	1553.789
1330.0	1.0	0.0	7.43593	7.44206	-0.82175	19.29775	32.13309	1.22233	0.81811	102.85964	119.14817	37.9243	0.35612	 	42317.64478	 	1.84901E-4	 	39940.53789	39.30962	 
1325.0	1.0	0.0	7.43859	7.4394	-0.85711	19.27367	32.05581	1.22145	0.8187	103.3283	119.54199	38.10213	0.35594	 	45067.22006	 	1.73079E-4	 	39745.81652	38.94427	 
1320.0	1.0	0.0	7.44123	7.43676	-0.89239	19.24959	31.97853	1.22057	0.81929	103.79632	119.93416	38.27977	0.35576	 	48014.41547	 	1.61947E-4	 	39551.42515	38.87828	 
1315.0	1.0	0.0	7.44388	7.43411	-0.92761	19.2255	31.90124	1.21969	0.81988	104.2637	120.32467	38.45723	0.35558	 	51174.75112	 	1.51469E-4	 	39357.36315	38.8124	 
1310.0	1.0	0.0	7.44652	7.43147	-0.96276	19.20142	31.82396	1.2188	0.82048	104.73044	120.71353	38.63449	0.3554	 	54565.06666	 	1.4161E-4	 	39163.62993	38.74664	 
1305.0	1.0	0.0	7.44916	7.42884	-0.99785	19.17734	31.74668	1.21791	0.82108	105.19654	121.10076	38.81156	0.35522	 	58203.64326	 	1.32338E-4	 	38970.22488	38.68101	 
1300.0	1.0	0.0	7.4518	7.42621	-1.03287	19.15326	31.6694	1.21702	0.82168	105.66201	121.48635	38.98844	0.35504	 	62110.33237	 	1.23621E-4	 	38777.14743	38.61549	 
1295.0	1.0	0.0	7.45443	7.42359	-1.06782	19.12918	31.59212	1.21612	0.82229	106.12683	121.87032	39.16513	0.35486	 	66306.70598	 	1.1543E-4	 	38584.39695	38.55009	 
1290.0	1.0	0.0	7.45706	7.42097	-1.1027	19.10511	31.51484	1.21521	0.8229	106.59102	122.25267	39.34163	0.35468	 	70816.21274	 	1.07734E-4	 	38391.97288	38.48481	 
1285.0	1.0	0.0	7.45968	7.41836	-1.13752	19.08103	31.43755	1.2143	0.82352	107.05457	122.63341	39.51794	0.35451	 	75664.35306	 	1.00509E-4	 	38199.8746	38.41966	 
1280.0	1.0	0.0	7.46231	7.41575	-1.17227	19.05696	31.36027	1.21339	0.82414	107.51748	123.01254	39.69406	0.35433	 	80878.87703	 	9.37271E-5	 	38008.10152	38.35462	 
1275.0	1.0	0.0	7.46493	7.41315	-1.20696	19.03288	31.28299	1.21247	0.82476	107.97976	123.39007	39.86998	0.35415	 	86489.99249	 	8.73643E-5	 	37816.65305	38.28969	 
1270.0	1.0	0.0	7.46754	7.41055	-1.24157	19.00881	31.20571	1.21155	0.82539	108.44139	123.76601	40.04572	0.35397	 	92530.60051	 	8.13972E-5	 	37625.5286	38.22489	 
1265.0	1.0	0.0	7.47016	7.40796	-1.27612	18.98474	31.12842	1.21062	0.82602	108.90239	124.14036	40.22126	0.35379	 	99036.55112	 	7.58036E-5	 	37434.72757	38.16021	 
1260.0	1.0	0.0	7.47277	7.40537	-1.31061	18.96067	31.05114	1.20969	0.82666	109.36275	124.51314	40.39661	0.35361	 	106046.936	 	7.05624E-5	 	37244.24937	38.09564	 
1255.0	1.0	0.0	7.47537	7.40279	-1.34502	18.9366	30.97385	1.20875	0.8273	109.82247	124.88434	40.57177	0.35343	 	113604.387	 	6.56535E-5	 	37054.09341	38.03119	 
1250.0	1.0	0.0	7.47798	7.40021	-1.37937	18.91253	30.89657	1.20781	0.82794	110.28155	125.25397	40.74674	0.35326	 	121755.4397	 	6.10578E-5	 	36864.25909	37.96686	 
1245.0	1.0	0.0	7.48058	7.39764	-1.41365	18.88846	30.81928	1.20686	0.82859	110.74	125.62204	40.92152	0.35308	 	130550.8963	 	5.67573E-5	 	36674.74581	37.90266	 
1240.0	1.0	0.0	7.48318	7.39507	-1.44787	18.8644	30.74199	1.20591	0.82925	111.1978	125.98855	41.0961	0.3529	 	140046.2649	 	5.27348E-5	 	36485.55301	37.83856	 
1235.0	1.0	0.0	7.48577	7.39251	-1.48201	18.84033	30.66471	1.20496	0.8299	111.65497	126.35352	41.2705	0.35272	 	150302.2156	 	4.8974E-5	 	36296.68007	37.77459	 
1230.0	1.0	0.0	7.48836	7.38995	-1.5161	18.81627	30.58742	1.204	0.83057	112.1115	126.71694	41.4447	0.35254	 	161385.0984	 	4.54596E-5	 	36108.1264	37.71073	 
1225.0	1.0	0.0	7.49095	7.3874	-1.55011	18.7922	30.51013	1.20303	0.83123	112.56739	127.07883	41.61871	0.35237	 	173367.5179	 	4.21769E-5	 	35919.89142	37.64699	 
1220.0	1.0	0.0	7.49353	7.38485	-1.58406	18.76814	30.43284	1.20206	0.8319	113.02265	127.43919	41.79252	0.35219	 	186328.9493	 	3.9112E-5	 	35731.97453	37.58338	 
1215.0	1.0	0.0	7.49611	7.38231	-1.61794	18.74408	30.35555	1.20109	0.83258	113.47726	127.79802	41.96614	0.35201	 	200356.4608	 	3.62518E-5	 	35544.37514	37.51988	 
1210.0	1.0	0.0	7.49869	7.37978	-1.65175	18.72002	30.27825	1.20011	0.83326	113.93124	128.15533	42.13958	0.35183	 	215545.4745	 	3.3584E-5	 	35357.09266	37.4565	 
1205.0	1.0	0.0	7.50126	7.37724	-1.6855	18.69596	30.20096	1.19912	0.83394	114.38458	128.51114	42.31281	0.35165	 	232000.63	 	3.10968E-5	 	35170.12649	37.39323	 
1200.0	1.0	0.0	7.50383	7.37472	-1.71918	18.67191	30.12366	1.19813	0.83463	114.83728	128.86543	42.48586	0.35148	 	249836.7395	 	2.87791E-5	 	34983.47605	37.33009	 
1195.0	1.0	0.0	7.5064	7.37219	-1.75279	18.64785	30.04637	1.19714	0.83532	115.28934	129.21822	42.65871	0.3513	 	269179.8474	 	2.66204E-5	 	34797.14074	37.26706	 
1190.0	1.0	0.0	7.50896	7.36968	-1.78634	18.62379	29.96907	1.19614	0.83602	115.74077	129.56952	42.83137	0.35112	 	290168.4084	 	2.46108E-5	 	34611.11998	37.20415	 
1185.0	1.0	0.0	7.51152	7.36716	-1.81981	18.59974	29.89177	1.19513	0.83673	116.19155	129.91933	43.00384	0.35094	 	312954.5972	 	2.27409E-5	 	34425.41316	37.14136	 
1180.0	1.0	0.0	7.51408	7.36466	-1.85323	18.57569	29.81447	1.19412	0.83743	116.6417	130.26766	43.17611	0.35077	 	337705.7652	 	2.10019E-5	 	34240.0197	37.07869	 
1175.0	1.0	0.0	7.51664	7.36215	-1.88657	18.55163	29.73717	1.19311	0.83815	117.09121	130.61451	43.34819	0.35059	 	364606.0626	 	1.93855E-5	 	34054.939	37.01614	 
1170.0	1.0	0.0	7.51919	7.35966	-1.91985	18.52758	29.65986	1.19209	0.83886	117.54008	130.95989	43.52008	0.35041	 	393858.2443	 	1.78837E-5	 	33870.17047	36.95371	 
1165.0	1.0	0.0	7.52173	7.35717	-1.95306	18.50353	29.58256	1.19106	0.83959	117.98832	131.3038	43.69177	0.35023	 	425685.6845	 	1.64893E-5	 	33685.71353	36.89139	 
1160.0	1.0	0.0	7.52428	7.35468	-1.98621	18.47948	29.50525	1.19003	0.84031	118.43591	131.64625	43.86327	0.35006	 	460334.6215	 	1.51951E-5	 	33501.56757	36.82919	 
1155.0	1.0	0.0	7.52682	7.3522	-2.01928	18.45544	29.42794	1.189	0.84105	118.88287	131.98725	44.03458	0.34988	 	498076.6648	 	1.39947E-5	 	33317.73202	36.76711	 
1150.0	1.0	0.0	7.52935	7.34972	-2.05229	18.43139	29.35063	1.18795	0.84178	119.32919	132.3268	44.20569	0.3497	 	539211.5942	 	1.28818E-5	 	33134.20625	36.70515	 
1145.0	1.0	0.0	7.53189	7.34725	-2.08524	18.40734	29.27331	1.18691	0.84253	119.77487	132.6649	44.37661	0.34953	 	584070.4876	 	1.18507E-5	 	32950.98971	36.64331	 
1140.0	1.0	0.0	7.53442	7.34478	-2.11812	18.3833	29.196	1.18585	0.84327	120.21991	133.00157	44.54733	0.34935	 	633019.22	 	1.08958E-5	 	32768.08179	36.58158	 
1135.0	1.0	0.0	7.53694	7.34232	-2.15093	18.35925	29.11868	1.1848	0.84403	120.66432	133.3368	44.71786	0.34917	 	686462.3774	 	1.0012E-5	 	32585.48189	36.51998	 
1130.0	1.0	0.0	7.53947	7.33986	-2.18367	18.33521	29.04136	1.18373	0.84479	121.10808	133.67061	44.8882	0.349	 	744847.641	 	9.1944E-6	 	32403.18941	36.45849	 
1125.0	1.0	0.0	7.54199	7.33741	-2.21635	18.31117	28.96404	1.18266	0.84555	121.55121	134.003	45.05834	0.34882	 	808670.6996	 	8.43857E-6	 	32221.20379	36.39712	 
1120.0	1.0	0.0	7.5445	7.33496	-2.24896	18.28713	28.88671	1.18159	0.84632	121.9937	134.33397	45.22829	0.34864	 	878480.7577	 	7.7402E-6	 	32039.5244	36.33588	 
1115.0	1.0	0.0	7.54701	7.33252	-2.2815	18.26309	28.80939	1.18051	0.84709	122.43555	134.66353	45.39804	0.34847	 	954886.7174	 	7.09531E-6	 	31858.15068	36.27474	 
1110.0	1.0	0.0	7.54952	7.33008	-2.31398	18.23905	28.73206	1.17942	0.84787	122.87677	134.99168	45.5676	0.34829	 	1038564.12	 	6.50014E-6	 	31677.082	36.21374	 
1105.0	1.0	0.0	7.55203	7.32765	-2.34638	18.21501	28.65472	1.17833	0.84866	123.31734	135.31844	45.73696	0.34811	 	1130262.946	 	5.95119E-6	 	31496.31781	36.15284	 
1100.0	1.0	0.0	7.55453	7.32522	-2.37873	18.19097	28.57739	1.17723	0.84945	123.75728	135.6438	45.90613	0.34794	 	1230816.39	 	5.44517E-6	 	31315.85747	36.09207	 
1095.0	1.0	0.0	7.55703	7.3228	-2.411	18.16694	28.50005	1.17613	0.85025	124.19658	135.96777	46.07511	0.34776	 	1341150.729	 	4.97901E-6	 	31135.70041	36.03141	 
1090.0	1.0	0.0	7.55952	7.32039	-2.44321	18.1429	28.42271	1.17502	0.85105	124.63524	136.29036	46.24389	0.34759	 	1462296.449	 	4.54983E-6	 	30955.84604	35.97087	 
1085.0	1.0	0.0	7.56202	7.31797	-2.47536	18.11887	28.34536	1.1739	0.85186	125.07326	136.61156	46.41247	0.34741	 	1595400.771	 	4.15494E-6	 	30776.29375	35.91046	 
1080.0	1.0	0.0	7.5645	7.31557	-2.50743	18.09483	28.26802	1.17278	0.85267	125.51065	136.9314	46.58086	0.34723	 	1741741.789	 	3.79183E-6	 	30597.04295	35.85016	 
1075.0	1.0	0.0	7.56699	7.31317	-2.53944	18.0708	28.19067	1.17165	0.8535	125.94739	137.24987	46.74905	0.34706	 	1902744.43	 	3.45816E-6	 	30418.09306	35.78998	 
1070.0	1.0	0.0	7.56947	7.31077	-2.57138	18.04677	28.11331	1.17052	0.85432	126.3835	137.56697	46.91705	0.34688	 	2079998.478	 	3.15172E-6	 	30239.44346	35.72992	 
1065.0	1.0	0.0	7.57195	7.30838	-2.60326	18.02274	28.03596	1.16938	0.85515	126.81897	137.88271	47.08485	0.34671	 	2275278.955	 	2.8705E-6	 	30061.09356	35.66998	 
1060.0	1.0	0.0	7.57442	7.30599	-2.63507	17.9987	27.9586	1.16823	0.85599	127.2538	138.19711	47.25246	0.34653	 	2490569.183	 	2.61257E-6	 	29883.04278	35.61016	 
1055.0	1.0	0.0	7.57689	7.30361	-2.66681	17.97467	27.88123	1.16708	0.85684	127.688	138.51015	47.41987	0.34636	 	2728086.895	 	2.37616E-6	 	29705.29049	35.55046	 
1050.0	1.0	0.0	7.57936	7.30123	-2.69849	17.95065	27.80386	1.16592	0.85769	128.12155	138.82185	47.58708	0.34618	 	2990313.826	 	2.15963E-6	 	29527.83613	35.49087	 
1045.0	1.0	0.0	7.58182	7.29886	-2.73009	17.92662	27.72649	1.16476	0.85855	128.55447	139.13222	47.7541	0.346	 	3280029.284	 	1.96143E-6	 	29350.67908	35.43141	 
1040.0	1.0	0.0	7.58428	7.29649	-2.76164	17.90259	27.64912	1.16359	0.85941	128.98675	139.44125	47.92093	0.34583	 	3600348.244	 	1.78015E-6	 	29173.81874	35.37207	 
1037.25	1.0	0.0	7.58563	7.29519	-2.77893	17.88939	27.60662	1.16294	0.85989	129.22385	139.61038	48.01245	0.34573	 	3790504.308	 	1.68731E-6	 	29076.82783	35.32581	 
1035.0	1.0	0.0	7.58672	7.29414	-2.79298	17.87905	27.57179	1.16241	0.86028	129.41882	139.74959	48.08771	0.34565	 	3954865.297	 	1.61441E-6	 	28997.10875	35.36171	 
1030.0	1.0	0.0	7.58915	7.29181	-2.82409	17.85609	27.49453	1.16122	0.86116	129.85076	140.05736	48.25447	0.34548	 	4347551.582	 	1.46297E-6	 	28820.52504	35.31674	 
1025.0	1.0	0.0	7.59158	7.28948	-2.85515	17.83309	27.41726	1.16002	0.86205	130.28203	140.36376	48.42103	0.3453	 	4782703.341	 	1.32476E-6	 	28644.24999	35.25501	 
1020.0	1.0	0.0	7.594	7.28715	-2.88616	17.81005	27.33998	1.15882	0.86295	130.71263	140.66878	48.58737	0.34513	 	5265280.406	 	1.19871E-6	 	28468.28252	35.19349	 
1015.0	1.0	0.0	7.59642	7.28483	-2.91711	17.78698	27.26269	1.15761	0.86385	131.14255	140.97244	48.75351	0.34495	 	5800863.804	 	1.08383E-6	 	28292.62155	35.13219	 
1010.0	1.0	0.0	7.59884	7.28251	-2.94801	17.76388	27.1854	1.1564	0.86475	131.5718	141.27475	48.91944	0.34478	 	6395739.383	 	9.79204E-7	 	28117.26601	35.07111	 
1005.0	1.0	0.0	7.60126	7.28019	-2.97885	17.74075	27.10809	1.15518	0.86567	132.00037	141.57571	49.08516	0.34461	 	7056992.131	 	8.83993E-7	 	27942.21482	35.01024	 
1000.0	1.0	0.0	7.60367	7.27788	-3.00963	17.71759	27.03077	1.15395	0.86659	132.42828	141.87532	49.25067	0.34443	 	7792615.292	 	7.97413E-7	 	27767.46696	34.94957	 
995.0	1.0	0.0	7.60608	7.27558	-3.04036	17.6944	26.95344	1.15272	0.86752	132.85552	142.1736	49.41598	0.34426	 	8611633.981	 	7.1874E-7	 	27593.0214	34.88911	 
990.0	1.0	0.0	7.60849	7.27328	-3.07103	17.67118	26.8761	1.15148	0.86845	133.28209	142.47055	49.58108	0.34408	 	9524247.193	 	6.47308E-7	 	27418.87709	34.82886	 
985.0	1.0	0.0	7.61089	7.27098	-3.10165	17.64794	26.79876	1.15023	0.86939	133.708	142.76618	49.74597	0.34391	 	1.054199108E7	 	5.82501E-7	 	27245.03305	34.76881	 
980.0	1.0	0.0	7.61329	7.26869	-3.13221	17.62467	26.7214	1.14897	0.87034	134.13324	143.06049	49.91065	0.34373	 	1.16779257E7	 	5.2375E-7	 	27071.48825	34.70896	 
975.0	1.0	0.0	7.61569	7.2664	-3.16271	17.60137	26.64403	1.14771	0.8713	134.55782	143.35349	50.07513	0.34356	 	1.294684927E7	 	4.70532E-7	 	26898.24171	34.64931	 
970.0	1.0	0.0	7.61809	7.26411	-3.19315	17.57805	26.56666	1.14644	0.87226	134.98173	143.64518	50.2394	0.34339	 	1.436554542E7	 	4.22365E-7	 	26725.29246	34.58985	 
965.0	1.0	0.0	7.62048	7.26183	-3.22353	17.55471	26.48928	1.14517	0.87323	135.40498	143.93558	50.40346	0.34321	 	1.595306634E7	 	3.78805E-7	 	26552.63951	34.53059	 
960.0	1.0	0.0	7.62287	7.25956	-3.25386	17.53135	26.41188	1.14389	0.87421	135.82756	144.22469	50.56732	0.34304	 	1.773106046E7	 	3.39444E-7	 	26380.28191	34.47152	 
955.0	1.0	0.0	7.62525	7.25729	-3.28412	17.50796	26.33448	1.1426	0.8752	136.24949	144.51251	50.73097	0.34286	 	1.972414847E7	 	3.03906E-7	 	26208.21871	34.41264	 
950.0	1.0	0.0	7.62763	7.25502	-3.31433	17.48455	26.25707	1.1413	0.87619	136.67076	144.79904	50.89441	0.34269	 	2.196035791E7	 	2.71849E-7	 	26036.44895	34.35395	 
945.0	1.0	0.0	7.63001	7.25276	-3.34448	17.46112	26.17965	1.14	0.8772	137.09137	145.08431	51.05766	0.34252	 	2.4471628E7	 	2.42954E-7	 	25864.97171	34.29545	 
940.0	1.0	0.0	7.63239	7.2505	-3.37456	17.43768	26.10222	1.13868	0.87821	137.51131	145.3683	51.22069	0.34234	 	2.729438708E7	 	2.16934E-7	 	25693.78605	34.23713	 
935.0	1.0	0.0	7.63476	7.24825	-3.40459	17.41421	26.02478	1.13737	0.87923	137.93061	145.65103	51.38352	0.34217	 	3.047022741E7	 	1.93523E-7	 	25522.89106	34.179	 
930.0	1.0	0.0	7.63713	7.246	-3.43456	17.39073	25.94733	1.13604	0.88025	138.34924	145.93251	51.54615	0.34199	 	3.404668402E7	 	1.72477E-7	 	25352.28582	34.12105	 
925.0	1.0	0.0	7.6395	7.24375	-3.46446	17.36723	25.86987	1.13471	0.88129	138.76722	146.21273	51.70857	0.34182	 	3.807813979E7	 	1.53576E-7	 	25181.96943	34.06328	 
920.0	1.0	0.0	7.64186	7.24152	-3.4943	17.34371	25.7924	1.13336	0.88233	139.18454	146.4917	51.87078	0.34165	 	4.262687143E7	 	1.36615E-7	 	25011.94101	34.00569	 
915.0	1.0	0.0	7.64422	7.23928	-3.52409	17.32018	25.71493	1.13201	0.88338	139.60121	146.76944	52.03279	0.34147	 	4.77642758E7	 	1.2141E-7	 	24842.19964	33.94827	 
910.0	1.0	0.0	7.64657	7.23705	-3.55381	17.29664	25.63744	1.13066	0.88444	140.01723	147.04594	52.1946	0.3413	 	5.357228562E7	 	1.07792E-7	 	24672.74445	33.89104	 
905.0	1.0	0.0	7.64893	7.23482	-3.58347	17.27308	25.55995	1.12929	0.88551	140.43259	147.32121	52.3562	0.34113	 	6.014502787E7	 	9.56065E-8	 	24503.57455	33.83398	 
900.0	1.0	0.0	7.65127	7.2326	-3.61307	17.2495	25.48244	1.12792	0.88659	140.8473	147.59525	52.5176	0.34095	 	6.759075174E7	 	8.47136E-8	 	24334.68908	33.77709	 
895.0	1.0	0.0	7.65362	7.23039	-3.6426	17.22592	25.40492	1.12654	0.88767	141.26135	147.86807	52.6788	0.34078	 	7.603408935E7	 	7.49854E-8	 	24166.08716	33.72038	 
890.0	1.0	0.0	7.65596	7.22818	-3.67208	17.20232	25.3274	1.12515	0.88877	141.67476	148.13968	52.83979	0.34061	 	8.561867965E7	 	6.63062E-8	 	23997.76793	33.66385	 
885.0	1.0	0.0	7.6583	7.22597	-3.70149	17.1787	25.24987	1.12376	0.88987	142.08751	148.41008	53.00057	0.34043	 	9.651027303E7	 	5.85704E-8	 	23829.73053	33.60748	 
880.0	1.0	0.0	7.66063	7.22377	-3.73084	17.15508	25.17232	1.12235	0.89099	142.49961	148.67928	53.16116	0.34026	 	1.089003286E8	 	5.16825E-8	 	23661.97405	33.5513	 
875.0	1.0	0.0	7.66297	7.22157	-3.76012	17.13145	25.09477	1.12094	0.89211	142.91107	148.94728	53.32154	0.34009	 	1.230102677E8	 	4.55558E-8	 	23494.49763	33.49528	 
870.0	1.0	0.0	7.66529	7.21938	-3.78934	17.10781	25.0172	1.11952	0.89324	143.32187	149.21408	53.48171	0.33991	 	1.390964657E8	 	4.0112E-8	 	23327.30052	33.43942	 
865.0	1.0	0.0	7.66762	7.21719	-3.8185	17.08415	24.93963	1.11809	0.89438	143.73203	149.47969	53.64169	0.33974	 	1.574560909E8	 	3.52799E-8	 	23160.38186	33.38373	 
860.0	1.0	0.0	7.66994	7.215	-3.8476	17.06049	24.86204	1.11665	0.89554	144.14153	149.74412	53.80146	0.33957	 	1.784340389E8	 	3.09953E-8	 	22993.74081	33.32821	 
855.0	1.0	0.0	7.67225	7.21283	-3.87663	17.03682	24.78445	1.1152	0.8967	144.55039	150.00737	53.96102	0.3394	 	2.024310632E8	 	2.72005E-8	 	22827.37654	33.27285	 
850.0	1.0	0.0	7.67457	7.21065	-3.9056	17.01314	24.70684	1.11375	0.89787	144.95861	150.26945	54.12039	0.33922	 	2.299133778E8	 	2.3843E-8	 	22661.28821	33.21767	 
845.0	1.0	0.0	7.67688	7.20848	-3.93455	16.98927	24.62921	1.11228	0.89905	145.36602	150.53015	54.27949	0.33905	 	2.614216034E8	 	2.08759E-8	 	22498.83334	32.49097	 
840.0	1.0	0.0	7.67919	7.20631	-3.96343	16.96539	24.55157	1.11081	0.90024	145.7728	150.78969	54.4384	0.33888	 	2.975909925E8	 	1.82566E-8	 	22333.3319	33.10029	 
835.0	1.0	0.0	7.68149	7.20415	-3.99224	16.94152	24.47391	1.10933	0.90144	146.17895	151.04809	54.59711	0.33871	 	3.391610318E8	 	1.5947E-8	 	22168.1013	33.04612	 
830.0	1.0	0.0	7.68379	7.20199	-4.02099	16.91765	24.39625	1.10784	0.90266	146.58445	151.30534	54.75561	0.33853	 	3.869963577E8	 	1.39128E-8	 	22003.14082	32.9921	 
825.0	1.0	0.0	7.68609	7.19984	-4.04968	16.89379	24.31857	1.10634	0.90388	146.98932	151.56144	54.91392	0.33836	 	4.42109251E8	 	1.21232E-8	 	21838.44979	32.93821	 
820.0	1.0	0.0	7.68838	7.19769	-4.07829	16.86992	24.24089	1.10483	0.90511	147.39354	151.81642	55.07203	0.33819	 	5.056864101E8	 	1.05508E-8	 	21674.02744	32.88447	 
815.0	1.0	0.0	7.69067	7.19555	-4.10684	16.84606	24.1632	1.10332	0.90636	147.79713	152.07025	55.22993	0.33802	 	5.791208607E8	 	9.17078E-9	 	21509.87307	32.83087	 
810.0	1.0	0.0	7.69296	7.19341	-4.13532	16.82219	24.08549	1.10179	0.90761	148.20008	152.32296	55.38764	0.33784	 	6.640500421E8	 	7.96113E-9	 	21345.98594	32.77742	 
805.0	1.0	0.0	7.69524	7.19128	-4.16374	16.79833	24.00777	1.10026	0.90888	148.6024	152.57455	55.54514	0.33767	 	7.624013294E8	 	6.90212E-9	 	21182.36529	32.72413	 
800.0	1.0	0.0	7.69752	7.18916	-4.19209	16.77447	23.93004	1.09871	0.91016	149.00407	152.82501	55.70244	0.3375	 	8.764465241E8	 	5.97615E-9	 	21019.01038	32.67098	 
795.0	1.0	0.0	7.69979	7.18703	-4.22037	16.75061	23.8523	1.09716	0.91145	149.40511	153.07436	55.85954	0.33733	 	1.008867176E9	 	5.16755E-9	 	20855.92042	32.61799	 
790.0	1.0	0.0	7.70206	7.18492	-4.24859	16.72676	23.77455	1.09559	0.91275	149.8055	153.32259	56.01644	0.33716	 	1.162833002E9	 	4.46235E-9	 	20693.09464	32.56516	 
785.0	1.0	0.0	7.70432	7.1828	-4.27674	16.7029	23.69679	1.09402	0.91406	150.20526	153.56971	56.17314	0.33698	 	1.342096185E9	 	3.84813E-9	 	20530.53225	32.51248	 
780.0	1.0	0.0	7.70658	7.1807	-4.30483	16.67905	23.61901	1.09243	0.91539	150.60438	153.81573	56.32964	0.33681	 	1.551104912E9	 	3.31387E-9	 	20368.23244	32.45996	 
775.0	1.0	0.0	7.70884	7.17859	-4.33285	16.6552	23.54122	1.09084	0.91673	151.00287	154.06064	56.48593	0.33664	 	1.795140331E9	 	2.84978E-9	 	20206.19439	32.40761	 
770.0	1.0	0.0	7.71109	7.1765	-4.3608	16.63135	23.46342	1.08924	0.91808	151.40071	154.30445	56.64203	0.33647	 	2.08048198E9	 	2.4472E-9	 	20044.41726	32.35543	 
765.0	1.0	0.0	7.71334	7.1744	-4.38869	16.6075	23.3856	1.08762	0.91944	151.79792	154.54718	56.79792	0.3363	 	2.414607946E9	 	2.09846E-9	 	19882.9002	32.30341	 
760.0	1.0	0.0	7.71559	7.17232	-4.4165	16.58366	23.30777	1.086	0.92081	152.19448	154.78881	56.95361	0.33613	 	2.806437436E9	 	1.79678E-9	 	19721.64234	32.25157	 
755.0	1.0	0.0	7.71783	7.17023	-4.44426	16.55981	23.22993	1.08436	0.9222	152.59041	155.02935	57.1091	0.33596	 	3.266625219E9	 	1.53619E-9	 	19560.64279	32.19991	 
750.0	1.0	0.0	7.72007	7.16816	-4.47195	16.53597	23.15207	1.08272	0.9236	152.98571	155.26881	57.26439	0.33578	 	3.807919644E9	 	1.31141E-9	 	19399.90065	32.14843	 
745.0	1.0	0.0	7.7223	7.16608	-4.49957	16.51213	23.0742	1.08106	0.92501	153.38036	155.50719	57.41947	0.33561	 	4.445598671E9	 	1.11781E-9	 	19239.41498	32.09713	 
740.0	1.0	0.0	7.72453	7.16402	-4.52712	16.48829	22.99631	1.0794	0.92644	153.77437	155.74449	57.57435	0.33544	 	5.198001853E9	 	9.51314E-10	 	19079.18484	32.04603	 
735.0	1.0	0.0	7.72675	7.16195	-4.55461	16.46445	22.91841	1.07772	0.92788	154.16775	155.98072	57.72903	0.33527	 	6.087180476E9	 	8.08343E-10	 	18919.20926	31.99512	 
730.0	1.0	0.0	7.72897	7.1599	-4.58203	16.44061	22.84049	1.07604	0.92934	154.56049	156.21588	57.88351	0.3351	 	7.139693531E9	 	6.85761E-10	 	18759.48722	31.94441	 
725.0	1.0	0.0	7.73119	7.15784	-4.60939	16.41678	22.76256	1.07434	0.93081	154.95259	156.44998	58.03778	0.33493	 	8.387583952E9	 	5.80825E-10	 	18600.01771	31.8939	 
720.0	1.0	0.0	7.7334	7.15579	-4.63668	16.39295	22.68461	1.07263	0.93229	155.34405	156.68302	58.19186	0.33476	 	9.869578101E9	 	4.91137E-10	 	18440.79965	31.84361	 
715.0	1.0	0.0	7.73561	7.15375	-4.6639	16.36911	22.60665	1.07091	0.93379	155.73487	156.91499	58.34573	0.33459	 	1.16326E10	 	4.14605E-10	 	18281.83199	31.79353	 
710.0	1.0	0.0	7.73781	7.15171	-4.69106	16.34528	22.52867	1.06918	0.9353	156.12506	157.14592	58.49939	0.33442	 	1.3733399999999998E10	 	3.49404E-10	 	18123.11357	31.74368	 
705.0	1.0	0.0	7.74001	7.14968	-4.71815	16.32146	22.45067	1.06744	0.93682	156.5146	157.37579	58.65286	0.33425	 	1.6241199999999998E10	 	2.9395E-10	 	17964.64326	31.69406	 
700.0	1.0	0.0	7.74221	7.14765	-4.74517	16.29763	22.37266	1.06568	0.93836	156.90351	157.60462	58.80612	0.33407	 	1.92401E10	 	2.46865E-10	 	17806.41986	31.64468	 
695.0	1.0	0.0	7.7444	7.14563	-4.77213	16.27381	22.29463	1.06392	0.93992	157.29178	157.8324	58.95917	0.3339	 	2.28326E10	 	2.06954E-10	 	17648.44212	31.59555	 
690.0	1.0	0.0	7.74659	7.14361	-4.79902	16.24998	22.21658	1.06214	0.94149	157.67941	158.05914	59.11203	0.33373	 	2.7144099999999996E10	 	1.73183E-10	 	17490.70877	31.54667	 
685.0	1.0	0.0	7.74877	7.1416	-4.82585	16.22616	22.13851	1.06035	0.94308	158.06641	158.28484	59.26468	0.33356	 	3.2328099999999996E10	 	1.44657E-10	 	17333.21848	31.49806	 
680.0	1.0	0.0	7.75095	7.13959	-4.85261	16.20234	22.06042	1.05856	0.94468	158.45276	158.50951	59.41713	0.33339	 	3.85728E10	 	1.20606E-10	 	17175.96989	31.44972	 
675.0	1.0	0.0	7.75313	7.13759	-4.8793	16.17852	21.98232	1.05674	0.9463	158.83848	158.73316	59.56937	0.33322	 	4.61095E10	 	1.00363E-10	 	17018.96154	31.40167	 
670.0	1.0	0.0	7.7553	7.13559	-4.90593	16.15471	21.90419	1.05492	0.94794	159.22356	158.95577	59.72141	0.33305	 	5.522329999999999E10	 	8.33576E-11	 	16862.19197	31.35391	 
665.0	1.0	0.0	7.75747	7.1336	-4.93249	16.13089	21.82605	1.05308	0.94959	159.608	159.17736	59.87325	0.33288	 	6.626569999999999E10	 	6.90988E-11	 	16705.65961	31.30647	 
660.0	1.0	0.0	7.75963	7.13161	-4.95898	16.10708	21.74788	1.05124	0.95126	159.9918	159.39794	60.02488	0.33271	 	7.96716E10	 	5.71656E-11	 	16549.36595	31.25873	 
655.0	1.0	0.0	7.76179	7.12963	-4.98541	16.08327	21.6697	1.04938	0.95295	160.37497	159.61749	60.17631	0.33254	 	9.597999999999998E10	 	4.71981E-11	 	16393.32787	31.20762	 
650.0	1.0	0.0	7.76394	7.12765	-5.01178	16.05946	21.59149	1.0475	0.95465	160.75749	159.83603	60.32753	0.33237	 	1.1586E11	 	3.88889E-11	 	16237.56786	31.152	 
645.0	1.0	0.0	7.76609	7.12568	-5.03807	16.03565	21.51326	1.04562	0.95637	161.13938	160.05357	60.47855	0.3322	 	1.40145E11	 	3.19759E-11	 	16082.08512	31.09655	 
640.0	1.0	0.0	7.76824	7.12371	-5.0643	16.01184	21.43501	1.04372	0.95811	161.52063	160.2701	60.62937	0.33203	 	1.69874E11	 	2.62363E-11	 	15926.87888	31.04125	 
635.0	1.0	0.0	7.77038	7.12174	-5.09047	15.98804	21.35674	1.04181	0.95987	161.90124	160.48562	60.77998	0.33186	 	2.06345E11	 	2.14808E-11	 	15771.9483	30.98612	 
630.0	1.0	0.0	7.77251	7.11979	-5.11656	15.96423	21.27845	1.03989	0.96164	162.28121	160.70015	60.93039	0.33169	 	2.51188E11	 	1.75488E-11	 	15617.29263	30.93114	 
625.0	1.0	0.0	7.77465	7.11783	-5.1426	15.94043	21.20013	1.03795	0.96344	162.66055	160.91368	61.08059	0.33152	 	3.06445E11	 	1.43048E-11	 	15462.91099	30.87633	 
620.0	1.0	0.0	7.77678	7.11588	-5.16856	15.91663	21.12179	1.036	0.96525	163.03924	161.12621	61.23059	0.33135	 	3.74692E11	 	1.16342E-11	 	15308.80247	30.8217	 
615.0	1.0	0.0	7.7789	7.11394	-5.19446	15.89283	21.04342	1.03404	0.96708	163.4173	161.33776	61.38038	0.33119	 	4.59176E11	 	9.44047E-12	 	15154.96634	30.76722	 
610.0	1.0	0.0	7.78102	7.112	-5.2203	15.86904	20.96503	1.03206	0.96894	163.79472	161.54832	61.52997	0.33102	 	5.64006E11	 	7.64253E-12	 	15001.40184	30.7129	 
605.0	1.0	0.0	7.78314	7.11007	-5.24606	15.84524	20.88662	1.03007	0.97081	164.1715	161.75789	61.67935	0.33085	 	6.94393E11	 	6.17234E-12	 	14848.10819	30.65873	 
600.0	1.0	0.0	7.78525	7.10814	-5.27176	15.82145	20.80818	1.02807	0.9727	164.54764	161.96649	61.82853	0.33068	 	8.56962E11	 	4.97295E-12	 	14695.0846	30.60472	 
595.0	1.0	0.0	7.78736	7.10622	-5.2974	15.79766	20.72971	1.02605	0.97461	164.92315	162.17411	61.9775	0.33051	 	1.06016E12	 	3.99679E-12	 	14542.3303	30.55086	 
590.0	1.0	0.0	7.78946	7.1043	-5.32297	15.77387	20.65122	1.02402	0.97655	165.29801	162.38076	62.12627	0.33034	 	1.31477E12	 	3.20423E-12	 	14389.84454	30.49715	 
585.0	1.0	0.0	7.79156	7.10238	-5.34847	15.75008	20.5727	1.02197	0.9785	165.67224	162.58643	62.27483	0.33017	 	1.63462E12	 	2.56232E-12	 	14237.62654	30.4436	 
580.0	1.0	0.0	7.79365	7.10047	-5.37391	15.72629	20.49415	1.01991	0.98048	166.04583	162.79114	62.42319	0.33	 	2.03748E12	 	2.04371E-12	 	14085.67554	30.3902	 
575.0	1.0	0.0	7.79574	7.09857	-5.39928	15.70251	20.41557	1.01783	0.98248	166.41878	162.99488	62.57134	0.32983	 	2.54624E12	 	1.62578E-12	 	13933.99079	30.33695	 
570.0	1.0	0.0	7.79783	7.09667	-5.42459	15.67872	20.33696	1.01575	0.9845	166.7911	163.19767	62.71929	0.32966	 	3.19045E12	 	1.28985E-12	 	13782.57153	30.28385	 
565.0	1.0	0.0	7.79991	7.09478	-5.44982	15.65494	20.25833	1.01364	0.98654	167.16277	163.39949	62.86703	0.32949	 	4.00842E12	 	1.02055E-12	 	13631.41699	30.23091	 
560.0	1.0	0.0	7.80199	7.09289	-5.475	15.63116	20.17966	1.01152	0.98861	167.53381	163.60036	63.01456	0.32933	 	5.04992E12	 	8.0524E-13	 	13480.52643	30.17811	 
555.0	1.0	0.0	7.80406	7.09101	-5.5001	15.60738	20.10096	1.00939	0.9907	167.90421	163.80028	63.16189	0.32916	 	6.3798E12	 	6.33562E-13	 	13329.89912	30.12546	 
550.0	1.0	0.0	7.80613	7.08913	-5.52515	15.58361	20.02223	1.00724	0.99281	168.27397	163.99925	63.30901	0.32899	 	8.08282E12	 	4.97053E-13	 	13179.53431	30.07296	 
545.0	1.0	0.0	7.80819	7.08725	-5.55012	15.55983	19.94347	1.00507	0.99495	168.64309	164.19727	63.45593	0.32882	 	1.02701E13	 	3.88817E-13	 	13029.43126	30.02061	 
540.0	1.0	0.0	7.81025	7.08538	-5.57503	15.53606	19.86468	1.00289	0.99711	169.01157	164.39435	63.60263	0.32865	 	1.30878E13	 	3.03244E-13	 	12879.58923	29.96841	 
535.0	1.0	0.0	7.81231	7.08352	-5.59987	15.51228	19.78585	1.0007	0.9993	169.37942	164.5905	63.74914	0.32848	 	1.67286E13	 	2.35787E-13	 	12730.00751	29.91634	 
530.0	1.0	0.0	7.81436	7.08166	-5.62465	15.48851	19.70698	0.99849	1.00151	169.74663	164.7857	63.89543	0.32832	 	2.14477E13	 	1.82769E-13	 	12580.68536	29.86443	 
525.0	1.0	0.0	7.81641	7.07981	-5.64936	15.46475	19.62809	0.99626	1.00375	170.11319	164.97997	64.04152	0.32815	 	2.75838E13	 	1.41227E-13	 	12431.62206	29.81266	 
520.0	1.0	0.0	7.81845	7.07796	-5.674	15.44098	19.54915	0.99402	1.00602	170.47912	165.17331	64.18741	0.32798	 	3.55881E13	 	1.08777E-13	 	12282.81691	29.76103	 
515.0	1.0	0.0	7.82049	7.07611	-5.69858	15.41721	19.47018	0.99176	1.00831	170.84442	165.36572	64.33308	0.32781	 	4.60638E13	 	8.35095E-14	 	12134.26918	29.70955	 
510.0	1.0	0.0	7.82252	7.07427	-5.7231	15.39345	19.39117	0.98948	1.01063	171.20907	165.55721	64.47855	0.32764	 	5.98198E13	 	6.38979E-14	 	11985.97816	29.6582	 
505.0	1.0	0.0	7.82455	7.07244	-5.74754	15.36969	19.31213	0.98719	1.01298	171.57309	165.74778	64.62381	0.32748	 	7.79452E13	 	4.8726E-14	 	11837.94317	29.607	 
500.0	1.0	0.0	7.82657	7.07061	-5.77192	15.34593	19.23304	0.98488	1.01536	171.93646	165.93742	64.76887	0.32731	 	1.01911E14	 	3.7028E-14	 	11690.1635	29.55593	 
495.0	1.0	0.0	7.82859	7.06878	-5.79624	15.32217	19.15391	0.98255	1.01776	172.2992	166.12615	64.91372	0.32714	 	1.3371099999999998E14	 	2.80392E-14	 	11542.63847	29.50501	 
490.0	1.0	0.0	7.83061	7.06696	-5.82049	15.29841	19.07475	0.98021	1.02019	172.6613	166.31397	65.05836	0.32697	 	1.76059E14	 	2.11562E-14	 	11395.36738	29.45422	 
485.0	1.0	0.0	7.83262	7.06515	-5.84467	15.27466	18.99554	0.97784	1.02266	173.02277	166.50088	65.20279	0.3268	 	2.32663E14	 	1.59043E-14	 	11248.34956	29.40356	 
480.0	1.0	0.0	7.83463	7.06334	-5.86879	15.2509	18.91629	0.97546	1.02515	173.38359	166.68688	65.34701	0.32664	 	3.08604E14	 	1.19115E-14	 	11101.58434	29.35304	 
475.0	1.0	0.0	7.83663	7.06154	-5.89284	15.22715	18.83699	0.97307	1.02768	173.74378	166.87198	65.49103	0.32647	 	4.10882E14	 	8.88706E-15	 	10955.07104	29.30266	 
470.0	1.0	0.0	7.83863	7.05974	-5.91683	15.2034	18.75765	0.97065	1.03023	174.10333	167.05617	65.63484	0.3263	 	5.4916799999999994E14	 	6.60477E-15	 	10808.80901	29.25241	 
465.0	1.0	0.0	7.84062	7.05794	-5.94075	15.17965	18.67827	0.96822	1.03282	174.46224	167.23947	65.77844	0.32614	 	7.36886E14	 	4.88912E-15	 	10662.79759	29.20229	 
460.0	1.0	0.0	7.84261	7.05615	-5.9646	15.1559	18.59883	0.96577	1.03544	174.82051	167.42186	65.92184	0.32597	 	9.92744E14	 	3.60448E-15	 	10517.03613	29.15229	 
455.0	1.0	0.0	7.84459	7.05437	-5.98839	15.13216	18.51935	0.9633	1.0381	175.17814	167.60337	66.06503	0.3258	 	1.34292E15	 	2.6464E-15	 	10371.524	29.10243	 
450.0	1.0	0.0	7.84657	7.05259	-6.01211	15.10841	18.43982	0.96081	1.04079	175.53513	167.78399	66.208	0.32563	 	1.82423E15	 	1.93479E-15	 	10226.26056	29.05269	 
445.0	1.0	0.0	7.84855	7.05081	-6.03577	15.08467	18.36024	0.9583	1.04351	175.89149	167.96371	66.35077	0.32547	 	2.48864E15	 	1.40845E-15	 	10081.24517	29.00308	 
440.0	1.0	0.0	7.85052	7.04904	-6.05936	15.06093	18.28061	0.95578	1.04627	176.24721	168.14256	66.49334	0.3253	 	3.40984E15	 	1.02078E-15	 	9936.47724	28.95359	 
435.0	1.0	0.0	7.85249	7.04728	-6.08288	15.03719	18.20093	0.95323	1.04906	176.60229	168.32052	66.63569	0.32513	 	4.69286E15	 	7.36503E-16	 	9791.95613	28.90422	 
430.0	1.0	0.0	7.85445	7.04552	-6.10634	15.01346	18.12119	0.95066	1.0519	176.95673	168.4976	66.77783	0.32497	 	6.48805E15	 	5.28957E-16	 	9647.68126	28.85497	 
425.0	1.0	0.0	7.85641	7.04376	-6.12973	14.98972	18.0414	0.94808	1.05476	177.31054	168.6738	66.91977	0.3248	 	9.01168E15	 	3.7812E-16	 	9503.65207	28.80584	 
420.0	1.0	0.0	7.85836	7.04201	-6.15306	14.96599	17.96155	0.94547	1.05767	177.6637	168.84913	67.0615	0.32463	 	1.25764E16	 	2.69004E-16	 	9359.8679	28.75683	 
415.0	1.0	0.0	7.86031	7.04026	-6.17632	14.94225	17.88164	0.94285	1.06062	178.01623	169.02359	67.20301	0.32447	 	1.7636400000000002E16	 	1.90441E-16	 	9216.32838	28.7079	 
410.0	1.0	0.0	7.86225	7.03852	-6.19951	14.91852	17.80168	0.9402	1.0636	178.36812	169.19718	67.34432	0.3243	 	2.48549E16	 	1.3415E-16	 	9073.03318	28.65904	 
405.0	1.0	0.0	7.86419	7.03679	-6.22264	14.89479	17.72165	0.93754	1.06663	178.71937	169.36991	67.48542	0.32413	 	3.5205700000000004E16	 	9.40155E-17	 	8929.98199	28.61024	 
400.0	1.0	0.0	7.86612	7.03506	-6.24571	14.87107	17.64156	0.93485	1.06969	179.06998	169.54177	67.62632	0.32397	 	5.01256E16	 	6.55449E-17	 	8787.17455	28.56149	 
395.0	1.0	0.0	7.86805	7.03333	-6.26871	14.84734	17.56141	0.93214	1.0728	179.41995	169.71277	67.767	0.3238	 	7.1746800000000008E16	 	4.54525E-17	 	8644.61056	28.5128	 
390.0	1.0	0.0	7.86998	7.03161	-6.29164	14.82362	17.4812	0.92941	1.07595	179.76929	169.88291	67.90747	0.32363	 	1.03251E17	 	3.13476E-17	 	8502.28975	28.46416	 
385.0	1.0	0.0	7.8719	7.0299	-6.3145	14.79989	17.40091	0.92666	1.07915	180.11799	170.0522	68.04773	0.32347	 	1.49413E17	 	2.14993E-17	 	8360.21188	28.41557	 
380.0	1.0	0.0	7.87382	7.02818	-6.3373	14.77617	17.32056	0.92388	1.08239	180.46604	170.22064	68.18779	0.3233	 	2.1744E17	 	1.46609E-17	 	8218.37669	28.36704	 
375.0	1.0	0.0	7.87573	7.02648	-6.36004	14.75245	17.24014	0.92109	1.08567	180.81347	170.38822	68.32763	0.32314	 	3.18276E17	 	9.93935E-18	 	8076.78395	28.31855	 
370.0	1.0	0.0	7.87764	7.02478	-6.38271	14.72874	17.15965	0.91827	1.08901	181.16025	170.55496	68.46726	0.32297	 	4.68643E17	 	6.69818E-18	 	7935.43346	28.2701	 
365.0	1.0	0.0	7.87954	7.02308	-6.40531	14.70502	17.07908	0.91543	1.09238	181.50639	170.72085	68.60669	0.3228	 	6.94245E17	 	4.48638E-18	 	7794.32497	28.2217	 
360.0	1.0	0.0	7.88144	7.02139	-6.42785	14.68131	16.99844	0.91256	1.09581	181.8519	170.8859	68.7459	0.32264	 	1.03486E18	 	2.98616E-18	 	7653.45832	28.17333	 
355.0	1.0	0.0	7.88333	7.0197	-6.45032	14.65759	16.91772	0.90968	1.09929	182.19677	171.05011	68.88491	0.32247	 	1.55241E18	 	1.97489E-18	 	7512.83334	28.125	 
350.0	1.0	0.0	7.88522	7.01802	-6.47272	14.63388	16.83693	0.90677	1.10282	182.541	171.21348	69.0237	0.32231	 	2.34401E18	 	1.29754E-18	 	7372.44983	28.0767	 
345.0	1.0	0.0	7.8871	7.01635	-6.49506	14.61017	16.75605	0.90383	1.1064	182.88459	171.37602	69.16228	0.32214	 	3.56293E18	 	8.46786E-19	 	7232.30766	28.02843	 
340.0	1.0	0.0	7.88898	7.01468	-6.51734	14.58647	16.67508	0.90088	1.11003	183.22754	171.53773	69.30066	0.32198	 	5.45281E18	 	5.48824E-19	 	7092.40672	27.98019	 
335.0	1.0	0.0	7.89086	7.01301	-6.53955	14.56276	16.59404	0.89789	1.11372	183.56986	171.6986	69.43882	0.32181	 	8.40375E18	 	3.53203E-19	 	6952.74686	27.93197	 
330.0	1.0	0.0	7.89273	7.01135	-6.56169	14.53906	16.5129	0.89489	1.11746	183.91153	171.85865	69.57677	0.32164	 	1.30449E19	 	2.25669E-19	 	6813.32802	27.88377	 
325.0	1.0	0.0	7.89459	7.00969	-6.58377	14.51535	16.43167	0.89186	1.12126	184.25257	172.01788	69.71452	0.32148	 	2.03986E19	 	1.43119E-19	 	6674.15009	27.83559	 
320.0	1.0	0.0	7.89645	7.00804	-6.60578	14.49165	16.35035	0.8888	1.12511	184.59297	172.17628	69.85205	0.32131	 	3.21391E19	 	9.00778E-20	 	6535.21301	27.78741	 
315.0	1.0	0.0	7.89831	7.00639	-6.62772	14.46795	16.26894	0.88572	1.12903	184.93273	172.33386	69.98937	0.32115	 	5.10298E19	 	5.62537E-20	 	6396.51677	27.73925	 
310.0	1.0	0.0	7.90016	7.00475	-6.6496	14.44426	16.18743	0.88261	1.133	185.27186	172.49062	70.12648	0.32098	 	8.16689E19	 	3.48506E-20	 	6258.06133	27.69109	 
305.0	1.0	0.0	7.902	7.00311	-6.67142	14.42056	16.10582	0.87948	1.13704	185.61034	172.64657	70.26337	0.32082	 	1.3177199999999998E20	 	2.14143E-20	 	6119.8467	27.64293	 
300.0	1.0	0.0	7.90385	7.00148	-6.69317	14.39687	16.0241	0.87632	1.14114	185.94819	172.80171	70.40006	0.32065	 	2.1439399999999997E20	 	1.30479E-20	 	5981.87289	27.59476	 
295.0	1.0	0.0	7.90568	6.99985	-6.71485	14.37317	15.94228	0.87313	1.14531	186.2854	172.95604	70.53654	0.32049	 	3.5182299999999997E20	 	7.88179E-21	 	5844.13997	27.54658	 
290.0	1.0	0.0	7.90752	6.99823	-6.73647	14.34948	15.86035	0.86992	1.14954	186.62197	173.10956	70.6728	0.32032	 	5.8244599999999993E20	 	4.71905E-21	 	5706.648	27.49839	 
285.0	1.0	0.0	7.90934	6.99662	-6.75802	14.32579	15.77831	0.86668	1.15383	186.9579	173.26227	70.80885	0.32016	 	9.72993E20	 	2.79981E-21	 	5569.39709	27.45018	 
280.0	1.0	0.0	7.91117	6.995	-6.77951	14.30211	15.69615	0.86341	1.1582	187.29319	173.41419	70.94469	0.31999	 	1.64056E21	 	1.64565E-21	 	5432.38736	27.40195	 
275.0	1.0	0.0	7.91299	6.9934	-6.80093	14.27842	15.61387	0.86011	1.16264	187.62785	173.5653	71.08032	0.31983	 	2.79263E21	 	9.58016E-22	 	5295.61898	27.35368	 
270.0	1.0	0.0	7.9148	6.99179	-6.82228	14.25474	15.53148	0.85679	1.16715	187.96187	173.71561	71.21574	0.31967	 	4.80052E21	 	5.52227E-22	 	5159.09211	27.30537	 
265.0	1.0	0.0	7.91661	6.9902	-6.84357	14.23105	15.44895	0.85343	1.17174	188.29525	173.86513	71.35095	0.3195	 	8.33557E21	 	3.15105E-22	 	5022.80697	27.25703	 
260.0	1.0	0.0	7.91841	6.9886	-6.86479	14.20737	15.3663	0.85005	1.1764	188.62799	174.01385	71.48594	0.31934	 	1.46244E22	 	1.77934E-22	 	4886.76382	27.20863	 
255.0	1.0	0.0	7.92021	6.98702	-6.88595	14.18369	15.28352	0.84664	1.18114	188.96009	174.16179	71.62072	0.31917	 	2.59323E22	 	9.94037E-23	 	4750.96293	27.16018	 
250.0	1.0	0.0	7.92201	6.98543	-6.90704	14.16001	15.20059	0.8432	1.18596	189.29155	174.30893	71.75529	0.31901	 	4.64901E22	 	5.49227E-23	 	4615.40463	27.11166	 
245.0	1.0	0.0	7.9238	6.98386	-6.92807	14.13634	15.11753	0.83973	1.19086	189.62238	174.45529	71.88965	0.31884	 	8.428939999999999E22	 	3.00033E-23	 	4480.08925	27.06308	 
240.0	1.0	0.0	7.92558	6.98228	-6.94903	14.11266	15.03432	0.83623	1.19584	189.95257	174.60086	72.0238	0.31868	 	1.54604E23	 	1.61998E-23	 	4345.01722	27.01441	 
235.0	1.0	0.0	7.92736	6.98071	-6.96993	14.08899	14.95096	0.8327	1.20091	190.28212	174.74566	72.15773	0.31852	 	2.86981E23	 	8.64222E-24	 	4210.18893	26.96566	 
230.0	1.0	0.0	7.92914	6.97915	-6.99076	14.06532	14.86745	0.82914	1.20607	190.61103	174.88967	72.29145	0.31835	 	5.39293E23	 	4.55364E-24	 	4075.60489	26.91681	 
225.0	1.0	0.0	7.93091	6.97759	-7.01152	14.04165	14.78378	0.82554	1.21132	190.9393	175.0329	72.42496	0.31819	 	1.02635E24	 	2.36892E-24	 	3941.26561	26.86785	 
220.0	1.0	0.0	7.93267	6.97604	-7.03222	14.01798	14.69994	0.82192	1.21666	191.26694	175.17537	72.55825	0.31802	 	1.97895E24	 	1.21627E-24	 	3807.17166	26.81879	 
215.0	1.0	0.0	7.93443	6.97449	-7.05285	13.99432	14.61594	0.81826	1.2221	191.59393	175.31705	72.69133	0.31786	 	3.86736E24	 	6.16064E-25	 	3673.32365	26.7696	 
210.0	1.0	0.0	7.93619	6.97295	-7.07342	13.97065	14.53176	0.81457	1.22764	191.92029	175.45797	72.8242	0.3177	 	7.66331E24	 	3.07718E-25	 	3539.72227	26.72028	 
205.0	1.0	0.0	7.93794	6.97141	-7.09392	13.94699	14.4474	0.81085	1.23327	192.24601	175.59812	72.95685	0.31753	 	1.54039E25	 	1.51503E-25	 	3406.36822	26.67081	 
200.0	1.0	0.0	7.93969	6.96988	-7.11436	13.92333	14.36285	0.80709	1.23901	192.57109	175.7375	73.0893	0.31737	 	3.14233E25	 	7.34909E-26	 	3273.2623	26.62118	 
195.0	1.0	0.0	7.94143	6.96835	-7.13473	13.89967	14.27811	0.8033	1.24486	192.89554	175.87612	73.22153	0.31721	 	6.508600000000001E25	 	3.51062E-26	 	3140.40536	26.57139	 
190.0	1.0	0.0	7.94317	6.96682	-7.15504	13.87601	14.19318	0.79948	1.25081	193.21934	176.01398	73.35354	0.31704	 	1.3694700000000002E26	 	1.65066E-26	 	3007.79831	26.52141	 
185.0	1.0	0.0	7.9449	6.96531	-7.17528	13.85235	14.10803	0.79562	1.25688	193.54251	176.15108	73.48534	0.31688	 	2.9286400000000002E26	 	7.63533E-27	 	2875.44211	26.47124	 
180.0	1.0	0.0	7.94662	6.96379	-7.19545	13.8287	14.02268	0.79173	1.26306	193.86504	176.28742	73.61693	0.31672	 	6.36893E26	 	3.47266E-27	 	2743.33782	26.42086	 
175.0	1.0	0.0	7.94835	6.96228	-7.21556	13.80505	13.9371	0.7878	1.26935	194.18693	176.42301	73.74831	0.31655	 	1.40927E27	 	1.55208E-27	 	2611.48657	26.37025	 
170.0	1.0	0.0	7.95006	6.96078	-7.2356	13.78139	13.8513	0.78384	1.27577	194.50818	176.55784	73.87947	0.31639	 	3.17473E27	 	6.81287E-28	 	2479.88957	26.3194	 
165.0	1.0	0.0	7.95178	6.95928	-7.25558	13.75775	13.76526	0.77984	1.28232	194.8288	176.69193	74.01042	0.31623	 	7.28567E27	 	2.93521E-28	 	2348.54808	26.2683	 
160.0	1.0	0.0	7.95348	6.95779	-7.27549	13.7341	13.67898	0.7758	1.28899	195.14877	176.82526	74.14115	0.31606	 	1.70436E28	 	1.24041E-28	 	2217.4635	26.21692	 
155.0	1.0	0.0	7.95519	6.9563	-7.29534	13.71045	13.59244	0.77173	1.29579	195.46811	176.95785	74.27167	0.3159	 	4.06699E28	 	5.13819E-29	 	2086.63729	26.16524	 
150.0	1.0	0.0	7.95688	6.95481	-7.31512	13.68681	13.50564	0.76762	1.30273	195.78681	177.08969	74.40197	0.31574	 	9.90628E28	 	2.08483E-29	 	1956.07105	26.11325	 
145.0	1.0	0.0	7.95858	6.95333	-7.33484	13.66316	13.41858	0.76347	1.30981	196.10487	177.2208	74.53206	0.31557	 	2.4648800000000004E29	 	8.27987E-30	 	1825.76643	26.06092	 
140.0	1.0	0.0	7.96027	6.95186	-7.35449	13.63952	13.33123	0.75928	1.31703	196.42229	177.35116	74.66194	0.31541	 	6.26991E29	 	3.21613E-30	 	1695.72524	26.00824	 
135.0	1.0	0.0	7.96195	6.95039	-7.37407	13.61588	13.24359	0.75506	1.3244	196.73908	177.48078	74.7916	0.31525	 	1.63178E30	 	1.2208E-30	 	1565.94937	25.95517	 
130.0	1.0	0.0	7.96363	6.94892	-7.39359	13.59224	13.15564	0.75079	1.33192	197.05522	177.60967	74.92105	0.31509	 	4.34877E30	 	4.52467E-31	 	1436.44089	25.9017	 
125.0	1.0	0.0	7.9653	6.94746	-7.41305	13.56861	13.06739	0.74649	1.3396	197.37073	177.73782	75.05028	0.31492	 	1.18786E31	 	1.63595E-31	 	1307.20194	25.84779	 
120.0	1.0	0.0	7.96697	6.94601	-7.43244	13.54497	12.9788	0.74215	1.34744	197.6856	177.86525	75.1793	0.31476	 	3.3285899999999997E31	 	5.76481E-32	 	1178.23485	25.79342	 
115.0	1.0	0.0	7.96863	6.94456	-7.45176	13.52134	12.88988	0.73776	1.35545	197.99983	177.99194	75.3081	0.3146	 	9.578239999999999E31	 	1.97788E-32	 	1049.54209	25.73855	 
110.0	1.0	0.0	7.97029	6.94311	-7.47102	13.49771	12.8006	0.73334	1.36363	198.31343	178.11791	75.43669	0.31444	 	2.83329E32	 	6.6003E-33	 	921.1263	25.68316	 
105.0	1.0	0.0	7.97194	6.94167	-7.49021	13.47408	12.71096	0.72887	1.37198	198.62638	178.24315	75.56506	0.31427	 	8.624879999999999E32	 	2.13992E-33	 	792.99026	25.62721	 
100.0	1.0	0.0	7.97359	6.94024	-7.50934	13.45045	12.62094	0.72437	1.38052	198.9387	178.36766	75.69322	0.31411	 	2.70502E33	 	6.73286E-34	 	665.13698	25.57066	 
95.0	1.0	0.0	7.97524	6.93881	-7.5284	13.42682	12.53051	0.71982	1.38924	199.25038	178.49146	75.82116	0.31395	 	8.7513E33	 	2.05324E-34	 	537.56963	25.51347	 
90.0	1.0	0.0	7.97688	6.93738	-7.5474	13.4032	12.43967	0.71523	1.39816	199.56142	178.61454	75.94889	0.31379	 	2.9242600000000003E34	 	6.06118E-35	 	410.29162	25.4556	 
85.0	1.0	0.0	7.97851	6.93596	-7.56633	13.37957	12.34841	0.71059	1.40728	199.87182	178.7369	76.0764	0.31363	 	1.01062E35	 	1.72967E-35	 	283.30657	25.39701	 
80.0	1.0	0.0	7.98014	6.93455	-7.58519	13.35595	12.25668	0.70591	1.4166	200.18158	178.85854	76.20369	0.31346	 	3.61751E35	 	4.7647E-36	 	156.61834	25.33765	 
75.0	1.0	0.0	7.98176	6.93314	-7.60399	13.33233	12.16449	0.70119	1.42614	200.49071	178.97947	76.33077	0.3133	 	1.3431999999999997E36	 	1.26507E-36	 	30.23106	25.27746	 
70.0	1.0	0.0	7.98338	6.93173	-7.62273	13.30871	12.07181	0.69643	1.43589	200.7992	179.09969	76.45764	0.31314	 	5.181709999999999E36	 	3.23219E-37	 	-95.85087	25.21639	 
65.0	1.0	0.0	7.98499	6.93033	-7.6414	13.2851	11.97862	0.69162	1.44588	201.10704	179.2192	76.58429	0.31298	 	2.08039E37	 	7.93324E-38	 	-221.62275	25.15438	 
60.0	1.0	0.0	7.9866	6.92893	-7.66	13.26148	11.88489	0.68677	1.45609	201.41426	179.338	76.71072	0.31282	 	8.7084E37	 	1.86719E-38	 	-347.07956	25.09136	 
55.0	1.0	0.0	7.98821	6.92754	-7.67854	13.23787	11.7906	0.68187	1.46655	201.72083	179.4561	76.83693	0.31266	 	3.80785E38	 	4.2061E-39	 	-472.21592	25.02727	 
50.0	1.0	0.0	7.98981	6.92616	-7.69701	13.21426	11.69572	0.67693	1.47726	202.02676	179.57349	76.96293	0.31249	 	1.7428E39	 	9.04987E-40	 	-597.02612	24.96204	 
45.0	1.0	0.0	7.9914	6.92477	-7.71542	13.19065	11.60022	0.67194	1.48822	202.33206	179.69018	77.08872	0.31233	 	8.367200000000001E39	 	1.85583E-40	 	-721.504	24.89558	 
40.0	1.0	0.0	7.99299	6.9234	-7.73377	13.16704	11.50408	0.66691	1.49946	202.63672	179.80617	77.21429	0.31217	 	4.22347E40	 	3.61884E-41	 	-845.64298	24.8278	 
35.0	1.0	0.0	7.99457	6.92203	-7.75204	13.14343	11.40727	0.66183	1.51096	202.94074	179.92147	77.33964	0.31201	 	2.2468600000000003E41	 	6.69381E-42	 	-969.43605	24.75861	 
30.0	1.0	0.0	7.99615	6.92066	-7.77026	13.11983	11.30974	0.65671	1.52275	203.24412	180.03607	77.46477	0.31185	 	1.2630699999999999E42	 	1.17143E-42	 	-1092.87563	24.68792	 
25.0	1.0	0.0	7.99772	6.9193	-7.7884	 	11.21147	0.65154	1.53483	203.54686	180.14997	77.58969	0.31169	 	7.52363E42	 	1.93417E-43	 	-1215.95363	 	 
