T (C)	Fraction solid (wt)-TOTAL	Fraction liquid (wt)-LIQUID	Density (g/(cm)^3)-TOTAL	Molar volume (cm^3)-TOTAL	Volume change (%)-  	Average expansion coeff. (10e-6 1/K)-  	Thermal conductivity (W/(m*K))-TOTAL	Electrical resistivity (10e-6 Ohm*m)-TOTAL	Electrical conductivity (10e6 1/(Ohm*m))-TOTAL	Young's modulus (GPa)-TOTAL	Bulk modulus (GPa)-TOTAL	Shear modulus(GPa)-TOTAL	Poisson's ratio-TOTAL	Liquid viscosity (mPa s)-  	Total viscosity (mPa s)-  	Liquid diffusivity (10e-9 (m^2)/s)-  	Total diffusivity (10e-9 (m^2)/s)-  	Surface Tension (mN/m)-  	Enthalpy (J/mole)-TOTAL	Specific heat (J/(mole K))-TOTAL	Latent heat (J/mole)-TOTAL
1400.0	0.42438	0.57562	7.53625	7.49501	0.0	23.7194	33.60445	1.21984	0.81978	2.96824	125.41185	1.02799	0.44372	6.94159	874.33078	1.17642	0.00933998	1786.91491	47687.696	 	0.0
1395.0	0.56189	0.43811	7.57377	7.4579	-0.49513	22.48339	34.05286	1.20018	0.83321	9.33917	124.96317	3.27687	0.42502	6.99454	2829.10983	1.16403	0.00287788	1786.13108	45419.348	453.6696	2058.901
1390.0	0.66057	0.33943	7.6016	7.43061	-0.85921	21.58967	34.36414	1.18575	0.84335	18.16688	124.75396	6.43571	0.41141	7.04835	5729.07555	1.15168	0.00141688	1785.35941	43759.774	331.9148	3509.555
1385.0	0.73351	0.26649	7.62295	7.40983	-1.13658	20.92271	34.57919	1.17483	0.85119	28.03352	124.70899	10.00318	0.40123	7.1031	9250.3299	1.13936	8.7489E-4	1784.60052	42499.367	252.0814	4561.562
1380.0	0.78873	0.21127	7.6398	7.39351	-1.35423	20.41211	34.72476	1.16638	0.85736	37.94674	124.78001	13.61629	0.39343	7.15896	13142.49001	1.12707	6.13933E-4	1783.85464	41510.381	197.7972	5342.666
1375.0	0.83138	0.16862	7.65345	7.38037	-1.52952	20.01253	34.81967	1.15968	0.86231	47.34539	124.93508	17.06337	0.38734	7.21593	17248.17261	1.11478	4.6638E-4	1783.12181	40711.67	159.7422	5934.01
1370.0	0.86486	0.13514	7.66474	7.36954	-1.67403	19.69377	34.87692	1.15426	0.86635	55.96911	125.15199	20.24203	0.3825	7.27411	21482.22192	1.10251	3.73323E-4	1782.402	40049.855	132.363	6388.97
1365.0	0.89149	0.10851	7.67427	7.36043	-1.79559	19.43527	34.90563	1.14981	0.86971	63.72827	125.41521	23.11353	0.37859	7.33359	25803.67538	1.09024	3.09855E-4	1781.69528	39488.758	112.2194	6743.719
1360.0	0.91294	0.0870563	7.68245	7.35263	-1.89964	19.22285	34.91248	1.14607	0.87255	70.63034	125.71374	25.67622	0.3754	7.39446	30200.48026	1.07797	2.63936E-4	1781.00187	39003.222	97.1072	7023.413
1355.0	0.93039	0.0696071	7.68961	7.34584	-1.99032	19.0456	34.90245	1.14289	0.87497	76.73582	126.03909	27.94932	0.37277	7.45671	34679.80002	1.0657	2.29142E-4	1780.32233	38575.347	85.575	7245.949
1350.0	0.94471	0.0552906	7.69595	7.33983	-2.07051	18.896	34.87916	1.14014	0.87708	82.12015	126.38528	29.9585	0.37056	7.52044	39257.11773	1.05342	2.01803E-4	1779.65755	38192.143	76.6408	7424.312
1345.0	0.95654	0.0434567	7.70165	7.33444	-2.14236	18.76836	34.84532	1.13773	0.87894	86.86457	126.74763	31.73232	0.36871	7.58573	43954.25468	1.04114	1.79682E-4	1779.0088	37844.011	69.6264	7568.099
1340.0	0.96639	0.0336149	7.70683	7.32956	-2.20754	18.65835	34.80304	1.1356	0.8806	91.04685	127.12251	33.29855	0.36713	7.65259	48796.16209	1.02885	1.61353E-4	1778.37777	37523.743	64.0536	7684.515
1335.0	0.97461	0.0253856	7.7116	7.32507	-2.26736	18.56247	34.75393	1.13368	0.88209	94.73946	127.50719	34.6834	0.36578	7.72112	53810.46793	1.01656	1.45863E-4	1777.76672	37225.846	59.5794	7779.05
1330.0	0.98153	0.0184744	7.71602	7.32092	-2.32278	18.47819	34.69929	1.13193	0.88345	98.00672	127.89951	35.91026	0.36461	7.79131	59026.34159	1.00427	1.32561E-4	1777.17813	36946.079	55.9534	7855.942
1325.0	0.98735	0.0126487	7.72016	7.31704	-2.37455	18.40351	34.64009	1.13033	0.8847	100.90467	128.29778	36.99966	0.36359	7.86329	64473.91157	0.99197	1.20982E-4	1776.61487	36681.127	52.9904	7918.503
1320.0	0.99228	0.00772252	7.72408	7.31338	-2.42335	18.33668	34.57713	1.12884	0.88586	103.48297	128.70053	37.96987	0.3627	7.93705	70185.02083	0.97968	1.1079E-4	1776.08022	36428.369	50.5516	7969.35
1315.0	0.99645	0.00354741	7.72779	7.30991	-2.46964	18.27641	34.51106	1.12746	0.88695	105.78487	129.10668	38.83686	0.36191	8.01265	76193.21929	0.96739	1.01733E-4	1775.57746	36185.714	48.531	8010.575
1310.0	1.0	0.0	7.73135	7.3066	-2.51385	18.22162	34.44239	1.12615	0.88798	107.84739	129.51528	39.61434	0.36122	 	82533.43705	 	9.36222E-5	 	35951.479	46.847	8043.853
1305.0	1.0	0.0	7.73382	7.30427	-2.54492	18.20397	34.35582	1.12542	0.88856	108.33816	129.93209	39.79999	0.36103	 	88145.32232	 	8.73848E-5	 	35733.11854	43.67209	 
1300.0	1.0	0.0	7.73628	7.30195	-2.57594	18.18635	34.26925	1.12469	0.88914	108.82819	130.34702	39.98543	0.36085	 	94178.17135	 	8.1528E-5	 	35542.21759	38.18019	 
1295.0	1.0	0.0	7.73874	7.29962	-2.60691	18.16871	34.18268	1.12395	0.88972	109.31745	130.75997	40.17063	0.36066	 	100666.4098	 	7.60308E-5	 	35351.61281	38.12096	 
1290.0	1.0	0.0	7.7412	7.29731	-2.63784	18.15104	34.09611	1.12321	0.8903	109.80596	131.17095	40.3556	0.36048	 	107647.5152	 	7.08734E-5	 	35161.30382	38.0618	 
1285.0	1.0	0.0	7.74365	7.29499	-2.66873	18.13335	34.00954	1.12247	0.89089	110.2937	131.57998	40.54034	0.3603	 	115162.2983	 	6.60367E-5	 	34971.29027	38.00271	 
1280.0	1.0	0.0	7.74611	7.29268	-2.69958	18.11565	33.92297	1.12172	0.89149	110.78068	131.98706	40.72485	0.36011	 	123255.2216	 	6.15028E-5	 	34781.57179	37.9437	 
1275.0	1.0	0.0	7.74856	7.29037	-2.73038	18.09792	33.83641	1.12097	0.89208	111.26689	132.39219	40.90912	0.35993	 	131974.75	 	5.72544E-5	 	34592.14799	37.88476	 
1270.0	1.0	0.0	7.75101	7.28806	-2.76115	18.08017	33.74984	1.12022	0.89268	111.75235	132.7954	41.09317	0.35974	 	141373.7373	 	5.32753E-5	 	34403.01854	37.82589	 
1265.0	1.0	0.0	7.75346	7.28576	-2.79188	18.06239	33.66327	1.11946	0.89329	112.23704	133.19667	41.27698	0.35956	 	151509.8525	 	4.95501E-5	 	34214.18306	37.7671	 
1260.0	1.0	0.0	7.75591	7.28346	-2.82256	18.0446	33.5767	1.1187	0.8939	112.72096	133.59604	41.46056	0.35938	 	162446.0509	 	4.60641E-5	 	34025.64118	37.70838	 
1255.0	1.0	0.0	7.75836	7.28117	-2.8532	18.02679	33.49013	1.11793	0.89451	113.20413	133.99349	41.64391	0.35919	 	174251.0935	 	4.28033E-5	 	33837.39253	37.64973	 
1250.0	1.0	0.0	7.7608	7.27887	-2.8838	18.00895	33.40356	1.11716	0.89513	113.68653	134.38904	41.82702	0.35901	 	187000.1212	 	3.97546E-5	 	33649.43676	37.59115	 
1245.0	1.0	0.0	7.76325	7.27658	-2.91436	17.9911	33.31698	1.11639	0.89575	114.16817	134.78269	42.00991	0.35882	 	200775.2902	 	3.69055E-5	 	33461.7735	37.53265	 
1240.0	1.0	0.0	7.76569	7.27429	-2.94488	17.97322	33.23041	1.11561	0.89637	114.64905	135.17446	42.19256	0.35864	 	215666.4737	 	3.42441E-5	 	33274.40238	37.47422	 
1235.0	1.0	0.0	7.76813	7.27201	-2.97535	17.95532	33.14384	1.11483	0.897	115.12916	135.56435	42.37498	0.35846	 	231772.0394	 	3.17592E-5	 	33087.32303	37.41587	 
1230.0	1.0	0.0	7.77056	7.26973	-3.00579	17.9374	33.05727	1.11404	0.89763	115.60851	135.95237	42.55716	0.35827	 	249199.7101	 	2.94402E-5	 	32900.53508	37.35759	 
1225.0	1.0	0.0	7.773	7.26745	-3.03618	17.91946	32.9707	1.11325	0.89827	116.0871	136.33853	42.73912	0.35809	 	268067.5175	 	2.72771E-5	 	32714.03818	37.29938	 
1220.0	1.0	0.0	7.77543	7.26518	-3.06653	17.9015	32.88412	1.11246	0.89891	116.56493	136.72283	42.92084	0.35791	 	288504.8595	 	2.52602E-5	 	32527.83195	37.24125	 
1215.0	1.0	0.0	7.77786	7.2629	-3.09683	17.88352	32.79755	1.11166	0.89956	117.04199	137.10528	43.10232	0.35772	 	310653.6731	 	2.33807E-5	 	32341.91602	37.18319	 
1210.0	1.0	0.0	7.78029	7.26064	-3.1271	17.86552	32.71097	1.11086	0.90021	117.51829	137.48589	43.28358	0.35754	 	334669.7368	 	2.16299E-5	 	32156.29004	37.1252	 
1205.0	1.0	0.0	7.78272	7.25837	-3.15732	17.84749	32.6244	1.11005	0.90086	117.99383	137.86466	43.4646	0.35736	 	360724.1161	 	2.0E-5	 	31970.95363	37.06728	 
1200.0	1.0	0.0	7.78515	7.25611	-3.1875	17.82945	32.53782	1.10924	0.90152	118.4686	138.24162	43.64539	0.35717	 	389004.7712	 	1.84833E-5	 	31785.90642	37.00944	 
1195.0	1.0	0.0	7.78757	7.25385	-3.21763	17.81138	32.45125	1.10842	0.90218	118.94261	138.61675	43.82594	0.35699	 	419718.344	 	1.70726E-5	 	31601.14805	36.95167	 
1190.0	1.0	0.0	7.78999	7.2516	-3.24773	17.79329	32.36467	1.1076	0.90285	119.41586	138.99007	44.00626	0.35681	 	453092.1467	 	1.57612E-5	 	31416.67815	36.89398	 
1185.0	1.0	0.0	7.79241	7.24934	-3.27778	17.77519	32.27809	1.10678	0.90352	119.88835	139.36158	44.18635	0.35662	 	489376.3761	 	1.45427E-5	 	31232.49636	36.83636	 
1180.0	1.0	0.0	7.79483	7.24709	-3.30779	17.75706	32.19151	1.10595	0.9042	120.36007	139.7313	44.36621	0.35644	 	528846.5805	 	1.34112E-5	 	31048.6023	36.77881	 
1175.0	1.0	0.0	7.79725	7.24485	-3.33775	17.73891	32.10493	1.10512	0.90488	120.83104	140.09923	44.54583	0.35626	 	571806.4098	 	1.23609E-5	 	30864.99561	36.72134	 
1170.0	1.0	0.0	7.79966	7.24261	-3.36768	17.72074	32.01835	1.10428	0.90557	121.30123	140.46537	44.72521	0.35607	 	618590.6836	 	1.13866E-5	 	30681.67591	36.66394	 
1165.0	1.0	0.0	7.80208	7.24037	-3.39755	17.70255	31.93177	1.10344	0.90626	121.77067	140.82974	44.90436	0.35589	 	669568.8154	 	1.04832E-5	 	30498.64285	36.60661	 
1160.0	1.0	0.0	7.80449	7.23813	-3.42739	17.68434	31.84519	1.10259	0.90696	122.23934	141.19235	45.08328	0.35571	 	725148.6386	 	9.64609E-6	 	30315.89604	36.54936	 
1155.0	1.0	0.0	7.80689	7.2359	-3.45718	17.6661	31.7586	1.10174	0.90766	122.70725	141.55319	45.26197	0.35552	 	785780.6819	 	8.87073E-6	 	30133.43512	36.49218	 
1150.0	1.0	0.0	7.8093	7.23367	-3.48693	17.64785	31.67202	1.10088	0.90836	123.1744	141.91227	45.44042	0.35534	 	851962.9516	 	8.15299E-6	 	29951.25973	36.43508	 
1145.0	1.0	0.0	7.81171	7.23144	-3.51664	17.62958	31.58543	1.10002	0.90907	123.64079	142.26961	45.61863	0.35516	 	924246.2845	 	7.48895E-6	 	29769.36949	36.37805	 
1140.0	1.0	0.0	7.81411	7.22922	-3.5463	17.61128	31.49885	1.09916	0.90979	124.10641	142.6252	45.79661	0.35497	 	1003240.343	 	6.87496E-6	 	29587.76404	36.32109	 
1135.0	1.0	0.0	7.81651	7.227	-3.57592	17.59297	31.41226	1.09829	0.91051	124.57127	142.97907	45.97436	0.35479	 	1089620.334	 	6.30755E-6	 	29406.44299	36.26421	 
1130.0	1.0	0.0	7.81891	7.22478	-3.60549	17.57463	31.32567	1.09741	0.91123	125.03537	143.3312	46.15187	0.35461	 	1184134.545	 	5.78349E-6	 	29225.40599	36.2074	 
1125.0	1.0	0.0	7.8213	7.22257	-3.63502	17.55628	31.23908	1.09653	0.91197	125.4987	143.68161	46.32914	0.35443	 	1287612.803	 	5.29975E-6	 	29044.65266	36.15066	 
1120.0	1.0	0.0	7.8237	7.22036	-3.66451	17.5379	31.15249	1.09565	0.9127	125.96127	144.03032	46.50618	0.35424	 	1400975.971	 	4.85349E-6	 	28864.18263	36.09401	 
1115.0	1.0	0.0	7.82609	7.21815	-3.69395	17.5195	31.06589	1.09476	0.91344	126.42308	144.37731	46.68299	0.35406	 	1525246.63	 	4.44205E-6	 	28683.99554	36.03742	 
1110.0	1.0	0.0	7.82848	7.21595	-3.72335	17.50109	30.9793	1.09387	0.91419	126.88413	144.7226	46.85956	0.35388	 	1661561.085	 	4.06293E-6	 	28504.091	35.98091	 
1105.0	1.0	0.0	7.83086	7.21375	-3.7527	17.48265	30.8927	1.09297	0.91494	127.34441	145.0662	47.0359	0.35369	 	1811182.881	 	3.71382E-6	 	28324.46865	35.92447	 
1100.0	1.0	0.0	7.83325	7.21155	-3.78201	17.46419	30.80611	1.09206	0.9157	127.80393	145.40812	47.212	0.35351	 	1975518.034	 	3.39253E-6	 	28145.12812	35.86811	 
1095.0	1.0	0.0	7.83563	7.20936	-3.81127	17.44571	30.71951	1.09115	0.91646	128.26269	145.74835	47.38786	0.35333	 	2156132.191	 	3.09703E-6	 	27966.06902	35.81182	 
1090.0	1.0	0.0	7.83801	7.20717	-3.84049	17.42721	30.63291	1.09024	0.91723	128.72069	146.08691	47.56349	0.35315	 	2354769.997	 	2.82541E-6	 	27787.291	35.7556	 
1085.0	1.0	0.0	7.84039	7.20498	-3.86967	17.40869	30.5463	1.08932	0.918	129.17792	146.4238	47.73888	0.35296	 	2573376.953	 	2.57591E-6	 	27608.79368	35.69946	 
1080.0	1.0	0.0	7.84277	7.2028	-3.8988	17.39015	30.4597	1.08839	0.91878	129.63439	146.75903	47.91404	0.35278	 	2814124.113	 	2.34687E-6	 	27430.57668	35.6434	 
1075.0	1.0	0.0	7.84514	7.20062	-3.92789	17.37159	30.37309	1.08746	0.91957	130.0901	147.0926	48.08896	0.3526	 	3079436.019	 	2.13675E-6	 	27252.63963	35.58741	 
1070.0	1.0	0.0	7.84752	7.19844	-3.95693	17.35301	30.28649	1.08653	0.92036	130.54504	147.42453	48.26364	0.35242	 	3372022.297	 	1.94411E-6	 	27074.98214	35.5315	 
1065.0	1.0	0.0	7.84989	7.19627	-3.98592	17.33441	30.19988	1.08559	0.92116	130.99922	147.75482	48.43809	0.35223	 	3694913.455	 	1.76761E-6	 	26897.60386	35.47566	 
1060.0	1.0	0.0	7.85225	7.1941	-4.01487	17.31579	30.11326	1.08464	0.92196	131.45264	148.08347	48.6123	0.35205	 	4051501.442	 	1.60602E-6	 	26720.50441	35.41989	 
1055.0	1.0	0.0	7.85462	7.19193	-4.04378	17.29715	30.02665	1.08369	0.92277	131.9053	148.41049	48.78628	0.35187	 	4445585.675	 	1.45816E-6	 	26543.68341	35.3642	 
1050.0	1.0	0.0	7.85698	7.18977	-4.07264	17.27849	29.94004	1.08274	0.92359	132.35719	148.73589	48.96002	0.35169	 	4881425.272	 	1.32297E-6	 	26367.14048	35.30859	 
1045.0	1.0	0.0	7.85934	7.18761	-4.10145	17.25981	29.85342	1.08177	0.92441	132.80832	149.05967	49.13352	0.3515	 	5363798.414	 	1.19944E-6	 	26190.87524	35.25305	 
1040.0	1.0	0.0	7.8617	7.18545	-4.13022	17.24111	29.7668	1.08081	0.92523	133.25869	149.38184	49.30678	0.35132	 	5898069.844	 	1.08665E-6	 	26014.88733	35.19758	 
1035.0	1.0	0.0	7.86406	7.1833	-4.15895	17.22239	29.68018	1.07983	0.92607	133.7083	149.70241	49.47981	0.35114	 	6490267.69	 	9.83743E-7	 	25839.17635	35.1422	 
1030.0	1.0	0.0	7.86641	7.18115	-4.18762	17.20365	29.59355	1.07886	0.92691	134.15714	150.02138	49.6526	0.35096	 	7147170.979	 	8.89912E-7	 	25663.74194	35.08688	 
1025.0	1.0	0.0	7.86876	7.179	-4.21626	17.18489	29.50693	1.07787	0.92775	134.60522	150.33875	49.82516	0.35078	 	7876409.397	 	8.04421E-7	 	25488.58372	35.03165	 
1020.0	1.0	0.0	7.87111	7.17686	-4.24484	17.1661	29.4203	1.07688	0.92861	135.05254	150.65454	49.99747	0.35059	 	8686577.147	 	7.26586E-7	 	25313.70129	34.97649	 
1015.0	1.0	0.0	7.87346	7.17472	-4.27338	17.1473	29.33367	1.07589	0.92947	135.49909	150.96875	50.16955	0.35041	 	9587362.961	 	6.55774E-7	 	25139.09428	34.9214	 
1010.0	1.0	0.0	7.8758	7.17259	-4.30188	17.12848	29.24703	1.07488	0.93033	135.94488	151.28139	50.3414	0.35023	 	1.058969874E7	 	5.91399E-7	 	24964.76232	34.86639	 
1005.0	1.0	0.0	7.87815	7.17045	-4.33033	17.10964	29.1604	1.07388	0.93121	136.38991	151.59246	50.513	0.35005	 	1.17059296E7	 	5.32921E-7	 	24790.70501	34.81146	 
1000.0	1.0	0.0	7.88048	7.16833	-4.35873	17.09078	29.07376	1.07286	0.93208	136.83418	151.90197	50.68437	0.34987	 	1.295000863E7	 	4.7984E-7	 	24616.92199	34.75661	 
995.0	1.0	0.0	7.88282	7.1662	-4.38708	17.0719	28.98712	1.07184	0.93297	137.27768	152.20992	50.8555	0.34968	 	1.433772013E7	 	4.31695E-7	 	24443.41285	34.70183	 
990.0	1.0	0.0	7.88516	7.16408	-4.41539	17.05301	28.90047	1.07082	0.93386	137.72042	152.51632	51.02639	0.3495	 	1.58869357E7	 	3.88062E-7	 	24270.17722	34.64713	 
985.0	1.0	0.0	7.88749	7.16196	-4.44366	17.03409	28.81383	1.06979	0.93476	138.1624	152.82117	51.19704	0.34932	 	1.761790842E7	 	3.4855E-7	 	24097.21472	34.5925	 
980.0	1.0	0.0	7.88982	7.15985	-4.47187	17.01515	28.72718	1.06875	0.93567	138.60362	153.12449	51.36746	0.34914	 	1.955361091E7	 	3.12797E-7	 	23924.52495	34.53795	 
975.0	1.0	0.0	7.89215	7.15773	-4.50004	16.99619	28.64052	1.06771	0.93659	139.04407	153.42627	51.53763	0.34896	 	2.172012437E7	 	2.80473E-7	 	23752.10753	34.48348	 
970.0	1.0	0.0	7.89447	7.15563	-4.52816	16.97721	28.55387	1.06666	0.93751	139.48376	153.72653	51.70757	0.34878	 	2.414708666E7	 	2.51273E-7	 	23579.96208	34.42909	 
965.0	1.0	0.0	7.89679	7.15352	-4.55624	16.95822	28.46721	1.0656	0.93844	139.92269	154.02527	51.87727	0.34859	 	2.686820884E7	 	2.24916E-7	 	23408.08818	34.37478	 
960.0	1.0	0.0	7.89911	7.15142	-4.58427	16.9392	28.38055	1.06454	0.93937	140.36085	154.32249	52.04673	0.34841	 	2.992187133E7	 	2.01147E-7	 	23236.48548	34.32054	 
955.0	1.0	0.0	7.90143	7.14932	-4.61225	16.92017	28.29388	1.06347	0.94032	140.79826	154.6182	52.21596	0.34823	 	3.335181253E7	 	1.79729E-7	 	23065.15356	34.26638	 
950.0	1.0	0.0	7.90374	7.14723	-4.64018	16.90111	28.20721	1.06239	0.94127	141.2349	154.9124	52.38494	0.34805	 	3.720792518E7	 	1.60447E-7	 	22894.09204	34.2123	 
945.0	1.0	0.0	7.90606	7.14514	-4.66807	16.88204	28.12054	1.06131	0.94223	141.67077	155.20511	52.55369	0.34787	 	4.154717816E7	 	1.43102E-7	 	22723.30052	34.1583	 
940.0	1.0	0.0	7.90837	7.14305	-4.69591	16.86295	28.03387	1.06022	0.9432	142.10589	155.49632	52.72219	0.34769	 	4.643468475E7	 	1.27514E-7	 	22552.7786	34.10438	 
935.0	1.0	0.0	7.91067	7.14097	-4.7237	16.84384	27.94719	1.05913	0.94417	142.54024	155.78605	52.89046	0.3475	 	5.194494173E7	 	1.13518E-7	 	22382.52589	34.05054	 
930.0	1.0	0.0	7.91298	7.13889	-4.75145	16.8247	27.86051	1.05803	0.94516	142.97383	156.07429	53.05849	0.34732	 	5.816326832E7	 	1.00962E-7	 	22212.54198	33.99678	 
925.0	1.0	0.0	7.91528	7.13682	-4.77915	16.80556	27.77382	1.05692	0.94615	143.40665	156.36106	53.22628	0.34714	 	6.518747906E7	 	8.97085E-8	 	22042.82649	33.9431	 
920.0	1.0	0.0	7.91758	7.13474	-4.8068	16.78639	27.68713	1.0558	0.94715	143.83872	156.64636	53.39382	0.34696	 	7.312983056E7	 	7.96319E-8	 	21873.379	33.8895	 
915.0	1.0	0.0	7.91987	7.13267	-4.8344	16.7672	27.60044	1.05468	0.94815	144.27002	156.93019	53.56113	0.34678	 	8.211928973E7	 	7.06176E-8	 	21704.19912	33.83598	 
910.0	1.0	0.0	7.92217	7.13061	-4.86195	16.74799	27.51374	1.05355	0.94917	144.70056	157.21256	53.7282	0.3466	 	9.230417941E7	 	6.25612E-8	 	21535.28642	33.78254	 
905.0	1.0	0.0	7.92446	7.12855	-4.88946	16.72877	27.42704	1.05242	0.95019	145.13033	157.49347	53.89503	0.34642	 	1.038552677E8	 	5.5368E-8	 	21366.64051	33.72918	 
900.0	1.0	0.0	7.92675	7.12649	-4.91692	16.70953	27.34033	1.05127	0.95123	145.55934	157.77294	54.06162	0.34624	 	1.169693795E8	 	4.89517E-8	 	21198.26099	33.6759	 
895.0	1.0	0.0	7.92903	7.12443	-4.94433	16.69026	27.25362	1.05012	0.95227	145.98759	158.05096	54.22797	0.34605	 	1.318736238E8	 	4.32342E-8	 	21030.14742	33.62271	 
890.0	1.0	0.0	7.93132	7.12238	-4.97169	16.67098	27.16691	1.04897	0.95332	146.41508	158.32754	54.39408	0.34587	 	1.488303468E8	 	3.81444E-8	 	20862.29941	33.5696	 
885.0	1.0	0.0	7.9336	7.12034	-4.999	16.65168	27.08019	1.0478	0.95438	146.8418	158.60269	54.55995	0.34569	 	1.681429436E8	 	3.36181E-8	 	20694.71653	33.51658	 
880.0	1.0	0.0	7.93587	7.11829	-5.02627	16.63237	26.99347	1.04663	0.95545	147.26777	158.87641	54.72558	0.34551	 	1.901626837E8	 	2.9597E-8	 	20527.39813	33.46368	 
875.0	1.0	0.0	7.93815	7.11625	-5.05348	16.61303	26.90674	1.04545	0.95653	147.69296	159.14871	54.89097	0.34533	 	2.15296739E8	 	2.60284E-8	 	20360.34377	33.41087	 
870.0	1.0	0.0	7.94042	7.11422	-5.08065	16.59368	26.82001	1.04426	0.95761	148.1174	159.41959	55.05612	0.34515	 	2.440176364E8	 	2.28649E-8	 	20193.55342	33.35807	 
865.0	1.0	0.0	7.94269	7.11218	-5.10777	16.57431	26.73327	1.04307	0.95871	148.54107	159.68906	55.22103	0.34497	 	2.768744027E8	 	2.00633E-8	 	20027.02665	33.30535	 
860.0	1.0	0.0	7.94496	7.11016	-5.13484	16.55492	26.64653	1.04187	0.95981	148.96399	159.95712	55.38569	0.34479	 	3.145057198E8	 	1.75851E-8	 	19860.76306	33.25272	 
857.81	1.0	0.0	7.94595	7.10927	-5.14669	16.54641	26.60849	1.04134	0.9603	149.14916	160.0742	55.45781	0.34471	 	3.326966514E8	 	1.65915E-8	 	19787.95006	33.21488	 
855.0	1.0	0.0	7.94773	7.10768	-5.16789	16.50893	26.53979	1.04144	0.96021	149.50708	160.30057	55.59722	0.34456	 	3.590565088E8	 	1.53352E-8	 	19666.11754	43.39043	 
850.0	1.0	0.0	7.95087	7.10487	-5.20541	16.44253	26.41851	1.04159	0.96007	150.13932	160.69974	55.84352	0.34429	 	4.116222953E8	 	1.33176E-8	 	19450.15803	43.1919	 
845.0	1.0	0.0	7.95313	7.10285	-5.23233	16.42268	26.33213	1.04035	0.96121	150.55944	160.96321	56.00729	0.34411	 	4.691994646E8	 	1.16313E-8	 	19287.9885	32.43391	 
840.0	1.0	0.0	7.95539	7.10084	-5.25919	16.40281	26.24575	1.03911	0.96236	150.9788	161.2253	56.17081	0.34393	 	5.354598548E8	 	1.01464E-8	 	19122.7683	33.04404	 
835.0	1.0	0.0	7.95764	7.09883	-5.28601	16.38292	26.15936	1.03786	0.96352	151.3974	161.48601	56.3341	0.34375	 	6.118064177E8	 	8.84039E-9	 	18957.80921	32.99182	 
830.0	1.0	0.0	7.95989	7.09682	-5.31277	16.363	26.07296	1.0366	0.96469	151.81524	161.74535	56.49714	0.34357	 	6.998837088E8	 	7.69299E-9	 	18793.11081	32.93968	 
825.0	1.0	0.0	7.96213	7.09482	-5.33949	16.34306	25.98657	1.03533	0.96588	152.23232	162.00332	56.65995	0.34339	 	8.016220454E8	 	6.68619E-9	 	18628.67266	32.88763	 
820.0	1.0	0.0	7.96438	7.09282	-5.36615	16.3231	25.90016	1.03405	0.96707	152.64864	162.25992	56.82251	0.34321	 	9.192901995E8	 	5.80382E-9	 	18464.49432	32.83567	 
815.0	1.0	0.0	7.96662	7.09082	-5.39277	16.30312	25.81375	1.03277	0.96827	153.06419	162.51518	56.98483	0.34303	 	1.055558364E9	 	5.03145E-9	 	18300.57536	32.78379	 
810.0	1.0	0.0	7.96886	7.08883	-5.41934	16.28311	25.72733	1.03148	0.96948	153.47899	162.76907	57.14691	0.34285	 	1.213573503E9	 	4.35621E-9	 	18136.91535	32.732	 
805.0	1.0	0.0	7.97109	7.08685	-5.44585	16.26309	25.64091	1.03018	0.97071	153.89303	163.02162	57.30875	0.34267	 	1.397049661E9	 	3.76664E-9	 	17973.51382	32.68031	 
800.0	1.0	0.0	7.97332	7.08486	-5.47232	16.24304	25.55448	1.02887	0.97194	154.30631	163.27283	57.47035	0.34249	 	1.610376339E9	 	3.25252E-9	 	17810.37032	32.6287	 
795.0	1.0	0.0	7.97555	7.08288	-5.49874	16.22296	25.46805	1.02755	0.97319	154.71883	163.5227	57.63171	0.34231	 	1.858748784E9	 	2.80478E-9	 	17647.48441	32.57718	 
790.0	1.0	0.0	7.97778	7.08091	-5.5251	16.20287	25.3816	1.02622	0.97445	155.13059	163.77123	57.79282	0.34213	 	2.148324817E9	 	2.41536E-9	 	17484.85559	32.52576	 
785.0	1.0	0.0	7.98	7.07893	-5.55142	16.18275	25.29516	1.02489	0.97572	155.54158	164.01844	57.9537	0.34195	 	2.486413934E9	 	2.07711E-9	 	17322.48341	32.47444	 
780.0	1.0	0.0	7.98222	7.07696	-5.57769	16.16261	25.2087	1.02354	0.977	155.95182	164.26432	58.11433	0.34177	 	2.881705649E9	 	1.78372E-9	 	17160.36737	32.42321	 
775.0	1.0	0.0	7.98444	7.075	-5.6039	16.14245	25.12224	1.02219	0.97829	156.3613	164.50888	58.27472	0.34159	 	3.344545674E9	 	1.52958E-9	 	16998.50701	32.37207	 
770.0	1.0	0.0	7.98665	7.07304	-5.63007	16.12226	25.03577	1.02083	0.9796	156.77002	164.75213	58.43487	0.34141	 	3.887270492E9	 	1.30975E-9	 	16836.90181	32.32104	 
765.0	1.0	0.0	7.98886	7.07108	-5.65618	16.10206	24.9493	1.01945	0.98092	157.17797	164.99407	58.59477	0.34123	 	4.524613314E9	 	1.11986E-9	 	16675.55128	32.27011	 
760.0	1.0	0.0	7.99107	7.06913	-5.68224	16.08183	24.86282	1.01807	0.98225	157.58517	165.2347	58.75443	0.34105	 	5.274197481E9	 	9.56079E-10	 	16514.45488	32.21928	 
755.0	1.0	0.0	7.99327	7.06718	-5.70826	16.06157	24.77633	1.01668	0.98359	157.99161	165.47403	58.91386	0.34087	 	6.157137132E9	 	8.15013E-10	 	16353.61212	32.16855	 
750.0	1.0	0.0	7.99547	7.06523	-5.73422	16.0413	24.68983	1.01528	0.98495	158.39728	165.71207	59.07303	0.34069	 	7.198769702E9	 	6.93694E-10	 	16193.02245	32.11793	 
745.0	1.0	0.0	7.99767	7.06329	-5.76013	16.021	24.60333	1.01387	0.98632	158.8022	165.94881	59.23197	0.34051	 	8.429550718E9	 	5.89514E-10	 	16032.68532	32.06743	 
740.0	1.0	0.0	7.99987	7.06135	-5.78599	16.00068	24.51682	1.01246	0.9877	159.20636	166.18427	59.39066	0.34033	 	9.886148746E9	 	5.00188E-10	 	15872.60018	32.01703	 
735.0	1.0	0.0	8.00206	7.05942	-5.8118	15.98034	24.4303	1.01103	0.98909	159.60975	166.41844	59.54912	0.34015	 	1.16128E10	 	4.23716E-10	 	15712.76644	31.96675	 
730.0	1.0	0.0	8.00425	7.05749	-5.83756	15.95997	24.34377	1.00959	0.9905	160.01239	166.65133	59.70732	0.33997	 	1.3662899999999998E10	 	3.58352E-10	 	15553.18354	31.91658	 
725.0	1.0	0.0	8.00643	7.05556	-5.86326	15.93959	24.25723	1.00814	0.99193	160.41427	166.88295	59.86529	0.33979	 	1.6101099999999998E10	 	3.0257E-10	 	15393.85087	31.86653	 
720.0	1.0	0.0	8.00862	7.05364	-5.88892	15.91918	24.17069	1.00668	0.99336	160.81538	167.1133	60.02301	0.33961	 	1.90059E10	 	2.55043E-10	 	15234.76782	31.81661	 
715.0	1.0	0.0	8.0108	7.05172	-5.91452	15.89875	24.08414	1.00521	0.99481	161.21574	167.34239	60.18049	0.33944	 	2.24724E10	 	2.14615E-10	 	15075.93374	31.76681	 
710.0	1.0	0.0	8.01297	7.0498	-5.94007	15.87829	23.99757	1.00373	0.99628	161.61534	167.57022	60.33773	0.33926	 	2.6616399999999996E10	 	1.80284E-10	 	14917.348	31.71715	 
705.0	1.0	0.0	8.01515	7.04789	-5.96557	15.85781	23.911	1.00224	0.99776	162.01417	167.79679	60.49472	0.33908	 	3.1579199999999996E10	 	1.51179E-10	 	14759.00992	31.66762	 
700.0	1.0	0.0	8.01731	7.04599	-5.99102	15.83732	23.82443	1.00075	0.99926	162.41225	168.0221	60.65147	0.3389	 	3.75333E10	 	1.26546E-10	 	14600.91881	31.61822	 
695.0	1.0	0.0	8.01948	7.04408	-6.01641	15.81679	23.73784	0.99923	1.00077	162.80957	168.24617	60.80797	0.33872	 	4.46896E10	 	1.05736E-10	 	14443.07396	31.56897	 
690.0	1.0	0.0	8.02164	7.04218	-6.04176	15.79625	23.65124	0.99771	1.00229	163.20612	168.469	60.96424	0.33854	 	5.330689999999999E10	 	8.81855E-11	 	14285.47464	31.51986	 
685.0	1.0	0.0	8.0238	7.04029	-6.06705	15.77568	23.56463	0.99618	1.00383	163.60192	168.69059	61.12025	0.33836	 	6.370289999999999E10	 	7.34109E-11	 	14128.12008	31.47091	 
680.0	1.0	0.0	8.02596	7.0384	-6.09229	15.75509	23.47801	0.99464	1.00539	163.99696	168.91094	61.27603	0.33818	 	7.62689E10	 	6.09959E-11	 	13971.0095	31.42212	 
675.0	1.0	0.0	8.02811	7.03651	-6.11748	15.73448	23.39139	0.99309	1.00696	164.39123	169.13006	61.43156	0.338	 	9.14871E10	 	5.05829E-11	 	13814.14207	31.37349	 
670.0	1.0	0.0	8.03026	7.03462	-6.14261	15.71385	23.30475	0.99152	1.00855	164.78475	169.34796	61.58684	0.33782	 	1.09954E11	 	4.18656E-11	 	13657.51694	31.32503	 
665.0	1.0	0.0	8.03241	7.03274	-6.1677	15.69319	23.2181	0.98995	1.01016	165.17751	169.56463	61.74188	0.33765	 	1.32407E11	 	3.45818E-11	 	13501.13325	31.27674	 
660.0	1.0	0.0	8.03455	7.03087	-6.19273	15.67251	23.13144	0.98836	1.01178	165.5695	169.78009	61.89668	0.33747	 	1.59764E11	 	2.85076E-11	 	13344.99174	31.2283	 
655.0	1.0	0.0	8.03669	7.029	-6.2177	15.65181	23.04477	0.98676	1.01342	165.96074	169.99433	62.05123	0.33729	 	1.93162E11	 	2.34521E-11	 	13189.10155	31.17804	 
650.0	1.0	0.0	8.03883	7.02713	-6.24263	15.63109	22.95809	0.98515	1.01507	166.35121	170.20736	62.20554	0.33711	 	2.34024E11	 	1.9253E-11	 	13033.47485	31.12534	 
645.0	1.0	0.0	8.04096	7.02526	-6.2675	15.61034	22.8714	0.98353	1.01675	166.74093	170.41919	62.35961	0.33693	 	2.84123E11	 	1.57723E-11	 	12878.11116	31.07274	 
640.0	1.0	0.0	8.04309	7.0234	-6.29232	15.58957	22.7847	0.98189	1.01844	167.12989	170.62982	62.51343	0.33675	 	3.45681E11	 	1.2893E-11	 	12723.01002	31.02023	 
635.0	1.0	0.0	8.04522	7.02155	-6.31708	15.56878	22.69798	0.98025	1.02015	167.51808	170.83925	62.667	0.33657	 	4.21484E11	 	1.05163E-11	 	12568.17095	30.96782	 
630.0	1.0	0.0	8.04734	7.01969	-6.3418	15.54797	22.61126	0.97859	1.02188	167.90552	171.04748	62.82033	0.33639	 	5.1504E11	 	8.55866E-12	 	12413.59348	30.91549	 
625.0	1.0	0.0	8.04946	7.01785	-6.36646	15.52713	22.52452	0.97692	1.02362	168.2922	171.25453	62.97341	0.33622	 	6.30768E11	 	6.9497E-12	 	12259.27688	30.86332	 
620.0	1.0	0.0	8.05158	7.016	-6.39106	15.50627	22.43777	0.97524	1.02539	168.67812	171.46039	63.12625	0.33604	 	7.74255E11	 	5.63024E-12	 	12105.22005	30.81137	 
615.0	1.0	0.0	8.05369	7.01416	-6.41562	15.48539	22.351	0.97354	1.02718	169.06327	171.66507	63.27884	0.33586	 	9.52579E11	 	4.55063E-12	 	11951.42287	30.75944	 
610.0	1.0	0.0	8.0558	7.01233	-6.44012	15.46449	22.26423	0.97184	1.02898	169.44767	171.86857	63.43119	0.33568	 	1.17473E12	 	3.66931E-12	 	11797.88486	30.7076	 
605.0	1.0	0.0	8.0579	7.01049	-6.46456	15.44356	22.17744	0.97012	1.03081	169.83131	172.0709	63.58329	0.3355	 	1.45214E12	 	2.95152E-12	 	11644.60558	30.65586	 
600.0	1.0	0.0	8.06001	7.00866	-6.48895	15.42261	22.09063	0.96838	1.03265	170.21418	172.27207	63.73515	0.33532	 	1.79944E12	 	2.36831E-12	 	11491.58459	30.6042	 
595.0	1.0	0.0	8.0621	7.00684	-6.51329	15.40164	22.00382	0.96664	1.03452	170.5963	172.47206	63.88676	0.33515	 	2.23531E12	 	1.89559E-12	 	11338.82143	30.55263	 
590.0	1.0	0.0	8.0642	7.00502	-6.53758	15.38065	21.91698	0.96488	1.0364	170.97766	172.6709	64.03813	0.33497	 	2.78374E12	 	1.51337E-12	 	11186.31566	30.50116	 
585.0	1.0	0.0	8.06629	7.0032	-6.56181	15.35963	21.83014	0.9631	1.03831	171.35826	172.86857	64.18925	0.33479	 	3.4756E12	 	1.20509E-12	 	11034.06683	30.44977	 
580.0	1.0	0.0	8.06838	7.00139	-6.58599	15.33859	21.74328	0.96132	1.04024	171.73809	173.0651	64.34012	0.33461	 	4.35072E12	 	9.57085E-13	 	10882.0745	30.39847	 
575.0	1.0	0.0	8.07046	6.99958	-6.61011	15.31753	21.6564	0.95952	1.04219	172.11717	173.26047	64.49074	0.33443	 	5.46063E12	 	7.58082E-13	 	10730.33822	30.34725	 
570.0	1.0	0.0	8.07254	6.99778	-6.63418	15.29645	21.56951	0.9577	1.04417	172.49549	173.4547	64.64113	0.33426	 	6.87219E12	 	5.9882E-13	 	10578.85757	30.29613	 
565.0	1.0	0.0	8.07462	6.99598	-6.65819	15.27534	21.4826	0.95587	1.04616	172.87305	173.64779	64.79126	0.33408	 	8.67238E12	 	4.71705E-13	 	10427.63209	30.24509	 
560.0	1.0	0.0	8.07669	6.99418	-6.68215	15.25422	21.39568	0.95403	1.04818	173.24985	173.83974	64.94115	0.3339	 	1.09747E13	 	3.70523E-13	 	10276.66137	30.19414	 
555.0	1.0	0.0	8.07876	6.99239	-6.70606	15.23307	21.30874	0.95218	1.05023	173.62589	174.03055	65.09079	0.33372	 	1.39279E13	 	2.90209E-13	 	10125.94495	30.14328	 
550.0	1.0	0.0	8.08083	6.99061	-6.72991	15.21189	21.22179	0.95031	1.05229	174.00116	174.22023	65.24018	0.33354	 	1.77269E13	 	2.26638E-13	 	9975.48243	30.0925	 
545.0	1.0	0.0	8.08289	6.98882	-6.7537	15.1907	21.13482	0.94842	1.05439	174.37568	174.40879	65.38933	0.33336	 	2.26288E13	 	1.76465E-13	 	9825.27336	30.04181	 
540.0	1.0	0.0	8.08495	6.98704	-6.77744	15.16948	21.04783	0.94652	1.0565	174.74944	174.59622	65.53823	0.33319	 	2.8973E13	 	1.36982E-13	 	9675.31732	29.99121	 
535.0	1.0	0.0	8.087	6.98527	-6.80113	15.14824	20.96082	0.9446	1.05864	175.12244	174.78254	65.68688	0.33301	 	3.72096E13	 	1.06004E-13	 	9525.6139	29.94068	 
530.0	1.0	0.0	8.08905	6.9835	-6.82476	15.12698	20.87379	0.94267	1.06081	175.49468	174.96773	65.83529	0.33283	 	4.79367E13	 	8.1774E-14	 	9376.16266	29.89025	 
525.0	1.0	0.0	8.0911	6.98173	-6.84834	15.10569	20.78675	0.94073	1.06301	175.86616	175.15182	65.98345	0.33265	 	6.19526E13	 	6.28799E-14	 	9226.9632	29.83989	 
520.0	1.0	0.0	8.09315	6.97997	-6.87186	15.08438	20.69969	0.93877	1.06523	176.23688	175.3348	66.13136	0.33248	 	8.03259E13	 	4.81933E-14	 	9078.0151	29.78962	 
515.0	1.0	0.0	8.09519	6.97821	-6.89533	15.06305	20.6126	0.93679	1.06748	176.60684	175.51667	66.27902	0.3323	 	1.04492E14	 	3.6814E-14	 	8929.31793	29.73943	 
510.0	1.0	0.0	8.09722	6.97645	-6.91874	15.0417	20.5255	0.9348	1.06975	176.97604	175.69744	66.42644	0.33212	 	1.3638599999999998E14	 	2.80261E-14	 	8780.87131	29.68932	 
505.0	1.0	0.0	8.09925	6.9747	-6.94209	15.02032	20.43838	0.93279	1.07206	177.34448	175.87712	66.57361	0.33194	 	1.78625E14	 	2.12622E-14	 	8632.67483	29.6393	 
500.0	1.0	0.0	8.10128	6.97296	-6.96539	14.99893	20.35124	0.93076	1.07439	177.71216	176.0557	66.72053	0.33177	 	2.34763E14	 	1.60739E-14	 	8484.72806	29.58935	 
495.0	1.0	0.0	8.10331	6.97121	-6.98864	14.97751	20.26408	0.92872	1.07675	178.07908	176.23319	66.8672	0.33159	 	3.09644E14	 	1.21079E-14	 	8337.03063	29.53949	 
490.0	1.0	0.0	8.10533	6.96948	-7.01183	14.95606	20.17689	0.92666	1.07914	178.44524	176.40959	67.01363	0.33141	 	4.09894E14	 	9.0871E-15	 	8189.58213	29.4897	 
485.0	1.0	0.0	8.10734	6.96774	-7.03496	14.9346	20.08968	0.92459	1.08156	178.81064	176.58491	67.1598	0.33123	 	5.4461099999999994E14	 	6.79446E-15	 	8042.38218	29.43999	 
480.0	1.0	0.0	8.10936	6.96601	-7.05804	14.91311	20.00245	0.9225	1.08402	179.17528	176.75915	67.30573	0.33106	 	7.26341E14	 	5.0609E-15	 	7895.43037	29.39036	 
475.0	1.0	0.0	8.11137	6.96429	-7.08106	14.8916	19.9152	0.92039	1.0865	179.53916	176.93231	67.45141	0.33088	 	9.72448E14	 	3.75499E-15	 	7748.72633	29.34081	 
470.0	1.0	0.0	8.11337	6.96257	-7.10402	14.87007	19.82793	0.91826	1.08902	179.90229	177.10441	67.59684	0.3307	 	1.30706E15	 	2.77502E-15	 	7602.26967	29.29133	 
465.0	1.0	0.0	8.11537	6.96085	-7.12693	14.84852	19.74063	0.91611	1.09157	180.26465	177.27543	67.74203	0.33052	 	1.76387E15	 	2.04251E-15	 	7456.06002	29.24193	 
460.0	1.0	0.0	8.11737	6.95914	-7.14978	14.82694	19.6533	0.91395	1.09415	180.62625	177.44539	67.88696	0.33035	 	2.39009E15	 	1.49715E-15	 	7310.097	29.1926	 
455.0	1.0	0.0	8.11936	6.95743	-7.17258	14.80534	19.56595	0.91177	1.09677	180.98709	177.61428	68.03165	0.33017	 	3.25216E15	 	1.09279E-15	 	7164.38024	29.14335	 
450.0	1.0	0.0	8.12135	6.95572	-7.19532	14.78372	19.47858	0.90957	1.09942	181.34717	177.78212	68.17608	0.32999	 	4.44406E15	 	7.9421E-16	 	7018.90938	29.09417	 
445.0	1.0	0.0	8.12334	6.95402	-7.218	14.76207	19.39118	0.90735	1.1021	181.7065	177.9489	68.32027	0.32981	 	6.09924E15	 	5.7468E-16	 	6873.68407	29.04506	 
440.0	1.0	0.0	8.12532	6.95233	-7.24063	14.7404	19.30375	0.90512	1.10483	182.06506	178.11462	68.46421	0.32964	 	8.40814E15	 	4.13969E-16	 	6728.70393	28.99603	 
435.0	1.0	0.0	8.1273	6.95064	-7.2632	14.71871	19.21629	0.90286	1.10759	182.42286	178.2793	68.6079	0.32946	 	1.16438E16	 	2.96838E-16	 	6583.96862	28.94706	 
430.0	1.0	0.0	8.12927	6.94895	-7.28571	14.697	19.12881	0.90059	1.11039	182.77991	178.44294	68.75134	0.32928	 	1.61993E16	 	2.11854E-16	 	6439.47778	28.89817	 
425.0	1.0	0.0	8.13124	6.94726	-7.30817	14.67527	19.04129	0.89829	1.11322	183.13619	178.60553	68.89453	0.32911	 	2.26441E16	 	1.50481E-16	 	6295.23113	28.84933	 
420.0	1.0	0.0	8.13321	6.94559	-7.33057	14.65351	18.95375	0.89598	1.1161	183.49171	178.76709	69.03747	0.32893	 	3.18062E16	 	1.06366E-16	 	6151.22826	28.80057	 
415.0	1.0	0.0	8.13517	6.94391	-7.35291	14.63173	18.86618	0.89365	1.11901	183.84648	178.9276	69.18016	0.32875	 	4.48965E16	 	7.48097E-17	 	6007.46894	28.75186	 
410.0	1.0	0.0	8.13713	6.94224	-7.3752	14.60993	18.77857	0.89129	1.12197	184.20048	179.08709	69.3226	0.32857	 	6.36948E16	 	5.23478E-17	 	5863.95301	28.70319	 
405.0	1.0	0.0	8.13908	6.94058	-7.39742	14.58811	18.69094	0.88892	1.12497	184.55373	179.24555	69.46479	0.3284	 	9.08314E16	 	3.64398E-17	 	5720.68027	28.65455	 
400.0	1.0	0.0	8.14103	6.93891	-7.4196	14.56626	18.60327	0.88652	1.12801	184.90621	179.40298	69.60673	0.32822	 	1.30214E17	 	2.52314E-17	 	5577.65054	28.60595	 
395.0	1.0	0.0	8.14297	6.93726	-7.44171	14.54439	18.51557	0.8841	1.13109	185.25794	179.55939	69.74842	0.32804	 	1.87681E17	 	1.73756E-17	 	5434.86368	28.55737	 
390.0	1.0	0.0	8.14491	6.9356	-7.46376	14.5225	18.42784	0.88166	1.13422	185.6089	179.71479	69.88986	0.32787	 	2.72005E17	 	1.18993E-17	 	5292.31949	28.50884	 
385.0	1.0	0.0	8.14685	6.93395	-7.48576	14.50058	18.34007	0.8792	1.13739	185.95911	179.86916	70.03105	0.32769	 	3.96444E17	 	8.10269E-18	 	5150.01785	28.46033	 
380.0	1.0	0.0	8.14878	6.93231	-7.5077	14.47865	18.25226	0.87672	1.14061	186.30856	180.02253	70.17199	0.32751	 	5.81155E17	 	5.48539E-18	 	5007.95859	28.41185	 
375.0	1.0	0.0	8.15071	6.93067	-7.52959	14.45669	18.16442	0.87422	1.14388	186.65724	180.17488	70.31268	0.32734	 	8.56969E17	 	3.69145E-18	 	4866.14159	28.3634	 
370.0	1.0	0.0	8.15263	6.92903	-7.55141	14.43471	18.07654	0.87169	1.14719	187.00517	180.32623	70.45312	0.32716	 	1.27134E18	 	2.4691E-18	 	4724.5667	28.31498	 
365.0	1.0	0.0	8.15455	6.9274	-7.57318	14.4127	17.98862	0.86914	1.15056	187.35234	180.47658	70.59331	0.32698	 	1.89776E18	 	1.64123E-18	 	4583.2338	28.26658	 
360.0	1.0	0.0	8.15647	6.92578	-7.59489	14.39068	17.90066	0.86657	1.15398	187.69874	180.62593	70.73324	0.32681	 	2.85081E18	 	1.08399E-18	 	4442.14278	28.2182	 
355.0	1.0	0.0	8.15838	6.92415	-7.61654	14.36863	17.81266	0.86397	1.15744	188.04439	180.77428	70.87293	0.32663	 	4.31032E18	 	7.11279E-19	 	4301.29351	28.16985	 
350.0	1.0	0.0	8.16029	6.92253	-7.63813	14.34656	17.72462	0.86135	1.16096	188.38928	180.92163	71.01236	0.32645	 	6.56043E18	 	4.63604E-19	 	4160.68592	28.12152	 
345.0	1.0	0.0	8.16219	6.92092	-7.65966	14.32446	17.63654	0.85871	1.16454	188.73341	181.068	71.15155	0.32628	 	1.00532E19	 	3.00106E-19	 	4020.3199	28.0732	 
340.0	1.0	0.0	8.16409	6.91931	-7.68114	14.30235	17.54842	0.85604	1.16817	189.07678	181.21338	71.29048	0.3261	 	1.55132E19	 	1.92908E-19	 	3880.19537	28.0249	 
335.0	1.0	0.0	8.16599	6.91771	-7.70255	14.28021	17.46025	0.85335	1.17185	189.41939	181.35778	71.42916	0.32592	 	2.411E19	 	1.23112E-19	 	3740.31227	27.97662	 
330.0	1.0	0.0	8.16788	6.9161	-7.72391	14.25805	17.37203	0.85063	1.1756	189.76123	181.50119	71.56759	0.32575	 	3.77456E19	 	7.79911E-20	 	3600.67053	27.92835	 
325.0	1.0	0.0	8.16976	6.91451	-7.74521	14.23586	17.28377	0.84789	1.1794	190.10232	181.64363	71.70577	0.32557	 	5.95375E19	 	4.9035E-20	 	3461.2701	27.88009	 
320.0	1.0	0.0	8.17164	6.91292	-7.76645	14.21366	17.19545	0.84512	1.18327	190.44265	181.78509	71.84369	0.3254	 	9.4635E19	 	3.05914E-20	 	3322.11094	27.83183	 
315.0	1.0	0.0	8.17352	6.91133	-7.78764	14.19143	17.10709	0.84232	1.18719	190.78222	181.92559	71.98137	0.32522	 	1.51612E20	 	1.89339E-20	 	3183.19303	27.78358	 
310.0	1.0	0.0	8.17539	6.90975	-7.80876	14.16918	17.01868	0.8395	1.19119	191.12104	182.06511	72.11879	0.32504	 	2.4486499999999997E20	 	1.16236E-20	 	3044.51635	27.73534	 
305.0	1.0	0.0	8.17726	6.90817	-7.82982	14.1469	16.93021	0.83665	1.19524	191.45909	182.20366	72.25596	0.32487	 	3.9876899999999997E20	 	7.07629E-21	 	2906.08089	27.68709	 
300.0	1.0	0.0	8.17912	6.90659	-7.85083	14.12461	16.84169	0.83377	1.19936	191.79638	182.34126	72.39287	0.32469	 	6.54953E20	 	4.27115E-21	 	2767.88667	27.63884	 
295.0	1.0	0.0	8.18098	6.90502	-7.87177	14.10229	16.75312	0.83087	1.20356	192.13291	182.47789	72.52954	0.32451	 	1.08516E21	 	2.55539E-21	 	2629.9337	27.59059	 
290.0	1.0	0.0	8.18284	6.90346	-7.89266	14.07995	16.66448	0.82794	1.20782	192.46868	182.61357	72.66595	0.32434	 	1.81413E21	 	1.5151E-21	 	2492.22203	27.54233	 
285.0	1.0	0.0	8.18469	6.9019	-7.91348	14.05759	16.57579	0.82498	1.21215	192.80369	182.7483	72.80211	0.32416	 	3.06085E21	 	8.90011E-22	 	2354.75171	27.49406	 
280.0	1.0	0.0	8.18654	6.90034	-7.93425	14.0352	16.48704	0.82199	1.21656	193.13795	182.88207	72.93802	0.32399	 	5.21343E21	 	5.17852E-22	 	2217.5228	27.44578	 
275.0	1.0	0.0	8.18838	6.89879	-7.95496	14.01279	16.39823	0.81897	1.22104	193.47144	183.01489	73.07367	0.32381	 	8.96652E21	 	2.98375E-22	 	2080.53539	27.39748	 
270.0	1.0	0.0	8.19022	6.89724	-7.97561	13.99036	16.30935	0.81592	1.22561	193.80417	183.14677	73.20907	0.32363	 	1.5576199999999999E22	 	1.70195E-22	 	1943.78957	27.34916	 
265.0	1.0	0.0	8.19205	6.8957	-7.99619	13.96791	16.22041	0.81284	1.23025	194.13615	183.27771	73.34422	0.32346	 	2.73372E22	 	9.60808E-23	 	1807.28547	27.30082	 
260.0	1.0	0.0	8.19388	6.89416	-8.01672	13.94543	16.1314	0.80974	1.23497	194.46736	183.40771	73.47912	0.32328	 	4.848729999999999E22	 	5.36671E-23	 	1671.02322	27.25245	 
255.0	1.0	0.0	8.1957	6.89262	-8.03719	13.92293	16.04232	0.8066	1.23978	194.79781	183.53678	73.61376	0.32311	 	8.693919999999999E22	 	2.96502E-23	 	1535.00297	27.20405	 
250.0	1.0	0.0	8.19752	6.89109	-8.0576	13.90041	15.95317	0.80342	1.24467	195.12751	183.66491	73.74815	0.32293	 	1.57634E23	 	1.6198E-23	 	1399.2249	27.15561	 
245.0	1.0	0.0	8.19933	6.88957	-8.07795	13.87787	15.86395	0.80022	1.24965	195.45644	183.7921	73.88228	0.32276	 	2.8911599999999997E23	 	8.74721E-24	 	1263.6892	27.10714	 
240.0	1.0	0.0	8.20114	6.88805	-8.09823	13.85531	15.77464	0.79699	1.25473	195.78462	183.91838	74.01616	0.32258	 	5.3657199999999996E23	 	4.6677E-24	 	1128.3961	27.05862	 
235.0	1.0	0.0	8.20295	6.88653	-8.11846	13.83272	15.68527	0.79372	1.25989	196.11204	184.04372	74.14979	0.3224	 	1.00802E24	 	2.46042E-24	 	993.34581	27.01006	 
230.0	1.0	0.0	8.20475	6.88502	-8.13863	13.81011	15.59581	0.79042	1.26516	196.43869	184.16815	74.28317	0.32223	 	1.91757E24	 	1.28066E-24	 	858.53862	26.96144	 
225.0	1.0	0.0	8.20655	6.88351	-8.15873	13.78747	15.50626	0.78708	1.27052	196.76459	184.29165	74.41629	0.32205	 	3.6952300000000003E24	 	6.57969E-25	 	723.97479	26.91277	 
220.0	1.0	0.0	8.20834	6.88201	-8.17878	13.76482	15.41663	0.78371	1.27598	197.08973	184.41424	74.54915	0.32188	 	7.21619E24	 	3.33548E-25	 	589.65467	26.86403	 
215.0	1.0	0.0	8.21012	6.88051	-8.19876	13.74214	15.32692	0.78031	1.28155	197.4141	184.53592	74.68176	0.3217	 	1.42866E25	 	1.66767E-25	 	455.57857	26.81522	 
210.0	1.0	0.0	8.21191	6.87902	-8.21869	13.71944	15.23711	0.77686	1.28723	197.73772	184.65668	74.81412	0.32153	 	2.8687300000000003E25	 	8.22015E-26	 	321.74686	26.76634	 
205.0	1.0	0.0	8.21368	6.87753	-8.23855	13.69672	15.14721	0.77339	1.29301	198.06058	184.77654	74.94623	0.32135	 	5.844960000000001E25	 	3.99273E-26	 	188.15995	26.71738	 
200.0	1.0	0.0	8.21546	6.87605	-8.25835	13.67397	15.0572	0.76988	1.29891	198.38268	184.89549	75.07808	0.32118	 	1.20894E26	 	1.9102E-26	 	54.81825	26.66834	 
195.0	1.0	0.0	8.21723	6.87457	-8.27809	13.65121	14.9671	0.76633	1.30493	198.70402	185.01354	75.20967	0.321	 	2.5396400000000002E26	 	8.99703E-27	 	-78.27776	26.6192	 
190.0	1.0	0.0	8.21899	6.87309	-8.29777	13.62842	14.8769	0.76274	1.31107	199.0246	185.13069	75.34101	0.32083	 	5.421260000000001E26	 	4.16974E-27	 	-211.12758	26.56997	 
185.0	1.0	0.0	8.22075	6.87162	-8.31739	13.6056	14.78659	0.75911	1.31733	199.34442	185.24694	75.47209	0.32065	 	1.1765599999999999E27	 	1.90055E-27	 	-343.73071	26.52063	 
180.0	1.0	0.0	8.2225	6.87016	-8.33694	13.58277	14.69616	0.75545	1.32372	199.66348	185.3623	75.60292	0.32047	 	2.5975099999999996E27	 	8.51476E-28	 	-476.08655	26.47117	 
175.0	1.0	0.0	8.22425	6.8687	-8.35644	13.55991	14.60563	0.75174	1.33024	199.98178	185.47676	75.7335	0.3203	 	5.83677E27	 	3.74746E-28	 	-608.19451	26.42159	 
170.0	1.0	0.0	8.226	6.86724	-8.37587	13.53703	14.51497	0.748	1.3369	200.29932	185.59034	75.86382	0.32012	 	1.33574E28	 	1.61925E-28	 	-740.05393	26.37188	 
165.0	1.0	0.0	8.22773	6.86579	-8.39525	13.51413	14.42419	0.74421	1.3437	200.6161	185.70303	75.99388	0.31995	 	3.11516E28	 	6.86483E-29	 	-871.66414	26.32204	 
160.0	1.0	0.0	8.22947	6.86434	-8.41456	13.49121	14.33328	0.74039	1.35065	200.93212	185.81483	76.12369	0.31977	 	7.40844E28	 	2.85363E-29	 	-1003.02437	26.27205	 
155.0	1.0	0.0	8.2312	6.8629	-8.4338	13.46826	14.24224	0.73652	1.35774	201.24739	185.92576	76.25325	0.3196	 	1.79788E29	 	1.16231E-29	 	-1134.13386	26.2219	 
150.0	1.0	0.0	8.23292	6.86146	-8.45299	13.44529	14.15107	0.73261	1.36499	201.56189	186.0358	76.38254	0.31942	 	4.45549E29	 	4.63538E-30	 	-1264.99177	26.17158	 
145.0	1.0	0.0	8.23464	6.86003	-8.47212	13.4223	14.05975	0.72865	1.3724	201.87563	186.14497	76.51159	0.31925	 	1.12838E30	 	1.80869E-30	 	-1395.59721	26.12109	 
140.0	1.0	0.0	8.23636	6.8586	-8.49118	13.39928	13.96829	0.72465	1.37997	202.18861	186.25327	76.64037	0.31907	 	2.92269E30	 	6.89941E-31	 	-1525.94923	26.0704	 
135.0	1.0	0.0	8.23807	6.85717	-8.51018	13.37625	13.87667	0.72061	1.38771	202.50084	186.3607	76.7689	0.3189	 	7.74884E30	 	2.57081E-31	 	-1656.04685	26.01952	 
130.0	1.0	0.0	8.23978	6.85575	-8.52912	13.35319	13.78489	0.71652	1.39563	202.8123	186.46726	76.89718	0.31872	 	2.10472E31	 	9.34886E-32	 	-1785.88898	25.96843	 
125.0	1.0	0.0	8.24148	6.85434	-8.54799	13.3301	13.69296	0.71239	1.40373	203.12301	186.57295	77.0252	0.31855	 	5.862079999999999E31	 	3.31498E-32	 	-1915.47451	25.91711	 
120.0	1.0	0.0	8.24317	6.85293	-8.5668	13.307	13.60085	0.7082	1.41202	203.43295	186.67778	77.15296	0.31837	 	1.67581E32	 	1.14504E-32	 	-2044.80224	25.86555	 
115.0	1.0	0.0	8.24486	6.85152	-8.58555	13.28387	13.50856	0.70397	1.42051	203.74214	186.78175	77.28047	0.3182	 	4.92209E32	 	3.8489E-33	 	-2173.87091	25.81373	 
110.0	1.0	0.0	8.24655	6.85012	-8.60424	13.26072	13.41609	0.6997	1.42919	204.05057	186.88486	77.40772	0.31802	 	1.48692E33	 	1.25767E-33	 	-2302.6792	25.76166	 
105.0	1.0	0.0	8.24823	6.84873	-8.62287	13.23755	13.32343	0.69537	1.43809	204.35823	186.98712	77.53471	0.31785	 	4.62511E33	 	3.99052E-34	 	-2431.22565	25.70929	 
100.0	1.0	0.0	8.24991	6.84734	-8.64143	13.21436	13.23057	0.69099	1.4472	204.66514	187.08852	77.66145	0.31768	 	1.48308E34	 	1.22802E-34	 	-2559.50879	25.65663	 
95.0	1.0	0.0	8.25158	6.84595	-8.65993	13.19114	13.1375	0.68656	1.45654	204.97129	187.18908	77.78792	0.3175	 	4.90853E34	 	3.66067E-35	 	-2687.52703	25.60365	 
90.0	1.0	0.0	8.25324	6.84457	-8.67836	13.1679	13.04421	0.68208	1.46611	205.27667	187.28878	77.91415	0.31733	 	1.67901E35	 	1.05565E-35	 	-2815.27869	25.55033	 
85.0	1.0	0.0	8.2549	6.84319	-8.69674	13.14464	12.9507	0.67754	1.47592	205.5813	187.38764	78.04011	0.31715	 	5.9438199999999995E35	 	2.94094E-36	 	-2942.762	25.49666	 
80.0	1.0	0.0	8.25656	6.84182	-8.71505	13.12136	12.85695	0.67296	1.48598	205.88517	187.48566	78.16582	0.31698	 	2.1808499999999998E36	 	7.90351E-37	 	-3069.97508	25.44262	 
75.0	1.0	0.0	8.25821	6.84045	-8.73329	13.09805	12.76296	0.66831	1.4963	206.18828	187.58284	78.29127	0.3168	 	8.30618E36	 	2.04575E-37	 	-3196.91596	25.38818	 
70.0	1.0	0.0	8.25986	6.83909	-8.75148	13.07472	12.66871	0.66362	1.50689	206.49063	187.67918	78.41647	0.31663	 	3.28929E37	 	5.09177E-38	 	-3323.58256	25.33332	 
65.0	1.0	0.0	8.2615	6.83773	-8.7696	13.05137	12.5742	0.65886	1.51777	206.79222	187.77468	78.5414	0.31645	 	1.35668E38	 	1.21652E-38	 	-3449.97266	25.27802	 
60.0	1.0	0.0	8.26313	6.83638	-8.78765	13.02799	12.4794	0.65405	1.52893	207.09305	187.86935	78.66608	0.31628	 	5.83883E38	 	2.78484E-39	 	-3576.08394	25.22226	 
55.0	1.0	0.0	8.26476	6.83503	-8.80564	13.0046	12.38431	0.64918	1.5404	207.39312	187.96319	78.7905	0.3161	 	2.6271800000000003E39	 	6.09634E-40	 	-3701.91397	25.16601	 
50.0	1.0	0.0	8.26639	6.83369	-8.82357	12.98118	12.28891	0.64425	1.55218	207.69243	188.0562	78.91466	0.31593	 	1.23841E40	 	1.27358E-40	 	-3827.46017	25.10924	 
45.0	1.0	0.0	8.26801	6.83235	-8.84144	12.95774	12.1932	0.63926	1.5643	207.99099	188.14839	79.03857	0.31576	 	6.12924E40	 	2.53345E-41	 	-3952.7198	25.05193	 
40.0	1.0	0.0	8.26962	6.83101	-8.85924	12.93427	12.09714	0.63421	1.57676	208.28878	188.23975	79.16222	0.31558	 	3.1924700000000003E41	 	4.78754E-42	 	-4077.69004	24.99405	 
35.0	1.0	0.0	8.27123	6.82968	-8.87697	12.91079	12.00074	0.6291	1.58957	208.58581	188.3303	79.28561	0.31541	 	1.75431E42	 	8.57319E-43	 	-4202.36785	24.93556	 
30.0	1.0	0.0	8.27284	6.82836	-8.89465	12.88728	11.90396	0.62392	1.60276	208.88208	188.42002	79.40874	0.31523	 	1.0197500000000001E43	 	1.45094E-43	 	-4326.75011	24.87645	 
25.0	1.0	0.0	8.27443	6.82704	-8.91225	 	11.80679	0.61868	1.61633	209.1776	188.50893	79.53161	0.31506	 	6.28814E43	 	2.31419E-44	 	-4450.8335	 	 
