T (C)	Fraction solid (wt)-TOTAL	Fraction liquid (wt)-LIQUID	Density (g/(cm)^3)-TOTAL	Molar volume (cm^3)-TOTAL	Volume change (%)-  	Average expansion coeff. (10e-6 1/K)-  	Thermal conductivity (W/(m*K))-TOTAL	Electrical resistivity (10e-6 Ohm*m)-TOTAL	Electrical conductivity (10e6 1/(Ohm*m))-TOTAL	Young's modulus (GPa)-TOTAL	Bulk modulus (GPa)-TOTAL	Shear modulus(GPa)-TOTAL	Poisson's ratio-TOTAL	Liquid viscosity (mPa s)-  	Total viscosity (mPa s)-  	Liquid diffusivity (10e-9 (m^2)/s)-  	Total diffusivity (10e-9 (m^2)/s)-  	Surface Tension (mN/m)-  	Enthalpy (J/mole)-TOTAL	Specific heat (J/(mole K))-TOTAL	Latent heat (J/mole)-TOTAL
1400.0	0.0	1.0	7.41441	7.82024	0.0	27.71403	29.14867	1.40631	0.71108	0.0	128.33836	0.0	0.5	7.82147	7.82147	1.04408	1.04408	1798.52796	59312.745	 	0.0
1395.0	0.0	1.0	7.41835	7.81608	-0.0531706	27.67102	29.07304	1.40576	0.71136	0.0	128.50788	0.0	0.5	7.90614	7.90614	1.02981	1.02981	1800.8386	59108.656	40.8178	0.0
1390.0	0.0	1.0	7.42229	7.81193	-0.10618	27.62812	28.9974	1.4052	0.71164	0.0	128.67741	0.0	0.5	7.99224	7.99224	1.01566	1.01566	1803.15113	58905.03	40.7252	0.0
1385.0	0.0	1.0	7.42622	7.8078	-0.15904	27.58533	28.92177	1.40464	0.71193	0.0	128.84693	0.0	0.5	8.07981	8.07981	1.00164	1.00164	1805.4654	58701.866	40.6328	0.0
1380.0	0.0	1.0	7.43014	7.80368	-0.21174	27.54265	28.84614	1.40408	0.71221	0.0	129.01646	0.0	0.5	8.16887	8.16887	0.98773	0.98773	1807.78122	58499.159	40.5414	0.0
1375.0	0.0	1.0	7.43405	7.79957	-0.26429	27.50009	28.77051	1.40351	0.7125	0.0	129.18598	0.0	0.5	8.25947	8.25947	0.97394	0.97394	1810.09841	58296.908	40.4502	0.0
1370.0	0.0	1.0	7.43796	7.79547	-0.31668	27.45764	28.69487	1.40294	0.71279	0.0	129.35551	0.0	0.5	8.35163	8.35163	0.96027	0.96027	1812.41677	58095.111	40.3594	0.0
1365.0	0.0	1.0	7.44186	7.79139	-0.36891	27.41531	28.61924	1.40237	0.71308	0.0	129.52503	0.0	0.5	8.44539	8.44539	0.94672	0.94672	1814.73615	57893.765	40.2692	0.0
1360.0	0.0	1.0	7.44575	7.78731	-0.42099	27.3731	28.54361	1.40179	0.71337	0.0	129.69456	0.0	0.5	8.54079	8.54079	0.93329	0.93329	1817.05634	57692.867	40.1796	0.0
1355.0	0.0	1.0	7.44964	7.78325	-0.47291	27.331	28.46797	1.40121	0.71367	0.0	129.86409	0.0	0.5	8.63786	8.63786	0.91997	0.91997	1819.37718	57492.416	40.0902	0.0
1354.95	0.0	1.0	7.44967	7.78321	-0.47339	27.33061	28.46726	1.40121	0.71367	0.0	129.86569	0.0	0.5	8.63878	8.63878	0.91985	0.91985	1819.39908	57490.526	40.05935	0.0
1350.0	0.18016	0.81984	7.49265	7.73858	-1.0441	25.83291	29.13102	1.36511	0.73254	0.10835	129.58262	0.0367481	0.47425	8.83281	48.25637	0.8969	0.16417	1819.02625	54524.078	598.94121	2768.329
1345.0	0.32103	0.67897	7.52681	7.70346	-1.49322	24.66696	29.65908	1.33668	0.74812	1.11526	129.42377	0.38356	0.45382	9.03349	409.50944	0.87428	0.019286	1818.58671	52177.16	469.3836	4915.681
1340.0	0.43184	0.56816	7.55417	7.67548	-1.85101	23.7501	30.08064	1.31387	0.76111	3.71483	129.36468	1.29207	0.43755	9.23922	1390.44186	0.85217	0.00566251	1818.09439	50305.421	374.3478	6588.294
1335.0	0.52038	0.47962	7.57646	7.65278	-2.14125	23.01782	30.41903	1.29523	0.77206	7.94672	129.38486	2.78951	0.42439	9.44996	3093.77997	0.83058	0.00253702	1817.55858	48785.498	303.9846	7909.527
1330.0	0.59207	0.40793	7.59491	7.634	-2.38146	22.4223	30.6899	1.27981	0.78137	13.48105	129.46742	4.76824	0.41363	9.66585	5492.96305	0.80951	0.00142447	1816.9884	47530.442	251.0112	8966.329
1325.0	0.65079	0.34921	7.61041	7.61824	-2.583	21.93268	30.90542	1.26692	0.78932	19.8922	129.60116	7.08045	0.40473	9.88701	8511.35425	0.78893	9.16443E-4	1816.39167	46477.812	210.526	9821.137
1320.0	0.69939	0.30061	7.62359	7.60482	-2.75457	21.52525	31.07507	1.25606	0.79614	26.78539	129.77647	9.58474	0.39729	10.11344	12062.85954	0.76886	6.44604E-4	1815.77584	45582.002	179.162	10519.555
1315.0	0.73995	0.26005	7.63496	7.59319	-2.90331	21.18041	31.20651	1.24684	0.80202	33.8509	129.98483	12.1676	0.39103	10.34539	16073.94812	0.74926	4.82232E-4	1815.14831	44809.19	154.5624	11095.403
1310.0	0.77411	0.22589	7.64488	7.58303	-3.03323	20.88729	31.30625	1.23896	0.80713	40.86162	130.22111	14.74399	0.3857	10.5829	20488.50211	0.73014	3.77136E-4	1814.51458	44133.939	135.0502	11574.118
1305.0	0.80306	0.19694	7.65363	7.57404	-3.14816	20.63536	31.37944	1.23217	0.81158	47.66291	130.48035	17.25478	0.38115	10.82605	25267.48834	0.71148	3.04841E-4	1813.88041	43536.876	119.4126	11975.066
1300.0	0.82776	0.17224	7.66143	7.56597	-3.25137	20.4156	31.43041	1.22627	0.81548	54.16452	130.75788	19.66438	0.37722	11.07501	30391.41856	0.69329	2.52642E-4	1813.2513	43003.074	106.7604	12313.176
1295.0	0.84898	0.15102	7.66845	7.55869	-3.34448	20.22367	31.46265	1.22112	0.81892	60.30482	131.05157	21.94783	0.37382	11.32965	35848.58648	0.67555	2.13502E-4	1812.63123	42520.907	96.4334	12600.071
1290.0	0.86729	0.13271	7.67484	7.55205	-3.42937	20.05435	31.47917	1.21659	0.82197	66.06702	131.35851	24.09705	0.37085	11.59064	41646.28001	0.65823	1.83194E-4	1812.0243	42081.228	87.9358	12844.894
1285.83	0.8806	0.1194	7.67973	7.54693	-3.4948	19.92789	31.48216	1.21323	0.82425	70.54373	131.62349	25.77084	0.36867	11.81281	46726.96797	0.64413	1.6284E-4	1811.53463	41743.022	 	13020.945
1285.0	0.8883	0.1117	7.68206	7.54459	-3.52477	19.85268	31.49563	1.21206	0.82504	73.17054	131.75553	26.75395	0.36747	11.83126	48853.32387	0.64278	1.55669E-4	1810.69757	41599.767	96.2922	13131.915
1280.0	0.92495	0.0750516	7.69385	7.53278	-3.67575	19.48493	31.54596	1.20625	0.82902	86.80766	132.48044	31.87427	0.36172	11.9421	60978.10279	0.63477	1.24316E-4	1806.22941	40882.551	143.4432	13655.104
1275.0	0.94765	0.0523475	7.70229	7.52441	-3.78282	19.24471	31.54842	1.20227	0.83176	96.33935	133.09305	35.46853	0.3581	12.05547	71548.66732	0.62678	1.05608E-4	1802.69623	40369.404	102.6294	13974.636
1270.0	0.96275	0.0372451	7.7089	7.51793	-3.86565	19.07486	31.52399	1.19931	0.83381	103.25357	133.6426	38.08314	0.35563	12.17169	81307.58765	0.61879	9.26326E-5	1799.87347	39966.514	80.578	14184.319
1265.0	0.97335	0.0266478	7.71439	7.5126	-3.93381	18.94762	31.48325	1.19698	0.83544	108.46008	134.15359	40.05587	0.35386	12.2917	90728.9354	0.61076	8.27446E-5	1797.60289	39628.633	67.5762	14329.401
1260.0	0.9811	0.0188958	7.71918	7.50801	-3.99251	18.84778	31.43195	1.19503	0.8368	112.51474	134.63909	41.59442	0.35252	12.41567	100122.7369	0.6027	7.47375E-5	1795.77156	39331.713	59.384	14433.927
1255.0	0.98696	0.0130352	7.72349	7.50392	-4.04478	18.76657	31.3735	1.19335	0.83797	115.76843	135.10692	42.83046	0.35147	12.54427	109706.0034	0.59458	6.79864E-5	1794.296	39061.989	53.9448	14511.659
1250.0	0.99152	0.00848381	7.72746	7.50019	-4.09249	18.69847	31.30998	1.19186	0.83902	118.44879	135.5618	43.84965	0.35062	12.67759	119640.7378	0.5864	6.2137E-5	1793.1142	38811.108	50.1762	14570.95
1245.0	0.99513	0.00486756	7.73119	7.49672	-4.13689	18.63994	31.24274	1.19051	0.83998	120.70722	136.00675	44.70907	0.34992	12.81591	130056.4299	0.57817	5.69731E-5	1792.18026	38573.752	47.4712	14617.115
1240.0	0.99806	0.001939	7.73473	7.49345	-4.17876	18.58866	31.17274	1.18925	0.84087	122.64909	136.44389	45.44854	0.34932	12.95914	141066.4444	0.56989	5.23534E-5	1791.45598	38346.402	45.47	14653.671
1236.04	1.0	0.0	7.73744	7.49096	-4.21052	18.55209	31.11564	1.18831	0.84153	124.00913	136.78575	45.96673	0.3489	 	150282.2163	 	4.90142E-5	 	38171.716	 	14677.356
1235.0	1.0	0.0	7.73799	7.49042	-4.21743	18.54676	31.09878	1.18814	0.84165	124.10889	136.86655	46.00481	0.34887	 	152507.6586	 	4.82658E-5	 	38138.33277	41.61385	 
1230.0	1.0	0.0	7.74073	7.48777	-4.25136	18.51913	31.01725	1.18731	0.84224	124.59083	137.2571	46.18877	0.34871	 	163743.7209	 	4.48048E-5	 	37957.43702	36.17915	 
1225.0	1.0	0.0	7.74347	7.48512	-4.2852	18.49152	30.93573	1.18648	0.84283	125.072	137.64607	46.37248	0.34856	 	175891.0496	 	4.15717E-5	 	37776.84657	36.11809	 
1220.0	1.0	0.0	7.7462	7.48248	-4.31897	18.46393	30.8542	1.18565	0.84342	125.55241	138.03346	46.55595	0.3484	 	189030.0984	 	3.85531E-5	 	37596.5608	36.05715	 
1215.0	1.0	0.0	7.74893	7.47985	-4.35266	18.43636	30.77267	1.18481	0.84402	126.03204	138.41927	46.73917	0.34825	 	203249.0025	 	3.57359E-5	 	37416.57905	35.99635	 
1210.0	1.0	0.0	7.75165	7.47722	-4.38627	18.40881	30.69113	1.18396	0.84462	126.5109	138.80351	46.92215	0.34809	 	218644.3473	 	3.3108E-5	 	37236.90066	35.93568	 
1205.0	1.0	0.0	7.75437	7.4746	-4.4198	18.38127	30.6096	1.18312	0.84523	126.989	139.18619	47.10489	0.34794	 	235322.0422	 	3.06579E-5	 	37057.525	35.87513	 
1200.0	1.0	0.0	7.75709	7.47198	-4.45324	18.35375	30.52805	1.18226	0.84584	127.46633	139.5673	47.28737	0.34778	 	253398.2852	 	2.83746E-5	 	36878.4514	35.81472	 
1195.0	1.0	0.0	7.7598	7.46937	-4.48661	18.32625	30.44651	1.18141	0.84645	127.94289	139.94686	47.46962	0.34763	 	273000.6284	 	2.62478E-5	 	36699.67924	35.75443	 
1190.0	1.0	0.0	7.7625	7.46677	-4.5199	18.29877	30.36496	1.18054	0.84707	128.41868	140.32488	47.65161	0.34747	 	294269.1931	 	2.42678E-5	 	36521.20786	35.69428	 
1185.0	1.0	0.0	7.76521	7.46417	-4.55311	18.2713	30.28341	1.17968	0.84769	128.8937	140.70134	47.83337	0.34732	 	317357.9496	 	2.24254E-5	 	36343.0366	35.63425	 
1180.0	1.0	0.0	7.7679	7.46158	-4.58624	18.24386	30.20185	1.17881	0.84831	129.36795	141.07627	48.01487	0.34717	 	342436.2426	 	2.07118E-5	 	36165.16484	35.57435	 
1175.0	1.0	0.0	7.77059	7.459	-4.61929	18.21643	30.12029	1.17793	0.84894	129.84144	141.44966	48.19613	0.34701	 	369690.3726	 	1.91189E-5	 	35987.59191	35.51459	 
1170.0	1.0	0.0	7.77328	7.45642	-4.65226	18.18902	30.03873	1.17705	0.84958	130.31416	141.82153	48.37715	0.34686	 	399325.4739	 	1.76389E-5	 	35810.31718	35.45495	 
1165.0	1.0	0.0	7.77596	7.45385	-4.68515	18.16163	29.95716	1.17617	0.85022	130.78611	142.19187	48.55792	0.3467	 	431567.5296	 	1.62646E-5	 	35633.33999	35.39544	 
1160.0	1.0	0.0	7.77864	7.45128	-4.71796	18.13426	29.87559	1.17528	0.85086	131.2573	142.56069	48.73844	0.34655	 	466665.6076	 	1.4989E-5	 	35456.65971	35.33606	 
1155.0	1.0	0.0	7.78131	7.44872	-4.7507	18.10691	29.79401	1.17439	0.85151	131.72771	142.928	48.91871	0.34639	 	504894.452	 	1.38057E-5	 	35280.27569	35.2768	 
1150.0	1.0	0.0	7.78398	7.44617	-4.78335	18.07957	29.71243	1.17349	0.85216	132.19736	143.29381	49.09874	0.34624	 	546557.2721	 	1.27087E-5	 	35104.18728	35.21768	 
1145.0	1.0	0.0	7.78665	7.44362	-4.81592	18.05226	29.63084	1.17258	0.85282	132.66624	143.65811	49.27853	0.34609	 	591988.9122	 	1.16922E-5	 	34928.39384	35.15869	 
1140.0	1.0	0.0	7.7893	7.44108	-4.84842	18.02496	29.54925	1.17168	0.85348	133.13436	144.02091	49.45807	0.34593	 	641559.3849	 	1.07507E-5	 	34752.89473	35.09982	 
1135.0	1.0	0.0	7.79196	7.43854	-4.88083	17.99768	29.46766	1.17076	0.85414	133.60171	144.38222	49.63736	0.34578	 	695677.8253	 	9.87933E-6	 	34577.6893	35.04109	 
1130.0	1.0	0.0	7.79461	7.43601	-4.91317	17.97042	29.38606	1.16985	0.85481	134.06829	144.74204	49.8164	0.34562	 	754796.8998	 	9.0732E-6	 	34402.77691	34.98248	 
1125.0	1.0	0.0	7.79725	7.43349	-4.94542	17.94319	29.30445	1.16892	0.85549	134.5341	145.10038	49.9952	0.34547	 	819417.8383	 	8.32789E-6	 	34228.1569	34.924	 
1120.0	1.0	0.0	7.79989	7.43098	-4.9776	17.91597	29.22285	1.168	0.85617	134.99915	145.45725	50.17376	0.34532	 	890095.8927	 	7.6392E-6	 	34053.82865	34.86565	 
1115.0	1.0	0.0	7.80253	7.42846	-5.0097	17.88877	29.14123	1.16706	0.85685	135.46343	145.81264	50.35206	0.34516	 	967446.6466	 	7.00319E-6	 	33879.7915	34.80743	 
1110.0	1.0	0.0	7.80516	7.42596	-5.04172	17.86159	29.05961	1.16613	0.85754	135.92694	146.16656	50.53012	0.34501	 	1052152.982	 	6.41619E-6	 	33706.04481	34.74934	 
1105.0	1.0	0.0	7.80779	7.42346	-5.07366	17.83443	28.97799	1.16518	0.85823	136.38969	146.51902	50.70793	0.34486	 	1144973.055	 	5.87473E-6	 	33532.58795	34.69137	 
1100.0	1.0	0.0	7.81041	7.42097	-5.10552	17.80728	28.89636	1.16424	0.85893	136.85167	146.87002	50.8855	0.3447	 	1246749.005	 	5.37558E-6	 	33359.42027	34.63354	 
1095.0	1.0	0.0	7.81303	7.41849	-5.13731	17.78016	28.81472	1.16328	0.85964	137.31288	147.21957	51.06282	0.34455	 	1358416.985	 	4.91572E-6	 	33186.54112	34.57583	 
1090.0	1.0	0.0	7.81564	7.41601	-5.16901	17.75306	28.73308	1.16232	0.86034	137.77333	147.56767	51.23989	0.3444	 	1481018.49	 	4.49231E-6	 	33013.94986	34.51825	 
1085.0	1.0	0.0	7.81825	7.41353	-5.20064	17.72598	28.65144	1.16136	0.86106	138.23301	147.91432	51.41671	0.34424	 	1615712.778	 	4.1027E-6	 	32841.64585	34.4608	 
1080.0	1.0	0.0	7.82085	7.41107	-5.23218	17.69892	28.56979	1.16039	0.86178	138.69193	148.25954	51.59329	0.34409	 	1763791.417	 	3.74443E-6	 	32669.62844	34.40348	 
1075.0	1.0	0.0	7.82345	7.40861	-5.26365	17.67188	28.48813	1.15942	0.8625	139.15008	148.60332	51.76962	0.34394	 	1926694.082	 	3.41517E-6	 	32497.89701	34.34629	 
1070.0	1.0	0.0	7.82604	7.40615	-5.29504	17.64486	28.40647	1.15844	0.86323	139.60746	148.94568	51.9457	0.34378	 	2106027.027	 	3.11277E-6	 	32326.4509	34.28922	 
1065.0	1.0	0.0	7.82863	7.4037	-5.32635	17.61787	28.3248	1.15745	0.86396	140.06408	149.28661	52.12154	0.34363	 	2303583.549	 	2.83523E-6	 	32155.28947	34.23229	 
1060.0	1.0	0.0	7.83121	7.40126	-5.35759	17.59089	28.24312	1.15646	0.8647	140.51993	149.62612	52.29713	0.34348	 	2521367.068	 	2.58065E-6	 	31984.41207	34.17548	 
1055.0	1.0	0.0	7.83379	7.39882	-5.38874	17.56393	28.16144	1.15547	0.86545	140.97501	149.96421	52.47247	0.34332	 	2761617.867	 	2.34731E-6	 	31813.81807	34.1188	 
1050.0	1.0	0.0	7.83636	7.39639	-5.41982	17.537	28.07975	1.15447	0.8662	141.42933	150.30089	52.64756	0.34317	 	3026842.466	 	2.13357E-6	 	31643.50682	34.06225	 
1045.0	1.0	0.0	7.83893	7.39397	-5.45081	17.51008	27.99806	1.15346	0.86696	141.88289	150.63617	52.8224	0.34302	 	3319847.928	 	1.93791E-6	 	31473.47768	34.00583	 
1040.0	1.0	0.0	7.8415	7.39155	-5.48173	17.48319	27.91636	1.15245	0.86772	142.33567	150.97005	52.997	0.34287	 	3643780.121	 	1.75893E-6	 	31303.73001	33.94953	 
1035.0	1.0	0.0	7.84406	7.38914	-5.51257	17.45632	27.83465	1.15143	0.86848	142.7877	151.30253	53.17135	0.34271	 	4002167.082	 	1.59532E-6	 	31134.26316	33.89337	 
1030.0	1.0	0.0	7.84661	7.38673	-5.54334	17.42947	27.75294	1.15041	0.86926	143.23895	151.63361	53.34545	0.34256	 	4398969.182	 	1.44587E-6	 	30965.0765	33.83733	 
1025.0	1.0	0.0	7.84916	7.38433	-5.57402	17.40264	27.67121	1.14938	0.87004	143.68945	151.96331	53.5193	0.34241	 	4838635.267	 	1.30945E-6	 	30796.16937	33.78143	 
1020.0	1.0	0.0	7.85171	7.38194	-5.60463	17.37584	27.58949	1.14834	0.87082	144.13917	152.29163	53.6929	0.34226	 	5326167.209	 	1.18501E-6	 	30627.54113	33.72565	 
1019.01	1.0	0.0	7.85221	7.38147	-5.61065	17.37056	27.57336	1.14814	0.87098	144.2278	152.35624	53.72712	0.34223	 	5428474.924	 	1.16179E-6	 	30594.30625	 	 
1015.0	1.0	0.0	7.85424	7.37956	-5.6351	17.34928	27.50775	1.1473	0.87161	144.58838	152.61896	53.86635	0.3421	 	5867290.043	 	1.07156E-6	 	30459.07349	33.69353	 
1010.0	1.0	0.0	7.85677	7.37718	-5.66548	17.32278	27.426	1.14625	0.87241	145.03687	152.94498	54.03956	0.34195	 	6468282.395	 	9.68222E-7	 	30290.8641	33.64188	 
1005.0	1.0	0.0	7.8593	7.37481	-5.69578	17.2963	27.34425	1.1452	0.87321	145.48458	153.26961	54.21252	0.3418	 	7136269.154	 	8.74173E-7	 	30122.93979	33.58486	 
1000.0	1.0	0.0	7.86182	7.37245	-5.72602	17.26982	27.26249	1.14414	0.87402	145.93151	153.59284	54.38522	0.34165	 	7879311.136	 	7.88639E-7	 	29955.29948	33.52806	 
995.0	1.0	0.0	7.86433	7.37009	-5.75617	17.24335	27.18072	1.14308	0.87483	146.37766	153.91469	54.55767	0.34149	 	8706508.256	 	7.10908E-7	 	29787.94216	33.47147	 
990.0	1.0	0.0	7.86684	7.36774	-5.78626	17.2169	27.09894	1.14201	0.87565	146.82303	154.23516	54.72986	0.34134	 	9628144.557	 	6.40323E-7	 	29620.86678	33.41508	 
985.0	1.0	0.0	7.86935	7.36539	-5.81627	17.19046	27.01716	1.14093	0.87648	147.26762	154.55426	54.9018	0.34119	 	1.06558496E7	 	5.76277E-7	 	29454.07232	33.35889	 
980.0	1.0	0.0	7.87185	7.36305	-5.8462	17.16403	26.93537	1.13985	0.87731	147.71143	154.87199	55.07349	0.34104	 	1.180278934E7	 	5.18209E-7	 	29287.5578	33.3029	 
975.0	1.0	0.0	7.87435	7.36071	-5.87606	17.13761	26.85357	1.13876	0.87815	148.15447	155.18835	55.24493	0.34089	 	1.308388007E7	 	4.65604E-7	 	29121.32223	33.24711	 
970.0	1.0	0.0	7.87684	7.35838	-5.90585	17.11121	26.77177	1.13766	0.879	148.59673	155.50336	55.41611	0.34074	 	1.451603775E7	 	4.17986E-7	 	28955.36464	33.19152	 
965.0	1.0	0.0	7.87933	7.35606	-5.93556	17.08483	26.68995	1.13656	0.87985	149.03821	155.81701	55.58704	0.34058	 	1.611846344E7	 	3.74918E-7	 	28789.68407	33.13611	 
960.0	1.0	0.0	7.88181	7.35374	-5.9652	17.05846	26.60813	1.13545	0.88071	149.47892	156.12932	55.75772	0.34043	 	1.791297147E7	 	3.35997E-7	 	28624.2796	33.08089	 
955.0	1.0	0.0	7.88429	7.35143	-5.99476	17.0321	26.5263	1.13433	0.88157	149.91886	156.44029	55.92814	0.34028	 	1.992437097E7	 	3.00852E-7	 	28459.15027	33.02587	 
950.0	1.0	0.0	7.88676	7.34913	-6.02424	17.00577	26.44446	1.13321	0.88245	150.35802	156.74991	56.09831	0.34013	 	2.218089978E7	 	2.69146E-7	 	28294.29519	32.97102	 
945.0	1.0	0.0	7.88923	7.34683	-6.05365	16.97945	26.36261	1.13208	0.88333	150.79641	157.05821	56.26823	0.33998	 	2.471473386E7	 	2.40564E-7	 	28129.71342	32.91635	 
940.0	1.0	0.0	7.8917	7.34453	-6.08299	16.95315	26.28075	1.13095	0.88421	151.23402	157.36518	56.4379	0.33983	 	2.756256905E7	 	2.14823E-7	 	27965.4041	32.86187	 
935.0	1.0	0.0	7.89416	7.34224	-6.11225	16.92686	26.19888	1.12981	0.88511	151.67086	157.67082	56.60731	0.33968	 	3.076629736E7	 	1.9166E-7	 	27801.36632	32.80756	 
930.0	1.0	0.0	7.89661	7.33996	-6.14143	16.9006	26.117	1.12866	0.88601	152.10694	157.97515	56.77647	0.33952	 	3.437379439E7	 	1.70836E-7	 	27637.59921	32.75342	 
925.0	1.0	0.0	7.89906	7.33768	-6.17054	16.87436	26.03511	1.1275	0.88692	152.54224	158.27817	56.94538	0.33937	 	3.843982459E7	 	1.52131E-7	 	27474.10191	32.69946	 
920.0	1.0	0.0	7.90151	7.33541	-6.19958	16.84814	25.95322	1.12634	0.88783	152.97676	158.57987	57.11404	0.33922	 	4.302709642E7	 	1.35344E-7	 	27310.87355	32.64567	 
915.0	1.0	0.0	7.90395	7.33315	-6.22853	16.82194	25.87131	1.12517	0.88875	153.41052	158.88028	57.28244	0.33907	 	4.820749578E7	 	1.20294E-7	 	27147.91329	32.59205	 
910.0	1.0	0.0	7.90638	7.33089	-6.25741	16.79576	25.78939	1.124	0.88968	153.84351	159.17938	57.45059	0.33892	 	5.40635088E7	 	1.06813E-7	 	26985.22027	32.5386	 
905.0	1.0	0.0	7.90881	7.32864	-6.28622	16.7696	25.70747	1.12281	0.89062	154.27573	159.47719	57.61849	0.33877	 	6.068988428E7	 	9.47482E-8	 	26822.79368	32.48532	 
900.0	1.0	0.0	7.91124	7.32639	-6.31495	16.74347	25.62553	1.12162	0.89157	154.70718	159.77371	57.78614	0.33862	 	6.819558373E7	 	8.39622E-8	 	26660.63265	32.4322	 
897.92	1.0	0.0	7.91225	7.32546	-6.32688	16.7326	25.59144	1.12113	0.89196	154.88644	159.89669	57.85581	0.33856	 	7.160612919E7	 	7.98214E-8	 	26593.25035	 	 
895.0	1.0	0.0	7.91405	7.32378	-6.3483	16.69732	25.53553	1.12078	0.89224	155.19997	160.09606	57.97835	0.33843	 	7.699336591E7	 	7.40512E-8	 	26476.33768	36.85899	 
890.0	1.0	0.0	7.91713	7.32094	-6.38471	16.63747	25.44026	1.12016	0.89273	155.73308	160.43442	58.18677	0.33822	 	8.724633982E7	 	6.50692E-8	 	26277.39077	39.78938	 
885.0	1.0	0.0	7.92019	7.31811	-6.4208	16.57831	25.34566	1.11951	0.89325	156.26159	160.76904	58.39345	0.33801	 	9.896663657E7	 	5.71166E-8	 	26079.97144	39.48386	 
880.0	1.0	0.0	7.92322	7.31531	-6.45659	16.51979	25.25178	1.11882	0.8938	156.78564	161.10002	58.59845	0.3378	 	1.123791237E8	 	5.00826E-8	 	25884.02455	39.18938	 
875.0	1.0	0.0	7.92622	7.31254	-6.49208	16.46189	25.15862	1.11809	0.89438	157.30539	161.42742	58.80183	0.33759	 	1.277454655E8	 	4.38672E-8	 	25689.49644	38.90562	 
870.0	1.0	0.0	7.92921	7.30979	-6.52728	16.40456	25.06617	1.11733	0.89499	157.82097	161.75133	59.00365	0.33738	 	1.453705096E8	 	3.83808E-8	 	25496.33594	38.6321	 
865.0	1.0	0.0	7.93217	7.30706	-6.56221	16.34777	24.97438	1.11653	0.89563	158.33251	162.07183	59.20395	0.33718	 	1.656098938E8	 	3.35428E-8	 	25304.49331	38.36853	 
860.0	1.0	0.0	7.93512	7.30434	-6.59686	16.29149	24.88323	1.1157	0.8963	158.84013	162.38896	59.40278	0.33698	 	1.888790479E8	 	2.92813E-8	 	25113.92042	38.11458	 
855.0	1.0	0.0	7.93804	7.30165	-6.63126	16.23569	24.79268	1.11483	0.897	159.34396	162.7028	59.60019	0.33677	 	2.156638931E8	 	2.55315E-8	 	24924.57061	37.86996	 
850.0	1.0	0.0	7.94094	7.29898	-6.66541	16.18033	24.7027	1.11393	0.89772	159.8441	163.0134	59.79622	0.33657	 	2.465335827E8	 	2.22356E-8	 	24736.39855	37.63441	 
845.0	1.0	0.0	7.94331	7.29681	-6.69326	16.15287	24.6216	1.11263	0.89877	160.26488	163.29482	59.96026	0.33643	 	2.803676639E8	 	1.94652E-8	 	24580.30209	31.21929	 
840.0	1.0	0.0	7.94568	7.29464	-6.72102	16.12541	24.5405	1.11131	0.89984	160.68492	163.57503	60.12406	0.33628	 	3.192136872E8	 	1.702E-8	 	24421.27237	31.80594	 
835.0	1.0	0.0	7.94804	7.29247	-6.74871	16.09797	24.45938	1.10999	0.90091	161.1042	163.85402	60.28761	0.33613	 	3.638677991E8	 	1.48642E-8	 	24262.49688	31.7551	 
830.0	1.0	0.0	7.95039	7.29031	-6.77633	16.07055	24.37825	1.10866	0.90199	161.52273	164.1318	60.45091	0.33598	 	4.152610477E8	 	1.29658E-8	 	24103.97488	31.7044	 
825.0	1.0	0.0	7.95274	7.28816	-6.80387	16.04313	24.2971	1.10732	0.90308	161.94051	164.40837	60.61396	0.33584	 	4.744836588E8	 	1.12961E-8	 	23945.70566	31.65384	 
820.0	1.0	0.0	7.95508	7.28601	-6.83133	16.01573	24.21595	1.10597	0.90418	162.35753	164.68375	60.77676	0.33569	 	5.428139334E8	 	9.82914E-9	 	23787.68847	31.60344	 
815.0	1.0	0.0	7.95742	7.28387	-6.85871	15.98834	24.13478	1.10462	0.90529	162.7738	164.95793	60.93932	0.33554	 	6.217526973E8	 	8.54197E-9	 	23629.92258	31.55318	 
810.0	1.0	0.0	7.95976	7.28173	-6.88602	15.96096	24.05359	1.10325	0.90641	163.18932	165.23091	61.10162	0.33539	 	7.130644236E8	 	7.4139E-9	 	23472.40722	31.50307	 
805.0	1.0	0.0	7.96209	7.2796	-6.91325	15.93359	23.9724	1.10188	0.90754	163.60408	165.5027	61.26368	0.33525	 	8.188263958E8	 	6.42649E-9	 	23315.14162	31.45312	 
800.0	1.0	0.0	7.96441	7.27748	-6.94041	15.90624	23.89118	1.1005	0.90868	164.01809	165.7733	61.42549	0.3351	 	9.41487566E8	 	5.5633E-9	 	23158.12503	31.40332	 
795.0	1.0	0.0	7.96673	7.27536	-6.96749	15.87889	23.80996	1.09911	0.90983	164.43135	166.04272	61.58705	0.33495	 	1.083939125E9	 	4.80966E-9	 	23001.35667	31.35367	 
790.0	1.0	0.0	7.96904	7.27325	-6.99449	15.85156	23.72872	1.09771	0.91099	164.84386	166.31097	61.74836	0.3348	 	1.249599241E9	 	4.15251E-9	 	22844.83574	31.30419	 
785.0	1.0	0.0	7.97135	7.27114	-7.02142	15.82424	23.64746	1.0963	0.91216	165.25561	166.57803	61.90942	0.33466	 	1.442514969E9	 	3.58025E-9	 	22688.56144	31.25486	 
780.0	1.0	0.0	7.97365	7.26904	-7.04827	15.79694	23.56619	1.09488	0.91334	165.66662	166.84392	62.07023	0.33451	 	1.667484991E9	 	3.08258E-9	 	22532.53295	31.2057	 
775.0	1.0	0.0	7.97595	7.26695	-7.07505	15.76964	23.48491	1.09345	0.91453	166.07687	167.10864	62.2308	0.33436	 	1.930207686E9	 	2.65037E-9	 	22376.74947	31.1567	 
770.0	1.0	0.0	7.97824	7.26486	-7.10175	15.74236	23.40361	1.09202	0.91574	166.48636	167.37219	62.39111	0.33422	 	2.237460024E9	 	2.27551E-9	 	22221.21012	31.10787	 
765.0	1.0	0.0	7.98053	7.26278	-7.12837	15.71509	23.32229	1.09057	0.91695	166.89511	167.63458	62.55117	0.33407	 	2.597314061E9	 	1.95084E-9	 	22065.91408	31.05921	 
760.0	1.0	0.0	7.98281	7.2607	-7.15492	15.68783	23.24096	1.08912	0.91817	167.3031	167.89582	62.71099	0.33392	 	3.019399358E9	 	1.67005E-9	 	21910.86047	31.01072	 
755.0	1.0	0.0	7.98509	7.25863	-7.18139	15.66059	23.15962	1.08766	0.91941	167.71034	168.15589	62.87056	0.33377	 	3.515221583E9	 	1.42755E-9	 	21756.0484	30.96241	 
750.0	1.0	0.0	7.98736	7.25657	-7.20779	15.63335	23.07825	1.08618	0.92066	168.11683	168.41481	63.02987	0.33363	 	4.098549973E9	 	1.21842E-9	 	21601.47696	30.91429	 
745.0	1.0	0.0	7.98962	7.25451	-7.23411	15.60613	22.99687	1.0847	0.92192	168.52257	168.67259	63.18894	0.33348	 	4.785889338E9	 	1.03833E-9	 	21447.14524	30.86634	 
740.0	1.0	0.0	7.99189	7.25246	-7.26035	15.57892	22.91547	1.08321	0.92319	168.92755	168.92921	63.34775	0.33333	 	5.597056036E9	 	8.83488E-10	 	21293.05228	30.81859	 
735.0	1.0	0.0	7.99414	7.25041	-7.28652	15.55172	22.83406	1.0817	0.92447	169.33178	169.1847	63.50632	0.33319	 	6.555882038E9	 	7.50552E-10	 	21139.19715	30.77103	 
730.0	1.0	0.0	7.99639	7.24837	-7.31262	15.52454	22.75263	1.08019	0.92576	169.73526	169.43904	63.66463	0.33304	 	7.691077092E9	 	6.36598E-10	 	20985.57882	30.72367	 
725.0	1.0	0.0	7.99864	7.24634	-7.33864	15.49737	22.67118	1.07867	0.92707	170.13799	169.69225	63.8227	0.3329	 	9.037286373E9	 	5.39069E-10	 	20832.1963	30.6765	 
720.0	1.0	0.0	8.00088	7.24431	-7.36458	15.47021	22.58971	1.07714	0.92839	170.53996	169.94432	63.98052	0.33275	 	1.06364E10	 	4.5573E-10	 	20679.04856	30.62955	 
715.0	1.0	0.0	8.00311	7.24228	-7.39045	15.44306	22.50822	1.07559	0.92972	170.94118	170.19527	64.13808	0.3326	 	1.2539099999999998E10	 	3.8463E-10	 	20526.13451	30.58281	 
710.0	1.0	0.0	8.00534	7.24027	-7.41624	15.41592	22.42672	1.07404	0.93106	171.34166	170.44509	64.2954	0.33246	 	1.4806999999999998E10	 	3.24071E-10	 	20373.45306	30.53629	 
705.0	1.0	0.0	8.00757	7.23826	-7.44196	15.3888	22.34519	1.07248	0.93242	171.74138	170.69378	64.45246	0.33231	 	1.75147E10	 	2.72577E-10	 	20221.0031	30.48999	 
700.0	1.0	0.0	8.00979	7.23625	-7.4676	15.36168	22.26365	1.0709	0.93379	172.14034	170.94136	64.60927	0.33216	 	2.07534E10	 	2.28863E-10	 	20068.78343	30.44393	 
695.0	1.0	0.0	8.012	7.23425	-7.49317	15.33458	22.18208	1.06932	0.93518	172.53856	171.18782	64.76584	0.33202	 	2.4634199999999996E10	 	1.91819E-10	 	19916.79287	30.39811	 
690.0	1.0	0.0	8.01421	7.23226	-7.51866	15.3075	22.1005	1.06772	0.93657	172.93602	171.43316	64.92215	0.33187	 	2.9292699999999996E10	 	1.6048E-10	 	19765.03017	30.35254	 
685.0	1.0	0.0	8.01641	7.23027	-7.54407	15.28042	22.0189	1.06611	0.93799	173.33273	171.6774	65.07821	0.33173	 	3.48951E10	 	1.34016E-10	 	19613.49406	30.30722	 
680.0	1.0	0.0	8.01861	7.22829	-7.56942	15.25336	21.93727	1.0645	0.93941	173.72869	171.92052	65.23402	0.33158	 	4.16455E10	 	1.11707E-10	 	19462.18319	30.26217	 
675.0	1.0	0.0	8.0208	7.22631	-7.59468	15.2263	21.85563	1.06287	0.94085	174.1239	172.16255	65.38958	0.33143	 	4.979449999999999E10	 	9.29356E-11	 	19311.09619	30.2174	 
670.0	1.0	0.0	8.02299	7.22434	-7.61987	15.19927	21.77396	1.06123	0.9423	174.51836	172.40347	65.54489	0.33129	 	5.965109999999999E10	 	7.71702E-11	 	19160.23161	30.17291	 
665.0	1.0	0.0	8.02517	7.22238	-7.64499	15.17224	21.69227	1.05958	0.94377	174.91206	172.64329	65.69995	0.33114	 	7.15963E10	 	6.39541E-11	 	19009.58799	30.12872	 
660.0	1.0	0.0	8.02735	7.22042	-7.67003	15.14522	21.61056	1.05792	0.94525	175.30501	172.88202	65.85475	0.331	 	8.61019E10	 	5.28963E-11	 	18859.16663	30.08427	 
655.0	1.0	0.0	8.02952	7.21847	-7.695	15.11822	21.52882	1.05624	0.94675	175.69721	173.11966	66.00931	0.33085	 	1.03752E11	 	4.36624E-11	 	18708.98312	30.0367	 
650.0	1.0	0.0	8.03168	7.21652	-7.71989	15.09123	21.44707	1.05456	0.94826	176.08866	173.35621	66.16361	0.33071	 	1.25274E11	 	3.59666E-11	 	18559.05825	29.98497	 
645.0	1.0	0.0	8.03384	7.21458	-7.74471	15.06425	21.36529	1.05286	0.94979	176.47936	173.59168	66.31766	0.33056	 	1.5157E11	 	2.95656E-11	 	18409.39125	29.9334	 
640.0	1.0	0.0	8.036	7.21265	-7.76945	15.03728	21.28348	1.05115	0.95134	176.86931	173.82606	66.47146	0.33042	 	1.8377E11	 	2.42524E-11	 	18259.98131	29.88199	 
635.0	1.0	0.0	8.03815	7.21072	-7.79412	15.01033	21.20165	1.04943	0.9529	177.2585	174.05936	66.62501	0.33027	 	2.23283E11	 	1.98513E-11	 	18110.82765	29.83073	 
630.0	1.0	0.0	8.04029	7.20879	-7.81872	14.98339	21.1198	1.0477	0.95447	177.64695	174.29159	66.7783	0.33012	 	2.71878E11	 	1.62133E-11	 	17961.92949	29.77963	 
625.0	1.0	0.0	8.04243	7.20688	-7.84323	14.95646	21.03792	1.04595	0.95607	178.03464	174.52274	66.93134	0.32998	 	3.31776E11	 	1.32127E-11	 	17813.28599	29.7287	 
620.0	1.0	0.0	8.04457	7.20496	-7.86768	14.92954	20.95602	1.0442	0.95768	178.42158	174.75283	67.08414	0.32983	 	4.05773E11	 	1.07431E-11	 	17664.89622	29.67795	 
615.0	1.0	0.0	8.0467	7.20306	-7.89205	14.90263	20.87409	1.04243	0.9593	178.80776	174.98184	67.23668	0.32969	 	4.974E11	 	8.715E-12	 	17516.75949	29.62735	 
610.0	1.0	0.0	8.04882	7.20116	-7.91635	14.87574	20.79213	1.04064	0.96094	179.1932	175.20979	67.38896	0.32954	 	6.11124E11	 	7.05329E-12	 	17368.87502	29.57689	 
605.0	1.0	0.0	8.05094	7.19926	-7.94057	14.84886	20.71015	1.03885	0.96261	179.57789	175.43668	67.541	0.3294	 	7.52614E11	 	5.69486E-12	 	17221.24206	29.52659	 
600.0	1.0	0.0	8.05305	7.19738	-7.96472	14.82199	20.62814	1.03704	0.96428	179.96182	175.66251	67.69278	0.32925	 	9.29074E11	 	4.58696E-12	 	17073.85983	29.47644	 
595.0	1.0	0.0	8.05516	7.19549	-7.98879	14.79513	20.5461	1.03522	0.96598	180.345	175.88729	67.84431	0.32911	 	1.14969E12	 	3.68552E-12	 	16926.72759	29.42645	 
590.0	1.0	0.0	8.05726	7.19362	-8.01279	14.76828	20.46404	1.03338	0.9677	180.72743	176.11102	67.99558	0.32896	 	1.42622E12	 	2.95384E-12	 	16779.84457	29.3766	 
585.0	1.0	0.0	8.05935	7.19175	-8.03671	14.74145	20.38194	1.03153	0.96943	181.10911	176.33369	68.14661	0.32882	 	1.7737E12	 	2.3614E-12	 	16633.21003	29.32691	 
580.0	1.0	0.0	8.06144	7.18988	-8.06057	14.71463	20.29982	1.02967	0.97118	181.49004	176.55532	68.29738	0.32867	 	2.21149E12	 	1.8829E-12	 	16486.82322	29.27736	 
575.0	1.0	0.0	8.06353	7.18802	-8.08434	14.68782	20.21766	1.0278	0.97295	181.87022	176.7759	68.4479	0.32853	 	2.76452E12	 	1.49741E-12	 	16340.68339	29.22797	 
570.0	1.0	0.0	8.06561	7.18617	-8.10805	14.66102	20.13547	1.02591	0.97474	182.24964	176.99545	68.59816	0.32839	 	3.465E12	 	1.18765E-12	 	16194.7898	29.17872	 
565.0	1.0	0.0	8.06768	7.18432	-8.13168	14.63424	20.05326	1.02401	0.97656	182.62832	177.21395	68.74817	0.32824	 	4.3547E12	 	9.394E-13	 	16049.14173	29.12961	 
560.0	1.0	0.0	8.06975	7.18248	-8.15523	14.60747	19.97101	1.02209	0.97839	183.00624	177.43142	68.89793	0.3281	 	5.48786E12	 	7.4098E-13	 	15903.73842	29.08066	 
555.0	1.0	0.0	8.07182	7.18064	-8.17871	14.58071	19.88873	1.02016	0.98024	183.38341	177.64786	69.04744	0.32795	 	6.93524E12	 	5.82819E-13	 	15758.57917	29.03185	 
550.0	1.0	0.0	8.07388	7.17881	-8.20212	14.55396	19.80641	1.01821	0.98211	183.75983	177.86327	69.19669	0.32781	 	8.78932E12	 	4.57099E-13	 	15613.66325	28.98318	 
545.0	1.0	0.0	8.07593	7.17699	-8.22545	14.52722	19.72407	1.01625	0.98401	184.1355	178.07765	69.34569	0.32766	 	1.11714E13	 	3.57449E-13	 	15468.98993	28.93466	 
540.0	1.0	0.0	8.07798	7.17517	-8.24872	14.5005	19.64169	1.01428	0.98592	184.51042	178.29101	69.49443	0.32752	 	1.42409E13	 	2.78689E-13	 	15324.55852	28.88628	 
535.0	1.0	0.0	8.08002	7.17335	-8.2719	14.47378	19.55927	1.01229	0.98786	184.88459	178.50334	69.64292	0.32738	 	1.82085E13	 	2.16623E-13	 	15180.36828	28.83805	 
530.0	1.0	0.0	8.08205	7.17155	-8.29502	14.44709	19.47682	1.01029	0.98982	185.258	178.71466	69.79116	0.32723	 	2.33528E13	 	1.67859E-13	 	15036.41853	28.78995	 
525.0	1.0	0.0	8.08409	7.16974	-8.31806	14.4204	19.39433	1.00827	0.9918	185.63066	178.92497	69.93914	0.32709	 	3.00441E13	 	1.29662E-13	 	14892.70857	28.74199	 
520.0	1.0	0.0	8.08611	7.16795	-8.34102	14.39372	19.3118	1.00623	0.99381	186.00258	179.13426	70.08687	0.32694	 	3.87755E13	 	9.98353E-14	 	14749.2377	28.69418	 
515.0	1.0	0.0	8.08813	7.16616	-8.36391	14.36706	19.22924	1.00418	0.99583	186.37374	179.34254	70.23435	0.3268	 	5.02068E13	 	7.66184E-14	 	14606.00522	28.64649	 
510.0	1.0	0.0	8.09015	7.16437	-8.38673	14.34041	19.14664	1.00212	0.99789	186.74415	179.54981	70.38157	0.32666	 	6.52229E13	 	5.86046E-14	 	14463.01048	28.59895	 
505.0	1.0	0.0	8.09216	7.16259	-8.40948	14.31377	19.064	1.00004	0.99996	187.11381	179.75608	70.52853	0.32651	 	8.50155E13	 	4.46737E-14	 	14320.25277	28.55154	 
500.0	1.0	0.0	8.09416	7.16082	-8.43215	14.28714	18.98132	0.99794	1.00207	187.48272	179.96135	70.67525	0.32637	 	1.11195E14	 	3.39364E-14	 	14177.73144	28.50427	 
495.0	1.0	0.0	8.09616	7.15905	-8.45475	14.26053	18.8986	0.99582	1.00419	187.85087	180.16561	70.8217	0.32622	 	1.45945E14	 	2.56888E-14	 	14035.44581	28.45713	 
490.0	1.0	0.0	8.09815	7.15729	-8.47728	14.23392	18.81584	0.99369	1.00635	188.21828	180.36888	70.96791	0.32608	 	1.92239E14	 	1.93756E-14	 	13893.39523	28.41012	 
485.0	1.0	0.0	8.10014	7.15554	-8.49973	14.20733	18.73303	0.99155	1.00853	188.58493	180.57116	71.11386	0.32594	 	2.5413799999999997E14	 	1.45603E-14	 	13751.57906	28.36324	 
480.0	1.0	0.0	8.10212	7.15379	-8.52211	14.18075	18.65019	0.98938	1.01073	188.95084	180.77245	71.25955	0.32579	 	3.37218E14	 	1.09008E-14	 	13609.99664	28.31648	 
475.0	1.0	0.0	8.10409	7.15204	-8.54442	14.15419	18.56729	0.9872	1.01296	189.31599	180.97275	71.40499	0.32565	 	4.4915E14	 	8.12987E-15	 	13468.64733	28.26986	 
470.0	1.0	0.0	8.10607	7.1503	-8.56666	14.12763	18.48436	0.985	1.01522	189.68039	181.17206	71.55017	0.32551	 	6.00549E14	 	6.03969E-15	 	13327.5305	28.22337	 
465.0	1.0	0.0	8.10803	7.14857	-8.58882	14.10109	18.40138	0.98279	1.01751	190.04404	181.37039	71.6951	0.32536	 	8.06147E14	 	4.46907E-15	 	13186.64554	28.17699	 
460.0	1.0	0.0	8.10999	7.14684	-8.61091	14.07456	18.31835	0.98056	1.01983	190.40694	181.56774	71.83977	0.32522	 	1.08649E15	 	3.29348E-15	 	13045.99181	28.13074	 
455.0	1.0	0.0	8.11194	7.14512	-8.63292	14.04804	18.23527	0.97831	1.02218	190.76909	181.76411	71.98419	0.32508	 	1.47033E15	 	2.4171E-15	 	12905.56873	28.08462	 
450.0	1.0	0.0	8.11389	7.1434	-8.65486	14.02154	18.15214	0.97604	1.02455	191.13048	181.95951	72.12835	0.32493	 	1.99811E15	 	1.76642E-15	 	12765.37568	28.03861	 
445.0	1.0	0.0	8.11584	7.14169	-8.67673	13.99505	18.06897	0.97375	1.02696	191.49113	182.15393	72.27226	0.32479	 	2.72698E15	 	1.28535E-15	 	12625.41208	27.99272	 
440.0	1.0	0.0	8.11777	7.13999	-8.69853	13.96856	17.98574	0.97145	1.02939	191.85103	182.34739	72.41591	0.32465	 	3.73798E15	 	9.31173E-16	 	12485.67732	27.94695	 
435.0	1.0	0.0	8.11971	7.13829	-8.72026	13.94209	17.90246	0.96912	1.03186	192.21017	182.53987	72.5593	0.3245	 	5.14668E15	 	6.71561E-16	 	12346.17086	27.90129	 
430.0	1.0	0.0	8.12163	7.1366	-8.74191	13.91564	17.81913	0.96678	1.03436	192.56856	182.73139	72.70244	0.32436	 	7.11855E15	 	4.82107E-16	 	12206.89212	27.85575	 
425.0	1.0	0.0	8.12355	7.13491	-8.76349	13.88919	17.73575	0.96442	1.03689	192.9262	182.92195	72.84533	0.32422	 	9.89176E15	 	3.44478E-16	 	12067.84059	27.8103	 
420.0	1.0	0.0	8.12547	7.13323	-8.785	13.86276	17.65231	0.96204	1.03946	193.2831	183.11155	72.98796	0.32408	 	1.38108E16	 	2.44961E-16	 	11929.01565	27.76499	 
415.0	1.0	0.0	8.12738	7.13155	-8.80643	13.83634	17.56881	0.95964	1.04206	193.63924	183.30019	73.13033	0.32393	 	1.93761E16	 	1.73341E-16	 	11790.41694	27.71974	 
410.0	1.0	0.0	8.12928	7.12988	-8.82779	13.80993	17.48525	0.95722	1.0447	193.99462	183.48788	73.27244	0.32379	 	2.73193E16	 	1.22049E-16	 	11652.04418	27.67455	 
405.0	1.0	0.0	8.13118	7.12822	-8.84908	13.78353	17.40164	0.95478	1.04737	194.34926	183.67462	73.4143	0.32365	 	3.87144E16	 	8.54948E-17	 	11513.89708	27.62942	 
400.0	1.0	0.0	8.13308	7.12656	-8.8703	13.75715	17.31796	0.95232	1.05007	194.70315	183.8604	73.5559	0.3235	 	5.51473E16	 	5.95764E-17	 	11375.97538	27.58434	 
395.0	1.0	0.0	8.13496	7.1249	-8.89145	13.73078	17.23423	0.94984	1.05281	195.05629	184.04524	73.69725	0.32336	 	7.89725E16	 	4.12938E-17	 	11238.27884	27.53931	 
390.0	1.0	0.0	8.13684	7.12326	-8.91252	13.70442	17.15043	0.94733	1.05559	195.40867	184.22913	73.83834	0.32322	 	1.13705E17	 	2.84655E-17	 	11100.80719	27.49433	 
385.0	1.0	0.0	8.13872	7.12161	-8.93352	13.67807	17.06656	0.94481	1.05841	195.7603	184.41209	73.97917	0.32308	 	1.64622E17	 	1.9513E-17	 	10963.56023	27.44939	 
380.0	1.0	0.0	8.14059	7.11998	-8.95445	13.65173	16.98263	0.94227	1.06127	196.11119	184.5941	74.11975	0.32293	 	2.39694E17	 	1.32997E-17	 	10826.53773	27.4045	 
375.0	1.0	0.0	8.14246	7.11834	-8.97531	13.62541	16.89864	0.9397	1.06417	196.46132	184.77517	74.26007	0.32279	 	3.51029E17	 	9.01197E-18	 	10689.7395	27.35965	 
370.0	1.0	0.0	8.14432	7.11672	-8.99609	13.5991	16.81457	0.93711	1.06711	196.8107	184.95531	74.40013	0.32265	 	5.17137E17	 	6.07007E-18	 	10553.16533	27.31483	 
365.0	1.0	0.0	8.14617	7.1151	-9.01681	13.5728	16.73043	0.93451	1.07008	197.15933	185.13452	74.53994	0.32251	 	7.66487E17	 	4.06354E-18	 	10416.81508	27.27005	 
360.0	1.0	0.0	8.14802	7.11349	-9.03745	13.54651	16.64622	0.93187	1.07311	197.50721	185.3128	74.67949	0.32237	 	1.14315E18	 	2.70328E-18	 	10280.68856	27.2253	 
355.0	1.0	0.0	8.14986	7.11188	-9.05802	13.52024	16.56194	0.92922	1.07617	197.85434	185.49014	74.81878	0.32222	 	1.71579E18	 	1.78684E-18	 	10144.78564	27.18058	 
350.0	1.0	0.0	8.1517	7.11027	-9.07852	13.49397	16.47757	0.92654	1.07928	198.20072	185.66657	74.95781	0.32208	 	2.59213E18	 	1.17333E-18	 	10009.10621	27.13589	 
345.0	1.0	0.0	8.15353	7.10868	-9.09894	13.46772	16.39314	0.92384	1.08244	198.54635	185.84207	75.09659	0.32194	 	3.94229E18	 	7.65301E-19	 	9873.65014	27.09121	 
340.0	1.0	0.0	8.15536	7.10708	-9.1193	13.44148	16.30862	0.92112	1.08564	198.89122	186.01665	75.2351	0.3218	 	6.03684E18	 	4.95729E-19	 	9738.41736	27.04656	 
335.0	1.0	0.0	8.15718	7.1055	-9.13958	13.41526	16.22402	0.91837	1.08888	199.23535	186.19031	75.37337	0.32166	 	9.30922E18	 	3.18848E-19	 	9603.40779	27.00191	 
330.0	1.0	0.0	8.15899	7.10392	-9.15979	13.38904	16.13933	0.9156	1.09218	199.57872	186.36306	75.51137	0.32151	 	1.44589E19	 	2.03599E-19	 	9468.62138	26.95728	 
325.0	1.0	0.0	8.1608	7.10234	-9.17993	13.36284	16.05457	0.9128	1.09553	199.92135	186.53489	75.64911	0.32137	 	2.26233E19	 	1.29045E-19	 	9334.05807	26.91266	 
320.0	1.0	0.0	8.16261	7.10077	-9.2	13.33665	15.96971	0.90998	1.09892	200.26322	186.70582	75.7866	0.32123	 	3.56659E19	 	8.11706E-20	 	9199.71791	26.86803	 
315.0	1.0	0.0	8.1644	7.09921	-9.21999	13.31047	15.88476	0.90714	1.10237	200.60434	186.87583	75.92383	0.32109	 	5.66645E19	 	5.06598E-20	 	9065.60085	26.82341	 
310.0	1.0	0.0	8.1662	7.09765	-9.23992	13.28431	15.79972	0.90427	1.10587	200.94471	187.04494	76.0608	0.32095	 	9.0744E19	 	3.13653E-20	 	8931.70696	26.77878	 
305.0	1.0	0.0	8.16798	7.0961	-9.25977	13.25815	15.71459	0.90137	1.10942	201.28433	187.21314	76.19751	0.32081	 	1.4650799999999998E20	 	1.92604E-20	 	8798.03629	26.73413	 
300.0	1.0	0.0	8.16976	7.09455	-9.27955	13.23201	15.62936	0.89845	1.11303	201.6232	187.38045	76.33397	0.32067	 	2.3852599999999997E20	 	1.17279E-20	 	8664.58891	26.68948	 
295.0	1.0	0.0	8.17154	7.09301	-9.29927	13.20588	15.54402	0.8955	1.11669	201.96132	187.54685	76.47016	0.32052	 	3.91682E20	 	7.07971E-21	 	8531.36495	26.64479	 
290.0	1.0	0.0	8.17331	7.09147	-9.31891	13.17976	15.45859	0.89252	1.12042	202.29869	187.71236	76.6061	0.32038	 	6.488709999999999E20	 	4.23597E-21	 	8398.36453	26.60008	 
285.0	1.0	0.0	8.17507	7.08994	-9.33847	13.15366	15.37305	0.88952	1.1242	202.63531	187.87697	76.74178	0.32024	 	1.0847E21	 	2.51147E-21	 	8265.58781	26.55534	 
280.0	1.0	0.0	8.17683	7.08842	-9.35797	13.12757	15.2874	0.88649	1.12804	202.97118	188.04069	76.8772	0.3201	 	1.83019E21	 	1.47514E-21	 	8133.03499	26.51056	 
275.0	1.0	0.0	8.17859	7.0869	-9.3774	13.10149	15.20165	0.88344	1.13194	203.30629	188.20351	77.01236	0.31996	 	3.1176400000000003E21	 	8.58143E-22	 	8000.7063	26.46574	 
270.0	1.0	0.0	8.18033	7.08539	-9.39675	13.07542	15.11578	0.88035	1.13591	203.64066	188.36545	77.14726	0.31982	 	5.3631E21	 	4.943E-22	 	7868.60199	26.42086	 
265.0	1.0	0.0	8.18207	7.08388	-9.41604	13.04936	15.02979	0.87724	1.13994	203.97427	188.52651	77.28191	0.31968	 	9.3193E21	 	2.81843E-22	 	7736.72234	26.37593	 
260.0	1.0	0.0	8.18381	7.08238	-9.43525	13.02331	14.94368	0.87409	1.14404	204.30714	188.68668	77.41629	0.31954	 	1.63626E22	 	1.59032E-22	 	7605.06769	26.33093	 
255.0	1.0	0.0	8.18554	7.08088	-9.4544	12.99728	14.85744	0.87092	1.14821	204.63925	188.84597	77.55042	0.31939	 	2.90368E22	 	8.8776E-23	 	7473.6384	26.28586	 
250.0	1.0	0.0	8.18726	7.07939	-9.47347	12.97126	14.77108	0.86772	1.15244	204.97061	189.00438	77.68428	0.31925	 	5.20963E22	 	4.90124E-23	 	7342.43486	26.24071	 
245.0	1.0	0.0	8.18898	7.0779	-9.49247	12.94525	14.68459	0.86449	1.15675	205.30123	189.16192	77.81789	0.31911	 	9.4529E22	 	2.67533E-23	 	7211.45752	26.19547	 
240.0	1.0	0.0	8.1907	7.07642	-9.5114	12.91926	14.59797	0.86123	1.16113	205.63109	189.31858	77.95123	0.31897	 	1.7352599999999997E23	 	1.44333E-23	 	7080.70685	26.15013	 
235.0	1.0	0.0	8.1924	7.07495	-9.53026	12.89327	14.5112	0.85794	1.16559	205.9602	189.47437	78.08432	0.31883	 	3.2237199999999996E23	 	7.69346E-24	 	6950.18341	26.10469	 
230.0	1.0	0.0	8.19411	7.07348	-9.54905	12.8673	14.4243	0.85461	1.17012	206.28856	189.62928	78.21715	0.31869	 	6.0631E23	 	4.05032E-24	 	6819.88773	26.05913	 
225.0	1.0	0.0	8.1958	7.07201	-9.56777	12.84134	14.33724	0.85126	1.17473	206.61617	189.78333	78.34972	0.31855	 	1.15489E24	 	2.10526E-24	 	6689.82046	26.01346	 
220.0	1.0	0.0	8.19749	7.07056	-9.58641	12.8154	14.25004	0.84787	1.17943	206.94303	189.93652	78.48202	0.31841	 	2.2287400000000002E24	 	1.07996E-24	 	6559.98228	25.96764	 
215.0	1.0	0.0	8.19918	7.0691	-9.60499	12.78946	14.16268	0.84445	1.1842	207.26914	190.08884	78.61407	0.31827	 	4.35942E24	 	5.46527E-25	 	6430.37389	25.92168	 
210.0	1.0	0.0	8.20086	7.06765	-9.6235	12.76354	14.07516	0.841	1.18906	207.5945	190.2403	78.74586	0.31813	 	8.64625E24	 	2.72735E-25	 	6300.99611	25.87556	 
205.0	1.0	0.0	8.20253	7.06621	-9.64194	12.73763	13.98747	0.83751	1.19401	207.9191	190.3909	78.87739	0.31799	 	1.7395900000000001E25	 	1.34154E-25	 	6171.84977	25.82927	 
200.0	1.0	0.0	8.2042	7.06478	-9.6603	12.71173	13.89961	0.83399	1.19905	208.24296	190.54064	79.00866	0.31785	 	3.5520800000000003E25	 	6.50133E-26	 	6042.93577	25.7828	 
195.0	1.0	0.0	8.20586	7.06335	-9.6786	12.68584	13.81158	0.83044	1.20418	208.56607	190.68953	79.13966	0.31771	 	7.36448E25	 	3.10263E-26	 	5914.2551	25.73613	 
190.0	1.0	0.0	8.20752	7.06192	-9.69683	12.65996	13.72336	0.82685	1.20941	208.88843	190.83756	79.27041	0.31757	 	1.55109E26	 	1.45737E-26	 	5785.8088	25.68926	 
185.0	1.0	0.0	8.20917	7.0605	-9.71498	12.6341	13.63495	0.82323	1.21473	209.21003	190.98475	79.4009	0.31743	 	3.32043E26	 	6.73442E-27	 	5657.598	25.64216	 
180.0	1.0	0.0	8.21081	7.05909	-9.73307	12.60825	13.54636	0.81957	1.22015	209.53089	191.13108	79.53112	0.31729	 	7.22846E26	 	3.05973E-27	 	5529.62386	25.59483	 
175.0	1.0	0.0	8.21245	7.05768	-9.75108	12.58241	13.45756	0.81587	1.22568	209.85099	191.27657	79.66109	0.31715	 	1.60116E27	 	1.36607E-27	 	5401.8877	25.54723	 
170.0	1.0	0.0	8.21408	7.05627	-9.76903	12.55659	13.36855	0.81214	1.23131	210.17035	191.42122	79.79079	0.31701	 	3.61094E27	 	5.98987E-28	 	5274.39087	25.49937	 
165.0	1.0	0.0	8.21571	7.05488	-9.7869	12.53077	13.27933	0.80837	1.23705	210.48896	191.56502	79.92023	0.31687	 	8.295919999999999E27	 	2.57777E-28	 	5147.13481	25.45121	 
160.0	1.0	0.0	8.21733	7.05348	-9.80471	12.50497	13.18989	0.80457	1.2429	210.80681	191.70798	80.04942	0.31673	 	1.9429000000000001E28	 	1.08812E-28	 	5020.1211	25.40274	 
155.0	1.0	0.0	8.21895	7.0521	-9.82244	12.47918	13.10022	0.80073	1.24887	211.12392	191.85011	80.17834	0.31659	 	4.6415900000000005E28	 	4.50211E-29	 	4893.35138	25.35394	 
150.0	1.0	0.0	8.22056	7.05072	-9.84011	12.4534	13.01031	0.79684	1.25495	211.44027	191.9914	80.307	0.31645	 	1.1319400000000001E29	 	1.82457E-29	 	4766.82742	25.30479	 
145.0	1.0	0.0	8.22216	7.04934	-9.85771	12.42764	12.92016	0.79292	1.26116	211.75588	192.13185	80.4354	0.31631	 	2.8199100000000002E29	 	7.23741E-30	 	4640.5511	25.25526	 
140.0	1.0	0.0	8.22376	7.04797	-9.87523	12.40188	12.82975	0.78896	1.26749	212.07073	192.27148	80.56353	0.31617	 	7.181980000000001E29	 	2.8077E-30	 	4514.52442	25.20534	 
135.0	1.0	0.0	8.22536	7.0466	-9.89269	12.37614	12.73908	0.78496	1.27395	212.38484	192.41027	80.69141	0.31603	 	1.8715499999999999E30	 	1.0644E-30	 	4388.74952	25.15498	 
130.0	1.0	0.0	8.22694	7.04524	-9.91008	12.35041	12.64813	0.78092	1.28054	212.69819	192.54824	80.81902	0.31589	 	4.9943E30	 	3.93984E-31	 	4263.22865	25.10417	 
125.0	1.0	0.0	8.22852	7.04389	-9.92739	12.3247	12.5569	0.77684	1.28727	213.0108	192.68538	80.94638	0.31575	 	1.36601E31	 	1.42259E-31	 	4137.96424	25.05288	 
120.0	1.0	0.0	8.2301	7.04254	-9.94464	12.29899	12.46538	0.77271	1.29414	213.32265	192.82169	81.07347	0.31561	 	3.8331E31	 	5.00605E-32	 	4012.95885	25.00108	 
115.0	1.0	0.0	8.23167	7.0412	-9.96182	12.2733	12.37355	0.76855	1.30115	213.63376	192.95719	81.2003	0.31547	 	1.1045599999999999E32	 	1.71513E-32	 	3888.21523	24.94873	 
110.0	1.0	0.0	8.23324	7.03986	-9.97893	12.24762	12.2814	0.76434	1.30832	213.94412	193.09187	81.32687	0.31533	 	3.2720899999999996E32	 	5.71518E-33	 	3763.73627	24.89579	 
105.0	1.0	0.0	8.23479	7.03853	-9.99597	12.22195	12.18892	0.76009	1.31563	214.25372	193.22573	81.45318	0.3152	 	9.97548E32	 	1.85019E-33	 	3639.52509	24.84224	 
100.0	1.0	0.0	8.23635	7.0372	-10.01294	12.19629	12.0961	0.7558	1.32311	214.56258	193.35877	81.57922	0.31506	 	3.1334000000000004E33	 	5.81239E-34	 	3515.58497	24.78802	 
95.0	1.0	0.0	8.23789	7.03588	-10.02984	12.17065	12.00293	0.75146	1.33075	214.87069	193.491	81.705	0.31492	 	1.0153100000000001E34	 	1.76975E-34	 	3391.91944	24.73311	 
90.0	1.0	0.0	8.23944	7.03456	-10.04667	12.14502	11.90938	0.74707	1.33856	215.17805	193.62242	81.83052	0.31478	 	3.39815E34	 	5.21591E-35	 	3268.53222	24.67744	 
85.0	1.0	0.0	8.24097	7.03325	-10.06343	12.1194	11.81544	0.74264	1.34654	215.48466	193.75303	81.95578	0.31464	 	1.1763499999999999E35	 	1.48599E-35	 	3145.42731	24.62098	 
80.0	1.0	0.0	8.2425	7.03195	-10.08013	12.09379	11.7211	0.73817	1.3547	215.79052	193.88283	82.08078	0.3145	 	4.2179199999999996E35	 	4.08646E-36	 	3022.60897	24.56367	 
75.0	1.0	0.0	8.24403	7.03065	-10.09675	12.0682	11.62634	0.73365	1.36305	216.09563	194.01183	82.20551	0.31436	 	1.5688799999999997E36	 	1.08308E-36	 	2900.08169	24.50545	 
70.0	1.0	0.0	8.24554	7.02935	-10.11331	12.04261	11.53114	0.72908	1.37158	216.39999	194.14003	82.32998	0.31422	 	6.06328E36	 	2.76225E-37	 	2777.85034	24.44627	 
65.0	1.0	0.0	8.24706	7.02806	-10.12979	12.01704	11.43548	0.72447	1.38032	216.70361	194.26742	82.45419	0.31408	 	2.4388699999999997E37	 	6.76719E-38	 	2655.92004	24.38606	 
60.0	1.0	0.0	8.24856	7.02678	-10.14621	11.99148	11.33934	0.71981	1.38925	217.00647	194.39401	82.57814	0.31395	 	1.02285E38	 	1.5897E-38	 	2534.2963	24.32475	 
55.0	1.0	0.0	8.25006	7.0255	-10.16256	11.96593	11.2427	0.7151	1.3984	217.30859	194.51981	82.70183	0.31381	 	4.4813599999999994E38	 	3.57395E-39	 	2412.98499	24.26226	 
50.0	1.0	0.0	8.25156	7.02423	-10.17884	11.9404	11.14554	0.71034	1.40777	217.60996	194.64481	82.82525	0.31367	 	2.0552400000000002E39	 	7.67411E-40	 	2291.9924	24.19852	 
45.0	1.0	0.0	8.25305	7.02296	-10.19505	11.91488	11.04782	0.70554	1.41736	217.91057	194.76902	82.94841	0.31353	 	9.887940000000001E39	 	1.57041E-40	 	2171.32521	24.13344	 
40.0	1.0	0.0	8.25453	7.0217	-10.21119	11.88936	10.94954	0.70068	1.42717	218.21045	194.89244	83.07131	0.31339	 	5.00191E40	 	3.05565E-41	 	2050.99062	24.06692	 
35.0	1.0	0.0	8.25601	7.02044	-10.22726	11.86386	10.85065	0.69578	1.43723	218.50957	195.01507	83.19394	0.31325	 	2.66693E41	 	5.63945E-42	 	1930.99631	23.99886	 
30.0	1.0	0.0	8.25748	7.01919	-10.24327	11.83838	10.75112	0.69083	1.44754	218.80795	195.13691	83.31631	0.31312	 	1.50268E42	 	9.84641E-43	 	1811.35049	23.92916	 
25.0	1.0	0.0	8.25895	7.01794	-10.2592	 	10.65094	0.68582	1.4581	219.10558	195.25797	83.43842	0.31298	 	8.97231E42	 	1.62188E-43	 	1692.06202	 	 
