T (C)	Fraction solid (wt)-TOTAL	Fraction liquid (wt)-LIQUID	Density (g/(cm)^3)-TOTAL	Molar volume (cm^3)-TOTAL	Volume change (%)-  	Average expansion coeff. (10e-6 1/K)-  	Thermal conductivity (W/(m*K))-TOTAL	Electrical resistivity (10e-6 Ohm*m)-TOTAL	Electrical conductivity (10e6 1/(Ohm*m))-TOTAL	Young's modulus (GPa)-TOTAL	Bulk modulus (GPa)-TOTAL	Shear modulus(GPa)-TOTAL	Poisson's ratio-TOTAL	Liquid viscosity (mPa s)-  	Total viscosity (mPa s)-  	Liquid diffusivity (10e-9 (m^2)/s)-  	Total diffusivity (10e-9 (m^2)/s)-  	Surface Tension (mN/m)-  	Enthalpy (J/mole)-TOTAL	Specific heat (J/(mole K))-TOTAL	Latent heat (J/mole)-TOTAL
1400.0	0.0	1.0	7.35207	7.70502	0.0	28.38728	30.21556	1.35666	0.73711	0.0	126.81826	0.0	0.5	7.02285	7.02285	1.16281	1.16281	1778.83094	59581.146	 	0.0
1395.0	0.0	1.0	7.35604	7.70086	-0.0540382	28.34401	30.13624	1.35616	0.73737	0.0	126.98038	0.0	0.5	7.0974	7.0974	1.14716	1.14716	1781.2131	59374.901	41.249	0.0
1390.0	0.0	1.0	7.36001	7.69671	-0.10792	28.30085	30.05692	1.35567	0.73764	0.0	127.14251	0.0	0.5	7.17321	7.17321	1.13163	1.13163	1783.60325	59169.136	41.153	0.0
1385.0	0.0	1.0	7.36397	7.69257	-0.16164	28.25782	29.9776	1.35517	0.73792	0.0	127.30463	0.0	0.5	7.25028	7.25028	1.11624	1.11624	1786.00114	58963.848	41.0576	0.0
1380.0	0.0	1.0	7.36793	7.68844	-0.2152	28.2149	29.89827	1.35467	0.73819	0.0	127.46676	0.0	0.5	7.32866	7.32866	1.10097	1.10097	1788.4065	58759.035	40.9626	0.0
1375.0	0.0	1.0	7.37187	7.68433	-0.2686	28.17211	29.81895	1.35416	0.73846	0.0	127.62889	0.0	0.5	7.40837	7.40837	1.08583	1.08583	1790.81909	58554.694	40.8682	0.0
1370.89	0.0	1.0	7.37511	7.68095	-0.31238	28.13702	29.75374	1.35374	0.73869	0.0	127.76218	0.0	0.5	7.47491	7.47491	1.07348	1.07348	1792.80781	58387.051	40.78161	0.0
1370.0	0.03214	0.96786	7.38253	7.67329	-0.41189	27.88013	29.86007	1.34819	0.74173	1.03006E-4	127.69017	3.44389E-5	0.49549	7.49498	7.86325	1.07002	1.01991	1792.58709	57819.9	637.78577	530.924
1365.0	0.19089	0.80911	7.41943	7.63506	-0.90806	26.60537	30.38673	1.3208	0.75712	0.13132	127.33883	0.0445751	0.47299	7.60843	63.16481	1.05086	0.12658	1791.51222	55003.221	563.3358	3144.199
1360.0	0.3117	0.6883	7.44823	7.60549	-1.29174	25.63485	30.78385	1.29978	0.76936	0.95128	127.15083	0.32675	0.45565	7.7233	415.08969	1.03207	0.0192031	1790.64158	52822.562	436.1318	5121.92
1355.0	0.406	0.594	7.47132	7.58202	-1.59645	24.87811	31.08934	1.28307	0.77938	2.7811	127.08585	0.96433	0.44198	7.83977	1248.36479	1.01363	0.0063656	1789.95688	51086.541	347.2042	6655.465
1350.0	0.4812	0.5188	7.49031	7.56275	-1.84656	24.26911	31.32641	1.26945	0.78775	5.56118	127.11242	1.94314	0.43098	7.95794	2607.34402	0.99551	0.00303841	1789.44119	49670.657	283.1768	7869.334
1345.0	0.54226	0.45774	7.50625	7.54668	-2.05512	23.77269	31.51106	1.25812	0.79484	9.07302	127.21156	3.1903	0.42197	8.07798	4465.50692	0.97769	0.00176862	1789.07834	48491.162	235.899	8847.272
1340.0	0.59261	0.40739	7.51986	7.53292	-2.23363	23.3576	31.65393	1.24857	0.80092	13.07658	127.36602	4.62241	0.41448	8.20005	6773.94668	0.96016	0.0011623	1788.85408	47490.072	200.218	9647.259
1335.0	0.63469	0.36531	7.53169	7.52102	-2.38813	23.00757	31.76363	1.2404	0.80619	17.36699	127.56597	6.16652	0.40817	8.3242	9486.13359	0.94291	8.27416E-4	1788.75512	46626.222	172.77	10310.461
1330.0	0.67028	0.32972	7.54212	7.51052	-2.52439	22.70694	31.8463	1.23334	0.81081	21.7866	127.80179	7.76544	0.40279	8.45055	12565.18691	0.92593	6.22719E-4	1788.76982	45869.735	151.2974	10866.75
1325.0	0.70069	0.29931	7.55142	7.50116	-2.64587	22.44631	31.90685	1.22716	0.81489	26.22505	128.06724	9.3784	0.39816	8.57925	15988.4043	0.90919	4.87864E-4	1788.88759	45198.502	134.2466	11338.234
1320.0	0.7269	0.2731	7.55981	7.49271	-2.75551	22.21772	31.94904	1.2217	0.81853	30.60217	128.35687	10.97528	0.39414	8.71036	19741.27469	0.8927	3.93884E-4	1789.09905	44595.877	120.525	11741.557
1315.0	0.74968	0.25032	7.56746	7.48501	-2.85546	22.01532	31.97589	1.21684	0.8218	34.86794	128.66636	12.53686	0.39062	8.84398	23821.03755	0.87646	3.254E-4	1789.39579	44049.128	109.3498	12089.448
1310.0	0.76964	0.23036	7.5745	7.47792	-2.94752	21.8342	31.98991	1.21248	0.82475	38.99098	128.99248	14.05074	0.38751	8.98019	28232.51507	0.86045	2.7369E-4	1789.77036	43548.383	100.149	12391.777
1305.0	0.78725	0.21275	7.58103	7.47134	-3.03283	21.67131	31.99305	1.20853	0.82745	42.95484	129.3326	15.51007	0.38474	9.1191	32988.81105	0.84466	2.3349E-4	1790.21595	43085.887	92.4992	12656.297
1300.0	0.80285	0.19715	7.58713	7.46518	-3.11278	21.52282	31.98696	1.20493	0.82992	46.75308	129.68412	16.91177	0.38226	9.26079	38108.92127	0.8291	2.01479E-4	1790.72665	42655.48	86.0814	12889.165
1295.0	0.81677	0.18323	7.59286	7.4594	-3.18786	21.38741	31.97283	1.20163	0.8322	50.38069	130.04555	18.25338	0.38004	9.40541	43613.95531	0.81376	1.75489E-4	1791.29696	42252.216	80.6528	13095.326
1290.0	0.82927	0.17073	7.59828	7.45392	-3.259	21.26254	31.95182	1.19859	0.83431	53.84166	130.41507	19.53586	0.37802	9.55303	49532.7371	0.79863	1.54026E-4	1791.92209	41872.088	76.0256	13278.785
1285.0	0.84052	0.15948	7.60343	7.4487	-3.32667	21.14694	31.92491	1.19576	0.83628	57.14367	130.79173	20.76159	0.37619	9.70373	55900.31247	0.78371	1.36045E-4	1792.59759	41511.814	72.0548	13442.82
1280.0	0.8507	0.1493	7.60835	7.44372	-3.39131	21.03938	31.8928	1.19313	0.83813	60.29211	131.17427	21.9322	0.37451	9.8576	62752.64781	0.769	1.208E-4	1793.31949	41168.692	68.6244	13590.132
1275.0	0.85995	0.14005	7.61306	7.43896	-3.45316	20.93929	31.85616	1.19065	0.83987	63.29511	131.56208	23.05036	0.37297	10.01478	70132.20466	0.7545	1.07741E-4	1794.08405	40840.475	65.6434	13722.967
1270.0	0.86839	0.13161	7.6176	7.43436	-3.51286	20.84483	31.81548	1.18833	0.84152	66.16008	131.95395	24.1186	0.37156	10.17533	78083.48827	0.7402	9.64574E-5	1794.88818	40525.283	63.0384	13843.201
1265.0	0.87612	0.12388	7.62198	7.42991	-3.57056	20.75562	31.77125	1.18612	0.84308	68.89939	132.34932	25.14127	0.37025	10.33952	86662.51802	0.72608	8.66272E-5	1795.72872	40221.532	60.7502	13952.417
1260.0	0.88322	0.11678	7.62623	7.4256	-3.62651	20.67094	31.72394	1.18403	0.84457	71.51957	132.74779	26.1206	0.36903	10.50727	95925.56951	0.71217	7.80076E-5	1796.60291	39927.879	58.7306	14051.955
1255.0	0.88976	0.11024	7.63035	7.42142	-3.6808	20.59063	31.67386	1.18204	0.846	74.02928	133.1489	27.05966	0.36789	10.6788	105935.2637	0.69844	7.04064E-5	1797.50806	39643.181	56.9396	14142.958
1250.0	0.89582	0.10418	7.63437	7.41733	-3.73385	20.51342	31.62123	1.18013	0.84736	76.43647	133.55183	27.96129	0.36683	10.85427	116760.3517	0.6849	6.36699E-5	1798.44195	39366.454	55.3454	14226.406
1245.0	0.90143	0.0985694	7.63828	7.41335	-3.78554	20.43972	31.56647	1.1783	0.84868	78.75031	133.95675	28.82878	0.36583	11.03373	128481.1116	0.67155	5.76716E-5	1799.40204	39096.853	53.9202	14303.142
1240.0	0.90665	0.0933517	7.64211	7.40946	-3.83595	20.36935	31.50963	1.17653	0.84995	80.972	134.36321	29.66245	0.36489	11.21736	141172.02	0.65838	5.23143E-5	1800.38621	38833.643	52.642	14373.899
1235.0	0.91152	0.0884756	7.64587	7.40564	-3.88556	20.30085	31.45098	1.17483	0.85118	83.11433	134.77054	30.46705	0.364	11.40543	154933.4117	0.64539	4.75101E-5	1801.39261	38576.187	51.4912	14439.314
1230.0	0.91608	0.0839176	7.64955	7.4019	-3.93411	20.23506	31.39075	1.17319	0.85238	85.18153	135.17898	31.24404	0.36316	11.5979	169864.9344	0.63257	4.31902E-5	1802.41892	38323.924	50.4526	14499.944
1225.0	0.92036	0.0796405	7.65317	7.39822	-3.98187	20.17114	31.32907	1.17159	0.85354	87.18088	135.5881	31.99611	0.36237	11.79507	186080.0608	0.61993	3.92954E-5	1803.46334	38076.363	49.5122	14556.279
1220.0	0.92438	0.0756153	7.65673	7.3946	-4.02888	20.10906	31.26602	1.17003	0.85468	89.11697	135.99765	32.72491	0.36161	11.99715	203700.1237	0.60745	3.57766E-5	1804.52386	37833.067	48.6592	14608.752
1215.0	0.92818	0.0718183	7.66024	7.39103	-4.0752	20.04862	31.20183	1.16851	0.85579	90.99597	136.40773	33.43271	0.36088	12.20428	222864.3566	0.59514	3.25906E-5	1805.59848	37593.651	47.8832	14657.749
1210.0	0.93178	0.0682225	7.6637	7.3875	-4.12103	19.98919	31.13653	1.16703	0.85688	92.82331	136.81777	34.12154	0.36019	12.4167	243721.4195	0.583	2.97015E-5	1806.68538	37357.77	47.1762	14703.612
1205.0	0.93519	0.0648103	7.66712	7.38402	-4.16614	19.93154	31.07029	1.16557	0.85795	94.60327	137.22821	34.79291	0.35952	12.63465	266440.0318	0.57101	2.70773E-5	1807.78215	37125.112	46.5316	14746.65
1203.0	0.93649	0.0635082	7.66848	7.38264	-4.18401	19.90882	31.04352	1.165	0.85837	95.29637	137.39199	35.05445	0.35926	12.72318	276053.9338	0.56627	2.6099E-5	1808.22199	37033.228	 	14762.951
1200.0	0.93979	0.0602084	7.67098	7.38009	-4.21717	19.85465	31.00132	1.16421	0.85895	96.40522	137.65924	35.4773	0.35869	12.8999	292821.5141	0.55737	2.45545E-5	1809.41749	36867.956	51.4312	14814.584
1195.0	0.94484	0.055156	7.67502	7.37595	-4.27091	19.76848	30.93018	1.16293	0.8599	98.14999	138.09969	36.14312	0.3578	13.19963	322533.9815	0.54287	2.22168E-5	1811.43049	36600.12	53.5672	14893.592
1190.0	0.94936	0.0506376	7.6789	7.37197	-4.32252	19.68835	30.85793	1.16168	0.86082	99.7765	138.53544	36.76417	0.35698	13.50628	354629.6529	0.52874	2.01373E-5	1813.46731	36341.24	51.776	14964.038
1185.0	0.95342	0.0465783	7.68264	7.36813	-4.37241	19.61307	30.78475	1.16047	0.86172	101.30919	138.96711	37.34957	0.35623	13.82015	389358.9288	0.51496	1.82784E-5	1815.52775	36090.138	50.2204	15027.096
1180.0	0.95708	0.0429197	7.68626	7.3644	-4.42073	19.54218	30.7107	1.15928	0.86261	102.77175	139.39484	37.90815	0.35554	14.14154	426990.3478	0.50153	1.66104E-5	1817.61151	35845.829	48.8618	15083.751
1175.0	0.96039	0.0396084	7.68978	7.36078	-4.46774	19.47494	30.6359	1.15811	0.86348	104.18823	139.81919	38.44888	0.35489	14.4706	467823.7698	0.48844	1.51084E-5	1819.71836	35607.485	47.6688	15134.829
1170.0	0.9634	0.0366005	7.69321	7.35725	-4.51354	19.41104	30.56044	1.15696	0.86433	105.5807	140.24033	38.98	0.35429	14.80761	512184.1513	0.47568	1.37522E-5	1821.84808	35374.403	46.6164	15181.029
1165.0	0.96614	0.0338616	7.69656	7.3538	-4.55831	19.34992	30.48438	1.15583	0.86518	106.97005	140.65843	39.50932	0.35373	15.15296	560433.4833	0.46323	1.25247E-5	1824.00058	35145.989	45.6828	15222.946
1162.6	0.96736	0.0326386	7.69814	7.35218	-4.5794	19.32178	30.44758	1.15529	0.86558	107.63777	140.85853	39.76346	0.35348	15.32203	585108.2793	0.45735	1.19764E-5	1825.04161	35037.846	 	15241.552
1160.0	0.97395	0.026049	7.70149	7.3488	-4.62325	19.22213	30.42956	1.15388	0.86664	110.32818	141.12166	40.789	0.35243	15.48919	625577.0158	0.4516	1.11814E-5	1826.10651	34833.837	62.4304	15348.983
1155.0	0.98509	0.0149147	7.70749	7.34275	-4.70184	19.04821	30.39049	1.15134	0.86856	118.17387	141.61931	43.7476	0.35063	15.82446	707179.7787	0.44049	9.85668E-6	1828.06419	34470.552	72.657	15526.532
1150.0	0.99356	0.00644359	7.71268	7.33749	-4.77009	18.90696	30.34269	1.14911	0.87024	125.61177	142.09706	46.5494	0.34923	16.17892	791380.9439	0.42933	8.77712E-6	1829.83478	34154.306	63.2492	15657.422
1145.0	1.0	0.0	7.71723	7.33284	-4.83045	18.79069	30.28808	1.14714	0.87173	129.90456	142.55777	48.17967	0.34813	 	879085.7262	 	7.87368E-6	 	33873.23	56.2152	15753.516
1140.0	1.0	0.0	7.71986	7.33035	-4.86275	18.76707	30.20354	1.1463	0.87238	130.39995	142.95726	48.36889	0.34797	 	953993.3578	 	7.22986E-6	 	33677.66966	39.11207	 
1135.0	1.0	0.0	7.72249	7.32786	-4.89507	18.74319	30.11899	1.14545	0.87302	130.89432	143.35455	48.5578	0.34782	 	1035884.343	 	6.63475E-6	 	33500.88633	35.35666	 
1130.0	1.0	0.0	7.7251	7.32537	-4.92731	18.71935	30.03444	1.14459	0.87367	131.38786	143.75015	48.74643	0.34767	 	1125465.235	 	6.08497E-6	 	33324.40628	35.29601	 
1125.0	1.0	0.0	7.72772	7.32289	-4.95948	18.69555	29.94988	1.14373	0.87433	131.88057	144.14409	48.9348	0.34751	 	1223518.477	 	5.57738E-6	 	33148.22885	35.23549	 
1120.0	1.0	0.0	7.73033	7.32042	-4.99157	18.67179	29.86532	1.14287	0.87499	132.37245	144.53636	49.12291	0.34736	 	1330912.137	 	5.10899E-6	 	32972.35338	35.17509	 
1115.0	1.0	0.0	7.73294	7.31795	-5.02359	18.64806	29.78076	1.142	0.87566	132.86349	144.92697	49.31074	0.34721	 	1448609.932	 	4.67705E-6	 	32796.77926	35.11482	 
1110.0	1.0	0.0	7.73554	7.31549	-5.05553	18.62436	29.6962	1.14113	0.87633	133.35371	145.31592	49.49831	0.34705	 	1577682.492	 	4.27894E-6	 	32621.50582	35.05469	 
1105.0	1.0	0.0	7.73813	7.31304	-5.0874	18.60071	29.61164	1.14025	0.877	133.84309	145.70323	49.68561	0.3469	 	1719320.035	 	3.91225E-6	 	32446.53242	34.99468	 
1100.0	1.0	0.0	7.74073	7.31059	-5.1192	18.57709	29.52708	1.13937	0.87768	134.33164	146.08889	49.87264	0.34675	 	1874846.646	 	3.57469E-6	 	32271.85842	34.9348	 
1095.0	1.0	0.0	7.74332	7.30814	-5.15092	18.55351	29.44251	1.13848	0.87837	134.81936	146.47291	50.05941	0.34659	 	2045736.37	 	3.26415E-6	 	32097.48317	34.87505	 
1090.0	1.0	0.0	7.7459	7.30571	-5.18256	18.52997	29.35794	1.13759	0.87905	135.30624	146.8553	50.24591	0.34644	 	2233631.351	 	2.97865E-6	 	31923.40602	34.81543	 
1085.0	1.0	0.0	7.74848	7.30327	-5.21413	18.50647	29.27337	1.13669	0.87975	135.7923	147.23605	50.43214	0.34629	 	2440362.323	 	2.71631E-6	 	31749.62632	34.75594	 
1080.0	1.0	0.0	7.75106	7.30085	-5.24563	18.48301	29.1888	1.13578	0.88045	136.27752	147.61519	50.6181	0.34613	 	2667971.735	 	2.47543E-6	 	31576.14344	34.69658	 
1075.0	1.0	0.0	7.75363	7.29842	-5.27705	18.4596	29.10423	1.13488	0.88115	136.76191	147.9927	50.8038	0.34598	 	2918739.913	 	2.25439E-6	 	31402.95673	34.63734	 
1070.0	1.0	0.0	7.75619	7.29601	-5.3084	18.43622	29.01965	1.13396	0.88186	137.24547	148.3686	50.98922	0.34583	 	3195214.641	 	2.05169E-6	 	31230.06554	34.57824	 
1065.0	1.0	0.0	7.75876	7.2936	-5.33967	18.41288	28.93507	1.13304	0.88258	137.7282	148.7429	51.17438	0.34568	 	3500244.661	 	1.86592E-6	 	31057.46921	34.51927	 
1060.0	1.0	0.0	7.76131	7.2912	-5.37087	18.38958	28.85049	1.13212	0.8833	138.21009	149.11559	51.35927	0.34552	 	3837017.629	 	1.69579E-6	 	30885.16712	34.46042	 
1055.0	1.0	0.0	7.76387	7.2888	-5.402	18.36633	28.76591	1.13119	0.88403	138.69116	149.48668	51.54389	0.34537	 	4209103.167	 	1.54008E-6	 	30713.15861	34.4017	 
1050.0	1.0	0.0	7.76642	7.28641	-5.43305	18.34312	28.68133	1.13025	0.88476	139.17139	149.85618	51.72824	0.34522	 	4620501.708	 	1.39768E-6	 	30541.44303	34.34312	 
1045.0	1.0	0.0	7.76896	7.28402	-5.46402	18.31996	28.59674	1.12931	0.88549	139.65079	150.22408	51.91233	0.34506	 	5075699.999	 	1.26752E-6	 	30370.01974	34.28466	 
1040.0	1.0	0.0	7.7715	7.28164	-5.49493	18.29683	28.51215	1.12837	0.88624	140.12936	150.59041	52.09614	0.34491	 	5579734.189	 	1.14865E-6	 	30198.88809	34.22633	 
1035.0	1.0	0.0	7.77404	7.27926	-5.52575	18.27376	28.42756	1.12742	0.88698	140.6071	150.95516	52.27969	0.34476	 	6138261.607	 	1.04016E-6	 	30028.04744	34.16813	 
1030.0	1.0	0.0	7.77657	7.27689	-5.55651	18.25073	28.34296	1.12646	0.88774	141.084	151.31833	52.46296	0.34461	 	6757642.518	 	9.41209E-7	 	29857.49712	34.11006	 
1025.0	1.0	0.0	7.7791	7.27453	-5.58719	18.22774	28.25837	1.1255	0.8885	141.56008	151.67993	52.64597	0.34445	 	7445033.286	 	8.5103E-7	 	29687.23651	34.05212	 
1020.0	1.0	0.0	7.78162	7.27217	-5.61779	18.2048	28.17377	1.12453	0.88926	142.03532	152.03997	52.82871	0.3443	 	8208492.668	 	7.68904E-7	 	29517.26495	33.99431	 
1015.0	1.0	0.0	7.78414	7.26982	-5.64832	18.18191	28.08916	1.12355	0.89003	142.50973	152.39846	53.01118	0.34415	 	9057103.163	 	6.94167E-7	 	29347.58178	33.93663	 
1010.0	1.0	0.0	7.78665	7.26747	-5.67878	18.15906	28.00456	1.12257	0.89081	142.98331	152.75538	53.19338	0.344	 	1.00011097E7	 	6.26204E-7	 	29178.18637	33.87908	 
1005.0	1.0	0.0	7.78916	7.26513	-5.70916	18.13627	27.91995	1.12159	0.89159	143.45605	153.11076	53.37531	0.34384	 	1.105207827E7	 	5.64449E-7	 	29009.07806	33.82166	 
1000.0	1.0	0.0	7.79166	7.2628	-5.73947	18.11352	27.83534	1.1206	0.89238	143.92797	153.46459	53.55697	0.34369	 	1.222307753E7	 	5.08377E-7	 	28840.25621	33.76437	 
995.0	1.0	0.0	7.79416	7.26047	-5.7697	18.09083	27.75073	1.1196	0.89318	144.39905	153.81689	53.73836	0.34354	 	1.35288869E7	 	4.57504E-7	 	28671.72017	33.70721	 
991.43	1.0	0.0	7.79595	7.25881	-5.79124	18.07466	27.69032	1.11888	0.89375	144.73484	154.06744	53.86769	0.34343	 	1.455271799E7	 	4.2412E-7	 	28551.58056	 	 
990.0	1.0	0.0	7.79699	7.25783	-5.80387	18.05274	27.65322	1.11912	0.89356	144.92171	154.1983	53.94001	0.34336	 	1.502835123E7	 	4.10233E-7	 	28481.05641	38.13275	 
985.0	1.0	0.0	7.80061	7.25446	-5.8476	17.97715	27.52499	1.11988	0.89295	145.5694	154.65164	54.19072	0.34312	 	1.682357475E7	 	3.65007E-7	 	28236.59802	48.89168	 
980.0	1.0	0.0	7.80419	7.25114	-5.89074	17.90306	27.39959	1.12053	0.89243	146.20894	155.09889	54.43832	0.34289	 	1.884633428E7	 	3.24536E-7	 	27995.19307	48.28099	 
975.0	1.0	0.0	7.80772	7.24786	-5.93331	17.83041	27.27674	1.12109	0.89199	146.84071	155.54031	54.68295	0.34266	 	2.112724054E7	 	2.88344E-7	 	27756.7204	47.69453	 
970.0	1.0	0.0	7.81121	7.24462	-5.97534	17.75913	27.15622	1.12155	0.89162	147.46506	155.97613	54.92477	0.34243	 	2.370127465E7	 	2.55999E-7	 	27521.06433	47.13121	 
965.0	1.0	0.0	7.81466	7.24142	-6.01685	17.68915	27.03795	1.12193	0.89132	148.08233	156.40657	55.16388	0.3422	 	2.660844925E7	 	2.27112E-7	 	27288.1146	46.58995	 
960.0	1.0	0.0	7.81807	7.23826	-6.05786	17.62043	26.92179	1.12222	0.89109	148.69282	156.83185	55.40042	0.34198	 	2.989457413E7	 	2.01331E-7	 	27057.7661	46.0697	 
955.0	1.0	0.0	7.82145	7.23514	-6.09839	17.5529	26.80762	1.12243	0.89092	149.29684	157.25216	55.6345	0.34176	 	3.361214618E7	 	1.78337E-7	 	26829.91878	45.56946	 
950.0	1.0	0.0	7.82479	7.23205	-6.13845	17.48651	26.69531	1.12256	0.89082	149.89467	157.66768	55.86623	0.34155	 	3.782138219E7	 	1.57844E-7	 	26604.47738	45.08828	 
945.0	1.0	0.0	7.82809	7.229	-6.17806	17.42121	26.58478	1.12262	0.89077	150.48657	158.0786	56.0957	0.34134	 	4.259142134E7	 	1.39594E-7	 	26381.35127	44.62522	 
940.0	1.0	0.0	7.83136	7.22598	-6.21725	17.35695	26.47591	1.12261	0.89078	151.0728	158.48507	56.32302	0.34113	 	4.800172457E7	 	1.23351E-7	 	26160.4542	44.17941	 
935.0	1.0	0.0	7.8346	7.223	-6.25602	17.29368	26.36861	1.12253	0.89084	151.65358	158.88725	56.54828	0.34092	 	5.41437064E7	 	1.08908E-7	 	25941.70418	43.75	 
930.0	1.0	0.0	7.83781	7.22004	-6.29438	17.23136	26.26281	1.12239	0.89095	152.22915	159.28529	56.77157	0.34072	 	6.112263786E7	 	9.60737E-8	 	25725.02319	43.3362	 
925.0	1.0	0.0	7.84098	7.21711	-6.33236	17.16995	26.15841	1.12219	0.89112	152.79971	159.67932	56.99296	0.34051	 	6.905987169E7	 	8.46783E-8	 	25510.33703	42.93723	 
920.0	1.0	0.0	7.84413	7.21422	-6.36997	17.10942	26.05535	1.12193	0.89132	153.36547	160.06948	57.21253	0.34031	 	7.809544135E7	 	7.45686E-8	 	25297.57515	42.55237	 
915.0	1.0	0.0	7.84725	7.21135	-6.40721	17.04971	25.95355	1.12161	0.89158	153.9266	160.45588	57.43036	0.34012	 	8.839110691E7	 	6.56069E-8	 	25086.67041	42.18095	 
910.0	1.0	0.0	7.85035	7.2085	-6.44411	16.9908	25.85295	1.12123	0.89188	154.48329	160.83865	57.64651	0.33992	 	1.001339232E8	 	5.76694E-8	 	24877.55894	41.82229	 
905.0	1.0	0.0	7.85342	7.20569	-6.48066	16.93265	25.75349	1.12081	0.89221	155.03571	161.21789	57.86104	0.33972	 	1.135404267E8	 	5.0645E-8	 	24670.17995	41.4758	 
900.0	1.0	0.0	7.85646	7.20289	-6.51689	16.87523	25.6551	1.12033	0.89259	155.584	161.59371	58.07403	0.33953	 	1.288615544E8	 	4.44342E-8	 	24464.47555	41.14088	 
895.0	1.0	0.0	7.85948	7.20013	-6.55281	16.81851	25.55773	1.1198	0.89301	156.12833	161.9662	58.28552	0.33934	 	1.463884292E8	 	3.89474E-8	 	24260.39066	40.81698	 
890.0	1.0	0.0	7.86248	7.19738	-6.58841	16.76246	25.46134	1.11923	0.89347	156.66883	162.33545	58.49557	0.33915	 	1.664591717E8	 	3.41047E-8	 	24057.87275	40.50358	 
885.0	1.0	0.0	7.86545	7.19466	-6.62372	16.70704	25.36587	1.11862	0.89396	157.20563	162.70157	58.70424	0.33896	 	1.894669321E8	 	2.98345E-8	 	23856.87182	40.20019	 
880.0	1.0	0.0	7.8684	7.19197	-6.65873	16.65225	25.27127	1.11796	0.89449	157.73886	163.06461	58.91156	0.33878	 	2.158693614E8	 	2.60724E-8	 	23657.34017	39.90633	 
875.0	1.0	0.0	7.87133	7.18929	-6.69347	16.59804	25.1775	1.11725	0.89505	158.26864	163.42467	59.11759	0.33859	 	2.461998358E8	 	2.27613E-8	 	23459.23199	39.62163	 
870.0	1.0	0.0	7.87424	7.18663	-6.72793	16.5444	25.08453	1.11651	0.89565	158.79507	163.78182	59.32238	0.33841	 	2.810806812E8	 	1.98499E-8	 	23262.50425	39.34555	 
865.0	1.0	0.0	7.87713	7.184	-6.76212	16.49129	24.99231	1.11573	0.89627	159.31828	164.13613	59.52595	0.33823	 	3.212388987E8	 	1.72925E-8	 	23067.1155	39.07775	 
860.0	1.0	0.0	7.87999	7.18139	-6.79606	16.43871	24.90081	1.11491	0.89693	159.83835	164.48767	59.72835	0.33804	 	3.675247859E8	 	1.50483E-8	 	22873.02618	38.81786	 
855.0	1.0	0.0	7.88284	7.17879	-6.82974	16.38663	24.81	1.11405	0.89762	160.35539	164.83649	59.92962	0.33786	 	4.209340656E8	 	1.3081E-8	 	22680.19845	38.56554	 
850.0	1.0	0.0	7.88567	7.17621	-6.86318	16.33502	24.71983	1.11316	0.89834	160.86948	165.18267	60.12979	0.33769	 	4.826342021E8	 	1.13581E-8	 	22488.59616	38.32046	 
845.0	1.0	0.0	7.88804	7.17406	-6.89112	16.30771	24.63955	1.11182	0.89943	161.30842	165.48546	60.3004	0.33754	 	5.504942352E8	 	9.91366E-9	 	22331.53157	31.41292	 
840.0	1.0	0.0	7.8904	7.17191	-6.919	16.28041	24.55927	1.11046	0.90052	161.74656	165.78691	60.47075	0.3374	 	6.28638139E8	 	8.64251E-9	 	22171.52427	32.00146	 
835.0	1.0	0.0	7.89276	7.16977	-6.9468	16.25311	24.47899	1.1091	0.90163	162.1839	166.08702	60.64083	0.33725	 	7.187351656E8	 	7.52517E-9	 	22011.78164	31.94853	 
830.0	1.0	0.0	7.89511	7.16763	-6.97452	16.22581	24.3987	1.10773	0.90275	162.62043	166.38579	60.81064	0.33711	 	8.227432996E8	 	6.54421E-9	 	21852.30299	31.89573	 
825.0	1.0	0.0	7.89746	7.1655	-7.00217	16.19852	24.31841	1.10635	0.90387	163.05617	166.68323	60.98019	0.33696	 	9.429622527E8	 	5.684E-9	 	21693.08765	31.84307	 
820.0	1.0	0.0	7.8998	7.16338	-7.02975	16.17124	24.23812	1.10496	0.90501	163.4911	166.97935	61.14948	0.33682	 	1.082096744E9	 	4.93061E-9	 	21534.13492	31.79055	 
815.0	1.0	0.0	7.90214	7.16126	-7.05725	16.14396	24.15782	1.10356	0.90616	163.92522	167.27414	61.31851	0.33667	 	1.243332167E9	 	4.27158E-9	 	21375.44411	31.73816	 
810.0	1.0	0.0	7.90447	7.15915	-7.08467	16.11669	24.07752	1.10216	0.90731	164.35855	167.5676	61.48726	0.33653	 	1.430425203E9	 	3.69581E-9	 	21217.01453	31.68592	 
805.0	1.0	0.0	7.9068	7.15704	-7.11203	16.08942	23.99721	1.10074	0.90848	164.79107	167.85975	61.65576	0.33638	 	1.647812486E9	 	3.19344E-9	 	21058.84547	31.63381	 
800.0	1.0	0.0	7.90912	7.15494	-7.13931	16.06216	23.9169	1.09931	0.90966	165.22279	168.15059	61.82399	0.33624	 	1.900741119E9	 	2.75565E-9	 	20900.93622	31.58185	 
795.0	1.0	0.0	7.91144	7.15284	-7.16651	16.03491	23.83658	1.09788	0.91085	165.65371	168.44012	61.99196	0.33609	 	2.195425658E9	 	2.37465E-9	 	20743.28608	31.53003	 
790.0	1.0	0.0	7.91375	7.15075	-7.19364	16.00766	23.75626	1.09643	0.91205	166.08383	168.72834	62.15966	0.33595	 	2.539237232E9	 	2.04352E-9	 	20585.89433	31.47835	 
785.0	1.0	0.0	7.91606	7.14867	-7.22069	15.98041	23.67593	1.09498	0.91326	166.51315	169.01525	62.32709	0.3358	 	2.940931724E9	 	1.7561E-9	 	20428.76025	31.42682	 
780.0	1.0	0.0	7.91836	7.14659	-7.24768	15.95317	23.5956	1.09352	0.91448	166.94166	169.30087	62.49427	0.33566	 	3.410925505E9	 	1.50697E-9	 	20271.88311	31.37543	 
775.0	1.0	0.0	7.92066	7.14451	-7.27458	15.92593	23.51526	1.09204	0.91572	167.36938	169.58519	62.66117	0.33551	 	3.961629176E9	 	1.29133E-9	 	20115.26217	31.32419	 
770.0	1.0	0.0	7.92295	7.14245	-7.30142	15.8987	23.43492	1.09056	0.91696	167.79629	169.86823	62.82782	0.33537	 	4.607852156E9	 	1.10493E-9	 	19958.8967	31.27309	 
765.0	1.0	0.0	7.92524	7.14039	-7.32817	15.87148	23.35458	1.08907	0.91822	168.2224	170.14997	62.99419	0.33522	 	5.367293968E9	 	9.44042E-10	 	19802.78594	31.22215	 
760.0	1.0	0.0	7.92752	7.13833	-7.35486	15.84426	23.27423	1.08756	0.91949	168.64771	170.43043	63.16031	0.33508	 	6.26114177E9	 	8.05372E-10	 	19646.92913	31.17136	 
755.0	1.0	0.0	7.9298	7.13628	-7.38147	15.81705	23.19387	1.08605	0.92077	169.07221	170.7096	63.32615	0.33493	 	7.314798348E9	 	6.86026E-10	 	19491.32551	31.12072	 
750.0	1.0	0.0	7.93207	7.13423	-7.408	15.78984	23.11351	1.08452	0.92206	169.49592	170.9875	63.49174	0.33479	 	8.55877054E9	 	5.83465E-10	 	19335.97431	31.07024	 
745.0	1.0	0.0	7.93434	7.1322	-7.43447	15.76264	23.03314	1.08299	0.92337	169.91882	171.26413	63.65705	0.33464	 	1.00298E10	 	4.95459E-10	 	19180.87473	31.01992	 
740.0	1.0	0.0	7.9366	7.13016	-7.46085	15.73544	22.95277	1.08145	0.92469	170.34093	171.53948	63.82211	0.3345	 	1.1771999999999998E10	 	4.2006E-10	 	19026.026	30.96975	 
735.0	1.0	0.0	7.93886	7.12813	-7.48717	15.70825	22.87239	1.07989	0.92602	170.7653	171.81666	63.98804	0.33435	 	1.3838799999999998E10	 	3.55561E-10	 	18871.42728	30.91974	 
730.0	1.0	0.0	7.94111	7.12611	-7.51341	15.68106	22.792	1.07832	0.92736	171.18578	172.08946	64.15256	0.33421	 	1.6294699999999998E10	 	3.00473E-10	 	18717.07777	30.8699	 
725.0	1.0	0.0	7.94336	7.1241	-7.53957	15.65388	22.71161	1.07675	0.92872	171.60547	172.36101	64.31681	0.33406	 	1.92179E10	 	2.53499E-10	 	18562.97664	30.82023	 
720.0	1.0	0.0	7.9456	7.12209	-7.56567	15.6267	22.63121	1.07516	0.93009	172.02435	172.63129	64.48079	0.33392	 	2.27033E10	 	2.13508E-10	 	18409.12303	30.77072	 
715.0	1.0	0.0	7.94784	7.12008	-7.59168	15.59953	22.55081	1.07356	0.93148	172.44243	172.90033	64.64451	0.33377	 	2.6865899999999996E10	 	1.79518E-10	 	18255.51608	30.72139	 
710.0	1.0	0.0	7.95007	7.11808	-7.61763	15.57236	22.4704	1.07195	0.93288	172.8597	173.16811	64.80796	0.33363	 	3.1846399999999996E10	 	1.50677E-10	 	18102.15493	30.67223	 
705.0	1.0	0.0	7.9523	7.11609	-7.6435	15.5452	22.38999	1.07033	0.93429	173.27618	173.43464	64.97115	0.33349	 	3.78157E10	 	1.26247E-10	 	17949.03866	30.62325	 
700.0	1.0	0.0	7.95452	7.1141	-7.66929	15.51805	22.30956	1.0687	0.93572	173.69186	173.69994	65.13407	0.33334	 	4.49833E10	 	1.05588E-10	 	17796.16637	30.57446	 
695.0	1.0	0.0	7.95674	7.11212	-7.69502	15.4909	22.22913	1.06705	0.93716	174.10673	173.96399	65.29672	0.3332	 	5.360549999999999E10	 	8.81495E-11	 	17643.53713	30.52585	 
690.0	1.0	0.0	7.95895	7.11014	-7.72066	15.46375	22.1487	1.0654	0.93862	174.52081	174.2268	65.45911	0.33305	 	6.399679999999999E10	 	7.34552E-11	 	17491.14997	30.47743	 
685.0	1.0	0.0	7.96115	7.10817	-7.74624	15.43661	22.06826	1.06373	0.94009	174.93408	174.48839	65.62123	0.33291	 	7.65438E10	 	6.10956E-11	 	17339.00393	30.42921	 
680.0	1.0	0.0	7.96336	7.10621	-7.77174	15.40948	21.98781	1.06205	0.94157	175.34655	174.74874	65.78309	0.33276	 	9.17228E10	 	5.0719E-11	 	17187.098	30.38119	 
675.0	1.0	0.0	7.96555	7.10425	-7.79717	15.38235	21.90735	1.06036	0.94308	175.75823	175.00786	65.94468	0.33262	 	1.10122E11	 	4.20233E-11	 	17035.43114	30.33337	 
670.0	1.0	0.0	7.96774	7.1023	-7.82252	15.35523	21.82689	1.05866	0.94459	176.1691	175.26577	66.106	0.33247	 	1.32468E11	 	3.47501E-11	 	16884.0023	30.28577	 
665.0	1.0	0.0	7.96993	7.10035	-7.8478	15.32811	21.74641	1.05694	0.94613	176.57917	175.52245	66.26706	0.33233	 	1.59663E11	 	2.86784E-11	 	16732.81041	30.23838	 
660.0	1.0	0.0	7.97211	7.09841	-7.873	15.301	21.66594	1.05521	0.94768	176.98844	175.77792	66.42785	0.33219	 	1.92827E11	 	2.36195E-11	 	16581.85591	30.1909	 
655.0	1.0	0.0	7.97428	7.09647	-7.89814	15.27389	21.58545	1.05347	0.94924	177.39691	176.03217	66.58837	0.33204	 	2.33352E11	 	1.9413E-11	 	16431.14714	30.14175	 
650.0	1.0	0.0	7.97645	7.09454	-7.92319	15.24679	21.50495	1.05172	0.95082	177.80458	176.28521	66.74863	0.3319	 	2.8298E11	 	1.59222E-11	 	16280.69531	30.09037	 
645.0	1.0	0.0	7.97862	7.09261	-7.94818	15.21969	21.42445	1.04995	0.95242	178.21145	176.53705	66.90862	0.33175	 	3.43882E11	 	1.30314E-11	 	16130.49973	30.03912	 
640.0	1.0	0.0	7.98078	7.09069	-7.97309	15.1926	21.34394	1.04817	0.95404	178.61751	176.78768	67.06834	0.33161	 	4.18786E11	 	1.06423E-11	 	15980.5597	29.98801	 
635.0	1.0	0.0	7.98293	7.08878	-7.99793	15.16552	21.26342	1.04638	0.95567	179.02278	177.03711	67.2278	0.33146	 	5.11112E11	 	8.67218E-12	 	15830.87451	29.93704	 
630.0	1.0	0.0	7.98508	7.08687	-8.02269	15.13843	21.1829	1.04458	0.95732	179.42725	177.28535	67.38699	0.33132	 	6.2517E11	 	7.05096E-12	 	15681.44349	29.88621	 
625.0	1.0	0.0	7.98723	7.08497	-8.04738	15.11136	21.10236	1.04276	0.95899	179.83092	177.53239	67.54591	0.33118	 	7.66399E11	 	5.7198E-12	 	15532.26578	29.83554	 
620.0	1.0	0.0	7.98937	7.08307	-8.072	15.08429	21.02182	1.04093	0.96068	180.23379	177.77824	67.70457	0.33103	 	9.41676E11	 	4.62924E-12	 	15383.34034	29.78509	 
615.0	1.0	0.0	7.9915	7.08118	-8.09654	15.05722	20.94126	1.03908	0.96239	180.63585	178.02291	67.86295	0.33089	 	1.15973E12	 	3.73781E-12	 	15234.66666	29.73474	 
610.0	1.0	0.0	7.99363	7.0793	-8.12101	15.03017	20.8607	1.03722	0.96411	181.03712	178.26639	68.02107	0.33074	 	1.43164E12	 	3.01084E-12	 	15086.24407	29.68452	 
605.0	1.0	0.0	7.99575	7.07742	-8.14541	15.00311	20.78013	1.03535	0.96586	181.43759	178.50869	68.17893	0.3306	 	1.77155E12	 	2.41937E-12	 	14938.07191	29.63443	 
600.0	1.0	0.0	7.99787	7.07554	-8.16973	14.97606	20.69955	1.03346	0.96762	181.83726	178.74981	68.33651	0.33045	 	2.19752E12	 	1.93929E-12	 	14790.1495	29.58448	 
595.0	1.0	0.0	7.99998	7.07367	-8.19398	14.94902	20.61896	1.03156	0.96941	182.23613	178.98975	68.49383	0.33031	 	2.73269E12	 	1.55057E-12	 	14642.47618	29.53466	 
590.0	1.0	0.0	8.00209	7.07181	-8.21815	14.92198	20.53836	1.02964	0.97121	182.63419	179.22853	68.65088	0.33017	 	3.40678E12	 	1.2366E-12	 	14495.05129	29.48498	 
585.0	1.0	0.0	8.00419	7.06996	-8.24225	14.89495	20.45775	1.02771	0.97304	183.03146	179.46613	68.80767	0.33002	 	4.25808E12	 	9.83641E-13	 	14347.87417	29.43542	 
580.0	1.0	0.0	8.00629	7.0681	-8.26628	14.86792	20.37713	1.02577	0.97488	183.42793	179.70257	68.96418	0.32988	 	5.33603E12	 	7.80357E-13	 	14200.94416	29.386	 
575.0	1.0	0.0	8.00838	7.06626	-8.29024	14.8409	20.2965	1.02381	0.97675	183.8236	179.93785	69.12043	0.32973	 	6.7047E12	 	6.17419E-13	 	14054.26063	29.33671	 
570.0	1.0	0.0	8.01046	7.06442	-8.31412	14.81388	20.21586	1.02183	0.97864	184.21847	180.17197	69.27641	0.32959	 	8.44726E12	 	4.87164E-13	 	13907.8229	29.28755	 
565.0	1.0	0.0	8.01254	7.06258	-8.33793	14.78687	20.13521	1.01984	0.98055	184.61254	180.40493	69.43212	0.32945	 	1.06721E13	 	3.83317E-13	 	13761.63034	29.23851	 
560.0	1.0	0.0	8.01462	7.06075	-8.36166	14.75987	20.05454	1.01783	0.98248	185.00581	180.63674	69.58757	0.3293	 	1.35208E13	 	3.00751E-13	 	13615.68232	29.1896	 
555.0	1.0	0.0	8.01669	7.05893	-8.38533	14.73287	19.97387	1.01581	0.98444	185.39828	180.8674	69.74274	0.32916	 	1.71789E13	 	2.35288E-13	 	13469.9782	29.14082	 
550.0	1.0	0.0	8.01875	7.05711	-8.40892	14.70587	19.89319	1.01377	0.98641	185.78995	181.09691	69.89765	0.32901	 	2.18903E13	 	1.83533E-13	 	13324.51734	29.09217	 
545.0	1.0	0.0	8.02081	7.0553	-8.43243	14.67888	19.81249	1.01172	0.98842	186.18083	181.32528	70.05229	0.32887	 	2.79766E13	 	1.42733E-13	 	13179.29912	29.04364	 
540.0	1.0	0.0	8.02287	7.0535	-8.45587	14.6519	19.73178	1.00965	0.99044	186.5709	181.55251	70.20666	0.32873	 	3.58632E13	 	1.10664E-13	 	13034.32292	28.99524	 
535.0	1.0	0.0	8.02492	7.0517	-8.47924	14.62492	19.65106	1.00756	0.99249	186.96017	181.7786	70.36077	0.32858	 	4.61145E13	 	8.55346E-14	 	12889.5881	28.94696	 
530.0	1.0	0.0	8.02696	7.0499	-8.50254	14.59794	19.57033	1.00546	0.99457	187.34865	182.00355	70.5146	0.32844	 	5.94819E13	 	6.5902E-14	 	12745.09408	28.8988	 
525.0	1.0	0.0	8.029	7.04811	-8.52576	14.57097	19.48959	1.00334	0.99667	187.73632	182.22738	70.66817	0.32829	 	7.69692E13	 	5.06121E-14	 	12600.84023	28.85077	 
520.0	1.0	0.0	8.03103	7.04633	-8.54891	14.54401	19.40883	1.0012	0.9988	188.1232	182.45007	70.82147	0.32815	 	9.9922E13	 	3.87419E-14	 	12456.82596	28.80286	 
515.0	1.0	0.0	8.03306	7.04455	-8.57199	14.51705	19.32806	0.99905	1.00095	188.50928	182.67164	70.97449	0.32801	 	1.3014999999999998E14	 	2.95565E-14	 	12313.05065	28.75506	 
510.0	1.0	0.0	8.03508	7.04278	-8.59499	14.4901	19.24728	0.99688	1.00313	188.89455	182.89208	71.12725	0.32786	 	1.70095E14	 	2.2472E-14	 	12169.51371	28.70739	 
505.0	1.0	0.0	8.0371	7.04101	-8.61792	14.46315	19.16648	0.99469	1.00534	189.27903	183.1114	71.27975	0.32772	 	2.23065E14	 	1.70262E-14	 	12026.21457	28.65983	 
500.0	1.0	0.0	8.03911	7.03925	-8.64078	14.43621	19.08567	0.99248	1.00758	189.66271	183.32961	71.43197	0.32758	 	2.9356E14	 	1.28545E-14	 	11883.15265	28.61239	 
495.0	1.0	0.0	8.04111	7.03749	-8.66356	14.40927	19.00484	0.99026	1.00984	190.04559	183.5467	71.58392	0.32743	 	3.87715E14	 	9.66985E-15	 	11740.32735	28.56506	 
490.0	1.0	0.0	8.04311	7.03574	-8.68628	14.38234	18.92401	0.98801	1.01213	190.42768	183.76268	71.73561	0.32729	 	5.1394099999999994E14	 	7.24742E-15	 	11597.73811	28.51785	 
485.0	1.0	0.0	8.04511	7.034	-8.70891	14.35542	18.84315	0.98575	1.01445	190.80896	183.97755	71.88702	0.32714	 	6.83798E14	 	5.41146E-15	 	11455.38437	28.47075	 
480.0	1.0	0.0	8.0471	7.03226	-8.73148	14.32849	18.76229	0.98347	1.01681	191.18944	184.19132	72.03817	0.327	 	9.13248E14	 	4.02512E-15	 	11313.26557	28.42376	 
475.0	1.0	0.0	8.04908	7.03053	-8.75397	14.30158	18.6814	0.98117	1.01919	191.56913	184.40398	72.18904	0.32686	 	1.22442E15	 	2.98226E-15	 	11171.38116	28.37688	 
470.0	1.0	0.0	8.05106	7.0288	-8.77639	14.27467	18.60051	0.97885	1.0216	191.94802	184.61555	72.33965	0.32671	 	1.6481E15	 	2.20079E-15	 	11029.7306	28.33011	 
465.0	1.0	0.0	8.05303	7.02708	-8.79874	14.24776	18.51959	0.97652	1.02405	192.3261	184.82601	72.48999	0.32657	 	2.22734E15	 	1.6175E-15	 	10888.31333	28.28345	 
460.0	1.0	0.0	8.055	7.02536	-8.82101	14.22087	18.43866	0.97416	1.02653	192.70339	185.03538	72.64005	0.32643	 	3.02255E15	 	1.18388E-15	 	10747.12885	28.2369	 
455.0	1.0	0.0	8.05696	7.02365	-8.84321	14.19397	18.35772	0.97178	1.02904	193.07988	185.24366	72.78985	0.32628	 	4.1189E15	 	8.62833E-16	 	10606.17663	28.19044	 
450.0	1.0	0.0	8.05891	7.02195	-8.86534	14.16708	18.27676	0.96938	1.03158	193.45558	185.45085	72.93938	0.32614	 	5.63699E15	 	6.26135E-16	 	10465.45615	28.1441	 
445.0	1.0	0.0	8.06087	7.02025	-8.8874	14.1402	18.19578	0.96696	1.03416	193.83047	185.65696	73.08864	0.326	 	7.74838E15	 	4.52367E-16	 	10324.9669	28.09785	 
440.0	1.0	0.0	8.06281	7.01855	-8.90938	14.11332	18.11478	0.96453	1.03678	194.20456	185.86198	73.23763	0.32585	 	1.06982E16	 	3.25353E-16	 	10184.70839	28.0517	 
435.0	1.0	0.0	8.06475	7.01686	-8.93129	14.08645	18.03377	0.96207	1.03943	194.57786	186.06592	73.38635	0.32571	 	1.48386E16	 	2.32927E-16	 	10044.68013	28.00565	 
430.0	1.0	0.0	8.06669	7.01518	-8.95313	14.05958	17.95273	0.95959	1.04212	194.95036	186.26879	73.5348	0.32557	 	2.06772E16	 	1.65975E-16	 	9904.88164	27.9597	 
425.0	1.0	0.0	8.06861	7.01351	-8.97489	14.03272	17.87168	0.95708	1.04484	195.32206	186.47058	73.68297	0.32542	 	2.89505E16	 	1.17701E-16	 	9765.31247	27.91383	 
420.0	1.0	0.0	8.07054	7.01183	-8.99658	14.00586	17.79061	0.95456	1.04761	195.69296	186.67129	73.83088	0.32528	 	4.07313E16	 	8.30587E-17	 	9625.97212	27.86807	 
415.0	1.0	0.0	8.07245	7.01017	-9.0182	13.97901	17.70952	0.95201	1.05041	196.06306	186.87094	73.97852	0.32514	 	5.75912E16	 	5.83195E-17	 	9486.86025	27.82238	 
410.0	1.0	0.0	8.07437	7.00851	-9.03975	13.95216	17.62842	0.94944	1.05325	196.43237	187.06952	74.12589	0.32499	 	8.18438E16	 	4.07396E-17	 	9347.97653	27.77674	 
405.0	1.0	0.0	8.07627	7.00685	-9.06122	13.92532	17.54729	0.94685	1.05613	196.80087	187.26704	74.27299	0.32485	 	1.16914E17	 	2.83104E-17	 	9209.32067	27.73117	 
400.0	1.0	0.0	8.07817	7.0052	-9.08262	13.89849	17.46614	0.94424	1.05906	197.16858	187.4635	74.41981	0.3247	 	1.67899E17	 	1.95682E-17	 	9070.89239	27.68566	 
395.0	1.0	0.0	8.08007	7.00356	-9.10395	13.87166	17.38497	0.9416	1.06202	197.53549	187.6589	74.56637	0.32456	 	2.42427E17	 	1.34518E-17	 	8932.69139	27.6402	 
390.0	1.0	0.0	8.08196	7.00192	-9.12521	13.84483	17.30378	0.93894	1.06503	197.9016	187.85324	74.71265	0.32442	 	3.51981E17	 	9.19558E-18	 	8794.71743	27.59479	 
385.0	1.0	0.0	8.08384	7.00029	-9.14639	13.81801	17.22256	0.93625	1.06809	198.26692	188.04653	74.85867	0.32427	 	5.13948E17	 	6.25018E-18	 	8656.97025	27.54944	 
380.0	1.0	0.0	8.08572	6.99866	-9.1675	13.7912	17.14133	0.93354	1.07119	198.63143	188.23877	75.00441	0.32413	 	7.54807E17	 	4.22341E-18	 	8519.44961	27.50413	 
375.0	1.0	0.0	8.0876	6.99704	-9.18854	13.76439	17.06007	0.93081	1.07433	198.99515	188.42996	75.14988	0.32399	 	1.11514E18	 	2.83684E-18	 	8382.1553	27.45886	 
370.0	1.0	0.0	8.08946	6.99543	-9.2095	13.73759	16.97879	0.92805	1.07753	199.35807	188.6201	75.29508	0.32385	 	1.65751E18	 	1.89384E-18	 	8245.08708	27.41364	 
365.0	1.0	0.0	8.09133	6.99382	-9.2304	13.71079	16.89748	0.92527	1.08077	199.72019	188.80921	75.44001	0.3237	 	2.47902E18	 	1.2564E-18	 	8108.24476	27.36846	 
360.0	1.0	0.0	8.09318	6.99221	-9.25122	13.684	16.81616	0.92246	1.08406	200.08151	188.99727	75.58467	0.32356	 	3.73135E18	 	8.28185E-19	 	7971.62818	27.32332	 
355.0	1.0	0.0	8.09503	6.99062	-9.27197	13.65721	16.7348	0.91962	1.0874	200.44203	189.1843	75.72906	0.32342	 	5.653E18	 	5.4234E-19	 	7835.23717	27.2782	 
350.0	1.0	0.0	8.09688	6.98902	-9.29264	13.63043	16.65342	0.91676	1.0908	200.80176	189.37029	75.87318	0.32327	 	8.62158E18	 	3.52771E-19	 	7699.07155	27.23312	 
345.0	1.0	0.0	8.09872	6.98744	-9.31325	13.60365	16.57201	0.91387	1.09425	201.16069	189.55525	76.01702	0.32313	 	1.32392E19	 	2.27887E-19	 	7563.13123	27.18806	 
340.0	1.0	0.0	8.10055	6.98585	-9.33378	13.57688	16.49058	0.91095	1.09775	201.51882	189.73918	76.1606	0.32299	 	2.04725E19	 	1.46178E-19	 	7427.41607	27.14303	 
335.0	1.0	0.0	8.10238	6.98428	-9.35424	13.55011	16.40912	0.90801	1.10131	201.87615	189.92208	76.3039	0.32284	 	3.18857E19	 	9.30896E-20	 	7291.92597	27.09802	 
330.0	1.0	0.0	8.1042	6.98271	-9.37462	13.52335	16.32763	0.90504	1.10492	202.23269	190.10396	76.44693	0.3227	 	5.00277E19	 	5.88439E-20	 	7156.66086	27.05302	 
325.0	1.0	0.0	8.10602	6.98114	-9.39494	13.49659	16.24612	0.90204	1.1086	202.58843	190.28482	76.58969	0.32256	 	7.90853E19	 	3.69148E-20	 	7021.6207	27.00803	 
320.0	1.0	0.0	8.10783	6.97958	-9.41518	13.46984	16.16457	0.89901	1.11233	202.94337	190.46466	76.73217	0.32241	 	1.2598899999999998E20	 	2.29783E-20	 	6886.80543	26.96306	 
315.0	1.0	0.0	8.10964	6.97803	-9.43535	13.4431	16.083	0.89596	1.11612	203.29751	190.64348	76.87439	0.32227	 	2.02307E20	 	1.41894E-20	 	6752.21505	26.91808	 
310.0	1.0	0.0	8.11144	6.97648	-9.45545	13.41636	16.00139	0.89287	1.11998	203.65085	190.82129	77.01633	0.32213	 	3.27502E20	 	8.69066E-21	 	6617.84955	26.8731	 
305.0	1.0	0.0	8.11323	6.97494	-9.47547	13.38963	15.91975	0.88975	1.12391	204.0034	190.99809	77.158	0.32198	 	5.3460899999999997E20	 	5.27826E-21	 	6483.70898	26.82811	 
300.0	1.0	0.0	8.11502	6.9734	-9.49542	13.3629	15.83808	0.88661	1.12789	204.35515	191.17388	77.2994	0.32184	 	8.80181E20	 	3.17821E-21	 	6349.79339	26.78312	 
295.0	1.0	0.0	8.1168	6.97187	-9.5153	13.33617	15.75638	0.88343	1.13195	204.7061	191.34866	77.44052	0.3217	 	1.4619000000000001E21	 	1.89684E-21	 	6216.10287	26.73811	 
290.0	1.0	0.0	8.11858	6.97034	-9.53511	13.30945	15.67464	0.88022	1.13608	205.05625	191.52244	77.58137	0.32156	 	2.45007E21	 	1.12185E-21	 	6082.63751	26.69307	 
285.0	1.0	0.0	8.12035	6.96882	-9.55485	13.28274	15.59287	0.87698	1.14027	205.40561	191.69521	77.72195	0.32141	 	4.14434E21	 	6.57329E-22	 	5949.39747	26.64801	 
280.0	1.0	0.0	8.12212	6.9673	-9.57451	13.25603	15.51106	0.87371	1.14454	205.75416	191.86699	77.86226	0.32127	 	7.07716E21	 	3.81479E-22	 	5816.3829	26.60291	 
275.0	1.0	0.0	8.12388	6.96579	-9.59411	13.22933	15.42921	0.87041	1.14889	206.10192	192.03777	78.0023	0.32113	 	1.2203999999999999E22	 	2.19221E-22	 	5683.594	26.55778	 
270.0	1.0	0.0	8.12563	6.96429	-9.61363	13.20263	15.34733	0.86707	1.15331	206.44889	192.20756	78.14206	0.32098	 	2.12571E22	 	1.2471E-22	 	5551.03101	26.5126	 
265.0	1.0	0.0	8.12738	6.96279	-9.63308	13.17594	15.26541	0.8637	1.15781	206.79505	192.37635	78.28155	0.32084	 	3.7409599999999998E22	 	7.02113E-23	 	5418.69418	26.46736	 
260.0	1.0	0.0	8.12912	6.9613	-9.65245	13.14926	15.18345	0.86029	1.1624	207.14042	192.54416	78.42077	0.3207	 	6.65375E22	 	3.91084E-23	 	5286.58381	26.42207	 
255.0	1.0	0.0	8.13086	6.95981	-9.67176	13.12258	15.10145	0.85685	1.16707	207.48499	192.71098	78.55971	0.32056	 	1.19642E23	 	2.15456E-23	 	5154.70025	26.37671	 
250.0	1.0	0.0	8.13259	6.95833	-9.69099	13.0959	15.01941	0.85337	1.17182	207.82876	192.87681	78.69838	0.32041	 	2.1755799999999997E23	 	1.17365E-23	 	5023.04384	26.33128	 
245.0	1.0	0.0	8.13432	6.95685	-9.71015	13.06923	14.93732	0.84986	1.17666	208.17174	193.04167	78.83678	0.32027	 	4.00198E23	 	6.31927E-24	 	4891.61504	26.28576	 
240.0	1.0	0.0	8.13604	6.95538	-9.72924	13.04256	14.85519	0.84632	1.18159	208.51392	193.20554	78.9749	0.32013	 	7.449629999999999E23	 	3.36199E-24	 	4760.41428	26.24015	 
235.0	1.0	0.0	8.13775	6.95392	-9.74825	13.0159	14.77302	0.84273	1.18662	208.8553	193.36844	79.11275	0.31999	 	1.4038E24	 	1.76674E-24	 	4629.44204	26.19445	 
230.0	1.0	0.0	8.13946	6.95246	-9.7672	12.98925	14.6908	0.83911	1.19174	209.19588	193.53036	79.25033	0.31984	 	2.67882E24	 	9.16727E-25	 	4498.69891	26.14863	 
225.0	1.0	0.0	8.14116	6.951	-9.78607	12.9626	14.60853	0.83545	1.19696	209.53566	193.69131	79.38763	0.3197	 	5.17865E24	 	4.69494E-25	 	4368.18546	26.10269	 
220.0	1.0	0.0	8.14286	6.94955	-9.80487	12.93596	14.52621	0.83175	1.20228	209.87465	193.85129	79.52466	0.31956	 	1.0146E25	 	2.37231E-25	 	4237.90235	26.05662	 
215.0	1.0	0.0	8.14455	6.94811	-9.8236	12.90932	14.44384	0.82801	1.20771	210.21284	194.01031	79.66142	0.31941	 	2.0153700000000003E25	 	1.18218E-25	 	4107.85029	26.01041	 
210.0	1.0	0.0	8.14624	6.94667	-9.84226	12.88269	14.36142	0.82423	1.21325	210.55024	194.16836	79.7979	0.31927	 	4.060560000000001E25	 	5.80741E-26	 	3978.03001	25.96406	 
205.0	1.0	0.0	8.14792	6.94524	-9.86085	12.85606	14.27895	0.82042	1.21889	210.88683	194.32544	79.93411	0.31913	 	8.30193E25	 	2.81107E-26	 	3848.44236	25.91753	 
200.0	1.0	0.0	8.14959	6.94382	-9.87936	12.82944	14.19642	0.81656	1.22466	211.22263	194.48157	80.07005	0.31899	 	1.7232E26	 	1.34014E-26	 	3719.0882	25.87083	 
195.0	1.0	0.0	8.15126	6.94239	-9.8978	12.80282	14.11383	0.81265	1.23053	211.55764	194.63673	80.20571	0.31884	 	3.63302E26	 	6.28932E-27	 	3589.96849	25.82394	 
190.0	1.0	0.0	8.15292	6.94098	-9.91617	12.77621	14.03119	0.80871	1.23654	211.89184	194.79095	80.34109	0.3187	 	7.78384E26	 	2.90412E-27	 	3461.08426	25.77685	 
185.0	1.0	0.0	8.15458	6.93957	-9.93447	12.7496	13.94848	0.80472	1.24266	212.22525	194.9442	80.47621	0.31856	 	1.69568E27	 	1.31872E-27	 	3332.43658	25.72953	 
180.0	1.0	0.0	8.15623	6.93817	-9.9527	12.723	13.86571	0.80069	1.24892	212.55786	195.09651	80.61104	0.31842	 	3.7579799999999996E27	 	5.88538E-28	 	3204.02664	25.68199	 
175.0	1.0	0.0	8.15787	6.93677	-9.97085	12.6964	13.78288	0.79662	1.25531	212.88967	195.24787	80.74561	0.31827	 	8.477699999999999E27	 	2.58007E-28	 	3075.85569	25.63419	 
170.0	1.0	0.0	8.15951	6.93537	-9.98894	12.66981	13.69998	0.7925	1.26184	213.22069	195.39828	80.8799	0.31813	 	1.94793E28	 	1.11036E-28	 	2947.92505	25.58613	 
165.0	1.0	0.0	8.16115	6.93399	-10.00695	12.64323	13.61702	0.78833	1.26851	213.55091	195.54775	81.01391	0.31799	 	4.56159E28	 	4.68806E-29	 	2820.23618	25.53777	 
160.0	1.0	0.0	8.16277	6.9326	-10.02489	12.61665	13.53398	0.78411	1.27533	213.88033	195.69628	81.14765	0.31785	 	1.08941E29	 	1.9406E-29	 	2692.79059	25.48912	 
155.0	1.0	0.0	8.1644	6.93123	-10.04276	12.59007	13.45087	0.77985	1.2823	214.20896	195.84387	81.28112	0.3177	 	2.6551800000000003E29	 	7.87025E-30	 	2565.58993	25.44013	 
150.0	1.0	0.0	8.16601	6.92985	-10.06056	12.5635	13.36768	0.77554	1.28942	214.53678	195.99052	81.41431	0.31756	 	6.60909E29	 	3.12492E-30	 	2438.63593	25.3908	 
145.0	1.0	0.0	8.16762	6.92849	-10.07828	12.53694	13.28442	0.77118	1.29671	214.86381	196.13623	81.54722	0.31742	 	1.68136E30	 	1.21383E-30	 	2311.93046	25.34109	 
140.0	1.0	0.0	8.16922	6.92713	-10.09594	12.51038	13.20107	0.76677	1.30417	215.19005	196.28101	81.67986	0.31728	 	4.37517E30	 	4.60892E-31	 	2185.47547	25.291	 
135.0	1.0	0.0	8.17082	6.92577	-10.11352	12.48383	13.11764	0.76231	1.31181	215.51549	196.42486	81.81223	0.31713	 	1.16548E31	 	1.70923E-31	 	2059.27311	25.24047	 
130.0	1.0	0.0	8.17241	6.92442	-10.13103	12.45728	13.03413	0.75779	1.31962	215.84013	196.56779	81.94432	0.31699	 	3.18105E31	 	6.18562E-32	 	1933.3256	25.1895	 
125.0	1.0	0.0	8.174	6.92308	-10.14847	12.43074	12.95052	0.75323	1.32762	216.16397	196.70978	82.07613	0.31685	 	8.904049999999999E31	 	2.18246E-32	 	1807.63534	25.13805	 
120.0	1.0	0.0	8.17558	6.92174	-10.16584	12.4042	12.86682	0.74861	1.33582	216.48702	196.85086	82.20767	0.31671	 	2.5584399999999997E32	 	7.50015E-33	 	1682.20488	25.08609	 
115.0	1.0	0.0	8.17716	6.92041	-10.18314	12.37767	12.78303	0.74393	1.34421	216.80927	196.99101	82.33894	0.31657	 	7.55391E32	 	2.50793E-33	 	1557.03694	25.03359	 
110.0	1.0	0.0	8.17872	6.91908	-10.20036	12.35114	12.69914	0.7392	1.35282	217.13072	197.13024	82.46993	0.31642	 	2.2942500000000002E33	 	8.15108E-34	 	1432.13441	24.98051	 
105.0	1.0	0.0	8.18029	6.91776	-10.21752	12.32462	12.61514	0.73441	1.36164	217.45138	197.26856	82.60064	0.31628	 	7.17576E33	 	2.57207E-34	 	1307.50038	24.92681	 
100.0	1.0	0.0	8.18184	6.91644	-10.2346	12.29811	12.53103	0.72956	1.37068	217.77123	197.40596	82.73108	0.31614	 	2.31402E34	 	7.87052E-35	 	1183.13813	24.87245	 
95.0	1.0	0.0	8.18339	6.91513	-10.25161	12.2716	12.44682	0.72466	1.37996	218.0903	197.54245	82.86124	0.316	 	7.70332E34	 	2.33256E-35	 	1059.05115	24.8174	 
90.0	1.0	0.0	8.18494	6.91383	-10.26855	12.24509	12.36248	0.71969	1.38948	218.40856	197.67803	82.99112	0.31585	 	2.65077E35	 	6.68653E-36	 	935.24318	24.76159	 
85.0	1.0	0.0	8.18648	6.91253	-10.28542	12.21859	12.27803	0.71466	1.39926	218.72603	197.81269	83.12073	0.31571	 	9.44173E35	 	1.8514E-36	 	811.71819	24.705	 
80.0	1.0	0.0	8.18801	6.91123	-10.30222	12.1921	12.19345	0.70958	1.40929	219.04271	197.94646	83.25007	0.31557	 	3.4861999999999996E36	 	4.94417E-37	 	688.48042	24.64756	 
75.0	1.0	0.0	8.18954	6.90995	-10.31895	12.16561	12.10874	0.70442	1.4196	219.35858	198.07932	83.37913	0.31543	 	1.3364399999999998E37	 	1.27147E-37	 	565.53438	24.58921	 
70.0	1.0	0.0	8.19106	6.90866	-10.3356	12.13912	12.02389	0.69921	1.43019	219.67366	198.21127	83.50791	0.31529	 	5.327829999999999E37	 	3.14355E-38	 	442.8849	24.5299	 
65.0	1.0	0.0	8.19258	6.90738	-10.35219	12.11264	11.9389	0.69392	1.44108	219.98795	198.34233	83.63641	0.31514	 	2.21266E38	 	7.45902E-39	 	320.53711	24.46956	 
60.0	1.0	0.0	8.19408	6.90611	-10.3687	12.08617	11.85377	0.68857	1.45228	220.30143	198.47249	83.76464	0.315	 	9.59047E38	 	1.69546E-39	 	198.49654	24.40811	 
55.0	1.0	0.0	8.19559	6.90485	-10.38514	12.0597	11.76847	0.68315	1.4638	220.61412	198.60176	83.89259	0.31486	 	4.34685E39	 	3.68455E-40	 	76.76904	24.3455	 
50.0	1.0	0.0	8.19709	6.90358	-10.40151	12.03324	11.68302	0.67767	1.47566	220.92602	198.73013	84.02027	0.31472	 	2.06452E40	 	7.63961E-41	 	-44.63913	24.28163	 
45.0	1.0	0.0	8.19858	6.90233	-10.41781	12.00678	11.5974	0.67211	1.48786	221.23711	198.85761	84.14767	0.31458	 	1.02975E41	 	1.50794E-41	 	-165.72122	24.21642	 
40.0	1.0	0.0	8.20006	6.90108	-10.43404	11.98033	11.5116	0.66647	1.50043	221.54742	198.9842	84.27479	0.31443	 	5.40671E41	 	2.82687E-42	 	-286.47006	24.14977	 
35.0	1.0	0.0	8.20154	6.89983	-10.4502	11.95388	11.42562	0.66077	1.51339	221.85692	199.1099	84.40164	0.31429	 	2.99575E42	 	5.02046E-43	 	-406.87796	24.08158	 
30.0	1.0	0.0	8.20302	6.89859	-10.46629	11.92744	11.33944	0.65499	1.52675	222.16563	199.23472	84.52821	0.31415	 	1.75633E43	 	8.42439E-44	 	-526.93666	24.01174	 
25.0	1.0	0.0	8.20448	6.89736	-10.4823	 	11.25306	0.64913	1.54053	222.47354	199.35866	84.6545	0.31401	 	1.0926200000000001E44	 	1.33184E-44	 	-646.63734	 	 
