T (C)	Fraction solid (wt)-TOTAL	Fraction liquid (wt)-LIQUID	Density (g/(cm)^3)-TOTAL	Molar volume (cm^3)-TOTAL	Volume change (%)-  	Average expansion coeff. (10e-6 1/K)-  	Thermal conductivity (W/(m*K))-TOTAL	Electrical resistivity (10e-6 Ohm*m)-TOTAL	Electrical conductivity (10e6 1/(Ohm*m))-TOTAL	Young's modulus (GPa)-TOTAL	Bulk modulus (GPa)-TOTAL	Shear modulus(GPa)-TOTAL	Poisson's ratio-TOTAL	Liquid viscosity (mPa s)-  	Total viscosity (mPa s)-  	Liquid diffusivity (10e-9 (m^2)/s)-  	Total diffusivity (10e-9 (m^2)/s)-  	Surface Tension (mN/m)-  	Enthalpy (J/mole)-TOTAL	Specific heat (J/(mole K))-TOTAL	Latent heat (J/mole)-TOTAL
1400.0	0.0665604	0.93344	7.37399	7.61512	0.0	26.87876	31.1262	1.31697	0.75932	0.00170285	125.60872	5.70968E-4	0.4912	7.05988	8.18386	1.15671	0.99785	1781.64979	52912.46	 	0.0
1395.0	0.26102	0.73898	7.42121	7.56666	-0.63634	25.25693	31.76013	1.28682	0.77711	0.41469	124.6795	0.14151	0.46519	7.10973	130.0641	1.14517	0.0625986	1780.31002	49811.26	620.24	2891.745
1390.0	0.40339	0.59661	7.45678	7.53057	-1.11029	24.06373	32.22323	1.26453	0.79081	2.4199	124.08412	0.83683	0.44586	7.15969	740.06545	1.13377	0.0109685	1779.05106	47503.774	461.4972	4990.296
1385.0	0.51076	0.48924	7.4844	7.50279	-1.47515	23.15878	32.56805	1.24738	0.80168	6.33548	123.72377	2.2135	0.4311	7.20981	2002.92166	1.1225	0.00404061	1777.87088	45730.5	354.6548	6555.153
1380.0	0.59372	0.40628	7.50644	7.48082	-1.76366	22.45579	32.82595	1.23385	0.81047	11.7456	123.53339	4.13703	0.41957	7.26019	3876.13126	1.11135	0.00208162	1776.76659	44329.077	280.2846	7748.673
1375.0	0.65912	0.34088	7.52442	7.46298	-1.99796	21.89629	33.01811	1.22296	0.81769	18.0733	123.46817	6.40722	0.41039	7.31081	6251.27666	1.10032	0.00128681	1775.73556	43193.935	227.0284	8676.423
1370.0	0.71151	0.28849	7.53939	7.44818	-2.19225	21.44281	33.15956	1.21404	0.82369	24.82538	123.49748	8.84757	0.40295	7.36168	9022.15659	1.0894	8.88901E-4	1774.77473	42254.159	187.9552	9409.315
1365.0	0.7541	0.2459	7.55208	7.43572	-2.35591	21.07057	33.2614	1.20664	0.82874	31.64497	123.6	11.32731	0.39684	7.41284	12105.51345	1.07859	6.60476E-4	1773.88077	41460.761	158.6796	9996.335
1360.0	0.78914	0.21086	7.56299	7.42506	-2.49586	20.76129	33.33202	1.20041	0.83305	38.30092	123.75982	13.75977	0.39177	7.4643	15444.09273	1.06788	5.1612E-4	1773.05059	40779.07	136.3382	10472.149
1355.0	0.81827	0.18173	7.57252	7.41578	-2.61776	20.49996	33.37759	1.1951	0.83675	44.65278	123.96404	16.091	0.38751	7.51603	19000.62845	1.05729	4.18228E-4	1772.28183	40184.018	119.0104	10861.823
1350.0	0.84272	0.15728	7.58095	7.40761	-2.72505	20.27747	33.403	1.19053	0.83996	50.62646	124.20397	18.29134	0.38389	7.56804	22755.51932	1.0468	3.48144E-4	1771.57171	39657.136	105.3764	11183.823
1345.0	0.8634	0.1366	7.58849	7.40033	-2.82066	20.08607	33.41221	1.18653	0.84279	56.19567	124.4726	20.34905	0.38079	7.62025	26703.73464	1.03642	2.95756E-4	1770.91793	39184.59	94.5092	11451.98
1340.0	0.88102	0.11898	7.5953	7.39377	-2.90679	19.91992	33.40789	1.18302	0.84529	61.34745	124.76431	22.25764	0.37812	7.67269	30842.93121	1.02616	2.55274E-4	1770.31868	38755.853	85.7474	11676.818
1335.0	0.89614	0.10386	7.60151	7.3878	-2.98513	19.77451	33.39252	1.1799	0.84753	66.10106	125.07475	24.02281	0.3758	7.72533	35185.07601	1.01601	2.23077E-4	1769.77205	38362.81	78.6086	11866.45
1330.0	0.90917	0.0908294	7.60724	7.38233	-3.05695	19.64649	33.36798	1.17709	0.84955	70.47644	125.40068	25.65085	0.37376	7.7781	39743.54728	1.00598	1.96877E-4	1769.27652	37999.125	72.737	12027.207
1325.0	0.92048	0.0795219	7.61255	7.37727	-3.12336	19.53288	33.33567	1.17456	0.85138	74.49602	125.7391	27.14922	0.37197	7.83099	44533.90058	0.99607	1.75151E-4	1768.83095	37659.793	67.8664	12164.092
1320.0	0.93032	0.0696776	7.61752	7.37256	-3.18531	19.43117	33.29682	1.17225	0.85306	78.19011	126.08774	28.52848	0.37039	7.88393	49578.62845	0.98628	1.56837E-4	1768.43473	37340.821	63.7944	12281.096
1316.22	0.93688	0.0631214	7.62107	7.36921	-3.22928	19.36198	33.26347	1.17064	0.85423	80.76387	126.35776	29.49067	0.36931	7.9241	53564.3337	0.97895	1.44822E-4	1768.16825	37111.766	60.56275	12357.695
1315.0	0.94097	0.0590295	7.6227	7.36763	-3.25003	19.32068	33.26086	1.16983	0.85482	82.34174	126.45128	30.08104	0.36867	7.94868	55396.18596	0.97518	1.39926E-4	1768.2716	37010.589	83.07565	12409.836
1310.0	0.95602	0.043983	7.62893	7.36158	-3.32942	19.16711	33.2432	1.16677	0.85707	88.3889	126.83242	32.34691	0.36626	8.04905	63099.42771	0.95998	1.22457E-4	1768.65387	36621.129	77.892	12598.278
1305.0	0.96738	0.0326165	7.63427	7.35642	-3.39723	19.04581	33.2103	1.16424	0.85893	93.28468	127.21728	34.18511	0.36441	8.14871	70729.41389	0.94525	1.08902E-4	1768.99445	36282.338	67.7582	12736.519
1300.0	0.97618	0.0238217	7.63898	7.35187	-3.45701	18.94688	33.16664	1.16208	0.86053	97.31488	127.60513	35.70079	0.36292	8.24809	78423.80766	0.9309	9.79059E-5	1769.30894	35978.669	60.7338	12840.107
1295.0	0.98312	0.0168838	7.64324	7.34776	-3.51095	18.8642	33.11517	1.16018	0.86193	100.68442	127.99565	36.96972	0.36171	8.34755	86294.56982	0.91689	8.86933E-5	1769.60841	35700.148	55.7042	12919.011
1290.0	0.98868	0.0113207	7.64717	7.34398	-3.56063	18.79333	33.05789	1.15849	0.86319	103.54332	128.38802	38.0476	0.36071	8.44739	94436.98425	0.90316	8.07877E-5	1769.90266	35440.138	52.002	12979.865
1285.0	0.9932	0.00679914	7.65085	7.34044	-3.60706	18.73147	32.9962	1.15694	0.86435	106.00182	128.7819	38.97544	0.35985	8.54793	102934.8449	0.88968	7.38811E-5	1770.19805	35194.082	49.2112	13027.226
1280.0	0.99692	0.00308367	7.65434	7.3371	-3.65097	18.67653	32.93106	1.15551	0.86542	108.14148	129.17664	39.78368	0.35912	8.64932	111864.1771	0.87643	6.77656E-5	1770.50076	34958.756	47.0652	13064.312
1275.0	1.0	0.0	7.65768	7.3339	-3.69291	18.62701	32.86339	1.15416	0.86643	110.02519	129.57188	40.49582	0.35848	 	121298.531	 	6.22937E-5	 	34731.846	45.382	13093.437
1270.0	1.0	0.0	7.66015	7.33155	-3.72384	18.60982	32.77933	1.15338	0.86701	110.50577	129.97047	40.67816	0.35829	 	129904.307	 	5.79791E-5	 	34513.47944	43.67331	 
1265.0	1.0	0.0	7.66261	7.32919	-3.75482	18.59236	32.69518	1.15261	0.8676	110.98502	130.36614	40.86007	0.35811	 	139183.0377	 	5.39385E-5	 	34324.39383	37.81712	 
1260.0	1.0	0.0	7.66508	7.32683	-3.78575	18.57489	32.61103	1.15182	0.86819	111.46354	130.75996	41.04175	0.35793	 	149191.6421	 	5.01565E-5	 	34135.6079	37.75719	 
1255.0	1.0	0.0	7.66754	7.32448	-3.81663	18.55741	32.52689	1.15104	0.86878	111.94133	131.15197	41.22322	0.35775	 	159992.6451	 	4.66179E-5	 	33947.12113	37.69735	 
1250.0	1.0	0.0	7.67	7.32213	-3.84747	18.53994	32.44274	1.15025	0.86938	112.41839	131.54215	41.40447	0.35756	 	171654.3593	 	4.33086E-5	 	33758.93309	37.63761	 
1245.0	1.0	0.0	7.67246	7.31979	-3.87826	18.52246	32.35859	1.14945	0.86998	112.89472	131.93053	41.58549	0.35738	 	184251.4522	 	4.02152E-5	 	33571.04337	37.57794	 
1240.0	1.0	0.0	7.67491	7.31745	-3.90901	18.50497	32.27444	1.14865	0.87058	113.37033	132.3171	41.7663	0.3572	 	197865.5837	 	3.73249E-5	 	33383.45154	37.51837	 
1235.0	1.0	0.0	7.67736	7.31511	-3.93971	18.48749	32.19029	1.14785	0.87119	113.8452	132.70187	41.94688	0.35702	 	212586.1084	 	3.46255E-5	 	33196.1572	37.45887	 
1230.0	1.0	0.0	7.67981	7.31277	-3.97037	18.47	32.10615	1.14704	0.87181	114.31935	133.08485	42.12724	0.35683	 	228510.8532	 	3.21057E-5	 	33009.15994	37.39945	 
1225.0	1.0	0.0	7.68226	7.31044	-4.00098	18.45251	32.022	1.14623	0.87242	114.79276	133.46605	42.30738	0.35665	 	245746.9783	 	2.97546E-5	 	32822.45934	37.34012	 
1220.0	1.0	0.0	7.68471	7.30812	-4.03154	18.43501	31.93785	1.14542	0.87304	115.26545	133.84548	42.4873	0.35647	 	264411.9318	 	2.75619E-5	 	32636.05499	37.28087	 
1215.0	1.0	0.0	7.68715	7.30579	-4.06205	18.41752	31.8537	1.1446	0.87367	115.73741	134.22314	42.667	0.35629	 	284634.5087	 	2.5518E-5	 	32449.94647	37.2217	 
1210.0	1.0	0.0	7.6896	7.30347	-4.09252	18.40002	31.76955	1.14377	0.8743	116.20864	134.59904	42.84647	0.35611	 	306556.025	 	2.36136E-5	 	32264.13338	37.16262	 
1205.0	1.0	0.0	7.69204	7.30116	-4.12295	18.38251	31.68539	1.14295	0.87493	116.67915	134.97318	43.02573	0.35592	 	330331.6227	 	2.18401E-5	 	32078.61529	37.10362	 
1200.0	1.0	0.0	7.69447	7.29884	-4.15332	18.36501	31.60124	1.14211	0.87557	117.14892	135.34558	43.20476	0.35574	 	356131.7188	 	2.01894E-5	 	31893.39179	37.0447	 
1195.0	1.0	0.0	7.69691	7.29653	-4.18365	18.34751	31.51709	1.14128	0.87621	117.61797	135.71624	43.38357	0.35556	 	384143.6168	 	1.86536E-5	 	31708.46248	36.98586	 
1190.0	1.0	0.0	7.69934	7.29423	-4.21393	18.33	31.43294	1.14043	0.87686	118.08628	136.08517	43.56215	0.35538	 	414573.2987	 	1.72256E-5	 	31523.82694	36.92711	 
1185.0	1.0	0.0	7.70177	7.29192	-4.24417	18.31249	31.34878	1.13959	0.87751	118.55387	136.45237	43.74052	0.3552	 	447647.4204	 	1.58984E-5	 	31339.48474	36.86844	 
1180.0	1.0	0.0	7.7042	7.28963	-4.27436	18.29498	31.26463	1.13874	0.87817	119.02073	136.81785	43.91866	0.35501	 	483615.5335	 	1.46655E-5	 	31155.43547	36.80985	 
1175.0	1.0	0.0	7.70663	7.28733	-4.3045	18.27747	31.18047	1.13788	0.87883	119.48686	137.18162	44.09658	0.35483	 	522752.562	 	1.35209E-5	 	30971.67874	36.75135	 
1170.0	1.0	0.0	7.70905	7.28504	-4.33459	18.25996	31.09631	1.13702	0.87949	119.95227	137.54368	44.27428	0.35465	 	565361.5641	 	1.24587E-5	 	30788.21412	36.69292	 
1165.0	1.0	0.0	7.71148	7.28275	-4.36464	18.24245	31.01216	1.13616	0.88016	120.41694	137.90404	44.45176	0.35447	 	611776.8146	 	1.14736E-5	 	30605.04118	36.63459	 
1160.0	1.0	0.0	7.7139	7.28047	-4.39464	18.22494	30.928	1.13529	0.88083	120.88089	138.26272	44.62901	0.35429	 	662367.2465	 	1.05604E-5	 	30422.15952	36.57633	 
1155.0	1.0	0.0	7.71631	7.27818	-4.42459	18.20743	30.84384	1.13441	0.88151	121.3441	138.6197	44.80604	0.3541	 	717540.2966	 	9.71436E-6	 	30239.56872	36.51816	 
1150.0	1.0	0.0	7.71873	7.27591	-4.4545	18.18992	30.75968	1.13354	0.8822	121.80659	138.97501	44.98285	0.35392	 	777746.2066	 	8.93099E-6	 	30057.26837	36.46007	 
1145.0	1.0	0.0	7.72114	7.27363	-4.48435	18.17241	30.67552	1.13265	0.88288	122.26835	139.32865	45.15943	0.35374	 	843482.8339	 	8.20602E-6	 	29875.25805	36.40207	 
1140.0	1.0	0.0	7.72355	7.27136	-4.51417	18.1549	30.59136	1.13176	0.88358	122.72939	139.68062	45.33579	0.35356	 	915301.0397	 	7.53548E-6	 	29693.53735	36.34414	 
1135.0	1.0	0.0	7.72596	7.2691	-4.54393	18.13739	30.50719	1.13087	0.88427	123.18969	140.03093	45.51193	0.35338	 	993810.7254	 	6.91563E-6	 	29512.10584	36.2863	 
1130.0	1.0	0.0	7.72837	7.26683	-4.57364	18.11988	30.42303	1.12997	0.88498	123.64927	140.37958	45.68785	0.3532	 	1079687.601	 	6.34297E-6	 	29330.96311	36.22855	 
1125.0	1.0	0.0	7.73077	7.26457	-4.60331	18.10238	30.33886	1.12907	0.88569	124.10811	140.7266	45.86354	0.35302	 	1173680.777	 	5.81421E-6	 	29150.10875	36.17087	 
1120.0	1.0	0.0	7.73317	7.26232	-4.63293	18.08487	30.25469	1.12816	0.8864	124.56623	141.07197	46.039	0.35283	 	1276621.295	 	5.32626E-6	 	28969.54233	36.11328	 
1115.0	1.0	0.0	7.73557	7.26007	-4.6625	18.06737	30.17053	1.12725	0.88712	125.02362	141.41571	46.21425	0.35265	 	1389431.704	 	4.87625E-6	 	28789.26344	36.05578	 
1110.0	1.0	0.0	7.73796	7.25782	-4.69203	18.04987	30.08636	1.12633	0.88784	125.48029	141.75782	46.38927	0.35247	 	1513136.835	 	4.46147E-6	 	28609.27165	35.99836	 
1105.0	1.0	0.0	7.74036	7.25557	-4.7215	18.03237	30.00218	1.12541	0.88857	125.93622	142.09831	46.56406	0.35229	 	1648875.922	 	4.07939E-6	 	28429.56657	35.94102	 
1100.0	1.0	0.0	7.74275	7.25333	-4.75093	18.01488	29.91801	1.12448	0.8893	126.39143	142.43718	46.73864	0.35211	 	1797916.253	 	3.72765E-6	 	28250.14775	35.88376	 
1095.0	1.0	0.0	7.74514	7.2511	-4.78031	17.99739	29.83384	1.12355	0.89004	126.8459	142.77445	46.91299	0.35193	 	1961668.547	 	3.40404E-6	 	28071.01478	35.82659	 
1090.0	1.0	0.0	7.74753	7.24886	-4.80964	17.9799	29.74966	1.12261	0.89078	127.29965	143.11012	47.08711	0.35175	 	2141704.307	 	3.1065E-6	 	27892.16726	35.7695	 
1085.0	1.0	0.0	7.74991	7.24663	-4.83892	17.96241	29.66548	1.12166	0.89153	127.75267	143.44419	47.26101	0.35157	 	2339775.394	 	2.83309E-6	 	27713.60475	35.7125	 
1080.0	1.0	0.0	7.75229	7.24441	-4.86816	17.94493	29.5813	1.12071	0.89229	128.20497	143.77666	47.43469	0.35138	 	2557836.142	 	2.58202E-6	 	27535.32683	35.65558	 
1075.0	1.0	0.0	7.75467	7.24218	-4.89735	17.92745	29.49712	1.11976	0.89305	128.65653	144.10756	47.60814	0.3512	 	2798068.35	 	2.35162E-6	 	27357.33308	35.59875	 
1070.0	1.0	0.0	7.75705	7.23996	-4.92648	17.90998	29.41294	1.1188	0.89382	129.10737	144.43688	47.78137	0.35102	 	3062909.56	 	2.14031E-6	 	27179.62309	35.542	 
1065.0	1.0	0.0	7.75942	7.23775	-4.95557	17.89251	29.32875	1.11783	0.89459	129.55748	144.76463	47.95437	0.35084	 	3355085.069	 	1.94665E-6	 	27002.19644	35.48533	 
1060.0	1.0	0.0	7.76179	7.23554	-4.98462	17.87505	29.24457	1.11686	0.89536	130.00686	145.09081	48.12715	0.35066	 	3677644.2	 	1.76928E-6	 	26825.05268	35.42875	 
1055.0	1.0	0.0	7.76416	7.23333	-5.01361	17.85759	29.16038	1.11589	0.89615	130.45551	145.41543	48.2997	0.35048	 	4034001.428	 	1.60693E-6	 	26648.19142	35.37225	 
1050.0	1.0	0.0	7.76653	7.23113	-5.04255	17.84014	29.07619	1.1149	0.89694	130.90343	145.73849	48.47203	0.3503	 	4427983.06	 	1.45844E-6	 	26471.61222	35.31584	 
1045.0	1.0	0.0	7.76889	7.22893	-5.07145	17.82269	28.992	1.11392	0.89773	131.35063	146.06001	48.64413	0.35012	 	4863880.256	 	1.32272E-6	 	26295.31466	35.25951	 
1040.0	1.0	0.0	7.77125	7.22673	-5.10029	17.80525	28.9078	1.11292	0.89853	131.7971	146.37999	48.81601	0.34994	 	5346509.289	 	1.19876E-6	 	26119.29831	35.20327	 
1035.0	1.0	0.0	7.77361	7.22454	-5.12909	17.78782	28.8236	1.11192	0.89934	132.24284	146.69843	48.98766	0.34976	 	5881280.123	 	1.08561E-6	 	25943.56276	35.14711	 
1030.0	1.0	0.0	7.77597	7.22235	-5.15784	17.7704	28.7394	1.11092	0.90015	132.68785	147.01535	49.15909	0.34958	 	6474274.489	 	9.82404E-7	 	25768.10756	35.09104	 
1025.0	1.0	0.0	7.77832	7.22016	-5.18654	17.75298	28.6552	1.10991	0.90097	133.13213	147.33073	49.33029	0.3494	 	7132334.874	 	8.88341E-7	 	25592.93231	35.03505	 
1020.0	1.0	0.0	7.78067	7.21798	-5.21519	17.73557	28.571	1.10889	0.9018	133.57569	147.6446	49.50127	0.34921	 	7863166.029	 	8.02672E-7	 	25418.03656	34.97915	 
1015.0	1.0	0.0	7.78302	7.2158	-5.24379	17.71817	28.48679	1.10787	0.90263	134.01852	147.95696	49.67202	0.34903	 	8675450.855	 	7.24705E-7	 	25243.41991	34.92333	 
1010.0	1.0	0.0	7.78537	7.21363	-5.27234	17.70077	28.40258	1.10684	0.90347	134.46062	148.26781	49.84254	0.34885	 	9578982.831	 	6.538E-7	 	25069.0819	34.8676	 
1005.0	1.0	0.0	7.78771	7.21146	-5.30084	17.68339	28.31837	1.10581	0.90432	134.90199	148.57715	50.01284	0.34867	 	1.058481747E7	 	5.89366E-7	 	24895.02213	34.81195	 
1000.0	1.0	0.0	7.79005	7.20929	-5.32929	17.66601	28.23415	1.10477	0.90517	135.34263	148.885	50.18292	0.34849	 	1.170544573E7	 	5.30858E-7	 	24721.24014	34.7564	 
995.0	1.0	0.0	7.79239	7.20713	-5.3577	17.64865	28.14994	1.10372	0.90603	135.78255	149.19136	50.35276	0.34831	 	1.295499265E7	 	4.77771E-7	 	24547.73553	34.70092	 
990.0	1.0	0.0	7.79473	7.20497	-5.38605	17.63129	28.06572	1.10267	0.90689	136.22174	149.49624	50.52239	0.34813	 	1.434944523E7	 	4.29642E-7	 	24374.50785	34.64554	 
989.97	1.0	0.0	7.79474	7.20495	-5.38624	17.63118	28.06515	1.10266	0.9069	136.22469	149.49829	50.52353	0.34813	 	1.435934159E7	 	4.29334E-7	 	24373.34455	 	 
985.0	1.0	0.0	7.79706	7.20282	-5.41433	17.61405	27.98162	1.1016	0.90777	136.66563	149.80437	50.69384	0.34795	 	1.59127156E7	 	3.859E-7	 	24200.20229	34.86111	 
980.0	1.0	0.0	7.79938	7.20067	-5.44255	17.59682	27.89752	1.10053	0.90865	137.10869	150.11092	50.86503	0.34777	 	1.766070861E7	 	3.46323E-7	 	24026.20471	34.79952	 
975.0	1.0	0.0	7.80171	7.19852	-5.47073	17.5796	27.81341	1.09946	0.90954	137.55088	150.41587	51.03595	0.34759	 	1.961688262E7	 	3.10544E-7	 	23852.5219	34.73656	 
970.0	1.0	0.0	7.80403	7.19638	-5.49886	17.56239	27.72929	1.09838	0.91044	137.99221	150.71924	51.20658	0.34741	 	2.180792404E7	 	2.78225E-7	 	23679.15271	34.67384	 
965.0	1.0	0.0	7.80635	7.19424	-5.52694	17.54519	27.64517	1.09729	0.91134	138.43268	151.02102	51.37694	0.34723	 	2.426417881E7	 	2.49054E-7	 	23506.0958	34.61138	 
960.0	1.0	0.0	7.80867	7.1921	-5.55498	17.528	27.56104	1.09619	0.91225	138.87229	151.32123	51.54702	0.34704	 	2.702018733E7	 	2.22748E-7	 	23333.34992	34.54918	 
955.0	1.0	0.0	7.81098	7.18997	-5.58296	17.51082	27.4769	1.09509	0.91317	139.31104	151.61988	51.71683	0.34686	 	3.011530392E7	 	1.99045E-7	 	23160.91399	34.48719	 
950.0	1.0	0.0	7.81329	7.18785	-5.61089	17.49365	27.39276	1.09398	0.91409	139.74894	151.91696	51.88636	0.34668	 	3.359440611E7	 	1.77705E-7	 	22988.78669	34.42546	 
945.0	1.0	0.0	7.8156	7.18572	-5.63877	17.4765	27.30861	1.09287	0.91502	140.18598	152.21249	52.05562	0.3465	 	3.750872344E7	 	1.58509E-7	 	22816.96677	34.36398	 
940.0	1.0	0.0	7.81791	7.1836	-5.66661	17.45936	27.22445	1.09175	0.91596	140.62217	152.50649	52.2246	0.34632	 	4.191679578E7	 	1.41258E-7	 	22645.45322	34.30271	 
935.0	1.0	0.0	7.82021	7.18149	-5.69439	17.44223	27.14029	1.09062	0.91691	141.05752	152.79894	52.39332	0.34614	 	4.688557763E7	 	1.25767E-7	 	22474.24472	34.2417	 
930.0	1.0	0.0	7.82251	7.17938	-5.72213	17.42512	27.05612	1.08948	0.91787	141.49202	153.08986	52.56176	0.34596	 	5.24917309E7	 	1.11871E-7	 	22303.34	34.18095	 
925.0	1.0	0.0	7.82481	7.17727	-5.74981	17.40802	26.97195	1.08834	0.91883	141.92567	153.37927	52.72993	0.34578	 	5.882311914E7	 	9.94145E-8	 	22132.7381	34.12038	 
920.0	1.0	0.0	7.8271	7.17516	-5.77745	17.39094	26.88776	1.08719	0.9198	142.35848	153.66716	52.89782	0.3456	 	6.598054672E7	 	8.82604E-8	 	21962.43754	34.06011	 
915.0	1.0	0.0	7.8294	7.17306	-5.80503	17.37388	26.80357	1.08604	0.92078	142.79045	153.95354	53.06545	0.34542	 	7.407979321E7	 	7.82813E-8	 	21792.43739	34.00003	 
911.97	1.0	0.0	7.83078	7.17179	-5.82172	17.36354	26.75255	1.08533	0.92138	143.05185	154.12638	53.16692	0.34531	 	7.950230315E7	 	7.27561E-8	 	21689.55237	 	 
910.0	1.0	0.0	7.83215	7.17054	-5.83814	17.33351	26.70207	1.08558	0.92117	143.31925	154.30271	53.27073	0.3452	 	8.347120133E7	 	6.91815E-8	 	21597.55718	38.97604	 
905.0	1.0	0.0	7.83559	7.16739	-5.87952	17.25785	26.57532	1.08615	0.92069	143.99213	154.74566	53.53205	0.34492	 	9.451939065E7	 	6.08368E-8	 	21365.2836	46.45472	 
900.0	1.0	0.0	7.83901	7.16427	-5.92052	17.18297	26.45038	1.08665	0.92026	144.65676	155.18211	53.79024	0.34464	 	1.071292907E8	 	5.34481E-8	 	21134.78031	46.10066	 
895.0	1.0	0.0	7.84239	7.16118	-5.96113	17.10888	26.32718	1.08708	0.9199	145.31337	155.61226	54.0454	0.34436	 	1.215359094E8	 	4.69116E-8	 	20906.01089	45.75388	 
890.0	1.0	0.0	7.84575	7.15811	-6.00137	17.03553	26.20565	1.08744	0.91959	145.96222	156.03628	54.29764	0.34409	 	1.380117802E8	 	4.11345E-8	 	20678.94019	45.41414	 
885.0	1.0	0.0	7.84908	7.15508	-6.04123	16.96292	26.08575	1.08775	0.91933	146.60354	156.45435	54.54702	0.34383	 	1.568733111E8	 	3.60332E-8	 	20453.53424	45.08119	 
880.0	1.0	0.0	7.85238	7.15207	-6.08074	16.89103	25.96742	1.08799	0.91913	147.23754	156.86664	54.79365	0.34356	 	1.784882614E8	 	3.15328E-8	 	20229.76034	44.75478	 
875.0	1.0	0.0	7.85565	7.14909	-6.11989	16.81983	25.85059	1.08816	0.91898	147.86444	157.2733	55.03759	0.3433	 	2.032845691E8	 	2.75665E-8	 	20007.58582	44.4349	 
870.0	1.0	0.0	7.8589	7.14613	-6.15869	16.74932	25.73523	1.08828	0.91888	148.48444	157.6745	55.27892	0.34305	 	2.31760747E8	 	2.40741E-8	 	19786.98069	44.12103	 
865.0	1.0	0.0	7.86212	7.1432	-6.19715	16.67948	25.62127	1.08834	0.91883	149.09774	158.07036	55.51773	0.34279	 	2.64498226E8	 	2.10021E-8	 	19567.9151	43.81312	 
860.0	1.0	0.0	7.86532	7.1403	-6.23527	16.61029	25.50867	1.08834	0.91883	149.70452	158.46102	55.75408	0.34254	 	3.021759218E8	 	1.83027E-8	 	19350.36013	43.511	 
855.0	1.0	0.0	7.86849	7.13742	-6.27307	16.54174	25.39738	1.08829	0.91887	150.30498	158.84663	55.98804	0.3423	 	3.455875873E8	 	1.59329E-8	 	19134.28767	43.21449	 
850.0	1.0	0.0	7.87164	7.13457	-6.31054	16.47381	25.28735	1.08818	0.91897	150.89927	159.2273	56.21967	0.34205	 	3.956622754E8	 	1.38548E-8	 	18919.67041	42.92345	 
845.0	1.0	0.0	7.87389	7.13253	-6.33734	16.45324	25.20595	1.08683	0.9201	151.31319	159.48779	56.38122	0.34188	 	4.509447034E8	 	1.21022E-8	 	18757.58862	32.41636	 
840.0	1.0	0.0	7.87614	7.13049	-6.36408	16.43266	25.12455	1.08548	0.92125	151.72641	159.74699	56.54254	0.3417	 	5.145554562E8	 	1.05586E-8	 	18592.45986	33.02575	 
835.0	1.0	0.0	7.87839	7.12846	-6.39078	16.41206	25.04314	1.08412	0.92241	152.13892	160.0049	56.70364	0.34153	 	5.878387938E8	 	9.20083E-9	 	18427.59408	32.97316	 
830.0	1.0	0.0	7.88063	7.12643	-6.41742	16.39144	24.96172	1.08274	0.92358	152.55071	160.26152	56.86452	0.34135	 	6.723702507E8	 	8.00779E-9	 	18262.99082	32.92065	 
825.0	1.0	0.0	7.88287	7.1244	-6.44401	16.3708	24.8803	1.08136	0.92476	152.9618	160.51687	57.02517	0.34118	 	7.699988671E8	 	6.96079E-9	 	18098.64958	32.86825	 
820.0	1.0	0.0	7.88511	7.12238	-6.47055	16.35015	24.79888	1.07998	0.92595	153.37218	160.77095	57.1856	0.341	 	8.828975756E8	 	6.04305E-9	 	17934.56988	32.81594	 
815.0	1.0	0.0	7.88734	7.12036	-6.49704	16.32948	24.71745	1.07858	0.92715	153.78185	161.02376	57.34581	0.34083	 	1.013623402E9	 	5.23961E-9	 	17770.75124	32.76373	 
810.0	1.0	0.0	7.88957	7.11835	-6.52347	16.3088	24.63601	1.07717	0.92836	154.19082	161.27531	57.50579	0.34065	 	1.1651895E9	 	4.5371E-9	 	17607.19314	32.71162	 
805.0	1.0	0.0	7.8918	7.11634	-6.54986	16.2881	24.55457	1.07575	0.92958	154.59907	161.5256	57.66555	0.34048	 	1.341151461E9	 	3.92363E-9	 	17443.89509	32.65961	 
800.0	1.0	0.0	7.89402	7.11434	-6.57619	16.26738	24.47313	1.07433	0.93081	155.00661	161.77463	57.82508	0.34031	 	1.545710899E9	 	3.38859E-9	 	17280.85659	32.6077	 
795.0	1.0	0.0	7.89624	7.11234	-6.60246	16.24665	24.39168	1.07289	0.93206	155.41345	162.02241	57.98439	0.34013	 	1.783839932E9	 	2.92256E-9	 	17118.07712	32.55589	 
790.0	1.0	0.0	7.89846	7.11034	-6.62869	16.2259	24.31022	1.07145	0.93332	155.81958	162.26894	58.14348	0.33996	 	2.061431023E9	 	2.51717E-9	 	16955.55614	32.5042	 
785.0	1.0	0.0	7.90068	7.10835	-6.65486	16.20513	24.22876	1.07	0.93458	156.22499	162.51423	58.30234	0.33978	 	2.385477608E9	 	2.165E-9	 	16793.29315	32.4526	 
780.0	1.0	0.0	7.90289	7.10636	-6.68098	16.18435	24.1473	1.06853	0.93586	156.6297	162.75829	58.46097	0.33961	 	2.764292189E9	 	1.85949E-9	 	16631.28759	32.40111	 
775.0	1.0	0.0	7.9051	7.10437	-6.70704	16.16355	24.06583	1.06706	0.93715	157.03371	163.00111	58.61939	0.33943	 	3.207770068E9	 	1.5948E-9	 	16469.53892	32.34974	 
770.0	1.0	0.0	7.9073	7.10239	-6.73306	16.14274	23.98435	1.06558	0.93846	157.437	163.2427	58.77757	0.33926	 	3.727708789E9	 	1.36581E-9	 	16308.04659	32.29846	 
765.0	1.0	0.0	7.9095	7.10042	-6.75902	16.12191	23.90286	1.06408	0.93977	157.83959	163.48306	58.93554	0.33909	 	4.338195686E9	 	1.16799E-9	 	16146.81003	32.24731	 
760.0	1.0	0.0	7.9117	7.09844	-6.78493	16.10106	23.82137	1.06258	0.9411	158.24146	163.72221	59.09327	0.33891	 	5.056078824E9	 	9.97324E-10	 	15985.82867	32.19627	 
755.0	1.0	0.0	7.9139	7.09647	-6.81078	16.08019	23.73988	1.06107	0.94244	158.64263	163.96013	59.25079	0.33874	 	5.901540232E9	 	8.50311E-10	 	15825.10192	32.14535	 
750.0	1.0	0.0	7.91609	7.09451	-6.83658	16.05931	23.65837	1.05955	0.9438	159.04309	164.19685	59.40807	0.33856	 	6.898794841E9	 	7.23857E-10	 	15664.62918	32.09455	 
745.0	1.0	0.0	7.91828	7.09255	-6.86233	16.03842	23.57686	1.05801	0.94517	159.44285	164.43235	59.56514	0.33839	 	8.076944125E9	 	6.1525E-10	 	15504.40985	32.04387	 
740.0	1.0	0.0	7.92046	7.09059	-6.88802	16.0175	23.49535	1.05647	0.94655	159.84189	164.66665	59.72198	0.33822	 	9.471020533E9	 	5.22112E-10	 	15344.44331	31.99331	 
735.0	1.0	0.0	7.92264	7.08864	-6.91366	15.99657	23.41383	1.05492	0.94794	160.24023	164.89975	59.87859	0.33804	 	1.11233E10	 	4.42364E-10	 	15184.72891	31.94288	 
730.0	1.0	0.0	7.92482	7.08669	-6.93925	15.97563	23.3323	1.05335	0.94935	160.63786	165.13165	60.03498	0.33787	 	1.3084699999999998E10	 	3.74187E-10	 	15025.266	31.89258	 
725.0	1.0	0.0	7.927	7.08475	-6.96479	15.95466	23.25076	1.05178	0.95077	161.03478	165.36236	60.19114	0.3377	 	1.5417099999999998E10	 	3.15995E-10	 	14866.05391	31.84242	 
720.0	1.0	0.0	7.92917	7.08281	-6.99027	15.93369	23.16922	1.05019	0.9522	161.43099	165.59188	60.34708	0.33752	 	1.81953E10	 	2.66406E-10	 	14707.09197	31.79239	 
715.0	1.0	0.0	7.93134	7.08087	-7.0157	15.91269	23.08766	1.0486	0.95365	161.8265	165.82022	60.50279	0.33735	 	2.15101E10	 	2.24216E-10	 	14548.37946	31.7425	 
710.0	1.0	0.0	7.9335	7.07894	-7.04107	15.89168	23.00611	1.04699	0.95512	162.2213	166.04738	60.65827	0.33717	 	2.5472099999999996E10	 	1.88383E-10	 	14389.91567	31.69276	 
705.0	1.0	0.0	7.93566	7.07701	-7.06639	15.87065	22.92454	1.04537	0.9566	162.61539	166.27336	60.81353	0.337	 	3.0216099999999996E10	 	1.57999E-10	 	14231.69983	31.64317	 
700.0	1.0	0.0	7.93782	7.07508	-7.09166	15.84961	22.84297	1.04374	0.95809	163.00877	166.49817	60.96857	0.33683	 	3.59067E10	 	1.32279E-10	 	14073.7312	31.59373	 
695.0	1.0	0.0	7.93997	7.07316	-7.11687	15.82855	22.76139	1.0421	0.9596	163.40145	166.7218	61.12338	0.33665	 	4.2745E10	 	1.10546E-10	 	13916.00896	31.54445	 
690.0	1.0	0.0	7.94213	7.07125	-7.14203	15.80747	22.6798	1.04045	0.96112	163.79342	166.94428	61.27796	0.33648	 	5.097779999999999E10	 	9.22145E-11	 	13758.5323	31.49533	 
685.0	1.0	0.0	7.94427	7.06934	-7.16713	15.78637	22.5982	1.03879	0.96266	164.18468	167.16559	61.43232	0.33631	 	6.090819999999999E10	 	7.67794E-11	 	13601.30039	31.44638	 
680.0	1.0	0.0	7.94642	7.06743	-7.19218	15.76526	22.51659	1.03711	0.96422	164.57523	167.38575	61.58645	0.33613	 	7.2909E10	 	6.38068E-11	 	13444.31234	31.39761	 
675.0	1.0	0.0	7.94856	7.06553	-7.21718	15.74414	22.43498	1.03542	0.96579	164.96508	167.60475	61.74036	0.33596	 	8.744E10	 	5.29241E-11	 	13287.56723	31.34902	 
670.0	1.0	0.0	7.9507	7.06363	-7.24212	15.723	22.35335	1.03372	0.96738	165.35422	167.8226	61.89404	0.33578	 	1.05069E11	 	4.38118E-11	 	13131.06414	31.30062	 
665.0	1.0	0.0	7.95283	7.06173	-7.26701	15.70184	22.27172	1.03201	0.96898	165.74265	168.03931	62.04749	0.33561	 	1.26501E11	 	3.61965E-11	 	12974.80208	31.25241	 
660.0	1.0	0.0	7.95496	7.05984	-7.29184	15.68066	22.19008	1.03029	0.9706	166.13037	168.25488	62.20072	0.33544	 	1.52606E11	 	2.98446E-11	 	12818.78187	31.20404	 
655.0	1.0	0.0	7.95709	7.05795	-7.31662	15.65947	22.10843	1.02855	0.97224	166.51739	168.4693	62.35372	0.33526	 	1.84472E11	 	2.45569E-11	 	12663.01364	31.15365	 
650.0	1.0	0.0	7.95921	7.05607	-7.34134	15.63826	22.02677	1.0268	0.9739	166.9037	168.6826	62.50649	0.33509	 	2.2345E11	 	2.01641E-11	 	12507.51084	31.10056	 
645.0	1.0	0.0	7.96133	7.05419	-7.36601	15.61704	21.9451	1.02504	0.97557	167.28931	168.89476	62.65904	0.33492	 	2.7123E11	 	1.6522E-11	 	12352.27294	31.04758	 
640.0	1.0	0.0	7.96345	7.05232	-7.39063	15.59579	21.86342	1.02327	0.97726	167.67421	169.10579	62.81136	0.33474	 	3.29926E11	 	1.35087E-11	 	12197.29941	30.9947	 
635.0	1.0	0.0	7.96556	7.05045	-7.41519	15.57454	21.78173	1.02148	0.97897	168.0584	169.31571	62.96345	0.33457	 	4.02191E11	 	1.10208E-11	 	12042.58973	30.94194	 
630.0	1.0	0.0	7.96767	7.04858	-7.43969	15.55326	21.70003	1.01968	0.9807	168.44188	169.5245	63.11532	0.3344	 	4.9136E11	 	8.97113E-12	 	11888.14339	30.88927	 
625.0	1.0	0.0	7.96977	7.04672	-7.46415	15.53197	21.61832	1.01787	0.98244	168.82466	169.73218	63.26696	0.33422	 	6.01639E11	 	7.28618E-12	 	11733.95958	30.83676	 
620.0	1.0	0.0	7.97187	7.04486	-7.48854	15.51067	21.5366	1.01605	0.98421	169.20673	169.93874	63.41838	0.33405	 	7.3834E11	 	5.90411E-12	 	11580.03709	30.7845	 
615.0	1.0	0.0	7.97397	7.04301	-7.51288	15.48934	21.45486	1.01421	0.98599	169.58809	170.1442	63.56956	0.33388	 	9.08193E11	 	4.77304E-12	 	11426.37577	30.73226	 
610.0	1.0	0.0	7.97607	7.04116	-7.53717	15.468	21.37312	1.01235	0.9878	169.96875	170.34855	63.72052	0.3337	 	1.11974E12	 	3.84949E-12	 	11272.9751	30.68013	 
605.0	1.0	0.0	7.97816	7.03931	-7.5614	15.44665	21.29137	1.01049	0.98962	170.3487	170.55181	63.87125	0.33353	 	1.38387E12	 	3.09715E-12	 	11119.8346	30.6281	 
600.0	1.0	0.0	7.98024	7.03747	-7.58558	15.42528	21.2096	1.00861	0.99147	170.72794	170.75396	64.02176	0.33336	 	1.71444E12	 	2.48572E-12	 	10966.95374	30.57617	 
595.0	1.0	0.0	7.98233	7.03563	-7.6097	15.40389	21.12782	1.00671	0.99333	171.10648	170.95502	64.17204	0.33319	 	2.12923E12	 	1.99002E-12	 	10814.33206	30.52434	 
590.0	1.0	0.0	7.98441	7.0338	-7.63376	15.38248	21.04603	1.00481	0.99522	171.48431	171.15499	64.32209	0.33301	 	2.65103E12	 	1.58913E-12	 	10661.96903	30.47261	 
585.0	1.0	0.0	7.98648	7.03197	-7.65777	15.36106	20.96423	1.00288	0.99713	171.86144	171.35387	64.47191	0.33284	 	3.30913E12	 	1.26571E-12	 	10509.86415	30.42098	 
580.0	1.0	0.0	7.98856	7.03015	-7.68173	15.33962	20.88242	1.00095	0.99905	172.23786	171.55167	64.62151	0.33267	 	4.14136E12	 	1.00547E-12	 	10358.01696	30.36944	 
575.0	1.0	0.0	7.99063	7.02833	-7.70563	15.31817	20.80059	0.99899	1.00101	172.61357	171.74839	64.77087	0.33249	 	5.19661E12	 	7.96598E-13	 	10206.42694	30.318	 
570.0	1.0	0.0	7.99269	7.02651	-7.72947	15.2967	20.71875	0.99703	1.00298	172.98858	171.94403	64.92001	0.33232	 	6.53833E12	 	6.29397E-13	 	10055.09362	30.26666	 
565.0	1.0	0.0	7.99475	7.0247	-7.75326	15.27521	20.6369	0.99505	1.00498	173.36288	172.1386	65.06893	0.33215	 	8.24905E12	 	4.95912E-13	 	9904.01651	30.21542	 
560.0	1.0	0.0	7.99681	7.0229	-7.77699	15.25371	20.55503	0.99305	1.007	173.73647	172.3321	65.21761	0.33198	 	1.04364E13	 	3.89635E-13	 	9753.19512	30.16428	 
555.0	1.0	0.0	7.99886	7.02109	-7.80067	15.23219	20.47315	0.99104	1.00904	174.10936	172.52453	65.36607	0.3318	 	1.32414E13	 	3.05254E-13	 	9602.62898	30.11323	 
550.0	1.0	0.0	8.00091	7.01929	-7.82429	15.21065	20.39125	0.98901	1.01111	174.48154	172.7159	65.51429	0.33163	 	1.68489E13	 	2.38448E-13	 	9452.31761	30.06227	 
545.0	1.0	0.0	8.00296	7.0175	-7.84786	15.1891	20.30934	0.98697	1.0132	174.85301	172.90621	65.66229	0.33146	 	2.15024E13	 	1.85709E-13	 	9302.26052	30.01142	 
540.0	1.0	0.0	8.005	7.01571	-7.87137	15.16753	20.22742	0.98491	1.01532	175.22378	173.09547	65.81007	0.33128	 	2.75237E13	 	1.44195E-13	 	9152.45727	29.96065	 
535.0	1.0	0.0	8.00704	7.01392	-7.89482	15.14595	20.14548	0.98283	1.01747	175.59385	173.28367	65.95761	0.33111	 	3.53389E13	 	1.11616E-13	 	9002.90736	29.90998	 
530.0	1.0	0.0	8.00907	7.01214	-7.91822	15.12435	20.06352	0.98074	1.01963	175.9632	173.47083	66.10492	0.33094	 	4.55145E13	 	8.61258E-14	 	8853.61035	29.8594	 
525.0	1.0	0.0	8.0111	7.01036	-7.94156	15.10273	19.98155	0.97864	1.02183	176.33186	173.65693	66.25201	0.33077	 	5.88064E13	 	6.6244E-14	 	8704.56575	29.80892	 
520.0	1.0	0.0	8.01313	7.00859	-7.96484	15.08109	19.89956	0.97651	1.02405	176.6998	173.842	66.39887	0.33059	 	7.62257E13	 	5.07856E-14	 	8555.77313	29.75852	 
515.0	1.0	0.0	8.01515	7.00682	-7.98807	15.05944	19.81756	0.97437	1.0263	177.06704	174.02603	66.5455	0.33042	 	9.91307E13	 	3.8805E-14	 	8407.23202	29.70822	 
510.0	1.0	0.0	8.01717	7.00506	-8.01124	15.03777	19.73554	0.97221	1.02858	177.43358	174.20902	66.6919	0.33025	 	1.2935199999999998E14	 	2.95501E-14	 	8258.94197	29.65801	 
505.0	1.0	0.0	8.01919	7.0033	-8.03436	15.01609	19.6535	0.97004	1.03089	177.7994	174.39098	66.83807	0.33008	 	1.69364E14	 	2.24248E-14	 	8110.90252	29.60789	 
500.0	1.0	0.0	8.0212	7.00154	-8.05742	14.99439	19.57145	0.96785	1.03322	178.16453	174.57191	66.98401	0.3299	 	2.22528E14	 	1.69577E-14	 	7963.11324	29.55785	 
495.0	1.0	0.0	8.02321	6.99979	-8.08042	14.97268	19.48937	0.96564	1.03559	178.52894	174.75181	67.12972	0.32973	 	2.9342E14	 	1.27774E-14	 	7815.57369	29.50791	 
490.0	1.0	0.0	8.02521	6.99804	-8.10337	14.95094	19.40728	0.96341	1.03798	178.89266	174.93069	67.27521	0.32956	 	3.88303E14	 	9.59237E-15	 	7668.28342	29.45805	 
485.0	1.0	0.0	8.02721	6.9963	-8.12626	14.92919	19.32517	0.96116	1.0404	179.25566	175.10855	67.42046	0.32939	 	5.1576999999999994E14	 	7.17441E-15	 	7521.242	29.40828	 
480.0	1.0	0.0	8.0292	6.99456	-8.14909	14.90743	19.24304	0.9589	1.04286	179.61796	175.2854	67.56549	0.32921	 	6.87666E14	 	5.34553E-15	 	7374.44901	29.3586	 
475.0	1.0	0.0	8.0312	6.99282	-8.17187	14.88565	19.1609	0.95662	1.04535	179.97956	175.46123	67.71029	0.32904	 	9.20385E14	 	3.9674E-15	 	7227.90402	29.309	 
470.0	1.0	0.0	8.03318	6.99109	-8.19459	14.86385	19.07873	0.95432	1.04787	180.34045	175.63605	67.85485	0.32887	 	1.2367E15	 	2.93291E-15	 	7081.60661	29.25948	 
465.0	1.0	0.0	8.03517	6.98937	-8.21725	14.84203	18.99654	0.952	1.05042	180.70063	175.80987	67.99919	0.3287	 	1.66839E15	 	2.1594E-15	 	6935.55638	29.21005	 
460.0	1.0	0.0	8.03715	6.98765	-8.23986	14.8202	18.91433	0.94966	1.05301	181.06011	175.98268	68.1433	0.32852	 	2.25998E15	 	1.58334E-15	 	6789.75289	29.1607	 
455.0	1.0	0.0	8.03912	6.98593	-8.26241	14.79836	18.83209	0.9473	1.05563	181.41888	176.15449	68.28718	0.32835	 	3.07413E15	 	1.15607E-15	 	6644.19575	29.11143	 
450.0	1.0	0.0	8.04109	6.98422	-8.2849	14.77649	18.74984	0.94492	1.05829	181.77695	176.32531	68.43083	0.32818	 	4.1994E15	 	8.40481E-16	 	6498.88457	29.06224	 
445.0	1.0	0.0	8.04306	6.98251	-8.30733	14.75461	18.66756	0.94253	1.06098	182.13431	176.49513	68.57424	0.32801	 	5.76154E15	 	6.08364E-16	 	6353.81894	29.01313	 
440.0	1.0	0.0	8.04502	6.98081	-8.32971	14.73272	18.58527	0.94011	1.06371	182.49097	176.66395	68.71743	0.32784	 	7.93991E15	 	4.38381E-16	 	6208.99848	28.96409	 
435.0	1.0	0.0	8.04698	6.97911	-8.35203	14.7108	18.50294	0.93767	1.06647	182.84692	176.8318	68.86039	0.32766	 	1.09916E16	 	3.14451E-16	 	6064.4228	28.91513	 
430.0	1.0	0.0	8.04894	6.97741	-8.37429	14.68887	18.4206	0.93521	1.06928	183.20217	176.99865	69.00312	0.32749	 	1.52866E16	 	2.24503E-16	 	5920.09152	28.86626	 
425.0	1.0	0.0	8.05089	6.97572	-8.3965	14.66693	18.33823	0.93273	1.07212	183.55671	177.16453	69.14562	0.32732	 	2.13607E16	 	1.59521E-16	 	5776.00432	28.81744	 
420.0	1.0	0.0	8.05284	6.97403	-8.41864	14.64497	18.25583	0.93023	1.075	183.91055	177.32942	69.28788	0.32715	 	2.99928E16	 	1.12797E-16	 	5632.16076	28.76871	 
415.0	1.0	0.0	8.05478	6.97235	-8.44073	14.62299	18.17341	0.92771	1.07792	184.26368	177.49334	69.42992	0.32698	 	4.23214E16	 	7.93615E-17	 	5488.5606	28.72003	 
410.0	1.0	0.0	8.05672	6.97067	-8.46276	14.60099	18.09096	0.92517	1.08088	184.6161	177.65629	69.57173	0.3268	 	6.00194E16	 	5.55534E-17	 	5345.20365	28.67139	 
405.0	1.0	0.0	8.05865	6.969	-8.48474	14.57898	18.00848	0.9226	1.08389	184.96782	177.81827	69.71331	0.32663	 	8.55581E16	 	3.86858E-17	 	5202.08973	28.62278	 
400.0	1.0	0.0	8.06058	6.96733	-8.50666	14.55695	17.92598	0.92002	1.08694	185.31884	177.97928	69.85465	0.32646	 	1.22608E17	 	2.67967E-17	 	5059.21864	28.57422	 
395.0	1.0	0.0	8.06251	6.96567	-8.52851	14.53491	17.84345	0.91741	1.09003	185.66915	178.13932	69.99577	0.32629	 	1.7665E17	 	1.84607E-17	 	4916.5902	28.52569	 
390.0	1.0	0.0	8.06443	6.96401	-8.55031	14.51285	17.76089	0.91477	1.09317	186.01876	178.29841	70.13665	0.32612	 	2.55917E17	 	1.26473E-17	 	4774.20425	28.47719	 
385.0	1.0	0.0	8.06635	6.96235	-8.57206	14.49077	17.6783	0.91212	1.09635	186.36766	178.45654	70.2773	0.32594	 	3.72848E17	 	8.61548E-18	 	4632.06064	28.42872	 
380.0	1.0	0.0	8.06826	6.9607	-8.59374	14.46868	17.59568	0.90944	1.09958	186.71585	178.61371	70.41772	0.32577	 	5.46345E17	 	5.83489E-18	 	4490.15921	28.38029	 
375.0	1.0	0.0	8.07017	6.95905	-8.61537	14.44657	17.51303	0.90673	1.10286	187.06335	178.76993	70.55792	0.3256	 	8.05309E17	 	3.92826E-18	 	4348.49981	28.33188	 
370.0	1.0	0.0	8.07208	6.95741	-8.63694	14.42444	17.43035	0.90401	1.10618	187.41013	178.92521	70.69788	0.32543	 	1.1942E18	 	2.62858E-18	 	4207.08231	28.2835	 
365.0	1.0	0.0	8.07398	6.95577	-8.65845	14.4023	17.34763	0.90126	1.10956	187.75621	179.07953	70.8376	0.32526	 	1.78186E18	 	1.74798E-18	 	4065.90659	28.23514	 
360.0	1.0	0.0	8.07588	6.95414	-8.6799	14.38014	17.26488	0.89848	1.11299	188.10159	179.23292	70.9771	0.32509	 	2.67556E18	 	1.15499E-18	 	3924.97254	28.18681	 
355.0	1.0	0.0	8.07777	6.95251	-8.70129	14.35797	17.1821	0.89568	1.11647	188.44626	179.38536	71.11637	0.32491	 	4.04359E18	 	7.58199E-19	 	3784.28005	28.1385	 
350.0	1.0	0.0	8.07966	6.95088	-8.72263	14.33578	17.09928	0.89286	1.12	188.79023	179.53687	71.2554	0.32474	 	6.15173E18	 	4.94404E-19	 	3643.82904	28.0902	 
345.0	1.0	0.0	8.08154	6.94926	-8.7439	14.31357	17.01642	0.89	1.12359	189.13349	179.68744	71.3942	0.32457	 	9.42269E18	 	3.20188E-19	 	3503.61941	28.04193	 
340.0	1.0	0.0	8.08342	6.94765	-8.76512	14.29134	16.93353	0.88713	1.12724	189.47605	179.83708	71.53277	0.3244	 	1.45336E19	 	2.05911E-19	 	3363.6511	27.99366	 
335.0	1.0	0.0	8.08529	6.94604	-8.78628	14.2691	16.8506	0.88422	1.13094	189.8179	179.98579	71.67111	0.32423	 	2.2577E19	 	1.31472E-19	 	3223.92406	27.94541	 
330.0	1.0	0.0	8.08716	6.94443	-8.80738	14.24685	16.76763	0.88129	1.1347	190.15905	180.13357	71.80922	0.32406	 	3.53289E19	 	8.33263E-20	 	3084.43823	27.89717	 
325.0	1.0	0.0	8.08903	6.94283	-8.82842	14.22457	16.68461	0.87833	1.13852	190.4995	180.28043	71.94709	0.32389	 	5.56987E19	 	5.24145E-20	 	2945.19358	27.84893	 
320.0	1.0	0.0	8.09089	6.94123	-8.84941	14.20228	16.60156	0.87535	1.1424	190.83924	180.42637	72.08474	0.32371	 	8.849E19	 	3.27158E-20	 	2806.19011	27.80069	 
315.0	1.0	0.0	8.09275	6.93964	-8.87033	14.17998	16.51847	0.87234	1.14635	191.17827	180.57139	72.22215	0.32354	 	1.4169699999999998E20	 	2.02588E-20	 	2667.42779	27.75246	 
310.0	1.0	0.0	8.0946	6.93805	-8.8912	14.15766	16.43533	0.8693	1.15036	191.5166	180.7155	72.35933	0.32337	 	2.2873599999999997E20	 	1.24432E-20	 	2528.90665	27.70423	 
305.0	1.0	0.0	8.09645	6.93646	-8.912	14.13532	16.35215	0.86623	1.15443	191.85423	180.8587	72.49627	0.3232	 	3.7231E20	 	7.57919E-21	 	2390.6267	27.65599	 
300.0	1.0	0.0	8.0983	6.93488	-8.93275	14.11296	16.26892	0.86313	1.15858	192.19115	181.00098	72.63299	0.32303	 	6.11176E20	 	4.57708E-21	 	2252.588	27.60774	 
295.0	1.0	0.0	8.10014	6.93331	-8.95344	14.09059	16.18565	0.86	1.16279	192.52737	181.14236	72.76947	0.32286	 	1.0120900000000001E21	 	2.73989E-21	 	2114.7906	27.55948	 
290.0	1.0	0.0	8.10197	6.93174	-8.97407	14.0682	16.10232	0.85684	1.16707	192.86288	181.28284	72.90572	0.32269	 	1.69105E21	 	1.62537E-21	 	1977.23459	27.5112	 
285.0	1.0	0.0	8.10381	6.93017	-8.99464	14.0458	16.01895	0.85366	1.17143	193.19769	181.42241	73.04173	0.32252	 	2.85162E21	 	9.55313E-22	 	1839.92004	27.46291	 
280.0	1.0	0.0	8.10563	6.92861	-9.01515	14.02338	15.93552	0.85044	1.17586	193.53179	181.56109	73.17751	0.32234	 	4.85433E21	 	5.56161E-22	 	1702.84708	27.41459	 
275.0	1.0	0.0	8.10745	6.92705	-9.0356	14.00094	15.85204	0.84719	1.18037	193.86519	181.69887	73.31306	0.32217	 	8.34414E21	 	3.2063E-22	 	1566.01584	27.36625	 
270.0	1.0	0.0	8.10927	6.9255	-9.05599	13.97849	15.76851	0.84391	1.18496	194.19788	181.83576	73.44838	0.322	 	1.44865E22	 	1.82996E-22	 	1429.42648	27.31787	 
265.0	1.0	0.0	8.11109	6.92395	-9.07632	13.95602	15.68492	0.8406	1.18963	194.52988	181.97175	73.58347	0.32183	 	2.5409699999999997E22	 	1.03369E-22	 	1293.07918	27.26946	 
260.0	1.0	0.0	8.11289	6.92241	-9.09659	13.93353	15.60128	0.83725	1.19439	194.86116	182.10686	73.71832	0.32166	 	4.5041499999999994E22	 	5.77728E-23	 	1156.97414	27.22101	 
255.0	1.0	0.0	8.1147	6.92087	-9.1168	13.91103	15.51757	0.83387	1.19922	195.19174	182.24108	73.85293	0.32149	 	8.07109E22	 	3.19383E-23	 	1021.11157	27.17251	 
250.0	1.0	0.0	8.1165	6.91933	-9.13695	13.88851	15.43381	0.83046	1.20415	195.52162	182.37442	73.98732	0.32132	 	1.4624899999999999E23	 	1.7459E-23	 	885.49174	27.12396	 
245.0	1.0	0.0	8.11829	6.9178	-9.15705	13.86597	15.34998	0.82702	1.20917	195.8508	182.50688	74.12147	0.32115	 	2.68064E23	 	9.43417E-24	 	750.11491	27.07537	 
240.0	1.0	0.0	8.12008	6.91628	-9.17708	13.84342	15.26609	0.82354	1.21428	196.17927	182.63846	74.25539	0.32098	 	4.97177E23	 	5.03756E-24	 	614.98141	27.0267	 
235.0	1.0	0.0	8.12187	6.91476	-9.19705	13.82085	15.18213	0.82002	1.21948	196.50703	182.76917	74.38907	0.32081	 	9.33389E23	 	2.65715E-24	 	480.09154	26.97797	 
230.0	1.0	0.0	8.12365	6.91324	-9.21696	13.79827	15.0981	0.81647	1.22478	196.83409	182.89901	74.52252	0.32063	 	1.7744E24	 	1.38399E-24	 	345.44569	26.92917	 
225.0	1.0	0.0	8.12543	6.91173	-9.23682	13.77567	15.014	0.81289	1.23018	197.16045	183.02797	74.65574	0.32046	 	3.41696E24	 	7.11551E-25	 	211.04425	26.88029	 
220.0	1.0	0.0	8.1272	6.91022	-9.25661	13.75305	14.92983	0.80926	1.23569	197.4861	183.15607	74.78872	0.32029	 	6.66807E24	 	3.60965E-25	 	76.88763	26.83132	 
215.0	1.0	0.0	8.12897	6.90872	-9.27634	13.73041	14.84558	0.80561	1.2413	197.81105	183.28331	74.92147	0.32012	 	1.31919E25	 	1.80606E-25	 	-57.02368	26.78226	 
210.0	1.0	0.0	8.13073	6.90722	-9.29601	13.70776	14.76125	0.80191	1.24703	198.1353	183.40968	75.05398	0.31995	 	2.64697E25	 	8.9088E-26	 	-190.68919	26.7331	 
205.0	1.0	0.0	8.13249	6.90573	-9.31562	13.6851	14.67685	0.79817	1.25286	198.45884	183.53519	75.18626	0.31978	 	5.3890900000000005E25	 	4.33047E-26	 	-324.10835	26.68383	 
200.0	1.0	0.0	8.13424	6.90424	-9.33517	13.66241	14.59236	0.7944	1.25881	198.78168	183.65985	75.3183	0.31961	 	1.1138E26	 	2.07338E-26	 	-457.2806	26.63445	 
195.0	1.0	0.0	8.13599	6.90275	-9.35466	13.63972	14.50779	0.79059	1.26488	199.10381	183.78365	75.45012	0.31944	 	2.33794E26	 	9.77322E-27	 	-590.20529	26.58494	 
190.0	1.0	0.0	8.13774	6.90127	-9.37409	13.617	14.42312	0.78673	1.27108	199.42524	183.9066	75.58169	0.31927	 	4.9867100000000004E26	 	4.53309E-27	 	-722.88176	26.53529	 
185.0	1.0	0.0	8.13948	6.8998	-9.39346	13.59427	14.33837	0.78284	1.2774	199.74596	184.0287	75.71303	0.3191	 	1.08137E27	 	2.06786E-27	 	-855.30929	26.48551	 
180.0	1.0	0.0	8.14121	6.89833	-9.41277	13.57152	14.25352	0.77891	1.28385	200.06598	184.14996	75.84414	0.31893	 	2.38535E27	 	9.27205E-28	 	-987.4871	26.43556	 
175.0	1.0	0.0	8.14294	6.89686	-9.43202	13.54875	14.16857	0.77493	1.29044	200.3853	184.27037	75.97502	0.31876	 	5.355479999999999E27	 	4.08425E-28	 	-1119.41437	26.38545	 
170.0	1.0	0.0	8.14467	6.8954	-9.45121	13.52597	14.08352	0.77091	1.29716	200.70392	184.38993	76.10565	0.31859	 	1.22453E28	 	1.76631E-28	 	-1251.09024	26.33517	 
165.0	1.0	0.0	8.14639	6.89395	-9.47033	13.50318	13.99837	0.76685	1.30403	201.02182	184.50866	76.23606	0.31842	 	2.8532400000000003E28	 	7.495E-29	 	-1382.51375	26.2847	 
160.0	1.0	0.0	8.1481	6.89249	-9.4894	13.48036	13.91311	0.76275	1.31105	201.33903	184.62655	76.36622	0.31825	 	6.779350000000001E28	 	3.11844E-29	 	-1513.6839	26.23403	 
155.0	1.0	0.0	8.14981	6.89105	-9.5084	13.45753	13.82774	0.7586	1.31822	201.65553	184.74361	76.49616	0.31808	 	1.64368E29	 	1.27135E-29	 	-1644.59963	26.18315	 
150.0	1.0	0.0	8.15152	6.8896	-9.52734	13.43468	13.74225	0.7544	1.32555	201.97133	184.85983	76.62586	0.31791	 	4.0694400000000006E29	 	5.07512E-30	 	-1775.25979	26.13203	 
145.0	1.0	0.0	8.15322	6.88817	-9.54622	13.41182	13.65664	0.75016	1.33305	202.28642	184.97522	76.75532	0.31774	 	1.0295999999999999E30	 	1.98221E-30	 	-1905.66316	26.08067	 
140.0	1.0	0.0	8.15492	6.88673	-9.56505	13.38894	13.5709	0.74587	1.34071	202.60082	185.08979	76.88455	0.31757	 	2.66416E30	 	7.56892E-31	 	-2035.80847	26.02906	 
135.0	1.0	0.0	8.15661	6.8853	-9.5838	13.36605	13.48504	0.74154	1.34855	202.9145	185.20353	77.01354	0.3174	 	7.056159999999999E30	 	2.82318E-31	 	-2165.69431	25.97717	 
130.0	1.0	0.0	8.1583	6.88388	-9.6025	13.34313	13.39904	0.73716	1.35657	203.22749	185.31645	77.14229	0.31722	 	1.9145599999999998E31	 	1.02774E-31	 	-2295.31923	25.92498	 
125.0	1.0	0.0	8.15998	6.88246	-9.62114	13.3202	13.3129	0.73272	1.36477	203.53977	185.42855	77.27081	0.31705	 	5.32668E31	 	3.64819E-32	 	-2424.68167	25.87249	 
120.0	1.0	0.0	8.16166	6.88105	-9.63971	13.29726	13.22661	0.72824	1.37317	203.85134	185.53983	77.3991	0.31688	 	1.52107E32	 	1.26153E-32	 	-2553.77996	25.81966	 
115.0	1.0	0.0	8.16333	6.87964	-9.65823	13.2743	13.14018	0.72371	1.38177	204.16221	185.65029	77.52715	0.31671	 	4.46251E32	 	4.24529E-33	 	-2682.61233	25.76647	 
110.0	1.0	0.0	8.165	6.87823	-9.67668	13.25132	13.05358	0.71913	1.39058	204.47238	185.75995	77.65496	0.31654	 	1.34651E33	 	1.38882E-33	 	-2811.1769	25.71292	 
105.0	1.0	0.0	8.16666	6.87683	-9.69507	13.22833	12.96683	0.71449	1.3996	204.78185	185.86879	77.78254	0.31637	 	4.18336E33	 	4.4119E-34	 	-2939.47166	25.65895	 
100.0	1.0	0.0	8.16832	6.87544	-9.7134	13.20531	12.8799	0.7098	1.40884	205.09061	185.97682	77.90988	0.3162	 	1.33978E34	 	1.35937E-34	 	-3067.49449	25.60456	 
95.0	1.0	0.0	8.16997	6.87404	-9.73166	13.18229	12.7928	0.70506	1.41832	205.39866	186.08404	78.03698	0.31603	 	4.42867E34	 	4.05731E-35	 	-3195.24309	25.54972	 
90.0	1.0	0.0	8.17162	6.87266	-9.74987	13.15924	12.70551	0.70026	1.42804	205.70602	186.19047	78.16385	0.31586	 	1.5129E35	 	1.17155E-35	 	-3322.71507	25.49439	 
85.0	1.0	0.0	8.17326	6.87128	-9.76801	13.13618	12.61803	0.69541	1.43801	206.01267	186.29609	78.29048	0.31569	 	5.3486599999999995E35	 	3.26819E-36	 	-3449.90782	25.43855	 
80.0	1.0	0.0	8.1749	6.8699	-9.78609	13.11311	12.53035	0.6905	1.44823	206.31862	186.40091	78.41688	0.31552	 	1.9597899999999997E36	 	8.79501E-37	 	-3576.81863	25.38216	 
75.0	1.0	0.0	8.17653	6.86853	-9.80411	13.09002	12.44246	0.68553	1.45873	206.62386	186.50493	78.54304	0.31535	 	7.453709999999999E36	 	2.27971E-37	 	-3703.44455	25.32518	 
70.0	1.0	0.0	8.17816	6.86716	-9.82206	13.06691	12.35435	0.6805	1.4695	206.9284	186.60816	78.66896	0.31518	 	2.94743E37	 	5.68235E-38	 	-3829.78247	25.26758	 
65.0	1.0	0.0	8.17978	6.8658	-9.83996	13.04378	12.26602	0.67542	1.48057	207.23224	186.71059	78.79464	0.31501	 	1.21386E38	 	1.35965E-38	 	-3955.82905	25.20932	 
60.0	1.0	0.0	8.1814	6.86444	-9.85779	13.02064	12.17744	0.67027	1.49194	207.53537	186.81224	78.92009	0.31484	 	5.2161399999999995E38	 	3.11729E-39	 	-4081.58076	25.15034	 
55.0	1.0	0.0	8.18302	6.86309	-9.87556	12.99748	12.08862	0.66506	1.50362	207.8378	186.9131	79.0453	0.31468	 	2.34328E39	 	6.83495E-40	 	-4207.03381	25.09061	 
50.0	1.0	0.0	8.18462	6.86174	-9.89326	12.97431	11.99953	0.65979	1.51563	208.13952	187.01317	79.17028	0.31451	 	1.10278E40	 	1.43022E-40	 	-4332.18414	25.03007	 
45.0	1.0	0.0	8.18623	6.86039	-9.91091	12.95112	11.91018	0.65446	1.52799	208.44055	187.11246	79.29501	0.31434	 	5.44876E40	 	2.84984E-41	 	-4457.02746	24.96866	 
40.0	1.0	0.0	8.18782	6.85906	-9.92849	12.92791	11.82053	0.64906	1.5407	208.74087	187.21096	79.41951	0.31417	 	2.8331E41	 	5.39482E-42	 	-4581.55913	24.90633	 
35.0	1.0	0.0	8.18942	6.85772	-9.94601	12.90469	11.73058	0.64359	1.55379	209.04048	187.30869	79.54378	0.314	 	1.55404E42	 	9.67805E-43	 	-4705.77421	24.84302	 
30.0	1.0	0.0	8.19101	6.85639	-9.96347	12.88145	11.64032	0.63806	1.56726	209.3394	187.40564	79.6678	0.31383	 	9.016619999999999E42	 	1.64097E-43	 	-4829.66742	24.77864	 
25.0	1.0	0.0	8.19259	6.85507	-9.98086	 	11.54972	0.63245	1.58114	209.6376	187.50182	79.79159	0.31366	 	5.54929E43	 	2.62231E-44	 	-4953.2331	 	 
