T (C)	Fraction solid (wt)-TOTAL	Fraction liquid (wt)-LIQUID	Density (g/(cm)^3)-TOTAL	Molar volume (cm^3)-TOTAL	Volume change (%)-  	Average expansion coeff. (10e-6 1/K)-  	Thermal conductivity (W/(m*K))-TOTAL	Electrical resistivity (10e-6 Ohm*m)-TOTAL	Electrical conductivity (10e6 1/(Ohm*m))-TOTAL	Young's modulus (GPa)-TOTAL	Bulk modulus (GPa)-TOTAL	Shear modulus(GPa)-TOTAL	Poisson's ratio-TOTAL	Liquid viscosity (mPa s)-  	Total viscosity (mPa s)-  	Liquid diffusivity (10e-9 (m^2)/s)-  	Total diffusivity (10e-9 (m^2)/s)-  	Surface Tension (mN/m)-  	Enthalpy (J/mole)-TOTAL	Specific heat (J/(mole K))-TOTAL	Latent heat (J/mole)-TOTAL
1400.0	0.0	1.0	7.46662	7.83181	0.0	27.70885	27.50301	1.49046	0.67093	0.0	128.71152	0.0	0.5	8.21813	8.21813	0.99368	0.99368	1767.75329	55710.742	 	0.0
1395.0	0.0	1.0	7.47051	7.82774	-0.0520611	27.66883	27.43627	1.48962	0.67131	0.0	128.87733	0.0	0.5	8.30936	8.30936	0.97984	0.97984	1770.04341	55504.19	41.3104	0.0
1390.0	0.0	1.0	7.47439	7.82367	-0.10397	27.62894	27.36954	1.48878	0.67169	0.0	129.04314	0.0	0.5	8.40216	8.40216	0.96611	0.96611	1772.34479	55298.126	41.2128	0.0
1385.0	0.0	1.0	7.47826	7.81962	-0.15572	27.58916	27.3028	1.48793	0.67207	0.0	129.20896	0.0	0.5	8.49656	8.49656	0.95251	0.95251	1774.65724	55092.548	41.1156	0.0
1380.0	0.0	1.0	7.48213	7.81558	-0.20733	27.54952	27.23607	1.48708	0.67246	0.0	129.37477	0.0	0.5	8.5926	8.5926	0.93902	0.93902	1776.98059	54887.454	41.0188	0.0
1375.0	0.0	1.0	7.48599	7.81155	-0.25877	27.51	27.16933	1.48622	0.67285	0.0	129.54058	0.0	0.5	8.69032	8.69032	0.92565	0.92565	1779.31464	54682.841	40.9226	0.0
1370.0	0.0	1.0	7.48984	7.80753	-0.31007	27.47061	27.1026	1.48536	0.67324	0.0	129.70639	0.0	0.5	8.78976	8.78976	0.9124	0.9124	1781.65922	54478.706	40.827	0.0
1365.0	0.0	1.0	7.49368	7.80352	-0.36121	27.43135	27.03586	1.4845	0.67363	0.0	129.8722	0.0	0.5	8.89096	8.89096	0.89927	0.89927	1784.0141	54275.048	40.7316	0.0
1360.0	0.0	1.0	7.49752	7.79953	-0.4122	27.39222	26.96913	1.48363	0.67402	0.0	130.03802	0.0	0.5	8.99395	8.99395	0.88626	0.88626	1786.37908	54071.863	40.637	0.0
1355.0	0.0	1.0	7.50135	7.79555	-0.46304	27.35323	26.90239	1.48276	0.67442	0.0	130.20383	0.0	0.5	9.09877	9.09877	0.87337	0.87337	1788.75393	53869.15	40.5426	0.0
1350.0	0.0	1.0	7.50517	7.79158	-0.51372	27.31437	26.83566	1.48188	0.67482	0.0	130.36964	0.0	0.5	9.20548	9.20548	0.8606	0.8606	1791.13842	53666.906	40.4488	0.0
1345.0	0.0	1.0	7.50899	7.78762	-0.56425	27.27564	26.76892	1.481	0.67522	0.0	130.53545	0.0	0.5	9.3141	9.3141	0.84794	0.84794	1793.53231	53465.128	40.3556	0.0
1340.0	0.0	1.0	7.51279	7.78368	-0.61463	27.23706	26.70219	1.48011	0.67563	0.0	130.70127	0.0	0.5	9.4247	9.4247	0.8354	0.8354	1795.93535	53263.814	40.2628	0.0
1335.0	0.0	1.0	7.51659	7.77974	-0.66486	27.19861	26.63545	1.47922	0.67603	0.0	130.86708	0.0	0.5	9.5373	9.5373	0.82298	0.82298	1798.34728	53062.963	40.1702	0.0
1330.77	0.0	1.0	7.5198	7.77642	-0.70727	27.16616	26.57893	1.47846	0.67638	0.0	131.00751	0.0	0.5	9.63428	9.63428	0.81255	0.81255	1800.39677	52893.223	40.08369	0.0
1330.0	0.02449	0.97551	7.52557	7.77046	-0.78345	26.96529	26.64296	1.4742	0.67833	3.43934E-5	130.77822	1.14915E-5	0.49647	9.65961	10.00492	0.81003	0.78207	1800.24806	52506.891	504.77161	355.676
1325.0	0.17352	0.82648	7.56067	7.73441	-1.24373	25.7539	27.03569	1.44826	0.69048	0.0886555	129.39008	0.0300559	0.47484	9.82585	76.06594	0.79384	0.10254	1799.30425	50157.536	469.871	2505.096
1320.0	0.29366	0.70634	7.58948	7.70501	-1.61912	24.77662	27.34998	1.42714	0.7007	0.74077	128.329	0.25418	0.4572	9.99424	571.87748	0.77802	0.0135969	1798.41551	48241.334	383.2404	4221.819
1315.0	0.3917	0.6083	7.61346	7.68076	-1.92879	23.98102	27.60416	1.40956	0.70944	2.38224	127.52525	0.82565	0.44264	10.16489	1898.34248	0.76256	0.00408323	1797.58868	46655.813	317.1042	5608.311
1310.0	0.47258	0.52742	7.63367	7.66036	-2.18919	23.32163	27.81037	1.3947	0.717	5.11728	126.92341	1.78861	0.43052	10.3378	4273.10061	0.74745	0.00180828	1796.82921	45326.095	265.9436	6739.45
1305.0	0.53997	0.46003	7.65091	7.64306	-2.41009	22.77172	27.97713	1.38201	0.72358	8.82675	126.48374	3.10727	0.42034	10.51311	7761.09348	0.73266	9.92458E-4	1796.14031	44196.65	225.889	7670.768
1300.0	0.5966	0.4034	7.66579	7.62817	-2.60018	22.30724	28.1109	1.37108	0.72935	13.29609	126.17446	4.70922	0.41171	10.69098	12342.69583	0.71819	6.22081E-4	1795.52418	43225.732	194.1836	8444.003
1295.0	0.64455	0.35545	7.67876	7.61521	-2.76566	21.91109	28.21688	1.36158	0.73444	18.29202	125.97123	6.51267	0.40434	10.87137	17960.6665	0.70403	4.2614E-4	1794.98183	42381.569	168.8326	9090.926
1290.0	0.68545	0.31455	7.69018	7.60379	-2.91149	21.56952	28.29912	1.3533	0.73893	23.60417	125.85437	8.44208	0.39801	11.05451	24550.76708	0.69016	3.10758E-4	1794.51333	41639.705	148.3728	9635.992
1285.0	0.72055	0.27945	7.70033	7.59369	-3.04052	21.27475	28.36129	1.34601	0.74293	29.0608	125.80998	10.43453	0.39253	11.24038	32059.22936	0.67657	2.37215E-4	1794.11767	40981.114	131.7182	10098.224
1280.0	0.75086	0.24914	7.70943	7.58461	-3.15639	21.01657	28.40618	1.33957	0.74651	34.52731	125.82484	12.43989	0.38777	11.4291	40443.48723	0.66327	1.87435E-4	1793.79382	40390.852	118.0524	10492.564
1275.0	0.77715	0.22285	7.71766	7.57641	-3.26108	20.78955	28.43631	1.33385	0.74971	39.90818	125.88935	14.42189	0.3836	11.62081	49683.90605	0.65022	1.52084E-4	1793.53991	39857.075	106.7554	10830.854
1270.0	0.8001	0.1999	7.72516	7.56895	-3.35633	20.58887	28.45378	1.32872	0.7526	45.13432	125.99586	16.3538	0.37993	11.81552	59775.03866	0.63744	1.26001E-4	1793.3538	39370.319	97.3512	11122.559
1265.0	0.8202	0.1798	7.73205	7.5621	-3.44379	20.40992	28.46037	1.32411	0.75522	50.16374	126.13756	18.21891	0.37669	12.01335	70732.71178	0.62492	1.06137E-4	1793.23323	38922.958	89.4722	11375.296
1260.0	0.83789	0.16211	7.73841	7.55575	-3.52496	20.24842	28.4575	1.31994	0.75761	54.96724	126.30856	20.0053	0.37382	12.21443	82581.40202	0.61263	9.06127E-5	1793.17598	38508.808	82.83	11595.252
1255.0	0.85353	0.14647	7.74433	7.54984	-3.60031	20.10319	28.44648	1.31614	0.7598	59.53109	126.50517	21.70682	0.37125	12.41882	95365.6827	0.60058	7.82097E-5	1793.17914	38122.815	77.1986	11787.476
1250.0	0.8674	0.1326	7.74987	7.54433	-3.67067	19.97192	28.42836	1.31267	0.7618	63.85002	126.72362	23.32066	0.36896	12.6266	109140.5495	0.58877	6.81151E-5	1793.24007	37760.827	72.3976	11956.12
1248.86	0.87025	0.12975	7.75106	7.54314	-3.68595	19.94409	28.42303	1.31194	0.76223	64.77609	126.77676	23.66714	0.36848	12.67444	112379.981	0.58611	6.61022E-5	1793.26125	37682.41	 	11990.642
1245.0	0.88648	0.11352	7.75723	7.53716	-3.76223	19.77501	28.43491	1.30806	0.76449	70.19603	127.15315	25.69657	0.36586	12.71102	127629.8488	0.58294	5.80563E-5	1792.91658	37313.611	89.4432	12210.415
1240.0	0.90397	0.0960293	7.76438	7.53027	-3.8503	19.58715	28.43677	1.30367	0.76707	76.48456	127.62494	28.05709	0.36302	12.7633	148001.809	0.57864	4.99001E-5	1792.62077	36886.268	85.4686	12445.256
1235.0	0.91825	0.0817473	7.77074	7.52414	-3.92849	19.42808	28.42578	1.29986	0.76931	82.00014	128.08177	30.13237	0.36067	12.8214	169139.5297	0.57411	4.35197E-5	1792.46441	36504.639	76.3258	12634.802
1230.0	0.93007	0.0699256	7.77651	7.51861	-3.99912	19.29096	28.40465	1.29652	0.7713	86.85901	128.52674	31.96419	0.35869	12.88576	191228.0486	0.56935	3.83652E-5	1792.42282	36157.822	69.3634	12789.951
1225.0	0.94	0.0600044	7.7818	7.51355	-4.06369	19.1715	28.37549	1.29353	0.77308	91.16645	128.96227	33.59082	0.35701	12.95676	214470.9008	0.56435	3.40937E-5	1792.47576	35838.01	63.9624	12918.51
1220.0	0.94842	0.0515817	7.78671	7.50886	-4.12357	19.06558	28.33984	1.29084	0.77469	95.01094	129.39008	35.04472	0.35557	13.03457	239075.1086	0.55911	3.04829E-5	1792.60731	35539.499	59.7022	13026.179
1215.0	0.95565	0.0443536	7.79132	7.50447	-4.17968	18.97056	28.29892	1.28838	0.77617	98.46584	129.81125	36.35293	0.3543	13.11947	265253.6965	0.55363	2.73824E-5	1792.80435	35258.047	56.2904	13117.2
1210.0	0.96191	0.0380944	7.79567	7.50032	-4.23267	18.88452	28.25362	1.28611	0.77754	101.58961	130.22695	37.53705	0.35319	13.21163	293222.4671	0.54792	2.46874E-5	1793.05631	34990.451	53.5192	13194.772
1205.0	0.96737	0.0326301	7.79982	7.49637	-4.28306	18.8059	28.20467	1.284	0.77882	104.43238	130.6379	38.61572	0.3522	13.3112	323212.9101	0.54199	2.23211E-5	1793.35462	34734.258	51.2386	13261.348
1200.0	0.97218	0.0278249	7.80379	7.49259	-4.33133	18.73335	28.15268	1.28202	0.78002	107.03329	131.04469	39.60349	0.35131	13.41828	355462.9914	0.53584	2.02274E-5	1793.69249	34487.563	49.339	13318.829
1195.0	0.97643	0.0235733	7.80761	7.48895	-4.37779	18.66593	28.09807	1.28015	0.78116	109.42459	131.44769	40.51238	0.35051	13.53283	390225.4024	0.5295	1.83629E-5	1794.06449	34248.871	47.7384	13368.709
1192.43	0.97838	0.0216189	7.80951	7.48715	-4.40086	18.63353	28.06897	1.27924	0.78172	110.561	131.65284	40.94456	0.35013	13.59457	409059.682	0.52618	1.74868E-5	1794.26567	34129.561	 	13391.301
1190.0	0.98841	0.01159	7.81437	7.48234	-4.46225	18.47675	28.06103	1.27747	0.7828	114.01217	132.03675	42.27248	0.34854	13.71778	442147.4726	0.52058	1.61513E-5	1795.25868	33853.73	79.0282	13575.438
1185.0	1.0	0.0	7.82115	7.47553	-4.54923	18.27788	28.01838	1.27504	0.78429	122.07381	132.65967	45.32557	0.34663	 	500064.6758	 	1.42319E-5	 	33452.902	80.1656	13788.253
1180.0	1.0	0.0	7.82371	7.47307	-4.58056	18.25623	27.94186	1.27415	0.78484	122.53036	133.02818	45.50006	0.34649	 	540401.7381	 	1.31244E-5	 	33256.30181	39.32004	 
1175.0	1.0	0.0	7.82627	7.47063	-4.61175	18.23488	27.86536	1.27325	0.78539	122.98639	133.39576	45.67438	0.34634	 	584305.8039	 	1.20965E-5	 	33079.11449	35.43746	 
1170.0	1.0	0.0	7.82883	7.46819	-4.64286	18.21357	27.78885	1.27235	0.78595	123.44177	133.76195	45.84849	0.34619	 	632118.8314	 	1.11429E-5	 	32902.22906	35.37709	 
1165.0	1.0	0.0	7.83138	7.46576	-4.67391	18.1923	27.71234	1.27144	0.78651	123.89648	134.12676	46.02239	0.34605	 	684218.4394	 	1.02588E-5	 	32725.64494	35.31682	 
1160.0	1.0	0.0	7.83392	7.46334	-4.70489	18.17106	27.63583	1.27053	0.78707	124.35053	134.49019	46.19609	0.3459	 	741021.5238	 	9.43947E-6	 	32549.36156	35.25668	 
1155.0	1.0	0.0	7.83646	7.46092	-4.7358	18.14987	27.55931	1.26961	0.78764	124.80391	134.85225	46.36957	0.34575	 	802988.6289	 	8.68063E-6	 	32373.37828	35.19665	 
1150.0	1.0	0.0	7.839	7.4585	-4.76664	18.12871	27.48279	1.26869	0.78821	125.25664	135.21295	46.54285	0.34561	 	870628.8373	 	7.97819E-6	 	32197.69454	35.13675	 
1145.0	1.0	0.0	7.84154	7.45609	-4.79741	18.10759	27.40626	1.26776	0.78879	125.7087	135.57227	46.71591	0.34546	 	944505.2426	 	7.32832E-6	 	32022.30972	35.07696	 
1140.0	1.0	0.0	7.84407	7.45369	-4.82812	18.08651	27.32973	1.26683	0.78937	126.1601	135.93024	46.88876	0.34531	 	1025241.079	 	6.72743E-6	 	31847.22322	35.0173	 
1135.0	1.0	0.0	7.84659	7.45129	-4.85875	18.06547	27.2532	1.26589	0.78996	126.61084	136.28686	47.06141	0.34517	 	1113526.592	 	6.17213E-6	 	31672.43444	34.95775	 
1130.0	1.0	0.0	7.84911	7.44889	-4.88932	18.04447	27.17666	1.26495	0.79054	127.06091	136.64212	47.23384	0.34502	 	1210126.743	 	5.65926E-6	 	31497.94279	34.89833	 
1125.0	1.0	0.0	7.85163	7.4465	-4.91981	18.02352	27.10012	1.264	0.79114	127.51033	136.99603	47.40607	0.34487	 	1315889.856	 	5.18586E-6	 	31323.74766	34.83903	 
1120.0	1.0	0.0	7.85414	7.44412	-4.95024	18.0026	27.02357	1.26305	0.79173	127.95908	137.34861	47.57808	0.34473	 	1431757.334	 	4.74914E-6	 	31149.84847	34.77984	 
1115.0	1.0	0.0	7.85665	7.44174	-4.9806	17.98173	26.94703	1.26209	0.79233	128.40717	137.69984	47.74989	0.34458	 	1558774.576	 	4.3465E-6	 	30976.2446	34.72077	 
1110.0	1.0	0.0	7.85916	7.43937	-5.01089	17.9609	26.87047	1.26113	0.79294	128.85461	138.04974	47.92149	0.34443	 	1698103.252	 	3.9755E-6	 	30802.93546	34.66183	 
1105.0	1.0	0.0	7.86166	7.437	-5.04111	17.94012	26.79391	1.26016	0.79355	129.30138	138.39831	48.09287	0.34429	 	1851035.131	 	3.63386E-6	 	30629.92044	34.603	 
1100.0	1.0	0.0	7.86416	7.43464	-5.07126	17.91938	26.71735	1.25919	0.79416	129.74749	138.74555	48.26405	0.34414	 	2019007.646	 	3.31945E-6	 	30457.19897	34.54429	 
1095.0	1.0	0.0	7.86665	7.43229	-5.10135	17.89868	26.64079	1.25821	0.79478	130.19293	139.09148	48.43501	0.344	 	2203621.448	 	3.03028E-6	 	30284.77043	34.48571	 
1090.0	1.0	0.0	7.86914	7.42994	-5.13136	17.87804	26.56422	1.25722	0.7954	130.63772	139.43608	48.60577	0.34385	 	2406660.206	 	2.76449E-6	 	30112.63422	34.42724	 
1085.0	1.0	0.0	7.87162	7.42759	-5.16131	17.85743	26.48764	1.25623	0.79603	131.08185	139.77937	48.77632	0.3437	 	2630112.957	 	2.52035E-6	 	29940.78975	34.36889	 
1080.0	1.0	0.0	7.8741	7.42525	-5.19118	17.83688	26.41106	1.25524	0.79666	131.52532	140.12135	48.94665	0.34356	 	2876199.369	 	2.29622E-6	 	29769.23643	34.31067	 
1075.0	1.0	0.0	7.87658	7.42292	-5.22099	17.81637	26.33448	1.25424	0.7973	131.96812	140.46203	49.11678	0.34341	 	3147398.293	 	2.09061E-6	 	29597.97364	34.25256	 
1070.0	1.0	0.0	7.87905	7.42059	-5.25073	17.79591	26.25789	1.25323	0.79794	132.41027	140.80141	49.28669	0.34327	 	3446480.087	 	1.90211E-6	 	29427.00079	34.19457	 
1065.0	1.0	0.0	7.88152	7.41826	-5.2804	17.7755	26.1813	1.25222	0.79858	132.85176	141.13948	49.4564	0.34312	 	3776543.212	 	1.72941E-6	 	29256.31728	34.1367	 
1060.0	1.0	0.0	7.88398	7.41594	-5.31	17.75514	26.1047	1.2512	0.79923	133.29259	141.47627	49.62589	0.34297	 	4141055.721	 	1.57128E-6	 	29085.92252	34.07895	 
1055.0	1.0	0.0	7.88644	7.41363	-5.33954	17.73483	26.02809	1.25018	0.79989	133.73276	141.81176	49.79518	0.34283	 	4543902.314	 	1.42661E-6	 	28915.81591	34.02132	 
1050.0	1.0	0.0	7.8889	7.41132	-5.369	17.71457	25.95149	1.24915	0.80055	134.17226	142.14597	49.96425	0.34268	 	4989437.762	 	1.29433E-6	 	28745.99684	33.96381	 
1045.0	1.0	0.0	7.89135	7.40902	-5.3984	17.69436	25.87487	1.24811	0.80121	134.61111	142.4789	50.13312	0.34254	 	5482547.615	 	1.17346E-6	 	28576.46472	33.90642	 
1040.0	1.0	0.0	7.8938	7.40673	-5.42772	17.6742	25.79825	1.24707	0.80188	135.0493	142.81055	50.30177	0.34239	 	6028717.226	 	1.0631E-6	 	28407.21894	33.84916	 
1035.0	1.0	0.0	7.89624	7.40443	-5.45698	17.6541	25.72163	1.24602	0.80256	135.48683	143.14093	50.47022	0.34225	 	6634110.322	 	9.62413E-7	 	28238.25891	33.792	 
1030.0	1.0	0.0	7.89868	7.40215	-5.48617	17.63406	25.645	1.24497	0.80323	135.92371	143.47004	50.63845	0.3421	 	7305658.495	 	8.70606E-7	 	28069.58404	33.73497	 
1025.0	1.0	0.0	7.90111	7.39987	-5.51529	17.61406	25.56837	1.24391	0.80392	136.35992	143.79788	50.80647	0.34195	 	8051163.243	 	7.86961E-7	 	27901.19371	33.67807	 
1020.0	1.0	0.0	7.90354	7.39759	-5.54434	17.59413	25.49173	1.24284	0.80461	136.79547	144.12446	50.97429	0.34181	 	8879412.394	 	7.10806E-7	 	27733.08734	33.62128	 
1015.0	1.0	0.0	7.90597	7.39532	-5.57333	17.57424	25.41508	1.24177	0.8053	137.23037	144.44978	51.14189	0.34166	 	9800313.092	 	6.41524E-7	 	27565.2643	33.56461	 
1010.0	1.0	0.0	7.90839	7.39306	-5.60224	17.55442	25.33843	1.24069	0.806	137.66461	144.77385	51.30928	0.34152	 	1.08250438E7	 	5.78541E-7	 	27397.72402	33.50806	 
1005.0	1.0	0.0	7.91081	7.3908	-5.63108	17.53466	25.26177	1.23961	0.80671	138.09818	145.09667	51.47646	0.34137	 	1.196622825E7	 	5.21328E-7	 	27230.46588	33.45163	 
1000.0	1.0	0.0	7.91322	7.38854	-5.65986	17.51495	25.18511	1.23852	0.80742	138.53111	145.41824	51.64343	0.34123	 	1.323813458E7	 	4.69396E-7	 	27063.48928	33.39532	 
995.98	1.0	0.0	7.91516	7.38674	-5.68296	17.49914	25.12344	1.23763	0.80799	138.87888	145.67602	51.77759	0.34111	 	1.43670526E7	 	4.31146E-7	 	26929.37243	 	 
995.0	1.0	0.0	7.91595	7.386	-5.69235	17.48083	25.10148	1.23776	0.80791	139.02255	145.77592	51.83329	0.34105	 	1.468729729E7	 	4.2142E-7	 	26874.9406	37.70974	 
990.0	1.0	0.0	7.91993	7.38228	-5.73982	17.38868	24.9912	1.23832	0.80754	139.74716	146.27968	52.11427	0.34078	 	1.644544753E7	 	3.74883E-7	 	26599.59558	55.06901	 
985.0	1.0	0.0	7.92385	7.37863	-5.78644	17.2989	24.88406	1.23873	0.80728	140.45578	146.77208	52.3891	0.34051	 	1.842476185E7	 	3.33286E-7	 	26329.08441	54.10223	 
980.0	1.0	0.0	7.92771	7.37505	-5.83222	17.21138	24.77969	1.23901	0.8071	141.14933	147.25375	52.65813	0.34024	 	2.06546369E7	 	2.96123E-7	 	26063.19544	53.17779	 
975.0	1.0	0.0	7.9315	7.37152	-5.87722	17.12603	24.67842	1.23913	0.80702	141.82868	147.72532	52.9217	0.33999	 	2.316861279E7	 	2.62938E-7	 	25801.72586	52.29392	 
970.0	1.0	0.0	7.93523	7.36806	-5.92147	17.04274	24.57861	1.23917	0.80699	142.49465	148.18733	53.18013	0.33974	 	2.600499087E7	 	2.33321E-7	 	25544.48169	51.44883	 
965.0	1.0	0.0	7.9389	7.36465	-5.96499	16.96141	24.48087	1.23912	0.80703	143.148	148.64033	53.4337	0.33949	 	2.920755009E7	 	2.06902E-7	 	25291.27768	50.6408	 
960.0	1.0	0.0	7.94252	7.36129	-6.00782	16.88197	24.38502	1.23896	0.80713	143.78945	149.08479	53.6827	0.33925	 	3.282637601E7	 	1.83349E-7	 	25041.93712	49.86811	 
955.0	1.0	0.0	7.94608	7.35799	-6.04999	16.80432	24.29093	1.23872	0.80728	144.41966	149.52118	53.92738	0.33902	 	3.691882297E7	 	1.62364E-7	 	24796.29169	49.12909	 
950.0	1.0	0.0	7.9496	7.35474	-6.09152	16.72838	24.19846	1.23839	0.8075	145.03927	149.94992	54.16799	0.33879	 	4.155063125E7	 	1.43678E-7	 	24554.18118	48.4221	 
945.0	1.0	0.0	7.95306	7.35153	-6.13245	16.65407	24.1075	1.23798	0.80777	145.64887	150.37143	54.40475	0.33857	 	4.679722517E7	 	1.27048E-7	 	24315.45325	47.74559	 
940.0	1.0	0.0	7.95648	7.34837	-6.17279	16.58131	24.01795	1.2375	0.80808	146.24901	150.78606	54.63788	0.33835	 	5.274522364E7	 	1.12258E-7	 	24079.96315	47.09802	 
935.0	1.0	0.0	7.95986	7.34526	-6.21257	16.51004	23.92971	1.23694	0.80845	146.84019	151.19416	54.86757	0.33813	 	5.949419947E7	 	9.91135E-8	 	23847.57341	46.47795	 
930.0	1.0	0.0	7.96319	7.34218	-6.25181	16.44019	23.84268	1.23632	0.80885	147.42291	151.59607	55.09401	0.33792	 	6.71587311E7	 	8.74388E-8	 	23618.15357	45.88397	 
925.0	1.0	0.0	7.96648	7.33915	-6.29054	16.37168	23.75679	1.23563	0.8093	147.99762	151.99209	55.31738	0.33771	 	7.587079668E7	 	7.70767E-8	 	23391.57981	45.31475	 
920.0	1.0	0.0	7.96973	7.33616	-6.32878	16.30447	23.67197	1.23489	0.80979	148.56472	152.3825	55.53784	0.33751	 	8.578257241E7	 	6.78864E-8	 	23167.73471	44.76902	 
915.0	1.0	0.0	7.97295	7.3332	-6.36654	16.23849	23.58813	1.23408	0.81032	149.12463	152.76756	55.75554	0.33731	 	9.706970511E7	 	5.97412E-8	 	22946.50688	44.24557	 
910.0	1.0	0.0	7.97612	7.33028	-6.40384	16.17368	23.50522	1.23322	0.81088	149.67771	153.14752	55.97063	0.33711	 	1.09935146E8	 	5.25279E-8	 	22727.7907	43.74324	 
905.0	1.0	0.0	7.97927	7.32739	-6.4407	16.10999	23.42317	1.23231	0.81148	150.2243	153.52262	56.18323	0.33691	 	1.246136451E8	 	4.61447E-8	 	22511.48601	43.26094	 
900.0	1.0	0.0	7.98237	7.32454	-6.47713	16.04738	23.34194	1.23135	0.81211	150.76473	153.89307	56.39348	0.33672	 	1.413770268E8	 	4.05006E-8	 	22297.49782	42.79764	 
895.0	1.0	0.0	7.98545	7.32172	-6.51316	15.98579	23.26147	1.23035	0.81278	151.2993	154.25908	56.60148	0.33653	 	1.605403891E8	 	3.55141E-8	 	22085.73602	42.35236	 
890.0	1.0	0.0	7.9885	7.31892	-6.5488	15.92518	23.18171	1.2293	0.81347	151.82829	154.62083	56.80736	0.33634	 	1.824693991E8	 	3.11123E-8	 	21876.11516	41.92417	 
885.0	1.0	0.0	7.99151	7.31616	-6.58405	15.8655	23.10262	1.2282	0.8142	152.35197	154.9785	57.01121	0.33616	 	2.075888846E8	 	2.723E-8	 	21668.55412	41.51221	 
880.0	1.0	0.0	7.9945	7.31343	-6.61894	15.80672	23.02416	1.22707	0.81495	152.8706	155.33226	57.21314	0.33597	 	2.36392964E8	 	2.38088E-8	 	21462.97592	41.11564	 
875.0	1.0	0.0	7.99745	7.31073	-6.65347	15.7488	22.94628	1.22589	0.81573	153.3844	155.68226	57.41322	0.33579	 	2.69457037E8	 	2.07968E-8	 	21259.30695	40.73379	 
870.0	1.0	0.0	8.00038	7.30805	-6.68766	15.69169	22.86896	1.22468	0.81654	153.89359	156.02865	57.61155	0.33561	 	3.074518979E8	 	1.81473E-8	 	21057.47846	40.3657	 
865.0	1.0	0.0	8.00329	7.3054	-6.72153	15.63537	22.79217	1.22343	0.81737	154.39837	156.37157	57.80821	0.33544	 	3.511605096E8	 	1.58191E-8	 	20857.42451	40.01079	 
860.0	1.0	0.0	8.00617	7.30277	-6.75507	15.57979	22.71586	1.22215	0.81823	154.89895	156.71115	58.00326	0.33526	 	4.014978515E8	 	1.3775E-8	 	20659.08246	39.66841	 
855.0	1.0	0.0	8.00902	7.30017	-6.7883	15.52493	22.64001	1.22083	0.81911	155.3955	157.0475	58.19679	0.33509	 	4.595344867E8	 	1.19822E-8	 	20462.3927	39.33795	 
850.0	1.0	0.0	8.01185	7.29759	-6.82123	15.47076	22.56459	1.21948	0.82002	155.8882	157.38074	58.38886	0.33491	 	5.265245606E8	 	1.04113E-8	 	20267.29853	39.01883	 
845.0	1.0	0.0	8.01413	7.29552	-6.84769	15.44523	22.49332	1.2179	0.82108	156.29243	157.65929	58.54622	0.33478	 	6.007846935E8	 	9.08381E-9	 	20111.91589	31.07653	 
840.0	1.0	0.0	8.0164	7.29345	-6.87409	15.4197	22.42203	1.21631	0.82216	156.69606	157.93677	58.70338	0.33464	 	6.863313578E8	 	7.91601E-9	 	19953.62158	31.65886	 
835.0	1.0	0.0	8.01867	7.29139	-6.90041	15.39417	22.35074	1.21471	0.82324	157.09907	158.21319	58.86034	0.33451	 	7.850016136E8	 	6.88993E-9	 	19795.58869	31.60658	 
830.0	1.0	0.0	8.02093	7.28933	-6.92666	15.36864	22.27945	1.2131	0.82434	157.50148	158.48856	59.01711	0.33437	 	8.989511172E8	 	5.98943E-9	 	19637.81658	31.55442	 
825.0	1.0	0.0	8.02318	7.28728	-6.95285	15.34312	22.20814	1.21148	0.82544	157.90326	158.76288	59.17367	0.33424	 	1.030712745E9	 	5.20009E-9	 	19480.30461	31.50239	 
820.0	1.0	0.0	8.02544	7.28523	-6.97897	15.31759	22.13683	1.20985	0.82655	158.30444	159.03615	59.33004	0.3341	 	1.183266622E9	 	4.50904E-9	 	19323.05217	31.45049	 
815.0	1.0	0.0	8.02769	7.28319	-7.00501	15.29207	22.06551	1.20821	0.82767	158.705	159.30838	59.48621	0.33396	 	1.360123896E9	 	3.90478E-9	 	19166.05859	31.39872	 
810.0	1.0	0.0	8.02993	7.28116	-7.03099	15.26655	21.99419	1.20655	0.82881	159.10495	159.57956	59.64219	0.33383	 	1.565427091E9	 	3.37709E-9	 	19009.32326	31.34707	 
805.0	1.0	0.0	8.03217	7.27913	-7.0569	15.24104	21.92285	1.20489	0.82995	159.50429	159.84971	59.79796	0.33369	 	1.804070513E9	 	2.91684E-9	 	18852.8455	31.29555	 
800.0	1.0	0.0	8.0344	7.27711	-7.08274	15.21552	21.85151	1.20322	0.8311	159.90302	160.11881	59.95353	0.33356	 	2.081844917E9	 	2.51593E-9	 	18696.62466	31.24417	 
795.0	1.0	0.0	8.03663	7.27509	-7.10851	15.19001	21.78016	1.20154	0.83227	160.30114	160.38688	60.10891	0.33342	 	2.405611594E9	 	2.16717E-9	 	18540.6601	31.19291	 
790.0	1.0	0.0	8.03885	7.27308	-7.13422	15.1645	21.70881	1.19984	0.83344	160.69864	160.65392	60.26409	0.33329	 	2.783512168E9	 	1.86418E-9	 	18384.95114	31.14179	 
785.0	1.0	0.0	8.04107	7.27107	-7.15985	15.13899	21.63744	1.19814	0.83463	161.09554	160.91993	60.41907	0.33315	 	3.225221847E9	 	1.60131E-9	 	18229.4971	31.09081	 
780.0	1.0	0.0	8.04329	7.26907	-7.18541	15.11348	21.56607	1.19642	0.83582	161.49182	161.18491	60.57385	0.33302	 	3.742255576E9	 	1.37355E-9	 	18074.29732	31.03996	 
775.0	1.0	0.0	8.0455	7.26707	-7.21091	15.08798	21.49469	1.1947	0.83703	161.88749	161.44887	60.72843	0.33288	 	4.348338751E9	 	1.17649E-9	 	17919.35109	30.98924	 
770.0	1.0	0.0	8.0477	7.26508	-7.23633	15.06247	21.4233	1.19296	0.83825	162.28255	161.71181	60.88281	0.33275	 	5.059856834E9	 	1.00623E-9	 	17764.65774	30.93867	 
765.0	1.0	0.0	8.0499	7.26309	-7.26169	15.03697	21.3519	1.19121	0.83948	162.67699	161.97373	61.037	0.33261	 	5.896401539E9	 	8.5933E-10	 	17610.21656	30.88824	 
760.0	1.0	0.0	8.0521	7.26111	-7.28698	15.01147	21.28049	1.18945	0.84072	163.07083	162.23464	61.19099	0.33247	 	6.881435445E9	 	7.32776E-10	 	17456.02684	30.83794	 
755.0	1.0	0.0	8.05429	7.25914	-7.3122	14.98598	21.20908	1.18768	0.84197	163.46406	162.49453	61.34477	0.33234	 	8.043102066E9	 	6.23907E-10	 	17302.08786	30.7878	 
750.0	1.0	0.0	8.05648	7.25717	-7.33735	14.96048	21.13765	1.1859	0.84324	163.85667	162.75341	61.49836	0.3322	 	9.415214898E9	 	5.30391E-10	 	17148.39888	30.7378	 
745.0	1.0	0.0	8.05866	7.2552	-7.36243	14.93499	21.06622	1.18411	0.84452	164.24868	163.01128	61.65175	0.33207	 	1.10385E10	 	4.50184E-10	 	16994.95917	30.68794	 
740.0	1.0	0.0	8.06083	7.25324	-7.38744	14.9095	20.99478	1.1823	0.84581	164.64007	163.26815	61.80494	0.33193	 	1.2961899999999998E10	 	3.81497E-10	 	16841.76797	30.63824	 
735.0	1.0	0.0	8.06301	7.25129	-7.41238	14.88401	20.92333	1.18049	0.84711	165.03085	163.52402	61.95794	0.3318	 	1.5244799999999998E10	 	3.22768E-10	 	16688.82452	30.58869	 
730.0	1.0	0.0	8.06517	7.24934	-7.43725	14.85852	20.85187	1.17866	0.84842	165.42103	163.77888	62.11073	0.33166	 	1.79587E10	 	2.72632E-10	 	16536.12803	30.5393	 
725.0	1.0	0.0	8.06733	7.2474	-7.46206	14.83303	20.7804	1.17681	0.84975	165.81059	164.03275	62.26333	0.33153	 	2.11906E10	 	2.299E-10	 	16383.67772	30.49006	 
720.0	1.0	0.0	8.06949	7.24546	-7.48679	14.80755	20.70892	1.17496	0.85109	166.19954	164.28562	62.41572	0.33139	 	2.5045799999999996E10	 	1.93538E-10	 	16231.47277	30.44099	 
715.0	1.0	0.0	8.07164	7.24353	-7.51146	14.78207	20.63743	1.1731	0.85245	166.58789	164.5375	62.56792	0.33126	 	2.9652399999999996E10	 	1.62648E-10	 	16079.51235	30.39208	 
710.0	1.0	0.0	8.07379	7.2416	-7.53606	14.75659	20.56593	1.17122	0.85381	166.97562	164.78839	62.71992	0.33112	 	3.51667E10	 	1.3645E-10	 	15927.79564	30.34334	 
705.0	1.0	0.0	8.07593	7.23968	-7.56059	14.73111	20.49442	1.16933	0.85519	167.36274	165.03829	62.87172	0.33099	 	4.17793E10	 	1.1427E-10	 	15776.32175	30.29478	 
700.0	1.0	0.0	8.07807	7.23777	-7.58505	14.70564	20.42291	1.16742	0.85659	167.74925	165.28721	63.02332	0.33085	 	4.972309999999999E10	 	9.5523E-11	 	15625.08981	30.24639	 
695.0	1.0	0.0	8.0802	7.23586	-7.60944	14.68016	20.35138	1.16551	0.858	168.13516	165.53515	63.17472	0.33072	 	5.928399999999999E10	 	7.97062E-11	 	15474.09891	30.19818	 
690.0	1.0	0.0	8.08233	7.23395	-7.63376	14.65469	20.27984	1.16358	0.85942	168.52045	165.78211	63.32592	0.33058	 	7.08123E10	 	6.63853E-11	 	15323.34813	30.15016	 
685.0	1.0	0.0	8.08445	7.23205	-7.65801	14.62922	20.20829	1.16164	0.86085	168.90513	166.02809	63.47692	0.33045	 	8.47395E10	 	5.51867E-11	 	15172.83651	30.10232	 
680.0	1.0	0.0	8.08657	7.23016	-7.6822	14.60376	20.13673	1.15968	0.86231	169.28921	166.27309	63.62773	0.33031	 	1.01597E11	 	4.57896E-11	 	15022.56307	30.05469	 
675.0	1.0	0.0	8.08868	7.22827	-7.70631	14.57829	20.06516	1.15771	0.86377	169.67267	166.51712	63.77833	0.33017	 	1.22041E11	 	3.7919E-11	 	14872.52681	30.00725	 
670.0	1.0	0.0	8.09079	7.22639	-7.73036	14.55283	19.99358	1.15573	0.86525	170.05553	166.76019	63.92874	0.33004	 	1.46885E11	 	3.13393E-11	 	14722.72666	29.96003	 
665.0	1.0	0.0	8.09289	7.22451	-7.75433	14.52736	19.92199	1.15373	0.86675	170.43778	167.00228	64.07894	0.3299	 	1.77136E11	 	2.58496E-11	 	14573.16158	29.91302	 
660.0	1.0	0.0	8.09499	7.22264	-7.77824	14.50191	19.85039	1.15172	0.86826	170.81942	167.24342	64.22895	0.32977	 	2.14045E11	 	2.12781E-11	 	14423.83216	29.86588	 
655.0	1.0	0.0	8.09709	7.22077	-7.80208	14.47645	19.77877	1.1497	0.86979	171.20044	167.48359	64.37876	0.32963	 	2.59174E11	 	1.74789E-11	 	14274.7476	29.81691	 
650.0	1.0	0.0	8.09917	7.21891	-7.82585	14.45099	19.70715	1.14766	0.87134	171.58086	167.7228	64.52836	0.3295	 	3.14468E11	 	1.43279E-11	 	14125.92017	29.76548	 
645.0	1.0	0.0	8.10126	7.21705	-7.84956	14.42554	19.63551	1.14561	0.8729	171.96067	167.96105	64.67777	0.32936	 	3.82363E11	 	1.17199E-11	 	13977.34926	29.71418	 
640.0	1.0	0.0	8.10334	7.2152	-7.87319	14.40009	19.56386	1.14355	0.87447	172.33988	168.19834	64.82698	0.32923	 	4.65914E11	 	9.56583E-12	 	13829.03419	29.66301	 
635.0	1.0	0.0	8.10541	7.21336	-7.89675	14.37464	19.4922	1.14147	0.87607	172.71847	168.43469	64.97599	0.32909	 	5.68959E11	 	7.79046E-12	 	13680.97431	29.61198	 
630.0	1.0	0.0	8.10748	7.21152	-7.92025	14.34919	19.42053	1.13937	0.87768	173.09646	168.67008	65.1248	0.32896	 	6.96333E11	 	6.33038E-12	 	13533.16899	29.56106	 
625.0	1.0	0.0	8.10954	7.20968	-7.94367	14.32374	19.34884	1.13726	0.87931	173.47383	168.90453	65.27341	0.32882	 	8.54141E11	 	5.13223E-12	 	13385.6173	29.51034	 
620.0	1.0	0.0	8.1116	7.20785	-7.96703	14.2983	19.27714	1.13514	0.88095	173.8506	169.13803	65.42182	0.32869	 	1.05011E12	 	4.15122E-12	 	13238.31788	29.45988	 
615.0	1.0	0.0	8.11365	7.20603	-7.99032	14.27286	19.20543	1.133	0.88262	174.22676	169.37059	65.57004	0.32855	 	1.29405E12	 	3.34982E-12	 	13091.27047	29.40948	 
610.0	1.0	0.0	8.1157	7.20421	-8.01354	14.24742	19.13371	1.13084	0.8843	174.60231	169.60221	65.71805	0.32842	 	1.59843E12	 	2.69666E-12	 	12944.47443	29.35921	 
605.0	1.0	0.0	8.11774	7.2024	-8.03669	14.22198	19.06197	1.12867	0.886	174.97725	169.83289	65.86586	0.32828	 	1.97917E12	 	2.16557E-12	 	12797.92916	29.30905	 
600.0	1.0	0.0	8.11978	7.20059	-8.05977	14.19654	18.99022	1.12648	0.88772	175.35159	170.06263	66.01347	0.32815	 	2.45659E12	 	1.73477E-12	 	12651.63402	29.25903	 
595.0	1.0	0.0	8.12181	7.19879	-8.08279	14.17111	18.91846	1.12428	0.88946	175.72532	170.29144	66.16089	0.32802	 	3.05678E12	 	1.38617E-12	 	12505.58841	29.20912	 
590.0	1.0	0.0	8.12384	7.19699	-8.10573	14.14568	18.84668	1.12206	0.89122	176.09843	170.51932	66.3081	0.32788	 	3.81325E12	 	1.10478E-12	 	12359.7917	29.15934	 
585.0	1.0	0.0	8.12586	7.1952	-8.12861	14.12025	18.77489	1.11983	0.89299	176.47095	170.74627	66.45511	0.32775	 	4.76921E12	 	8.78221E-13	 	12214.2433	29.10968	 
580.0	1.0	0.0	8.12788	7.19341	-8.15142	14.09482	18.70309	1.11758	0.89479	176.84285	170.97229	66.60193	0.32761	 	5.98047E12	 	6.96269E-13	 	12068.94257	29.06014	 
575.0	1.0	0.0	8.12989	7.19163	-8.17415	14.06939	18.63127	1.11531	0.89661	177.21414	171.19739	66.74854	0.32748	 	7.5194E12	 	5.50524E-13	 	11923.88894	29.01073	 
570.0	1.0	0.0	8.1319	7.18985	-8.19682	14.04397	18.55944	1.11303	0.89845	177.58483	171.42157	66.89495	0.32734	 	9.48005E12	 	4.34091E-13	 	11779.08178	28.96143	 
565.0	1.0	0.0	8.1339	7.18808	-8.21942	14.01855	18.48759	1.11073	0.90031	177.95491	171.64483	67.04117	0.32721	 	1.1985E13	 	3.41326E-13	 	11634.52051	28.91225	 
560.0	1.0	0.0	8.1359	7.18632	-8.24196	13.99313	18.41573	1.10841	0.90219	178.32438	171.86717	67.18718	0.32707	 	1.51946E13	 	2.67621E-13	 	11490.20453	28.8632	 
555.0	1.0	0.0	8.13789	7.18456	-8.26442	13.96771	18.34385	1.10607	0.9041	178.69325	172.08859	67.33299	0.32694	 	1.9319E13	 	2.09224E-13	 	11346.13325	28.81426	 
550.0	1.0	0.0	8.13988	7.18281	-8.28682	13.94229	18.27196	1.10372	0.90602	179.06151	172.30911	67.47861	0.3268	 	2.46346E13	 	1.63087E-13	 	11202.30608	28.76543	 
545.0	1.0	0.0	8.14186	7.18106	-8.30914	13.91688	18.20005	1.10135	0.90797	179.42916	172.52871	67.62402	0.32667	 	3.15063E13	 	1.26743E-13	 	11058.72243	28.71673	 
540.0	1.0	0.0	8.14384	7.17931	-8.3314	13.89147	18.12813	1.09896	0.90995	179.7962	172.7474	67.76923	0.32653	 	4.04169E13	 	9.81961E-14	 	10915.38173	28.66814	 
535.0	1.0	0.0	8.14581	7.17758	-8.35359	13.86606	18.05619	1.09656	0.91194	180.16263	172.96519	67.91424	0.3264	 	5.20077E13	 	7.58422E-14	 	10772.2834	28.61967	 
530.0	1.0	0.0	8.14778	7.17584	-8.37571	13.84065	17.98424	1.09413	0.91396	180.52846	173.18207	68.05906	0.32626	 	6.71329E13	 	5.83913E-14	 	10629.42687	28.57131	 
525.0	1.0	0.0	8.14974	7.17412	-8.39776	13.81524	17.91226	1.09169	0.91601	180.89368	173.39806	68.20367	0.32613	 	8.69345E13	 	4.48104E-14	 	10486.81156	28.52306	 
520.0	1.0	0.0	8.1517	7.1724	-8.41974	13.78984	17.84027	1.08923	0.91808	181.2583	173.61314	68.34808	0.32599	 	1.12944E14	 	3.4275E-14	 	10344.43691	28.47493	 
515.0	1.0	0.0	8.15365	7.17068	-8.44166	13.76444	17.76827	1.08675	0.92017	181.6223	173.82732	68.49229	0.32586	 	1.47224E14	 	2.61286E-14	 	10202.30237	28.42691	 
510.0	1.0	0.0	8.15559	7.16897	-8.4635	13.73904	17.69624	1.08425	0.9223	181.98571	174.04061	68.6363	0.32572	 	1.92559E14	 	1.98504E-14	 	10060.40738	28.379	 
505.0	1.0	0.0	8.15753	7.16726	-8.48528	13.71364	17.6242	1.08173	0.92444	182.3485	174.25301	68.78011	0.32559	 	2.5272399999999997E14	 	1.50281E-14	 	9918.75139	28.3312	 
500.0	1.0	0.0	8.15947	7.16556	-8.50699	13.68824	17.55215	1.07919	0.92662	182.71068	174.46452	68.92372	0.32546	 	3.32856E14	 	1.13369E-14	 	9777.33384	28.28351	 
495.0	1.0	0.0	8.1614	7.16387	-8.52863	13.66285	17.48007	1.07664	0.92882	183.07226	174.67514	69.06713	0.32532	 	4.3997E14	 	8.52138E-15	 	9636.15421	28.23592	 
490.0	1.0	0.0	8.16333	7.16218	-8.5502	13.63746	17.40797	1.07406	0.93105	183.43324	174.88487	69.21034	0.32519	 	5.83684E14	 	6.38145E-15	 	9495.21195	28.18845	 
485.0	1.0	0.0	8.16525	7.16049	-8.5717	13.61207	17.33586	1.07146	0.93331	183.7936	175.09372	69.35335	0.32505	 	7.77233E14	 	4.76092E-15	 	9354.50655	28.14108	 
480.0	1.0	0.0	8.16716	7.15882	-8.59313	13.58668	17.26373	1.06884	0.93559	184.15336	175.30169	69.49615	0.32492	 	1.03891E15	 	3.53827E-15	 	9214.03745	28.09382	 
475.0	1.0	0.0	8.16907	7.15714	-8.6145	13.56129	17.19157	1.0662	0.93791	184.51252	175.50877	69.63876	0.32478	 	1.39408E15	 	2.61932E-15	 	9073.80416	28.04666	 
470.0	1.0	0.0	8.17097	7.15547	-8.6358	13.53591	17.1194	1.06354	0.94026	184.87106	175.71498	69.78116	0.32465	 	1.87808E15	 	1.93129E-15	 	8933.80615	27.9996	 
465.0	1.0	0.0	8.17287	7.15381	-8.65702	13.51052	17.04721	1.06086	0.94263	185.229	175.92032	69.92337	0.32451	 	2.54037E15	 	1.41819E-15	 	8794.04292	27.95265	 
460.0	1.0	0.0	8.17477	7.15216	-8.67818	13.48514	16.975	1.05815	0.94504	185.58634	176.12478	70.06537	0.32438	 	3.45038E15	 	1.03708E-15	 	8654.51396	27.90579	 
455.0	1.0	0.0	8.17665	7.1505	-8.69927	13.45976	16.90276	1.05543	0.94748	185.94307	176.32837	70.20718	0.32425	 	4.70613E15	 	7.55168E-16	 	8515.21878	27.85903	 
450.0	1.0	0.0	8.17854	7.14886	-8.7203	13.43439	16.83051	1.05268	0.94995	186.29919	176.53109	70.34878	0.32411	 	6.44652E15	 	5.47507E-16	 	8376.15689	27.81238	 
445.0	1.0	0.0	8.18042	7.14722	-8.74125	13.40901	16.75823	1.04991	0.95246	186.6547	176.73294	70.49018	0.32398	 	8.8693E15	 	3.95196E-16	 	8237.3278	27.76582	 
440.0	1.0	0.0	8.18229	7.14558	-8.76214	13.38364	16.68594	1.04712	0.955	187.00961	176.93393	70.63138	0.32384	 	1.22573E16	 	2.83969E-16	 	8098.73105	27.71935	 
435.0	1.0	0.0	8.18416	7.14395	-8.78295	13.35827	16.61362	1.0443	0.95758	187.36392	177.13405	70.77237	0.32371	 	1.7017200000000002E16	 	2.03107E-16	 	7960.36616	27.67298	 
430.0	1.0	0.0	8.18602	7.14232	-8.8037	13.3329	16.54128	1.04147	0.96019	187.71761	177.33332	70.91317	0.32357	 	2.37359E16	 	1.44587E-16	 	7822.23267	27.6267	 
425.0	1.0	0.0	8.18787	7.14071	-8.82438	13.30753	16.46891	1.0386	0.96283	188.0707	177.53172	71.05377	0.32344	 	3.3265400000000004E16	 	1.02434E-16	 	7684.33014	27.58051	 
420.0	1.0	0.0	8.18973	7.13909	-8.84499	13.28217	16.39652	1.03572	0.96551	188.42319	177.72927	71.19416	0.32331	 	4.68485E16	 	7.22135E-17	 	7546.65811	27.53441	 
415.0	1.0	0.0	8.19157	7.13748	-8.86553	13.25681	16.32411	1.03281	0.96823	188.77507	177.92597	71.33435	0.32317	 	6.6306900000000008E16	 	5.06537E-17	 	7409.21622	27.48838	 
410.0	1.0	0.0	8.19341	7.13588	-8.88601	13.23145	16.25167	1.02987	0.97099	189.12634	178.12181	71.47435	0.32304	 	9.43258E16	 	3.53486E-17	 	7272.0042	27.4424	 
405.0	1.0	0.0	8.19525	7.13428	-8.90641	13.20609	16.17921	1.02692	0.97379	189.47701	178.3168	71.61414	0.3229	 	1.34884E17	 	2.45388E-17	 	7135.02177	27.39649	 
400.0	1.0	0.0	8.19708	7.13269	-8.92675	13.18073	16.10672	1.02393	0.97663	189.82707	178.51095	71.75373	0.32277	 	1.93908E17	 	1.69435E-17	 	6998.26864	27.35062	 
395.0	1.0	0.0	8.1989	7.1311	-8.94702	13.15538	16.03421	1.02092	0.97951	190.17653	178.70424	71.89311	0.32263	 	2.8028E17	 	1.16351E-17	 	6861.74458	27.30481	 
390.0	1.0	0.0	8.20072	7.12952	-8.96722	13.13002	15.96167	1.01789	0.98243	190.52538	178.89669	72.0323	0.3225	 	4.0738E17	 	7.94509E-18	 	6725.44933	27.25905	 
385.0	1.0	0.0	8.20254	7.12794	-8.98735	13.10467	15.88911	1.01483	0.98539	190.87362	179.08831	72.17128	0.32237	 	5.95492E17	 	5.39431E-18	 	6589.38265	27.21334	 
380.0	1.0	0.0	8.20434	7.12637	-9.00742	13.07932	15.81652	1.01174	0.9884	191.22126	179.27908	72.31006	0.32223	 	8.75541E17	 	3.64102E-18	 	6453.5443	27.16767	 
375.0	1.0	0.0	8.20615	7.1248	-9.02741	13.05398	15.7439	1.00862	0.99145	191.56829	179.46901	72.44865	0.3221	 	1.29497E18	 	2.44288E-18	 	6317.93407	27.12205	 
370.0	1.0	0.0	8.20795	7.12324	-9.04734	13.02863	15.67125	1.00548	0.99455	191.91472	179.6581	72.58702	0.32196	 	1.92702E18	 	1.62897E-18	 	6182.55176	27.07646	 
365.0	1.0	0.0	8.20974	7.12169	-9.06719	13.00329	15.59857	1.00231	0.99769	192.26055	179.84636	72.7252	0.32183	 	2.88547E18	 	1.07943E-18	 	6047.39715	27.03092	 
360.0	1.0	0.0	8.21152	7.12014	-9.08698	12.97795	15.52587	0.99912	1.00088	192.60576	180.03379	72.86318	0.32169	 	4.34827E18	 	7.10684E-19	 	5912.47009	26.98541	 
355.0	1.0	0.0	8.21331	7.11859	-9.10671	12.95261	15.45313	0.99589	1.00412	192.95037	180.22039	73.00095	0.32156	 	6.59557E18	 	4.64834E-19	 	5777.77039	26.93994	 
350.0	1.0	0.0	8.21508	7.11705	-9.12636	12.92727	15.38037	0.99264	1.00741	193.29438	180.40616	73.13852	0.32143	 	1.00714E19	 	3.01986E-19	 	5643.29789	26.8945	 
345.0	1.0	0.0	8.21685	7.11552	-9.14594	12.90194	15.30757	0.98936	1.01076	193.63778	180.5911	73.27589	0.32129	 	1.54848E19	 	1.94839E-19	 	5509.05245	26.84909	 
340.0	1.0	0.0	8.21862	7.11399	-9.16546	12.8766	15.23474	0.98605	1.01415	193.98058	180.77522	73.41306	0.32116	 	2.39754E19	 	1.24821E-19	 	5375.03395	26.8037	 
335.0	1.0	0.0	8.22038	7.11247	-9.18491	12.85127	15.16188	0.98271	1.0176	194.32277	180.95852	73.55002	0.32102	 	3.73893E19	 	7.93872E-20	 	5241.24226	26.75834	 
330.0	1.0	0.0	8.22213	7.11095	-9.20429	12.82594	15.08899	0.97934	1.0211	194.66436	181.14099	73.68678	0.32089	 	5.87393E19	 	5.01168E-20	 	5107.67729	26.71299	 
325.0	1.0	0.0	8.22388	7.10944	-9.2236	12.80062	15.01606	0.97593	1.02466	195.00534	181.32265	73.82334	0.32076	 	9.29801E19	 	3.13984E-20	 	4974.33896	26.66767	 
320.0	1.0	0.0	8.22563	7.10793	-9.24284	12.77529	14.94309	0.9725	1.02828	195.34571	181.50349	73.9597	0.32062	 	1.48325E20	 	1.95181E-20	 	4841.22718	26.62236	 
315.0	1.0	0.0	8.22736	7.10643	-9.26202	12.74997	14.8701	0.96904	1.03195	195.68548	181.68351	74.09586	0.32049	 	2.3849899999999997E20	 	1.20362E-20	 	4708.34192	26.57705	 
310.0	1.0	0.0	8.2291	7.10493	-9.28112	12.72465	14.79706	0.96554	1.03569	196.02465	181.86273	74.23181	0.32035	 	3.8663099999999997E20	 	7.36157E-21	 	4575.68315	26.53175	 
305.0	1.0	0.0	8.23082	7.10344	-9.30016	12.69933	14.72399	0.96201	1.03949	196.36321	182.04113	74.36756	0.32022	 	6.320259999999999E20	 	4.4647E-21	 	4443.25084	26.48646	 
300.0	1.0	0.0	8.23255	7.10196	-9.31913	12.67401	14.65088	0.95845	1.04335	196.70117	182.21872	74.50311	0.32009	 	1.0420700000000001E21	 	2.68446E-21	 	4311.04501	26.44117	 
295.0	1.0	0.0	8.23426	7.10048	-9.33803	12.64869	14.57774	0.95486	1.04728	197.03852	182.39551	74.63846	0.31995	 	1.7333400000000001E21	 	1.5998E-21	 	4179.06569	26.39586	 
290.0	1.0	0.0	8.23597	7.099	-9.35686	12.62338	14.50455	0.95123	1.05127	197.37527	182.57148	74.7736	0.31982	 	2.9093200000000003E21	 	9.44754E-22	 	4047.31292	26.35055	 
285.0	1.0	0.0	8.23768	7.09753	-9.37563	12.59807	14.43133	0.94757	1.05533	197.71141	182.74666	74.90854	0.31969	 	4.92868E21	 	5.52722E-22	 	3915.78677	26.30523	 
280.0	1.0	0.0	8.23938	7.09607	-9.39432	12.57276	14.35806	0.94387	1.05947	198.04695	182.92104	75.04328	0.31955	 	8.42962E21	 	3.20274E-22	 	3784.48735	26.25988	 
275.0	1.0	0.0	8.24107	7.09461	-9.41295	12.54745	14.28475	0.94014	1.06367	198.38188	183.09461	75.17781	0.31942	 	1.4559199999999999E22	 	1.83759E-22	 	3653.41475	26.21452	 
270.0	1.0	0.0	8.24276	7.09316	-9.43151	12.52215	14.2114	0.93637	1.06795	198.71621	183.26739	75.31215	0.31928	 	2.5400199999999997E22	 	1.04369E-22	 	3522.56914	26.16912	 
265.0	1.0	0.0	8.24445	7.09171	-9.45	12.49684	14.138	0.93257	1.07231	199.04993	183.43937	75.44628	0.31915	 	4.477409999999999E22	 	5.86628E-23	 	3391.95067	26.12369	 
260.0	1.0	0.0	8.24612	7.09026	-9.46843	12.47154	14.06456	0.92873	1.07674	199.38305	183.61056	75.5802	0.31902	 	7.97692E22	 	3.26213E-23	 	3261.55956	26.07822	 
255.0	1.0	0.0	8.24779	7.08883	-9.48678	12.44624	13.99107	0.92485	1.08125	199.71556	183.78095	75.71393	0.31888	 	1.4367899999999999E23	 	1.79412E-23	 	3131.39601	26.03271	 
250.0	1.0	0.0	8.24946	7.0874	-9.50507	12.42095	13.91753	0.92094	1.08585	200.04747	183.95055	75.84745	0.31875	 	2.6171799999999997E23	 	9.75617E-24	 	3001.4603	25.98714	 
245.0	1.0	0.0	8.25112	7.08597	-9.52329	12.39565	13.84395	0.91698	1.09053	200.37878	184.11937	75.98076	0.31862	 	4.82283E23	 	5.24373E-24	 	2871.7527	25.94152	 
240.0	1.0	0.0	8.25278	7.08455	-9.54144	12.37036	13.77031	0.91299	1.0953	200.70948	184.2874	76.11388	0.31848	 	8.993799999999999E23	 	2.78476E-24	 	2742.27356	25.89583	 
235.0	1.0	0.0	8.25443	7.08313	-9.55952	12.34507	13.69663	0.90896	1.10016	201.03957	184.45464	76.24679	0.31835	 	1.6979E24	 	1.46072E-24	 	2613.02322	25.85007	 
230.0	1.0	0.0	8.25607	7.08172	-9.57753	12.31978	13.62289	0.90489	1.10511	201.36907	184.6211	76.3795	0.31821	 	3.24611E24	 	7.56521E-25	 	2484.00208	25.80423	 
225.0	1.0	0.0	8.25771	7.08031	-9.59548	12.29449	13.5491	0.90077	1.11016	201.69795	184.78678	76.512	0.31808	 	6.287320000000001E24	 	3.86707E-25	 	2355.21057	25.7583	 
220.0	1.0	0.0	8.25934	7.07891	-9.61336	12.2692	13.47525	0.89662	1.1153	202.02624	184.95168	76.6443	0.31795	 	1.23421E25	 	1.95019E-25	 	2226.64916	25.71228	 
215.0	1.0	0.0	8.26097	7.07752	-9.63117	12.24392	13.40135	0.89242	1.12054	202.35392	185.11581	76.7764	0.31781	 	2.45648E25	 	9.69898E-26	 	2098.31839	25.66616	 
210.0	1.0	0.0	8.26259	7.07613	-9.64891	12.21864	13.32739	0.88818	1.12589	202.68099	185.27915	76.9083	0.31768	 	4.9593600000000005E25	 	4.75492E-26	 	1970.2188	25.61992	 
205.0	1.0	0.0	8.26421	7.07475	-9.66658	12.19336	13.25337	0.8839	1.13135	203.00746	185.44172	77.03999	0.31755	 	1.0160600000000001E26	 	2.29685E-26	 	1842.351	25.57356	 
200.0	1.0	0.0	8.26582	7.07337	-9.68418	12.16808	13.17928	0.87958	1.13691	203.33333	185.60352	77.17148	0.31741	 	2.1134600000000002E26	 	1.09267E-26	 	1714.71566	25.52707	 
195.0	1.0	0.0	8.26743	7.07199	-9.70172	12.1428	13.10514	0.8752	1.14259	203.65859	185.76455	77.30276	0.31728	 	4.46545E26	 	5.11689E-27	 	1587.31348	25.48044	 
190.0	1.0	0.0	8.26903	7.07063	-9.71919	12.11753	13.03093	0.87079	1.14839	203.98325	185.92481	77.43384	0.31715	 	9.58849E26	 	2.35754E-27	 	1460.14523	25.43365	 
185.0	1.0	0.0	8.27062	7.06926	-9.73659	12.09226	12.95665	0.86633	1.1543	204.3073	186.08431	77.56472	0.31701	 	2.0935299999999998E27	 	1.06811E-27	 	1333.21175	25.3867	 
180.0	1.0	0.0	8.27221	7.06791	-9.75392	12.06699	12.8823	0.86182	1.16034	204.63075	186.24303	77.69539	0.31688	 	4.6504199999999995E27	 	4.75595E-28	 	1206.5139	25.33957	 
175.0	1.0	0.0	8.27379	7.06655	-9.77119	12.04172	12.80789	0.85726	1.16651	204.9536	186.401	77.82586	0.31674	 	1.05157E28	 	2.08004E-28	 	1080.05265	25.29225	 
170.0	1.0	0.0	8.27537	7.06521	-9.78838	12.01646	12.7334	0.85265	1.17281	205.27584	186.5582	77.95612	0.31661	 	2.42204E28	 	8.93008E-29	 	953.829	25.24473	 
165.0	1.0	0.0	8.27694	7.06386	-9.80551	11.99119	12.65883	0.848	1.17925	205.59748	186.71464	78.08618	0.31648	 	5.68584E28	 	3.7611E-29	 	827.84406	25.19699	 
160.0	1.0	0.0	8.27851	7.06253	-9.82257	11.96593	12.58419	0.84329	1.18583	205.91852	186.87033	78.21604	0.31634	 	1.3613300000000001E29	 	1.55296E-29	 	702.09899	25.14901	 
155.0	1.0	0.0	8.28007	7.0612	-9.83956	11.94067	12.50946	0.83854	1.19255	206.23895	187.02525	78.34569	0.31621	 	3.32651E29	 	6.28194E-30	 	576.59504	25.10079	 
150.0	1.0	0.0	8.28162	7.05987	-9.85649	11.91541	12.43466	0.83373	1.19943	206.55878	187.17943	78.47514	0.31608	 	8.30203E29	 	2.48769E-30	 	451.33354	25.0523	 
145.0	1.0	0.0	8.28317	7.05855	-9.87334	11.89016	12.35977	0.82887	1.20646	206.878	187.33285	78.60439	0.31594	 	2.11777E30	 	9.63697E-31	 	326.31592	25.00352	 
140.0	1.0	0.0	8.28471	7.05724	-9.89013	11.8649	12.28479	0.82396	1.21365	207.19662	187.48552	78.73343	0.31581	 	5.52606E30	 	3.64904E-31	 	201.54369	24.95445	 
135.0	1.0	0.0	8.28625	7.05593	-9.90685	11.83965	12.20972	0.81899	1.22101	207.51464	187.63743	78.86226	0.31568	 	1.47625E31	 	1.34942E-31	 	77.01848	24.90504	 
130.0	1.0	0.0	8.28778	7.05462	-9.9235	11.8144	12.13456	0.81397	1.22855	207.83205	187.7886	78.9909	0.31554	 	4.0409899999999997E31	 	4.86929E-32	 	-47.25798	24.85529	 
125.0	1.0	0.0	8.28931	7.05333	-9.94009	11.78915	12.0593	0.80889	1.23626	208.14886	187.93903	79.11932	0.31541	 	1.13449E32	 	1.71291E-32	 	-171.28384	24.80517	 
120.0	1.0	0.0	8.29083	7.05203	-9.9566	11.76391	11.98394	0.80376	1.24416	208.46506	188.08871	79.24755	0.31528	 	3.26976E32	 	5.86853E-33	 	-295.05715	24.75466	 
115.0	1.0	0.0	8.29234	7.05074	-9.97305	11.73866	11.90848	0.79856	1.25225	208.78066	188.23764	79.37557	0.31514	 	9.68444E32	 	1.95619E-33	 	-418.57578	24.70373	 
110.0	1.0	0.0	8.29385	7.04946	-9.98943	11.71342	11.83291	0.79331	1.26054	209.09566	188.38584	79.50338	0.31501	 	2.95081E33	 	6.33744E-34	 	-541.83752	24.65235	 
105.0	1.0	0.0	8.29536	7.04818	-10.00574	11.68818	11.75723	0.788	1.26904	209.41006	188.53329	79.63099	0.31488	 	9.25984E33	 	1.99318E-34	 	-664.83998	24.60049	 
100.0	1.0	0.0	8.29685	7.04691	-10.02198	11.66294	11.68143	0.78262	1.27775	209.72385	188.68001	79.75839	0.31474	 	2.99624E34	 	6.07847E-35	 	-787.58061	24.54813	 
95.0	1.0	0.0	8.29835	7.04564	-10.03816	11.6377	11.60551	0.77719	1.28669	210.03704	188.82599	79.88559	0.31461	 	1.00092E35	 	1.79519E-35	 	-910.05672	24.49522	 
90.0	1.0	0.0	8.29983	7.04438	-10.05427	11.61247	11.52947	0.77169	1.29586	210.34962	188.97124	80.01259	0.31448	 	3.4566E35	 	5.1277E-36	 	-1032.26539	24.44173	 
85.0	1.0	0.0	8.30131	7.04313	-10.07031	11.58724	11.4533	0.76613	1.30527	210.66161	189.11575	80.13938	0.31435	 	1.2357399999999999E36	 	1.41457E-36	 	-1154.20354	24.38763	 
80.0	1.0	0.0	8.30279	7.04188	-10.08628	11.56201	11.377	0.7605	1.31493	210.97298	189.25954	80.26597	0.31421	 	4.5800699999999996E36	 	3.76334E-37	 	-1275.86791	24.33287	 
75.0	1.0	0.0	8.30426	7.04063	-10.10218	11.53678	11.30056	0.7548	1.32485	211.28376	189.40259	80.39235	0.31408	 	1.76262E37	 	9.64039E-38	 	-1397.25496	24.27741	 
70.0	1.0	0.0	8.30572	7.03939	-10.11802	11.51155	11.22397	0.74904	1.33505	211.59327	189.54432	80.51827	0.31395	 	7.055069999999999E37	 	2.37394E-38	 	-1518.36097	24.2212	 
65.0	1.0	0.0	8.30718	7.03816	-10.13378	11.48633	11.14723	0.7432	1.34552	211.90282	189.68591	80.64424	0.31381	 	2.9420999999999997E38	 	5.60969E-39	 	-1639.18191	24.16419	 
60.0	1.0	0.0	8.30863	7.03693	-10.14948	11.46111	11.07034	0.7373	1.3563	212.21177	189.82676	80.77	0.31368	 	1.2806400000000002E39	 	1.26969E-39	 	-1759.71352	24.10632	 
55.0	1.0	0.0	8.31007	7.0357	-10.16512	11.43588	10.99328	0.73133	1.36738	212.52011	189.9669	80.89555	0.31355	 	5.829940000000001E39	 	2.74723E-40	 	-1879.95124	24.04754	 
50.0	1.0	0.0	8.31151	7.03448	-10.18068	11.41067	10.91605	0.72528	1.37878	212.82785	190.10631	81.0209	0.31341	 	2.78144E40	 	5.67049E-41	 	-1999.89016	23.98778	 
45.0	1.0	0.0	8.31295	7.03327	-10.19618	11.38545	10.83865	0.71916	1.39052	213.13499	190.245	81.14604	0.31328	 	1.3938200000000001E41	 	1.11407E-41	 	-2119.52508	23.92698	 
40.0	1.0	0.0	8.31438	7.03206	-10.2116	11.36024	10.76105	0.71296	1.40261	213.44153	190.38298	81.27098	0.31315	 	7.35348E41	 	2.07848E-42	 	-2238.8504	23.86506	 
35.0	1.0	0.0	8.3158	7.03086	-10.22696	11.33502	10.68327	0.70668	1.41506	213.74746	190.52024	81.39571	0.31301	 	4.09467E42	 	3.67307E-43	 	-2357.8601	23.80194	 
30.0	1.0	0.0	8.31722	7.02966	-10.24226	11.30982	10.60527	0.70033	1.4279	214.05279	190.65678	81.52024	0.31288	 	2.41293E43	 	6.13196E-44	 	-2476.54778	23.73754	 
25.0	1.0	0.0	8.31863	7.02847	-10.25748	 	10.52707	0.69389	1.44114	214.35751	190.79261	81.64456	0.31275	 	1.5090600000000001E44	 	9.64304E-45	 	-2594.90653	 	 
