T (C)	Fraction solid (wt)-TOTAL	Fraction liquid (wt)-LIQUID	Density (g/(cm)^3)-TOTAL	Molar volume (cm^3)-TOTAL	Volume change (%)-  	Average expansion coeff. (10e-6 1/K)-  	Thermal conductivity (W/(m*K))-TOTAL	Electrical resistivity (10e-6 Ohm*m)-TOTAL	Electrical conductivity (10e6 1/(Ohm*m))-TOTAL	Young's modulus (GPa)-TOTAL	Bulk modulus (GPa)-TOTAL	Shear modulus(GPa)-TOTAL	Poisson's ratio-TOTAL	Liquid viscosity (mPa s)-  	Total viscosity (mPa s)-  	Liquid diffusivity (10e-9 (m^2)/s)-  	Total diffusivity (10e-9 (m^2)/s)-  	Surface Tension (mN/m)-  	Enthalpy (J/mole)-TOTAL	Specific heat (J/(mole K))-TOTAL	Latent heat (J/mole)-TOTAL
1400.0	0.0	1.0	7.48504	7.74035	0.0	27.9667	30.60934	1.3392	0.74671	0.0	128.72295	0.0	0.5	7.30132	7.30132	1.11846	1.11846	1773.73098	59425.172	 	0.0
1395.0	0.0	1.0	7.489	7.73625	-0.0529706	27.92501	30.52533	1.33888	0.74689	0.0	128.88496	0.0	0.5	7.37963	7.37963	1.10328	1.10328	1776.11426	59220.112	41.012	0.0
1390.0	0.0	1.0	7.49296	7.73216	-0.10578	27.88345	30.44133	1.33855	0.74708	0.0	129.04697	0.0	0.5	7.45927	7.45927	1.08823	1.08823	1778.50917	59015.527	40.917	0.0
1385.0	0.0	1.0	7.49691	7.72808	-0.15844	27.84201	30.35732	1.33822	0.74726	0.0	129.20898	0.0	0.5	7.54025	7.54025	1.07331	1.07331	1780.91548	58811.414	40.8226	0.0
1380.0	0.0	1.0	7.50086	7.72402	-0.21094	27.8007	30.27332	1.33788	0.74745	0.0	129.37099	0.0	0.5	7.6226	7.6226	1.05851	1.05851	1783.33297	58607.772	40.7284	0.0
1375.0	0.0	1.0	7.5048	7.71997	-0.26329	27.7595	30.18931	1.33755	0.74764	0.0	129.533	0.0	0.5	7.70637	7.70637	1.04384	1.04384	1785.76143	58404.597	40.635	0.0
1370.0	0.0	1.0	7.50872	7.71593	-0.31548	27.71844	30.10531	1.33721	0.74782	0.0	129.69501	0.0	0.5	7.79157	7.79157	1.02929	1.02929	1788.20061	58201.887	40.542	0.0
1365.0	0.0	1.0	7.51265	7.7119	-0.36751	27.6775	30.02131	1.33687	0.74801	0.0	129.85702	0.0	0.5	7.87824	7.87824	1.01487	1.01487	1790.65027	57999.639	40.4496	0.0
1360.0	0.0	1.0	7.51656	7.70789	-0.41939	27.63669	29.9373	1.33653	0.7482	0.0	130.01903	0.0	0.5	7.96642	7.96642	1.00058	1.00058	1793.11014	57797.852	40.3574	0.0
1359.71	0.0	1.0	7.51679	7.70765	-0.42244	27.63429	29.93235	1.33651	0.74822	0.0	130.02858	0.0	0.5	7.97166	7.97166	0.99974	0.99974	1793.25549	57785.966	40.31613	0.0020
1355.0	0.15194	0.84806	7.55437	7.66924	-0.91869	26.34484	30.41361	1.31157	0.76244	0.054998	130.35346	0.0185982	0.47858	8.10333	36.68369	0.98066	0.21662	1792.15115	55158.974	558.31913	2437.551
1350.0	0.28063	0.71937	7.58679	7.63649	-1.34178	25.25708	30.81973	1.29032	0.775	0.65303	130.70549	0.22361	0.46022	8.24492	343.54234	0.96086	0.0230603	1791.0893	52909.527	449.8894	4486.124
1345.0	0.38366	0.61634	7.61328	7.60991	-1.6851	24.38576	31.1423	1.27302	0.78554	2.31975	131.06622	0.80249	0.44535	8.38833	1246.92859	0.94152	0.00633379	1790.14047	51083.436	365.2182	6111.795
1340.0	0.46732	0.53268	7.63528	7.58798	-1.96853	23.67716	31.40016	1.25866	0.79449	5.17986	131.43587	1.80716	0.43315	8.53366	2905.84128	0.92263	0.0027095	1789.3014	49575.917	301.5038	7419.342
1335.0	0.5361	0.4639	7.65382	7.56953	-2.20682	23.09125	31.60596	1.24659	0.80219	9.08449	131.8138	3.19195	0.42303	8.68109	5349.81437	0.90415	0.00146715	1788.56824	48312.087	252.766	8483.651
1330.0	0.59328	0.40672	7.66967	7.55388	-2.40903	22.60362	31.76953	1.23632	0.80885	13.77686	132.20049	4.8697	0.41455	8.83064	8542.30261	0.88607	9.1598E-4	1787.93632	47237.42	214.9334	9359.243
1325.0	0.64128	0.35872	7.68337	7.54033	-2.58404	22.19006	31.8978	1.2275	0.81466	18.99239	132.59336	6.74749	0.40737	8.98242	12423.62771	0.86838	6.2785E-4	1787.40125	46311.537	185.1766	10086.493
1320.0	0.68191	0.31809	7.69536	7.52851	-2.73686	21.83699	31.9968	1.21988	0.81975	24.50292	132.99226	8.74331	0.40124	9.13655	16935.62362	0.85106	4.59137E-4	1786.95805	45504.082	161.491	10695.758
1315.0	0.71659	0.28341	7.70597	7.51806	-2.87176	21.53283	32.07123	1.21323	0.82425	30.12808	133.39625	10.79111	0.39597	9.29311	22030.45552	0.8341	3.51848E-4	1786.60187	44791.917	142.433	11210.173
1310.0	0.7464	0.2536	7.71545	7.50873	-2.9924	21.26757	32.12493	1.20739	0.82824	35.73307	133.80396	12.84069	0.3914	9.45212	27673.41541	0.81748	2.7922E-4	1786.3281	44157.184	126.9466	11647.592
1305.0	0.77217	0.22783	7.72399	7.50035	-3.10064	21.03626	32.1612	1.20222	0.8318	41.22277	134.21585	14.85591	0.38742	9.61373	33845.25659	0.8012	2.27582E-4	1786.13185	43585.944	114.248	12021.951
1300.0	0.7946	0.2054	7.73176	7.49271	-3.19927	20.83116	32.1826	1.19761	0.835	46.53824	134.63022	16.81386	0.38392	9.77804	40542.74623	0.78525	1.89384E-4	1786.00889	43067.203	103.7482	12344.245
1295.0	0.81422	0.18578	7.73889	7.4857	-3.28983	20.64806	32.19119	1.19348	0.83788	51.63586	135.04643	18.69726	0.38084	9.94518	47768.63126	0.76959	1.60225E-4	1785.95498	42592.204	94.9998	12623.227
1290.0	0.83147	0.16853	7.74547	7.47925	-3.3732	20.48464	32.18906	1.18976	0.84051	56.49722	135.46482	20.49817	0.3781	10.11514	55543.85994	0.75425	1.37357E-4	1785.96579	42153.914	87.658	12865.929
1285.0	0.8467	0.1533	7.75158	7.47325	-3.4507	20.33724	32.17749	1.18638	0.8429	61.10807	135.88436	22.21037	0.37567	10.28806	63889.70767	0.7392	1.19032E-4	1786.03761	41746.634	81.456	13078.047
1280.0	0.86023	0.13977	7.7573	7.46764	-3.52323	20.20341	32.1578	1.1833	0.8451	65.46879	136.30465	23.83317	0.37348	10.46403	72841.85778	0.72444	1.04068E-4	1786.16683	41365.713	76.1842	13264.23
1275.0	0.87226	0.12774	7.76268	7.46234	-3.59168	20.08063	32.13115	1.18046	0.84712	69.59041	136.72526	25.36997	0.37151	10.64316	82449.1941	0.70995	9.1646E-5	1786.35005	41007.327	71.6772	13428.3
1270.0	0.88303	0.11697	7.76777	7.45736	-3.65607	19.969	32.09839	1.17785	0.849	73.47327	137.14653	26.82025	0.36974	10.82549	92754.19165	0.69574	8.1201E-5	1786.58374	40668.313	67.8028	13573.417
1265.0	0.89268	0.10732	7.77261	7.4526	-3.71745	19.86549	32.06027	1.17543	0.85075	77.13398	137.56761	28.18974	0.36812	11.01119	103818.8769	0.68179	7.23118E-5	1786.86523	40346.038	64.455	13702.213
1260.0	0.90137	0.0986325	7.77723	7.44806	-3.7761	19.76935	32.0174	1.17318	0.85238	80.58046	137.9883	29.48097	0.36665	11.20038	115702.4744	0.6681	6.46738E-5	1787.1916	40038.296	61.5484	13816.891
1255.0	0.90921	0.0907856	7.78165	7.44373	-3.83212	19.68037	31.97052	1.17107	0.85392	83.83215	138.40898	30.70081	0.36531	11.39303	128487.59	0.65466	5.80486E-5	1787.55993	39743.231	59.013	13919.307
1250.0	0.91632	0.0836809	7.78591	7.43955	-3.88611	19.59686	31.91995	1.16909	0.85537	86.89709	138.82894	31.85202	0.36408	11.58935	142246.4398	0.64146	5.22622E-5	1787.96802	39459.271	56.792	14011.028
1245.0	0.92277	0.0772311	7.79001	7.43552	-3.93813	19.51864	31.86615	1.16722	0.85674	89.78912	139.24822	32.93949	0.36294	11.78949	157069.5518	0.6285	4.71747E-5	1788.41335	39185.08	54.8382	14093.389
1240.0	0.92864	0.0713585	7.79399	7.43162	-3.9885	19.44481	31.80948	1.16544	0.85804	92.52143	139.66669	33.96798	0.36189	11.99353	173055.8832	0.61577	4.26759E-5	1788.89384	38919.519	53.1122	14167.528
1235.0	0.934	0.0660001	7.79785	7.42784	-4.03735	19.37507	31.75025	1.16376	0.85928	95.10492	140.08421	34.94139	0.36092	12.20151	190311.6366	0.60328	3.86782E-5	1789.40738	38661.607	51.5824	14234.423
1230.0	0.9389	0.0610985	7.8016	7.42417	-4.08485	19.30892	31.68877	1.16215	0.86047	97.55091	140.50081	35.86383	0.36002	12.41358	208956.2117	0.59101	3.51102E-5	1789.95202	38410.502	50.221	14294.914
1225.0	0.9434	0.0566046	7.80526	7.42058	-4.13118	19.24583	31.62522	1.16061	0.86161	99.86996	140.91624	36.73913	0.35918	12.62993	229118.7405	0.57895	3.1914E-5	1790.52608	38165.475	49.0054	14349.728
1220.0	0.94752	0.0524764	7.80884	7.41708	-4.17644	19.18553	31.55984	1.15914	0.86271	102.0712	141.33049	37.57063	0.35839	12.85067	250940.8716	0.56711	2.90415E-5	1791.12787	37925.894	47.9162	14399.495
1215.0	0.95133	0.0486749	7.81234	7.41365	-4.22072	19.12783	31.49281	1.15771	0.86377	104.16341	141.74356	38.36154	0.35765	13.0759	274579.342	0.55547	2.64524E-5	1791.75569	37691.208	46.9372	14444.765
1210.0	0.95483	0.0451703	7.81578	7.41029	-4.26412	19.07235	31.42428	1.15634	0.8648	106.15523	142.15532	39.11503	0.35696	13.30582	300206.102	0.54404	2.41131E-5	1792.40821	37460.937	46.0542	14486.016
1209.64	0.95507	0.044932	7.81602	7.41005	-4.26728	19.06828	31.41923	1.15624	0.86487	106.29409	142.18512	39.16759	0.35691	13.3227	302142.1469	0.54322	2.39527E-5	1792.45649	37444.451	 	14488.801
1209.07	0.95575	0.0442461	7.81649	7.40957	-4.27339	19.05829	31.41197	1.15607	0.865	106.56636	142.23431	39.27142	0.35679	13.36882	305611.0427	0.54113	2.36717E-5	1792.60203	37412.212	 	14499.512
1205.0	1.0	0.0	7.83259	7.39344	-4.48178	18.4674	31.44327	1.15175	0.86825	129.08356	143.44053	47.8082	0.35002	 	386801.6363	 	1.86516E-5	 	36420.845	208.0184	15337.48
1200.0	1.0	0.0	7.83523	7.39095	-4.51402	18.44394	31.35702	1.15101	0.8688	129.58091	143.84579	47.99786	0.34986	 	417200.7726	 	1.72341E-5	 	36234.27056	37.31489	 
1195.0	1.0	0.0	7.83787	7.38846	-4.54613	18.42073	31.27079	1.15026	0.86937	130.07755	144.24974	48.1873	0.34971	 	450221.2099	 	1.59159E-5	 	36055.40906	35.7723	 
1190.0	1.0	0.0	7.8405	7.38598	-4.57817	18.39755	31.18456	1.14952	0.86993	130.57334	144.65194	48.37646	0.34955	 	486108.1371	 	1.46907E-5	 	35876.84477	35.71286	 
1185.0	1.0	0.0	7.84313	7.38351	-4.61014	18.37439	31.09832	1.14877	0.8705	131.06827	145.05241	48.56534	0.3494	 	525131.7176	 	1.35525E-5	 	35698.57709	35.65354	 
1180.0	1.0	0.0	7.84575	7.38104	-4.64203	18.35126	31.01208	1.14801	0.87107	131.56235	145.45114	48.75395	0.34925	 	567589.5441	 	1.24958E-5	 	35520.60546	35.59432	 
1175.0	1.0	0.0	7.84837	7.37857	-4.67386	18.32816	30.92584	1.14725	0.87165	132.05557	145.84814	48.94229	0.34909	 	613809.6192	 	1.15151E-5	 	35342.92929	35.53523	 
1170.0	1.0	0.0	7.85098	7.37612	-4.70562	18.30508	30.8396	1.14649	0.87223	132.54794	146.24342	49.13035	0.34894	 	664153.682	 	1.06055E-5	 	35165.54801	35.47626	 
1165.0	1.0	0.0	7.85359	7.37366	-4.7373	18.28203	30.75335	1.14572	0.87282	133.03945	146.63699	49.31814	0.34879	 	719020.9217	 	9.76224E-6	 	34988.46102	35.4174	 
1160.0	1.0	0.0	7.8562	7.37122	-4.76892	18.25901	30.66711	1.14495	0.8734	133.53011	147.02884	49.50565	0.34864	 	778852.1262	 	8.98097E-6	 	34811.66776	35.35865	 
1155.0	1.0	0.0	7.85881	7.36878	-4.80046	18.23601	30.58086	1.14417	0.874	134.01992	147.41898	49.69289	0.34848	 	844134.3211	 	8.25751E-6	 	34635.16762	35.30003	 
1150.0	1.0	0.0	7.8614	7.36634	-4.83194	18.21304	30.49461	1.14339	0.87459	134.50887	147.80743	49.87985	0.34833	 	915405.9581	 	7.58794E-6	 	34458.96005	35.24152	 
1145.0	1.0	0.0	7.864	7.36391	-4.86334	18.1901	30.40836	1.1426	0.87519	134.99697	148.19418	50.06654	0.34818	 	993262.7243	 	6.96859E-6	 	34283.04444	35.18312	 
1140.0	1.0	0.0	7.86659	7.36148	-4.89467	18.16719	30.3221	1.14181	0.8758	135.48422	148.57923	50.25295	0.34802	 	1078364.049	 	6.39602E-6	 	34107.42022	35.12484	 
1135.0	1.0	0.0	7.86918	7.35906	-4.92594	18.14431	30.23584	1.14102	0.87641	135.97061	148.96261	50.43909	0.34787	 	1171440.399	 	5.86699E-6	 	33932.08682	35.06668	 
1130.0	1.0	0.0	7.87176	7.35665	-4.95713	18.12145	30.14959	1.14022	0.87702	136.45615	149.3443	50.62495	0.34772	 	1273301.46	 	5.37848E-6	 	33757.04365	35.00863	 
1125.0	1.0	0.0	7.87434	7.35424	-4.98826	18.09863	30.06332	1.13942	0.87764	136.94084	149.72432	50.81054	0.34756	 	1384845.326	 	4.92764E-6	 	33582.29013	34.95071	 
1120.0	1.0	0.0	7.87691	7.35184	-5.01931	18.07584	29.97706	1.13861	0.87826	137.42467	150.10267	50.99585	0.34741	 	1507068.814	 	4.51182E-6	 	33407.82568	34.89289	 
1115.0	1.0	0.0	7.87948	7.34944	-5.05029	18.05307	29.89079	1.1378	0.87889	137.90765	150.47935	51.18088	0.34726	 	1641079.069	 	4.12851E-6	 	33233.64971	34.83519	 
1110.0	1.0	0.0	7.88205	7.34704	-5.08121	18.03034	29.80453	1.13698	0.87952	138.38977	150.85438	51.36564	0.3471	 	1788106.613	 	3.7754E-6	 	33059.76166	34.77761	 
1105.0	1.0	0.0	7.88461	7.34466	-5.11205	18.00764	29.71826	1.13616	0.88016	138.87104	151.22776	51.55013	0.34695	 	1949520.036	 	3.45029E-6	 	32886.16093	34.72015	 
1100.0	1.0	0.0	7.88717	7.34228	-5.14282	17.98497	29.63198	1.13533	0.8808	139.35146	151.59948	51.73433	0.3468	 	2126842.553	 	3.15115E-6	 	32712.84694	34.6628	 
1095.0	1.0	0.0	7.88972	7.3399	-5.17352	17.96233	29.54571	1.1345	0.88144	139.83103	151.96957	51.91827	0.34665	 	2321770.668	 	2.87608E-6	 	32539.81912	34.60556	 
1090.0	1.0	0.0	7.89227	7.33753	-5.20416	17.93972	29.45943	1.13367	0.88209	140.30974	152.33801	52.10192	0.34649	 	2536195.233	 	2.6233E-6	 	32367.07689	34.54845	 
1085.0	1.0	0.0	7.89482	7.33516	-5.23472	17.91714	29.37315	1.13283	0.88275	140.7876	152.70483	52.2853	0.34634	 	2772225.226	 	2.39115E-6	 	32194.61967	34.49144	 
1080.0	1.0	0.0	7.89736	7.3328	-5.26521	17.8946	29.28686	1.13198	0.88341	141.26461	153.07001	52.46841	0.34619	 	3032214.635	 	2.17807E-6	 	32022.44687	34.43456	 
1075.0	1.0	0.0	7.8999	7.33045	-5.29563	17.87209	29.20058	1.13113	0.88407	141.74076	153.43358	52.65123	0.34603	 	3318792.84	 	1.98264E-6	 	31850.55793	34.37779	 
1070.0	1.0	0.0	7.90243	7.3281	-5.32599	17.84962	29.11429	1.13028	0.88474	142.21606	153.79552	52.83378	0.34588	 	3634899.027	 	1.80351E-6	 	31678.95225	34.32114	 
1065.0	1.0	0.0	7.90496	7.32575	-5.35627	17.82718	29.028	1.12942	0.88541	142.69051	154.15586	53.01606	0.34573	 	3983821.148	 	1.63943E-6	 	31507.62925	34.2646	 
1060.0	1.0	0.0	7.90748	7.32342	-5.38648	17.80477	28.9417	1.12855	0.88609	143.16411	154.51458	53.19806	0.34558	 	4369240.105	 	1.48922E-6	 	31336.58837	34.20818	 
1055.0	1.0	0.0	7.91	7.32108	-5.41662	17.7824	28.8554	1.12768	0.88678	143.63685	154.87171	53.37978	0.34542	 	4795279.874	 	1.35182E-6	 	31165.82901	34.15187	 
1050.0	1.0	0.0	7.91252	7.31875	-5.4467	17.76007	28.7691	1.12681	0.88746	144.10874	155.22723	53.56122	0.34527	 	5266564.418	 	1.22622E-6	 	30995.35061	34.09568	 
1045.0	1.0	0.0	7.91503	7.31643	-5.4767	17.73777	28.6828	1.12592	0.88816	144.57977	155.58117	53.74239	0.34512	 	5788282.377	 	1.11148E-6	 	30825.15256	34.03961	 
1040.0	1.0	0.0	7.91754	7.31412	-5.50663	17.71551	28.59649	1.12504	0.88886	145.04996	155.93351	53.92328	0.34497	 	6366260.639	 	1.00674E-6	 	30655.23431	33.98365	 
1035.0	1.0	0.0	7.92004	7.3118	-5.53649	17.69328	28.51018	1.12415	0.88956	145.51929	156.28428	54.10389	0.34481	 	7007048.097	 	9.1119E-7	 	30485.59527	33.92781	 
1030.0	1.0	0.0	7.92254	7.3095	-5.56629	17.6711	28.42387	1.12325	0.89027	145.98777	156.63346	54.28423	0.34466	 	7718011.077	 	8.24092E-7	 	30316.23485	33.87208	 
1025.0	1.0	0.0	7.92503	7.3072	-5.59601	17.64895	28.33756	1.12235	0.89099	146.45539	156.98108	54.46429	0.34451	 	8507442.16	 	7.44754E-7	 	30147.15249	33.81647	 
1020.0	1.0	0.0	7.92752	7.3049	-5.62566	17.62684	28.25124	1.12144	0.89171	146.92217	157.32712	54.64407	0.34436	 	9384684.384	 	6.72537E-7	 	29978.3476	33.76098	 
1015.0	1.0	0.0	7.93001	7.30261	-5.65524	17.60476	28.16491	1.12053	0.89243	147.38809	157.6716	54.82358	0.3442	 	1.036027313E7	 	6.06851E-7	 	29809.81959	33.7056	 
1010.0	1.0	0.0	7.93249	7.30033	-5.68476	17.58273	28.07859	1.11961	0.89317	147.85316	158.01453	55.0028	0.34405	 	1.144609837E7	 	5.4715E-7	 	29641.5679	33.65034	 
1005.0	1.0	0.0	7.93497	7.29805	-5.7142	17.56074	27.99226	1.11869	0.8939	148.31737	158.3559	55.18175	0.3439	 	1.265559027E7	 	4.92931E-7	 	29473.59193	33.59519	 
1000.0	1.0	0.0	7.93744	7.29578	-5.74357	17.53879	27.90593	1.11776	0.89465	148.78074	158.69572	55.36043	0.34375	 	1.400393195E7	 	4.43727E-7	 	29305.89111	33.54016	 
995.0	1.0	0.0	7.93991	7.29351	-5.77288	17.51688	27.81959	1.11683	0.89539	149.24325	159.03399	55.53882	0.34359	 	1.550830322E7	 	3.9911E-7	 	29138.46486	33.48525	 
990.0	1.0	0.0	7.94237	7.29124	-5.80211	17.49501	27.73325	1.11589	0.89615	149.70491	159.37073	55.71694	0.34344	 	1.718816047E7	 	3.58684E-7	 	28971.3126	33.43045	 
985.0	1.0	0.0	7.94483	7.28899	-5.83127	17.47319	27.64691	1.11494	0.89691	150.16571	159.70593	55.89478	0.34329	 	1.906555806E7	 	3.22084E-7	 	28804.43375	33.37577	 
980.0	1.0	0.0	7.94729	7.28674	-5.86037	17.45141	27.56056	1.11399	0.89767	150.62567	160.03961	56.07234	0.34314	 	2.11655179E7	 	2.88975E-7	 	28637.82771	33.32121	 
976.66	1.0	0.0	7.94893	7.28523	-5.87977	17.43687	27.50285	1.11335	0.89819	150.93259	160.26176	56.19085	0.34304	 	2.27069923E7	 	2.6864E-7	 	28526.63238	 	 
975.0	1.0	0.0	7.95008	7.28417	-5.89347	17.41372	27.46192	1.11353	0.89804	151.1296	160.39927	56.26713	0.34297	 	2.357354705E7	 	2.58421E-7	 	28447.63325	38.03889	 
970.0	1.0	0.0	7.95355	7.281	-5.93445	17.34463	27.33911	1.11405	0.89762	151.71628	160.80697	56.49439	0.34276	 	2.640532577E7	 	2.29783E-7	 	28211.07998	47.31065	 
965.0	1.0	0.0	7.95697	7.27786	-5.97497	17.2766	27.21821	1.1145	0.89726	152.29701	161.2096	56.71941	0.34255	 	2.960064686E7	 	2.04154E-7	 	27976.92458	46.83108	 
960.0	1.0	0.0	7.96037	7.27476	-6.01506	17.20959	27.09935	1.11487	0.89697	152.87301	161.60844	56.94264	0.34234	 	3.320921029E7	 	1.81236E-7	 	27745.09747	46.36542	 
955.0	1.0	0.0	7.96373	7.27169	-6.05472	17.14358	26.98213	1.11517	0.89672	153.44451	162.00363	57.16417	0.34214	 	3.728793288E7	 	1.60757E-7	 	27515.53144	45.91321	 
950.0	1.0	0.0	7.96706	7.26865	-6.09396	17.07852	26.86658	1.11541	0.89653	154.01161	162.39524	57.38405	0.34194	 	4.190205848E7	 	1.42473E-7	 	27288.1615	45.47399	 
945.0	1.0	0.0	7.97035	7.26565	-6.13279	17.01439	26.75263	1.11558	0.8964	154.57441	162.78332	57.60231	0.34174	 	4.712644882E7	 	1.2616E-7	 	27062.92489	45.04732	 
940.0	1.0	0.0	7.97362	7.26267	-6.17124	16.95116	26.64018	1.11569	0.89631	155.13303	163.16793	57.81899	0.34154	 	5.304708431E7	 	1.11619E-7	 	26839.76096	44.63279	 
935.0	1.0	0.0	7.97685	7.25973	-6.2093	16.88881	26.52917	1.11574	0.89627	155.68756	163.54914	58.03413	0.34134	 	5.976281396E7	 	9.8668E-8	 	26618.61118	44.22996	 
930.0	1.0	0.0	7.98006	7.25681	-6.24699	16.82729	26.41953	1.11573	0.89627	156.23814	163.92703	58.24779	0.34115	 	6.73873951E7	 	8.71421E-8	 	26399.419	43.83844	 
925.0	1.0	0.0	7.98324	7.25392	-6.28431	16.76659	26.31119	1.11567	0.89632	156.78486	164.30166	58.46001	0.34096	 	7.605187478E7	 	7.68932E-8	 	26182.12985	43.45783	 
920.0	1.0	0.0	7.98639	7.25106	-6.32128	16.70668	26.2041	1.11556	0.89641	157.32785	164.67312	58.67082	0.34077	 	8.59073725E7	 	6.77878E-8	 	25966.69103	43.08776	 
915.0	1.0	0.0	7.98951	7.24822	-6.35791	16.64753	26.09819	1.11539	0.89655	157.86721	165.04146	58.88027	0.34058	 	9.712833697E7	 	5.97052E-8	 	25753.05171	42.72786	 
910.0	1.0	0.0	7.99261	7.24541	-6.3942	16.58912	25.99342	1.11517	0.89672	158.40305	165.40677	59.0884	0.34039	 	1.099163598E8	 	5.25369E-8	 	25541.1628	42.37778	 
905.0	1.0	0.0	7.99568	7.24263	-6.43017	16.53142	25.88973	1.11491	0.89693	158.93546	165.7691	59.29525	0.3402	 	1.24504648E8	 	4.61851E-8	 	25330.97692	42.03718	 
900.0	1.0	0.0	7.99873	7.23987	-6.46581	16.47442	25.78709	1.1146	0.89719	159.46455	166.12852	59.50086	0.34002	 	1.411632739E8	 	4.05619E-8	 	25122.44837	41.70571	 
895.0	1.0	0.0	8.00175	7.23714	-6.50115	16.41809	25.68543	1.11424	0.89747	159.99041	166.4851	59.70526	0.33984	 	1.60205347E8	 	3.55884E-8	 	24915.53302	41.38307	 
890.0	1.0	0.0	8.00475	7.23442	-6.53619	16.36241	25.58471	1.11384	0.8978	160.51313	166.8389	59.90849	0.33965	 	1.819942753E8	 	3.11935E-8	 	24710.18827	41.06895	 
885.0	1.0	0.0	8.00773	7.23174	-6.57093	16.30736	25.48491	1.11339	0.89816	161.0328	167.18996	60.11059	0.33947	 	2.069523208E8	 	2.73137E-8	 	24506.37302	40.76305	 
880.0	1.0	0.0	8.01068	7.22907	-6.60538	16.25291	25.38597	1.1129	0.89855	161.54951	167.53836	60.31158	0.33929	 	2.355706844E8	 	2.38919E-8	 	24304.04763	40.46508	 
875.0	1.0	0.0	8.01361	7.22642	-6.63955	16.19906	25.28787	1.11238	0.89897	162.06332	167.88414	60.51149	0.33911	 	2.684214494E8	 	2.0877E-8	 	24103.17323	40.17488	 
870.0	1.0	0.0	8.01652	7.2238	-6.67344	16.14577	25.19055	1.11181	0.89943	162.57432	168.22736	60.71036	0.33893	 	3.061716371E8	 	1.82232E-8	 	23903.71344	39.89196	 
865.0	1.0	0.0	8.01941	7.2212	-6.70707	16.09304	25.094	1.11121	0.89992	163.08259	168.56806	60.90822	0.33876	 	3.495999169E8	 	1.58897E-8	 	23705.63252	39.61618	 
860.0	1.0	0.0	8.02228	7.21861	-6.74044	16.04084	24.99818	1.11057	0.90044	163.58819	168.90629	61.10508	0.33858	 	3.996163791E8	 	1.38398E-8	 	23508.89598	39.34731	 
855.0	1.0	0.0	8.02513	7.21605	-6.77355	15.98916	24.90305	1.10989	0.90099	164.0912	169.2421	61.30099	0.33841	 	4.572860145E8	 	1.20411E-8	 	23313.4705	39.0851	 
850.0	1.0	0.0	8.02796	7.21351	-6.80641	15.93798	24.8086	1.10918	0.90157	164.59167	169.57553	61.49595	0.33823	 	5.238566184E8	 	1.04643E-8	 	23119.32384	38.82933	 
845.0	1.0	0.0	8.0303	7.21141	-6.83352	15.91221	24.72608	1.10793	0.90259	165.02399	169.86613	61.66427	0.33808	 	5.977313712E8	 	9.13021E-9	 	22963.05004	31.25476	 
840.0	1.0	0.0	8.03263	7.20932	-6.86057	15.88645	24.64355	1.10667	0.90362	165.45548	170.15536	61.83232	0.33794	 	6.828327816E8	 	7.95657E-9	 	22803.84093	31.84182	 
835.0	1.0	0.0	8.03496	7.20723	-6.88755	15.86069	24.56102	1.1054	0.90465	165.88615	170.44323	62.0001	0.33779	 	7.809879632E8	 	6.92534E-9	 	22644.88775	31.79064	 
830.0	1.0	0.0	8.03728	7.20514	-6.91446	15.83493	24.47849	1.10412	0.9057	166.31598	170.72975	62.1676	0.33764	 	8.943408677E8	 	6.0203E-9	 	22486.18992	31.73957	 
825.0	1.0	0.0	8.0396	7.20307	-6.94129	15.80917	24.39595	1.10283	0.90675	166.74499	171.01491	62.33482	0.33749	 	1.025410579E9	 	5.22698E-9	 	22327.74684	31.68862	 
820.0	1.0	0.0	8.04191	7.201	-6.96806	15.78342	24.3134	1.10154	0.90782	167.17317	171.29872	62.50178	0.33735	 	1.177160948E9	 	4.53242E-9	 	22169.55792	31.63778	 
815.0	1.0	0.0	8.04422	7.19893	-6.99476	15.75768	24.23085	1.10024	0.9089	167.60052	171.58118	62.66846	0.3372	 	1.353083892E9	 	3.9251E-9	 	22011.62259	31.58707	 
810.0	1.0	0.0	8.04652	7.19687	-7.02139	15.73194	24.14829	1.09893	0.90998	168.02704	171.8623	62.83486	0.33705	 	1.557299181E9	 	3.39471E-9	 	21853.94021	31.53647	 
805.0	1.0	0.0	8.04882	7.19481	-7.04794	15.7062	24.06573	1.09761	0.91107	168.45273	172.14208	63.001	0.33691	 	1.794674158E9	 	2.93211E-9	 	21696.51022	31.486	 
800.0	1.0	0.0	8.05112	7.19276	-7.07443	15.68046	23.98316	1.09628	0.91218	168.8776	172.42052	63.16685	0.33676	 	2.070967583E9	 	2.52915E-9	 	21539.33201	31.43564	 
795.0	1.0	0.0	8.05341	7.19072	-7.10085	15.65473	23.90058	1.09494	0.91329	169.30163	172.69763	63.33244	0.33661	 	2.393002721E9	 	2.17859E-9	 	21382.40496	31.38541	 
790.0	1.0	0.0	8.05569	7.18868	-7.12719	15.62901	23.818	1.09359	0.91442	169.72484	172.97342	63.49775	0.33646	 	2.768875944E9	 	1.87404E-9	 	21225.72847	31.3353	 
785.0	1.0	0.0	8.05797	7.18664	-7.15347	15.60328	23.73542	1.09224	0.91555	170.14722	173.24788	63.66278	0.33632	 	3.208208519E9	 	1.6098E-9	 	21069.30193	31.28531	 
780.0	1.0	0.0	8.06025	7.18462	-7.17968	15.57756	23.65282	1.09087	0.9167	170.56877	173.52101	63.82755	0.33617	 	3.722450999E9	 	1.38085E-9	 	20913.12473	31.23544	 
775.0	1.0	0.0	8.06252	7.18259	-7.20581	15.55185	23.57022	1.0895	0.91786	170.98949	173.79284	63.99203	0.33602	 	4.325251793E9	 	1.18277E-9	 	20757.19624	31.1857	 
770.0	1.0	0.0	8.06478	7.18058	-7.23188	15.52614	23.48762	1.08811	0.91902	171.40939	174.06334	64.15625	0.33587	 	5.032904172E9	 	1.01161E-9	 	20601.51583	31.13608	 
765.0	1.0	0.0	8.06704	7.17856	-7.25788	15.50043	23.40501	1.08672	0.9202	171.82846	174.33254	64.32019	0.33573	 	5.86488928E9	 	8.63947E-10	 	20446.08288	31.08659	 
760.0	1.0	0.0	8.0693	7.17656	-7.28381	15.47473	23.32239	1.08532	0.92139	172.24669	174.60044	64.48385	0.33558	 	6.844536867E9	 	7.36726E-10	 	20290.89676	31.03722	 
755.0	1.0	0.0	8.07155	7.17455	-7.30966	15.44903	23.23976	1.0839	0.92259	172.6641	174.86702	64.64724	0.33543	 	7.999830619E9	 	6.27281E-10	 	20135.95682	30.98799	 
750.0	1.0	0.0	8.0738	7.17256	-7.33545	15.42333	23.15713	1.08248	0.9238	173.08069	175.13232	64.81035	0.33529	 	9.364391399E9	 	5.33269E-10	 	19981.26241	30.93888	 
745.0	1.0	0.0	8.07604	7.17057	-7.36117	15.39764	23.07449	1.08105	0.92503	173.49644	175.39631	64.97319	0.33514	 	1.09787E10	 	4.52635E-10	 	19826.81288	30.8899	 
740.0	1.0	0.0	8.07827	7.16858	-7.38682	15.37195	22.99184	1.07961	0.92626	173.91137	175.65901	65.13576	0.33499	 	1.2891499999999998E10	 	3.83582E-10	 	19672.60758	30.84106	 
735.0	1.0	0.0	8.08051	7.1666	-7.41239	15.34627	22.90919	1.07816	0.92751	174.32547	175.92043	65.29805	0.33484	 	1.5161699999999998E10	 	3.24538E-10	 	19518.64582	30.79235	 
730.0	1.0	0.0	8.08273	7.16463	-7.4379	15.32059	22.82653	1.07669	0.92877	174.73874	176.18056	65.46006	0.3347	 	1.78605E10	 	2.74132E-10	 	19364.92694	30.74378	 
725.0	1.0	0.0	8.08495	7.16266	-7.46334	15.29491	22.74386	1.07522	0.93004	175.15118	176.43941	65.6218	0.33455	 	2.10743E10	 	2.31169E-10	 	19211.45025	30.69534	 
720.0	1.0	0.0	8.08717	7.1607	-7.48871	15.26924	22.66119	1.07374	0.93133	175.56279	176.69698	65.78327	0.3344	 	2.4907799999999996E10	 	1.94611E-10	 	19058.21506	30.64704	 
715.0	1.0	0.0	8.08938	7.15874	-7.51401	15.24357	22.5785	1.07224	0.93262	175.97358	176.95328	65.94445	0.33426	 	2.9488499999999996E10	 	1.63553E-10	 	18905.22064	30.59888	 
710.0	1.0	0.0	8.09159	7.15678	-7.53924	15.21791	22.49581	1.07074	0.93393	176.38354	177.20831	66.10537	0.33411	 	3.49716E10	 	1.37212E-10	 	18752.46631	30.55087	 
705.0	1.0	0.0	8.09379	7.15484	-7.5644	15.19225	22.41311	1.06923	0.93526	176.79267	177.46207	66.26601	0.33396	 	4.15466E10	 	1.1491E-10	 	18599.95131	30.503	 
700.0	1.0	0.0	8.09599	7.1529	-7.58948	15.16659	22.33041	1.0677	0.93659	177.20097	177.71457	66.42637	0.33381	 	4.944519999999999E10	 	9.60599E-11	 	18447.67492	30.45528	 
695.0	1.0	0.0	8.09818	7.15096	-7.6145	15.14094	22.24769	1.06616	0.93794	177.60845	177.9658	66.58646	0.33367	 	5.895139999999999E10	 	8.01558E-11	 	18295.63637	30.40771	 
690.0	1.0	0.0	8.10037	7.14903	-7.63945	15.11529	22.16497	1.06462	0.93931	178.0151	178.21578	66.74627	0.33352	 	7.04137E10	 	6.67611E-11	 	18143.83491	30.36029	 
685.0	1.0	0.0	8.10255	7.1471	-7.66434	15.08964	22.08224	1.06306	0.94068	178.42092	178.46451	66.9058	0.33337	 	8.42607E10	 	5.55003E-11	 	17992.26973	30.31304	 
680.0	1.0	0.0	8.10473	7.14518	-7.68915	15.064	21.99951	1.06149	0.94208	178.82591	178.71199	67.06506	0.33323	 	1.01021E11	 	4.60508E-11	 	17840.94004	30.26594	 
675.0	1.0	0.0	8.1069	7.14327	-7.71389	15.03837	21.91676	1.0599	0.94348	179.23008	178.95822	67.22404	0.33308	 	1.21347E11	 	3.8136E-11	 	17689.84503	30.219	 
670.0	1.0	0.0	8.10907	7.14136	-7.73856	15.01273	21.834	1.05831	0.9449	179.63341	179.2032	67.38275	0.33293	 	1.46046E11	 	3.15194E-11	 	17538.98384	30.17224	 
665.0	1.0	0.0	8.11123	7.13945	-7.76316	14.9871	21.75124	1.05671	0.94634	180.03592	179.44695	67.54118	0.33279	 	1.7612E11	 	2.59987E-11	 	17388.35561	30.12565	 
660.0	1.0	0.0	8.11339	7.13755	-7.78769	14.96148	21.66847	1.05509	0.94779	180.43761	179.68946	67.69934	0.33264	 	2.12813E11	 	2.14013E-11	 	17237.96062	30.079	 
655.0	1.0	0.0	8.11555	7.13566	-7.81215	14.93586	21.58569	1.05346	0.94925	180.83846	179.93074	67.85721	0.33249	 	2.57676E11	 	1.75805E-11	 	17087.80474	30.03118	 
650.0	1.0	0.0	8.11769	7.13377	-7.83655	14.91024	21.5029	1.05182	0.95073	181.23849	180.17079	68.01482	0.33235	 	3.12644E11	 	1.44115E-11	 	16937.89598	29.98175	 
645.0	1.0	0.0	8.11984	7.13189	-7.86087	14.88462	21.4201	1.05017	0.95223	181.63769	180.40961	68.17214	0.3322	 	3.80137E11	 	1.17885E-11	 	16788.23374	29.93245	 
640.0	1.0	0.0	8.12197	7.13001	-7.88513	14.85901	21.33729	1.0485	0.95374	182.03606	180.64721	68.32919	0.33205	 	4.63191E11	 	9.62208E-12	 	16638.81746	29.88326	 
635.0	1.0	0.0	8.12411	7.12814	-7.90931	14.83341	21.25447	1.04682	0.95527	182.43361	180.88358	68.48596	0.33191	 	5.6562E11	 	7.83645E-12	 	16489.64654	29.83418	 
630.0	1.0	0.0	8.12624	7.12627	-7.93342	14.80781	21.17164	1.04513	0.95682	182.83033	181.11875	68.64246	0.33176	 	6.9223E11	 	6.3679E-12	 	16340.72043	29.78522	 
625.0	1.0	0.0	8.12836	7.12441	-7.95747	14.78221	21.0888	1.04343	0.95838	183.22622	181.3527	68.79868	0.33161	 	8.49089E11	 	5.16277E-12	 	16192.03832	29.73642	 
620.0	1.0	0.0	8.13048	7.12256	-7.98145	14.75661	21.00596	1.04171	0.95996	183.62128	181.58543	68.95462	0.33146	 	1.04388E12	 	4.17602E-12	 	16043.59908	29.68785	 
615.0	1.0	0.0	8.13259	7.12071	-8.00535	14.73102	20.9231	1.03998	0.96155	184.01552	181.81697	69.11028	0.33132	 	1.28633E12	 	3.36992E-12	 	15895.40243	29.63933	 
610.0	1.0	0.0	8.1347	7.11886	-8.02919	14.70544	20.84023	1.03824	0.96317	184.40893	182.0473	69.26567	0.33117	 	1.58886E12	 	2.71291E-12	 	15747.44783	29.59092	 
605.0	1.0	0.0	8.1368	7.11702	-8.05296	14.67985	20.75735	1.03648	0.9648	184.80151	182.27642	69.42078	0.33102	 	1.96727E12	 	2.17867E-12	 	15599.73471	29.54262	 
600.0	1.0	0.0	8.1389	7.11519	-8.07666	14.65428	20.67446	1.03471	0.96645	185.19327	182.50436	69.57561	0.33088	 	2.44176E12	 	1.74531E-12	 	15452.26256	29.49443	 
595.0	1.0	0.0	8.14099	7.11336	-8.10028	14.6287	20.59156	1.03293	0.96812	185.58419	182.73109	69.73017	0.33073	 	3.03825E12	 	1.39463E-12	 	15305.0308	29.44635	 
590.0	1.0	0.0	8.14308	7.11153	-8.12384	14.60313	20.50865	1.03113	0.96981	185.97429	182.95664	69.88444	0.33058	 	3.79004E12	 	1.11155E-12	 	15158.03893	29.39837	 
585.0	1.0	0.0	8.14516	7.10972	-8.14733	14.57756	20.42573	1.02932	0.97151	186.36357	183.181	70.03844	0.33044	 	4.74005E12	 	8.83622E-13	 	15011.28638	29.35051	 
580.0	1.0	0.0	8.14724	7.1079	-8.17075	14.552	20.3428	1.0275	0.97324	186.75201	183.40418	70.19216	0.33029	 	5.94376E12	 	7.00569E-13	 	14864.77264	29.30275	 
575.0	1.0	0.0	8.14931	7.1061	-8.19411	14.52644	20.25986	1.02566	0.97498	187.13963	183.62617	70.34561	0.33014	 	7.47305E12	 	5.53939E-13	 	14718.49716	29.25509	 
570.0	1.0	0.0	8.15138	7.10429	-8.21739	14.50088	20.1769	1.0238	0.97675	187.52643	183.84699	70.49878	0.33	 	9.42136E12	 	4.36795E-13	 	14572.45944	29.20754	 
565.0	1.0	0.0	8.15344	7.1025	-8.2406	14.47533	20.09394	1.02193	0.97854	187.91239	184.06663	70.65166	0.32985	 	1.19105E13	 	3.43462E-13	 	14426.65895	29.1601	 
560.0	1.0	0.0	8.1555	7.10071	-8.26374	14.44978	20.01096	1.02005	0.98034	188.29753	184.2851	70.80428	0.3297	 	1.50997E13	 	2.69303E-13	 	14281.09516	29.11276	 
555.0	1.0	0.0	8.15755	7.09892	-8.28682	14.42424	19.92797	1.01815	0.98217	188.68184	184.5024	70.95661	0.32956	 	1.91978E13	 	2.10545E-13	 	14135.76757	29.06552	 
550.0	1.0	0.0	8.15959	7.09714	-8.30982	14.3987	19.84497	1.01624	0.98402	189.06532	184.71853	71.10866	0.32941	 	2.44794E13	 	1.64121E-13	 	13990.67567	29.01838	 
545.0	1.0	0.0	8.16164	7.09536	-8.33276	14.37316	19.76195	1.01431	0.9859	189.44798	184.9335	71.26044	0.32926	 	3.13069E13	 	1.2755E-13	 	13845.81894	28.97135	 
540.0	1.0	0.0	8.16367	7.09359	-8.35563	14.34763	19.67892	1.01236	0.98779	189.82981	185.14732	71.41194	0.32912	 	4.016E13	 	9.88243E-14	 	13701.1969	28.92441	 
535.0	1.0	0.0	8.1657	7.09183	-8.37842	14.3221	19.59588	1.0104	0.98971	190.21081	185.35997	71.56316	0.32897	 	5.16756E13	 	7.63297E-14	 	13556.80904	28.87757	 
530.0	1.0	0.0	8.16773	7.09007	-8.40115	14.29658	19.51283	1.00842	0.99165	190.59099	185.57148	71.7141	0.32883	 	6.67022E13	 	5.87683E-14	 	13412.65488	28.83083	 
525.0	1.0	0.0	8.16975	7.08832	-8.42381	14.27106	19.42976	1.00643	0.99361	190.97034	185.78183	71.86476	0.32868	 	8.63742E13	 	4.51011E-14	 	13268.73392	28.78419	 
520.0	1.0	0.0	8.17177	7.08657	-8.4464	14.24554	19.34668	1.00442	0.9956	191.34886	185.99104	72.01514	0.32853	 	1.12213E14	 	3.44984E-14	 	13125.04568	28.73765	 
515.0	1.0	0.0	8.17378	7.08482	-8.46892	14.22003	19.26359	1.00239	0.99761	191.72656	186.1991	72.16524	0.32839	 	1.46266E14	 	2.62997E-14	 	12981.58969	28.6912	 
510.0	1.0	0.0	8.17578	7.08309	-8.49137	14.19452	19.18048	1.00035	0.99965	192.10343	186.40602	72.31507	0.32824	 	1.913E14	 	1.9981E-14	 	12838.36548	28.64484	 
505.0	1.0	0.0	8.17778	7.08135	-8.51376	14.16902	19.09736	0.99829	1.00171	192.47947	186.6118	72.46462	0.32809	 	2.5106399999999997E14	 	1.51274E-14	 	12695.37257	28.59858	 
500.0	1.0	0.0	8.17978	7.07963	-8.53607	14.14352	19.01422	0.99621	1.0038	192.85469	186.81645	72.61388	0.32795	 	3.30659E14	 	1.14122E-14	 	12552.61051	28.55241	 
495.0	1.0	0.0	8.18177	7.0779	-8.55831	14.11802	18.93107	0.99412	1.00592	193.22907	187.01996	72.76287	0.3278	 	4.37052E14	 	8.57826E-15	 	12410.07884	28.50633	 
490.0	1.0	0.0	8.18375	7.07619	-8.58049	14.09252	18.8479	0.992	1.00806	193.60264	187.22235	72.91158	0.32765	 	5.79794E14	 	6.42425E-15	 	12267.77712	28.46034	 
485.0	1.0	0.0	8.18573	7.07448	-8.60259	14.06704	18.76472	0.98987	1.01023	193.97537	187.42361	73.06001	0.32751	 	7.72029E14	 	4.79301E-15	 	12125.7049	28.41445	 
480.0	1.0	0.0	8.18771	7.07277	-8.62463	14.04155	18.68153	0.98772	1.01243	194.34728	187.62374	73.20816	0.32736	 	1.03192E15	 	3.56225E-15	 	11983.86174	28.36863	 
475.0	1.0	0.0	8.18967	7.07107	-8.6466	14.01607	18.59832	0.98556	1.01466	194.71836	187.82276	73.35603	0.32721	 	1.38465E15	 	2.63716E-15	 	11842.2472	28.32291	 
470.0	1.0	0.0	8.19164	7.06938	-8.6685	13.99059	18.51509	0.98337	1.01691	195.08862	188.02065	73.50362	0.32707	 	1.86532E15	 	1.94451E-15	 	11700.86088	28.27726	 
465.0	1.0	0.0	8.1936	7.06769	-8.69033	13.96512	18.43184	0.98116	1.0192	195.45804	188.21744	73.65093	0.32692	 	2.52301E15	 	1.42795E-15	 	11559.70235	28.23171	 
460.0	1.0	0.0	8.19555	7.066	-8.71209	13.93965	18.34858	0.97894	1.02151	195.82665	188.41311	73.79796	0.32678	 	3.42669E15	 	1.04425E-15	 	11418.7712	28.18623	 
455.0	1.0	0.0	8.1975	7.06432	-8.73378	13.91418	18.26531	0.9767	1.02386	196.19442	188.60767	73.94471	0.32663	 	4.67365E15	 	7.60416E-16	 	11278.06703	28.14083	 
450.0	1.0	0.0	8.19944	7.06265	-8.7554	13.88872	18.18201	0.97443	1.02624	196.56137	188.80112	74.09118	0.32648	 	6.40179E15	 	5.51333E-16	 	11137.58944	28.09552	 
445.0	1.0	0.0	8.20138	7.06098	-8.77696	13.86326	18.0987	0.97215	1.02865	196.92749	188.99347	74.23737	0.32634	 	8.80744E15	 	3.97972E-16	 	10997.33804	28.05028	 
440.0	1.0	0.0	8.20331	7.05932	-8.79844	13.83781	18.01537	0.96985	1.03109	197.29279	189.18473	74.38328	0.32619	 	1.21714E16	 	2.85974E-16	 	10857.31246	28.00512	 
435.0	1.0	0.0	8.20524	7.05766	-8.81986	13.81236	17.93203	0.96752	1.03357	197.65725	189.37488	74.52891	0.32604	 	1.6897200000000002E16	 	2.04549E-16	 	10717.51233	27.96003	 
430.0	1.0	0.0	8.20716	7.05601	-8.84121	13.78691	17.84866	0.96518	1.03608	198.0209	189.56394	74.67426	0.3259	 	2.35676E16	 	1.45619E-16	 	10577.93727	27.91501	 
425.0	1.0	0.0	8.20907	7.05436	-8.86249	13.76147	17.76528	0.96281	1.03862	198.38371	189.75191	74.81933	0.32575	 	3.30283E16	 	1.03169E-16	 	10438.58698	27.87006	 
420.0	1.0	0.0	8.21099	7.05272	-8.8837	13.73603	17.68188	0.96043	1.0412	198.7457	189.93879	74.96412	0.32561	 	4.65128E16	 	7.27347E-17	 	10299.46104	27.82519	 
415.0	1.0	0.0	8.21289	7.05108	-8.90484	13.71059	17.59845	0.95802	1.04382	199.10686	190.12458	75.10863	0.32546	 	6.58291E16	 	5.10213E-17	 	10160.55923	27.78036	 
410.0	1.0	0.0	8.21479	7.04945	-8.92591	13.68516	17.51501	0.95559	1.04647	199.4672	190.30929	75.25286	0.32531	 	9.36423E16	 	3.56066E-17	 	10021.8813	27.73559	 
405.0	1.0	0.0	8.21669	7.04783	-8.94691	13.65973	17.43155	0.95314	1.04917	199.82671	190.49292	75.3968	0.32517	 	1.33901E17	 	2.47189E-17	 	9883.42702	27.69086	 
400.0	1.0	0.0	8.21858	7.04621	-8.96785	13.63431	17.34807	0.95066	1.0519	200.18539	190.67547	75.54047	0.32502	 	1.92487E17	 	1.70686E-17	 	9745.1962	27.64616	 
395.0	1.0	0.0	8.22046	7.04459	-8.98871	13.60889	17.26457	0.94817	1.05467	200.54324	190.85694	75.68385	0.32487	 	2.78214E17	 	1.17215E-17	 	9607.18862	27.60152	 
390.0	1.0	0.0	8.22234	7.04298	-9.00951	13.58348	17.18104	0.94565	1.05748	200.90027	191.03734	75.82695	0.32473	 	4.0436E17	 	8.00443E-18	 	9469.40411	27.5569	 
385.0	1.0	0.0	8.22421	7.04138	-9.03024	13.55806	17.0975	0.9431	1.06033	201.25648	191.21668	75.96978	0.32458	 	5.91052E17	 	5.43483E-18	 	9331.84251	27.51232	 
380.0	1.0	0.0	8.22608	7.03978	-9.0509	13.53266	17.01393	0.94053	1.06323	201.61185	191.39494	76.11232	0.32444	 	8.68973E17	 	3.66854E-18	 	9194.50363	27.46778	 
375.0	1.0	0.0	8.22794	7.03818	-9.07149	13.50725	16.93034	0.93794	1.06616	201.9664	191.57214	76.25457	0.32429	 	1.2852E18	 	2.46146E-18	 	9057.38733	27.42326	 
370.0	1.0	0.0	8.2298	7.03659	-9.09201	13.48185	16.84673	0.93533	1.06915	202.32012	191.74828	76.39655	0.32414	 	1.91239E18	 	1.64143E-18	 	8920.49347	27.37877	 
365.0	1.0	0.0	8.23165	7.03501	-9.11247	13.45646	16.76309	0.93268	1.07217	202.67302	191.92336	76.53825	0.324	 	2.86343E18	 	1.08773E-18	 	8783.82194	27.33431	 
360.0	1.0	0.0	8.2335	7.03343	-9.13285	13.43106	16.67943	0.93002	1.07525	203.02509	192.09739	76.67966	0.32385	 	4.31486E18	 	7.16187E-19	 	8647.37261	27.28986	 
355.0	1.0	0.0	8.23534	7.03186	-9.15317	13.40568	16.59575	0.92733	1.07837	203.37634	192.27036	76.82079	0.32371	 	6.54458E18	 	4.68456E-19	 	8511.14542	27.24544	 
350.0	1.0	0.0	8.23718	7.03029	-9.17341	13.38029	16.51204	0.92461	1.08154	203.72675	192.44228	76.96164	0.32356	 	9.99308E18	 	3.04355E-19	 	8375.14026	27.20103	 
345.0	1.0	0.0	8.23901	7.02873	-9.19359	13.35491	16.42831	0.92186	1.08476	204.07634	192.61315	77.10221	0.32341	 	1.53635E19	 	1.96376E-19	 	8239.35709	27.15663	 
340.0	1.0	0.0	8.24083	7.02718	-9.2137	13.32953	16.34455	0.91909	1.08803	204.42511	192.78298	77.2425	0.32327	 	2.37864E19	 	1.25813E-19	 	8103.79586	27.11225	 
335.0	1.0	0.0	8.24265	7.02562	-9.23375	13.30416	16.26076	0.9163	1.09135	204.77305	192.95177	77.3825	0.32312	 	3.70928E19	 	8.00218E-20	 	7968.45655	27.06786	 
330.0	1.0	0.0	8.24447	7.02408	-9.25372	13.27879	16.17695	0.91347	1.09473	205.12016	193.11951	77.52222	0.32298	 	5.82704E19	 	5.05201E-20	 	7833.33913	27.02348	 
325.0	1.0	0.0	8.24628	7.02254	-9.27362	13.25343	16.09311	0.91062	1.09816	205.46644	193.28622	77.66166	0.32283	 	9.2233E19	 	3.16527E-20	 	7698.44364	26.9791	 
320.0	1.0	0.0	8.24808	7.021	-9.29346	13.22807	16.00925	0.90774	1.10164	205.8119	193.45189	77.80082	0.32268	 	1.4712499999999998E20	 	1.96772E-20	 	7563.77008	26.93471	 
315.0	1.0	0.0	8.24988	7.01947	-9.31323	13.20271	15.92535	0.90483	1.10518	206.15654	193.61653	77.93969	0.32254	 	2.3655699999999997E20	 	1.2135E-20	 	7429.31852	26.89031	 
310.0	1.0	0.0	8.25167	7.01795	-9.33293	13.17736	15.84142	0.90189	1.10879	206.50034	193.78014	78.07828	0.32239	 	3.8346099999999997E20	 	7.42242E-21	 	7295.08904	26.8459	 
305.0	1.0	0.0	8.25346	7.01643	-9.35256	13.15201	15.75747	0.89892	1.11245	206.84332	193.94272	78.21659	0.32225	 	6.26809E20	 	4.50186E-21	 	7161.08171	26.80147	 
300.0	1.0	0.0	8.25524	7.01491	-9.37212	13.12666	15.67348	0.89592	1.11617	207.18548	194.10428	78.35462	0.3221	 	1.0334100000000001E21	 	2.70696E-21	 	7027.29667	26.75701	 
295.0	1.0	0.0	8.25701	7.0134	-9.39161	13.10132	15.58947	0.89289	1.11996	207.5268	194.26481	78.49236	0.32196	 	1.71883E21	 	1.61331E-21	 	6893.73405	26.71252	 
290.0	1.0	0.0	8.25878	7.0119	-9.41104	13.07598	15.50542	0.88983	1.12381	207.8673	194.42433	78.62982	0.32181	 	2.8848E21	 	9.52785E-22	 	6760.39402	26.66801	 
285.0	1.0	0.0	8.26055	7.0104	-9.4304	13.05065	15.42134	0.88674	1.12773	208.20698	194.58283	78.767	0.32166	 	4.88684E21	 	5.57455E-22	 	6627.27678	26.62345	 
280.0	1.0	0.0	8.26231	7.00891	-9.44969	13.02532	15.33722	0.88361	1.13172	208.54583	194.74031	78.90389	0.32152	 	8.35755E21	 	3.23036E-22	 	6494.38255	26.57885	 
275.0	1.0	0.0	8.26406	7.00742	-9.46891	12.99999	15.25308	0.88046	1.13577	208.88385	194.89679	79.0405	0.32137	 	1.4433799999999999E22	 	1.85355E-22	 	6361.71158	26.53419	 
270.0	1.0	0.0	8.26581	7.00594	-9.48806	12.97467	15.16889	0.87727	1.1399	209.22105	195.05225	79.17683	0.32123	 	2.51798E22	 	1.05282E-22	 	6229.26415	26.48949	 
265.0	1.0	0.0	8.26755	7.00446	-9.50714	12.94935	15.08467	0.87404	1.14411	209.55742	195.20671	79.31287	0.32108	 	4.43827E22	 	5.91801E-23	 	6097.04057	26.44472	 
260.0	1.0	0.0	8.26929	7.00299	-9.52616	12.92404	15.00042	0.87079	1.14839	209.89296	195.36016	79.44863	0.32094	 	7.90666E22	 	3.29111E-23	 	5965.0412	26.39987	 
255.0	1.0	0.0	8.27102	7.00152	-9.5451	12.89873	14.91613	0.8675	1.15274	210.22768	195.51261	79.58411	0.32079	 	1.42403E23	 	1.81019E-23	 	5833.26641	26.35496	 
250.0	1.0	0.0	8.27275	7.00006	-9.56398	12.87342	14.8318	0.86417	1.15718	210.56157	195.66406	79.7193	0.32064	 	2.59377E23	 	9.84421E-24	 	5701.71663	26.30996	 
245.0	1.0	0.0	8.27447	6.99861	-9.58279	12.84812	14.74743	0.86081	1.1617	210.89463	195.81452	79.85421	0.3205	 	4.77936E23	 	5.29142E-24	 	5570.39229	26.26487	 
240.0	1.0	0.0	8.27619	6.99716	-9.60153	12.82282	14.66302	0.85741	1.16631	211.22687	195.96398	79.98883	0.32035	 	8.912099999999999E23	 	2.81029E-24	 	5439.29392	26.21967	 
235.0	1.0	0.0	8.2779	6.99571	-9.62021	12.79752	14.57856	0.85397	1.171	211.55828	196.11245	80.12317	0.32021	 	1.68235E24	 	1.47422E-24	 	5308.42203	26.17438	 
230.0	1.0	0.0	8.2796	6.99427	-9.63881	12.77223	14.49407	0.8505	1.17578	211.88887	196.25993	80.25722	0.32006	 	3.21614E24	 	7.6357E-25	 	5177.77721	26.12896	 
225.0	1.0	0.0	8.2813	6.99284	-9.65735	12.74695	14.40953	0.84699	1.18066	212.21863	196.40642	80.391	0.31992	 	6.2288E24	 	3.90339E-25	 	5047.3601	26.08342	 
220.0	1.0	0.0	8.28299	6.99141	-9.67582	12.72166	14.32495	0.84344	1.18563	212.54756	196.55193	80.52448	0.31977	 	1.2226300000000001E25	 	1.96866E-25	 	4917.17137	26.03775	 
215.0	1.0	0.0	8.28468	6.98998	-9.69422	12.69638	14.24032	0.83985	1.19069	212.87567	196.69645	80.65768	0.31962	 	2.4332400000000003E25	 	9.79163E-26	 	4787.21174	25.99193	 
210.0	1.0	0.0	8.28636	6.98856	-9.71255	12.67111	14.15565	0.83622	1.19586	213.20295	196.84	80.7906	0.31948	 	4.91203E25	 	4.80073E-26	 	4657.482	25.94595	 
205.0	1.0	0.0	8.28804	6.98715	-9.73081	12.64584	14.07092	0.83254	1.20114	213.5294	196.98257	80.92323	0.31933	 	1.0062800000000001E26	 	2.31917E-26	 	4527.98297	25.8998	 
200.0	1.0	0.0	8.28971	6.98574	-9.74901	12.62057	13.98615	0.82883	1.20652	213.85503	197.12416	81.05558	0.31919	 	2.09294E26	 	1.10339E-26	 	4398.71557	25.85348	 
195.0	1.0	0.0	8.29138	6.98434	-9.76714	12.59531	13.90133	0.82508	1.21201	214.17983	197.26478	81.18765	0.31904	 	4.42172E26	 	5.1675E-27	 	4269.68075	25.80696	 
190.0	1.0	0.0	8.29304	6.98294	-9.7852	12.57005	13.81645	0.82128	1.21761	214.50381	197.40443	81.31942	0.3189	 	9.49374E26	 	2.38106E-27	 	4140.87955	25.76024	 
185.0	1.0	0.0	8.29469	6.98155	-9.80319	12.54479	13.73152	0.81744	1.22333	214.82696	197.54312	81.45092	0.31875	 	2.0726599999999998E27	 	1.07887E-27	 	4012.31303	25.7133	 
180.0	1.0	0.0	8.29634	6.98016	-9.82111	12.51954	13.64654	0.81355	1.22918	215.14928	197.68084	81.58213	0.31861	 	4.6036199999999996E27	 	4.80429E-28	 	3883.98238	25.66613	 
175.0	1.0	0.0	8.29798	6.97878	-9.83897	12.49429	13.5615	0.80962	1.23515	215.47078	197.81759	81.71305	0.31846	 	1.0408900000000001E28	 	2.10138E-28	 	3755.88885	25.61871	 
170.0	1.0	0.0	8.29962	6.9774	-9.85676	12.46904	13.4764	0.80564	1.24124	215.79145	197.95339	81.84369	0.31831	 	2.39722E28	 	9.02257E-29	 	3628.03376	25.57102	 
165.0	1.0	0.0	8.30125	6.97603	-9.87448	12.4438	13.39124	0.80162	1.24747	216.11129	198.08822	81.97404	0.31817	 	5.62701E28	 	3.80042E-29	 	3500.41852	25.52305	 
160.0	1.0	0.0	8.30288	6.97466	-9.89213	12.41857	13.30601	0.79755	1.25384	216.43031	198.2221	82.1041	0.31802	 	1.3471100000000001E29	 	1.56936E-29	 	3373.04464	25.47478	 
155.0	1.0	0.0	8.3045	6.9733	-9.90971	12.39334	13.22073	0.79343	1.26036	216.74851	198.35503	82.23388	0.31788	 	3.29142E29	 	6.34891E-30	 	3245.91371	25.42618	 
150.0	1.0	0.0	8.30611	6.97195	-9.92723	12.36811	13.13538	0.78926	1.26702	217.06587	198.487	82.36338	0.31773	 	8.21358E29	 	2.51448E-30	 	3119.02744	25.37726	 
145.0	1.0	0.0	8.30772	6.9706	-9.94467	12.34288	13.04995	0.78504	1.27383	217.38241	198.61803	82.49259	0.31759	 	2.09498E30	 	9.7418E-31	 	2992.38764	25.32796	 
140.0	1.0	0.0	8.30933	6.96925	-9.96205	12.31766	12.96446	0.78076	1.2808	217.69813	198.74811	82.62151	0.31744	 	5.465999999999999E30	 	3.68914E-31	 	2865.99624	25.27828	 
135.0	1.0	0.0	8.31092	6.96791	-9.97937	12.29244	12.8789	0.77644	1.28793	218.01302	198.87725	82.75015	0.3173	 	1.46003E31	 	1.3644E-31	 	2739.85528	25.22819	 
130.0	1.0	0.0	8.31252	6.96658	-9.99661	12.26723	12.79326	0.77206	1.29523	218.32708	199.00544	82.8785	0.31715	 	3.99614E31	 	4.92393E-32	 	2613.96692	25.17767	 
125.0	1.0	0.0	8.3141	6.96525	-10.01379	12.24202	12.70755	0.76763	1.30271	218.64032	199.13269	83.00656	0.31701	 	1.12177E32	 	1.73233E-32	 	2488.33351	25.12668	 
120.0	1.0	0.0	8.31568	6.96392	-10.03089	12.21682	12.62175	0.76314	1.31037	218.95273	199.25901	83.13434	0.31686	 	3.23269E32	 	5.93582E-33	 	2362.95747	25.07521	 
115.0	1.0	0.0	8.31726	6.9626	-10.04793	12.19161	12.53587	0.7586	1.31822	219.26431	199.38439	83.26184	0.31672	 	9.57347E32	 	1.97887E-33	 	2237.84144	25.02321	 
110.0	1.0	0.0	8.31883	6.96129	-10.06491	12.16642	12.44991	0.754	1.32627	219.57507	199.50884	83.38904	0.31657	 	2.91662E33	 	6.41173E-34	 	2112.98819	24.97065	 
105.0	1.0	0.0	8.32039	6.95998	-10.08181	12.14122	12.36386	0.74934	1.33452	219.885	199.63236	83.51596	0.31643	 	9.15135E33	 	2.01681E-34	 	1988.40066	24.91751	 
100.0	1.0	0.0	8.32195	6.95868	-10.09865	12.11603	12.27771	0.74462	1.34297	220.19411	199.75495	83.64259	0.31628	 	2.96073E34	 	6.15136E-35	 	1864.08201	24.86373	 
95.0	1.0	0.0	8.3235	6.95738	-10.11541	12.09085	12.19147	0.73983	1.35165	220.50239	199.87661	83.76894	0.31613	 	9.88924E34	 	1.81697E-35	 	1740.03557	24.80929	 
90.0	1.0	0.0	8.32505	6.95609	-10.13211	12.06566	12.10513	0.73499	1.36056	220.80984	199.99735	83.895	0.31599	 	3.4146799999999994E35	 	5.19066E-36	 	1616.2649	24.75413	 
85.0	1.0	0.0	8.32659	6.9548	-10.14875	12.04049	12.01869	0.73009	1.3697	221.11647	200.11717	84.02077	0.31584	 	1.2205699999999999E36	 	1.43215E-36	 	1492.77378	24.69822	 
80.0	1.0	0.0	8.32813	6.95352	-10.16531	12.01531	11.93215	0.72511	1.37909	221.42228	200.23607	84.14625	0.3157	 	4.52317E36	 	3.81069E-37	 	1369.56623	24.64151	 
75.0	1.0	0.0	8.32966	6.95224	-10.18181	11.99014	11.84549	0.72008	1.38874	221.72725	200.35405	84.27145	0.31555	 	1.74045E37	 	9.76318E-38	 	1246.64656	24.58393	 
70.0	1.0	0.0	8.33118	6.95097	-10.19824	11.96498	11.75872	0.71497	1.39865	222.0314	200.47111	84.39636	0.31541	 	6.96522E37	 	2.40456E-38	 	1124.01933	24.52545	 
65.0	1.0	0.0	8.3327	6.9497	-10.2146	11.93981	11.67182	0.7098	1.40885	222.33473	200.58727	84.52098	0.31526	 	2.90415E38	 	5.68299E-39	 	1001.68939	24.46599	 
60.0	1.0	0.0	8.33421	6.94844	-10.2309	11.91465	11.58481	0.70456	1.41933	222.63723	200.70251	84.64532	0.31512	 	1.26391E39	 	1.2865E-39	 	879.66195	24.40549	 
55.0	1.0	0.0	8.33572	6.94718	-10.24712	11.8895	11.49766	0.69924	1.43012	222.9389	200.81684	84.76937	0.31497	 	5.75277E39	 	2.78408E-40	 	757.94257	24.34388	 
50.0	1.0	0.0	8.33722	6.94593	-10.26328	11.86435	11.41038	0.69386	1.44122	223.23975	200.93027	84.89313	0.31483	 	2.74413E40	 	5.7476E-41	 	636.53712	24.28109	 
45.0	1.0	0.0	8.33871	6.94469	-10.27937	11.8392	11.32296	0.6884	1.45265	223.53977	201.0428	85.0166	0.31468	 	1.37486E41	 	1.12943E-41	 	515.45195	24.21703	 
40.0	1.0	0.0	8.3402	6.94345	-10.2954	11.81406	11.2354	0.68286	1.46443	223.83897	201.15442	85.13978	0.31454	 	7.25208E41	 	2.10754E-42	 	394.69381	24.15163	 
35.0	1.0	0.0	8.34169	6.94221	-10.31135	11.78892	11.14768	0.67724	1.47658	224.13734	201.26514	85.26268	0.31439	 	4.03741E42	 	3.72517E-43	 	274.26992	24.08478	 
30.0	1.0	0.0	8.34317	6.94098	-10.32724	11.76379	11.0598	0.67155	1.4891	224.43488	201.37497	85.38529	0.31425	 	2.3787E43	 	6.2202E-44	 	154.188	24.01638	 
25.0	1.0	0.0	8.34464	6.93976	-10.34306	 	10.97175	0.66577	1.50202	224.7316	201.4839	85.50761	0.3141	 	1.4873400000000002E44	 	9.78387E-45	 	34.45632	 	 
