T (C)	Fraction solid (wt)-TOTAL	Fraction liquid (wt)-LIQUID	Density (g/(cm)^3)-TOTAL	Molar volume (cm^3)-TOTAL	Volume change (%)-  	Average expansion coeff. (10e-6 1/K)-  	Thermal conductivity (W/(m*K))-TOTAL	Electrical resistivity (10e-6 Ohm*m)-TOTAL	Electrical conductivity (10e6 1/(Ohm*m))-TOTAL	Young's modulus (GPa)-TOTAL	Bulk modulus (GPa)-TOTAL	Shear modulus(GPa)-TOTAL	Poisson's ratio-TOTAL	Liquid viscosity (mPa s)-  	Total viscosity (mPa s)-  	Liquid diffusivity (10e-9 (m^2)/s)-  	Total diffusivity (10e-9 (m^2)/s)-  	Surface Tension (mN/m)-  	Enthalpy (J/mole)-TOTAL	Specific heat (J/(mole K))-TOTAL	Latent heat (J/mole)-TOTAL
1400.0	9.7E-4	0.99903	7.37027	7.99829	0.0	35.33742	31.94828	1.28308	0.77938	4.62582E-10	121.70521	1.5422E-10	0.49974	6.8094	6.8094	1.19926	1.19926	1775.05592	40868.905	 	0.0
1395.0	0.00119	0.99881	7.37489	7.99325	-0.0630076	35.29074	31.85596	1.28295	0.77945	1.03363E-9	121.89183	3.44618E-10	0.49968	6.88633	6.88633	1.18232	1.18232	1779.18357	40657.297	42.3216	14.901
1390.0	0.0014	0.9986	7.37943	7.98836	-0.12421	35.24875	31.76372	1.28282	0.77953	2.00385E-9	122.0784	6.68116E-10	0.49963	6.96441	6.96441	1.16556	1.16556	1783.33025	40446.305	42.1984	29.608
1385.0	0.00161	0.99839	7.38401	7.98334	-0.18691	35.20228	31.67138	1.28269	0.77961	3.51408E-9	122.26314	1.1717E-9	0.49956	7.04392	7.04392	1.14894	1.14894	1787.50335	40235.924	42.0762	44.122
1380.0	0.00182	0.99818	7.38859	7.97843	-0.24835	35.159	31.57927	1.28256	0.77969	5.7184E-9	122.44878	1.90676E-9	0.49951	7.12475	7.12475	1.13248	1.13248	1791.69533	40026.152	41.9544	58.446
1375.0	0.00202	0.99798	7.39315	7.97349	-0.31009	35.11456	31.48713	1.28242	0.77978	8.78277E-9	122.63284	2.92866E-9	0.49945	7.20698	7.20698	1.11617	1.11617	1795.90934	39816.984	41.8336	72.576
1370.0	0.00222	0.99778	7.39764	7.96868	-0.3702	35.0744	31.39518	1.28227	0.77987	1.28809E-8	122.81688	4.29533E-9	0.4994	7.29053	7.29053	1.10003	1.10003	1800.13977	39608.418	41.7132	86.518
1365.0	0.00242	0.99758	7.40216	7.96381	-0.43113	35.03162	31.30315	1.28213	0.77995	1.81938E-8	123.00005	6.06725E-9	0.49935	7.37551	7.37551	1.08405	1.08405	1804.3921	39400.45	41.5936	100.269
1360.0	0.00262	0.99738	7.40669	7.95892	-0.49222	34.98806	31.21109	1.28199	0.78004	2.49101E-8	123.18204	8.30727E-9	0.49929	7.46206	7.46206	1.0682	1.0682	1808.66397	39193.077	41.4746	113.83
1355.0	0.00282	0.99718	7.41119	7.95407	-0.55285	34.94548	31.11913	1.28184	0.78013	3.32149E-8	123.36344	1.10773E-8	0.49924	7.55006	7.55006	1.05252	1.05252	1812.95312	38986.295	41.3564	127.204
1350.0	0.00301	0.99699	7.41568	7.94924	-0.61325	34.90326	31.02729	1.28168	0.78022	4.32947E-8	123.54438	1.44394E-8	0.49918	7.63959	7.63959	1.03699	1.03699	1817.2594	38780.1	41.239	140.39
1345.0	0.0032	0.9968	7.42016	7.94454	-0.67206	34.86531	30.93563	1.28152	0.78032	5.53388E-8	123.72653	1.84569E-8	0.49914	7.73067	7.73067	1.02162	1.02162	1821.57857	38574.49	41.122	153.389
1340.49	0.00337	0.99663	7.42416	7.94018	-0.72652	34.8267	30.85281	1.28138	0.78041	6.80426E-8	123.88747	2.26946E-8	0.49909	7.81419	7.81419	1.00788	1.00788	1825.49191	38389.552	41.01066	164.951
1340.0	0.01793	0.98207	7.42979	7.93415	-0.80192	34.62071	30.89145	1.27939	0.78162	4.28502E-6	124.2423	1.43087E-6	0.49735	7.82529	8.0239	1.00615	0.98124	1825.4678	38150.018	488.35654	385.64
1335.0	0.1538	0.8462	7.48281	7.878	-1.50401	32.70595	31.2585	1.26045	0.79337	0.0502045	129.22574	0.0169504	0.48092	7.94014	17.52223	0.98852	0.44794	1824.83587	35908.016	448.4004	2435.817
1330.0	0.26226	0.73774	7.52609	7.83264	-2.07102	31.17184	31.54838	1.24498	0.80322	0.45675	133.2282	0.15562	0.46757	8.05712	80.07278	0.97114	0.0977183	1828.5904	34091.37483	363.32823	4060.584
1325.0	0.35042	0.64958	7.56206	7.79545	-2.536	29.92568	31.78035	1.23204	0.81166	1.51949	136.51558	0.5216	0.45656	8.17642	242.70501	0.95398	0.0321385	1832.35556	32589.14202	300.44656	5370.427
1320.0	0.42321	0.57679	7.59245	7.76419	-2.92692	28.88832	31.96684	1.22102	0.81899	3.33691	139.25727	1.15278	0.44734	8.29836	528.81553	0.93702	0.0147041	1836.14358	31325.21979	252.78445	6442.377
1315.0	0.49457	0.50543	7.62144	7.73467	-3.29592	27.90781	32.15449	1.21009	0.82639	6.40483	142.0168	2.22677	0.43814	8.42864	1028.40538	0.91965	0.00753727	1839.78482	30077.44578	249.5548	7498.589
1310.0	0.58402	0.41598	7.65484	7.70089	-3.71831	26.761	32.41835	1.19646	0.8358	12.87758	145.55171	4.51409	0.42638	8.57755	2098.09992	0.90084	0.00368284	1842.96253	28542.02052	307.08505	8842.863
1305.0	0.65308	0.34692	7.68143	7.67417	-4.05237	25.86879	32.61483	1.18549	0.84353	20.65383	148.30991	7.28707	0.41716	8.72746	3457.95876	0.88257	0.00222749	1846.13648	27327.51254	242.9016	9866.625
1300.0	0.70743	0.29257	7.70301	7.65259	-4.32219	25.162	32.75911	1.17653	0.84995	29.00339	150.50874	10.28639	0.40979	8.87819	5028.41693	0.86483	0.00152695	1849.3015	26342.70235	196.96204	10661.093
1295.0	0.75092	0.24908	7.72087	7.63482	-4.54437	24.5929	32.86293	1.16909	0.85537	37.40702	152.29634	13.32326	0.40382	9.02981	6751.5474	0.84761	0.00113363	1852.45309	25525.84948	163.37057	11288.004
1290.0	0.78622	0.21378	7.73592	7.61983	-4.73172	24.12446	32.93484	1.16282	0.85998	45.54629	153.77479	16.27931	0.3989	9.18246	8590.9671	0.83086	8.88066E-4	1855.60225	24834.21647	138.3266	11790.092
1285.0	0.81526	0.18474	7.74882	7.60705	-4.89161	23.73554	32.98148	1.15746	0.86396	53.23907	155.01827	19.08492	0.39479	9.33632	10525.22743	0.81456	7.22544E-4	1858.73926	24237.55236	119.33282	12197.556
1280.0	0.83942	0.16058	7.76001	7.59593	-5.0306	23.40714	33.00793	1.15282	0.86744	60.40985	156.08031	21.70953	0.39132	9.49126	12547.20419	0.79869	6.04162E-4	1861.86576	23713.5851	104.79345	12532.143
1275.0	0.85973	0.14027	7.76986	7.58615	-5.15284	23.12727	33.01793	1.14876	0.8705	67.02937	156.9993	24.13989	0.38835	9.64758	14654.65056	0.78322	5.15613E-4	1864.9816	23246.96934	93.32315	12809.787
1270.0	0.87697	0.12303	7.77863	7.57745	-5.26164	22.88639	33.0145	1.14517	0.87323	73.10997	157.80461	26.37843	0.38579	9.80511	16852.12697	0.76814	4.46931E-4	1868.08366	22825.83511	84.22685	13042.357
1265.0	0.89258	0.10742	7.78721	7.56903	-5.36695	22.65434	32.99927	1.14199	0.87567	78.98494	158.54458	28.5466	0.38344	9.94393	19214.77902	0.75497	3.90706E-4	1871.13304	22422.61445	80.64413	13257.415
1260.0	0.90651	0.093488	7.79531	7.5611	-5.46607	22.43952	32.97462	1.13912	0.87787	84.54999	159.21743	30.60505	0.38131	10.07343	21729.54995	0.74284	3.44366E-4	1874.15416	22042.73546	75.9758	13449.531
1255.0	0.9183	0.0817025	7.80262	7.55397	-5.55523	22.25391	32.94087	1.13657	0.87984	89.53967	159.81443	32.45453	0.37946	10.20472	24342.1702	0.73089	3.06403E-4	1877.17105	21695.27218	69.49266	13609.627
1250.0	0.92837	0.071627	7.80927	7.54749	-5.63625	22.09212	32.89995	1.13426	0.88163	94.03038	160.35128	34.12217	0.37785	10.33765	27071.48829	0.71913	2.74611E-4	1880.17612	21373.52473	64.34949	13744.403
1245.0	0.93706	0.0629367	7.81541	7.54152	-5.71084	21.94916	32.85321	1.13215	0.88328	98.08834	160.83953	35.6317	0.37642	10.4727	29935.90807	0.70753	2.47519E-4	1883.17492	21072.47719	60.20951	13858.867
1240.0	0.94462	0.055384	7.82111	7.53599	-5.78	21.8221	32.80169	1.13019	0.88481	101.76978	161.28811	37.00331	0.37514	10.60957	32954.97458	0.6961	2.24103E-4	1886.15997	20788.31368	56.8327	13956.835
1235.0	0.95108	0.0489237	7.8308	7.52859	-5.87253	21.62019	32.49253	1.13717	0.87937	105.42573	161.35671	38.38382	0.37331	10.76211	36621.79377	0.68396	2.00998E-4	1889.14885	20382.67842	81.12705	14042.602
1230.0	0.95671	0.0432885	7.84085	7.52079	-5.97007	21.40078	32.1286	1.14624	0.87242	108.86206	161.31181	39.68897	0.37144	10.94061	40707.70972	0.67058	1.80224E-4	1892.13465	19958.57559	84.82057	14122.127
1225.0	0.96169	0.0383105	7.85015	7.51327	-6.06408	21.19074	31.78062	1.15494	0.86585	112.01188	161.25182	40.88889	0.36971	11.12036	45129.96997	0.65754	1.62023E-4	1895.10378	19551.59012	81.39709	14191.059
1220.0	0.96612	0.0338832	7.8588	7.506	-6.15494	20.989	31.4484	1.16324	0.85966	114.91085	161.18148	41.99638	0.3681	11.30163	49924.02085	0.64484	1.45976E-4	1898.05616	19159.66437	78.38515	14251.146
1215.0	0.97007	0.0299251	7.86686	7.49896	-6.24295	20.79474	31.13061	1.17118	0.85384	115.96608	161.10445	42.42847	0.36661	11.4841	55128.02269	0.63246	1.31753E-4	1900.98821	18781.10434	75.71201	14303.789
1210.0	0.97363	0.0263676	7.87438	7.49213	-6.32838	20.60715	30.82605	1.17878	0.84833	119.08096	161.0234	43.61281	0.36521	11.6677	60783.69719	0.62042	1.19093E-4	1903.90062	18414.49781	73.32131	14350.123
1205.0	0.97685	0.0231532	7.88142	7.48548	-6.41145	20.4256	30.53375	1.18605	0.84313	121.74248	160.94052	44.63055	0.36389	11.85255	66936.1421	0.60869	1.07782E-4	1906.79274	18058.65453	71.16866	14391.075
1200.0	0.97995	0.0200466	7.88861	7.47874	-6.49576	20.23846	30.24521	1.19332	0.838	124.1763	160.86008	45.5657	0.36261	12.04873	73723.0337	0.59675	9.75283E-5	1909.68271	17703.44807	71.04129	14429.972
1195.0	0.98369	0.0163109	7.89523	7.47174	-6.58323	20.03941	29.98507	1.19959	0.83362	126.67226	160.83115	46.52708	0.36127	12.29353	81398.00915	0.58288	8.80326E-5	1912.62138	17350.90519	70.50858	14477.048
1190.0	0.98695	0.0130506	7.90134	7.46503	-6.66719	19.85018	29.73586	1.20552	0.82952	128.89604	160.79324	47.3868	0.36004	12.53991	89717.444	0.56948	7.95974E-5	1915.54088	17009.81347	68.21834	14517.419
1185.0	0.98981	0.01019	7.907	7.45857	-6.74795	19.66986	29.49534	1.2112	0.82563	130.9088	160.74886	48.16733	0.3589	12.7881	98747.21711	0.55652	7.20716E-5	1918.43876	16678.84722	66.19325	14552.193
1180.0	0.99233	0.00766818	7.91226	7.45234	-6.82581	19.49754	29.26247	1.21665	0.82193	132.77484	160.70022	48.89238	0.35783	13.03798	108560.528	0.54399	6.53319E-5	1921.31152	16356.90892	64.38766	14582.266
1175.0	0.99457	0.0054338	7.91717	7.44632	-6.90105	19.33244	29.03667	1.22189	0.8184	134.59683	160.64898	49.59986	0.35683	13.28965	119236.9891	0.53185	5.92774E-5	1924.16374	16043.07341	62.7671	14608.366
1170.0	0.99655	0.0034483	7.92178	7.44051	-6.97375	19.17437	28.81622	1.22699	0.815	136.55989	160.59654	50.35813	0.35589	13.53837	130860.3908	0.52027	5.38257E-5	1926.99973	15736.48138	61.31841	14631.173
1165.0	0.99838	0.00162434	7.9263	7.43489	-7.044	19.02312	28.59834	1.23205	0.81165	138.74427	160.54713	51.19728	0.355	13.74943	143543.54	0.51051	4.88998E-5	1929.87734	15435.02358	60.29156	14652.624
1160.0	1.0	0.0	7.93057	7.42945	-7.11208	18.87781	28.3961	1.23651	0.80873	140.44581	160.49802	51.85732	0.35416	 	157372.6913	 	4.44477E-5	 	15140.005	59.00372	14671.249
1155.0	1.0	0.0	7.9351	7.4252	-7.16518	18.78189	28.18274	1.24153	0.80546	140.93783	160.39966	52.06208	0.35356	 	172040.1884	 	4.05164E-5	 	14934.11642	41.17772	 
1150.0	1.0	0.0	7.93957	7.42102	-7.21743	18.68798	27.97589	1.24633	0.80236	141.41809	160.30831	52.26199	0.35297	 	188192.9989	 	3.69091E-5	 	14676.97046	51.42919	 
1145.0	1.0	0.0	7.94398	7.41691	-7.26887	18.596	27.77522	1.25092	0.79941	141.88737	160.2238	52.45734	0.35241	 	205993.3628	 	3.36013E-5	 	14422.81036	50.83202	 
1140.0	1.0	0.0	7.94832	7.41285	-7.31953	18.50586	27.58039	1.25532	0.79661	142.34638	160.14593	52.64843	0.35186	 	225622.4959	 	3.05698E-5	 	14171.51201	50.25967	 
1135.0	1.0	0.0	7.9526	7.40886	-7.36944	18.41748	27.39111	1.25952	0.79395	142.79578	160.07453	52.83552	0.35132	 	247282.9667	 	2.77934E-5	 	13922.95806	49.71079	 
1130.0	1.0	0.0	7.95683	7.40493	-7.41864	18.33078	27.20709	1.26354	0.79143	143.2362	160.00942	53.01885	0.3508	 	271201.3943	 	2.52522E-5	 	13677.0374	49.18413	 
1125.0	1.0	0.0	7.961	7.40105	-7.46715	18.24569	27.02808	1.26737	0.78903	143.66821	159.95042	53.19866	0.3503	 	297631.4567	 	2.29278E-5	 	13433.64491	48.6785	 
1122.28	1.0	0.0	7.96325	7.39896	-7.49329	18.19998	26.93258	1.26939	0.78778	143.90018	159.92078	53.29519	0.35003	 	313184.9862	 	2.17467E-5	 	13302.09256	 	 
1120.0	1.0	0.0	7.96542	7.39694	-7.51845	18.15005	26.84632	1.27139	0.78654	144.11449	159.85342	53.3859	0.34974	 	327009.5842	 	2.07933E-5	 	13182.97953	50.13307	 
1116.18	1.0	0.0	7.969	7.39361	-7.56006	18.06795	26.70802	1.27447	0.78464	144.47092	159.74948	53.53656	0.34927	 	351687.0595	 	1.92813E-5	 	12985.1258	 	 
1115.0	1.0	0.0	7.96996	7.39273	-7.57116	18.04863	26.66851	1.27527	0.78414	144.56957	159.73966	53.57757	0.34916	 	359638.8077	 	1.88389E-5	 	12928.90187	50.81553	 
1110.0	1.0	0.0	7.97398	7.389	-7.61778	17.96771	26.5038	1.27858	0.78212	144.98319	159.70157	53.74949	0.34869	 	395532.0096	 	1.70677E-5	 	12692.15668	47.34904	 
1105.0	1.0	0.0	7.97795	7.38532	-7.66379	17.88818	26.34318	1.28172	0.7802	145.39023	159.66902	53.91861	0.34824	 	435307.1862	 	1.54521E-5	 	12457.63326	46.90468	 
1100.0	1.0	0.0	7.98188	7.38169	-7.70922	17.80999	26.18644	1.28472	0.77838	145.79112	159.64182	54.08511	0.34779	 	479416.3352	 	1.39795E-5	 	12225.24555	46.47754	 
1095.0	1.0	0.0	7.98576	7.3781	-7.75408	17.73306	26.0334	1.28756	0.77666	146.18623	159.61982	54.24914	0.34736	 	528367.6852	 	1.26382E-5	 	11994.9115	46.06681	 
1090.0	1.0	0.0	7.9896	7.37455	-7.79841	17.65736	25.88389	1.29027	0.77503	146.57593	159.60285	54.41084	0.34694	 	582733.2485	 	1.14172E-5	 	11766.55356	45.67159	 
1085.0	1.0	0.0	7.9934	7.37105	-7.84221	17.58281	25.73773	1.29284	0.77349	146.96055	159.59076	54.57036	0.34652	 	643157.2686	 	1.03066E-5	 	11540.09823	45.29107	 
1080.0	1.0	0.0	7.99716	7.36758	-7.88552	17.50939	25.59478	1.29527	0.77204	147.34041	159.58341	54.72782	0.34612	 	710365.9776	 	9.29716E-6	 	11315.4758	44.92449	 
1075.0	1.0	0.0	8.00088	7.36416	-7.92833	17.43702	25.45489	1.29758	0.77067	147.7158	159.58065	54.88335	0.34573	 	785178.6303	 	8.38024E-6	 	11092.62023	44.57111	 
1070.0	1.0	0.0	8.00456	7.36077	-7.97068	17.36568	25.31791	1.29976	0.76937	148.08701	159.58236	55.03706	0.34534	 	868520.2187	 	7.54799E-6	 	10871.46884	44.23028	 
1065.0	1.0	0.0	8.0082	7.35742	-8.01258	17.29531	25.18373	1.30182	0.76816	148.45429	159.5884	55.18906	0.34496	 	961436.0108	 	6.79315E-6	 	10651.96174	43.90142	 
1060.0	1.0	0.0	8.01181	7.35411	-8.05404	17.22588	25.04689	1.30404	0.76685	148.8179	159.59866	55.33945	0.34459	 	1065108.086	 	6.10903E-6	 	10434.04233	43.58388	 
1055.0	1.0	0.0	8.01539	7.35082	-8.09507	17.15735	24.91775	1.30588	0.76577	149.17807	159.61301	55.48832	0.34423	 	1180874.453	 	5.48947E-6	 	10217.65666	43.27713	 
1050.0	1.0	0.0	8.01894	7.34757	-8.1357	17.08967	24.79108	1.30761	0.76475	149.53501	159.63135	55.63577	0.34387	 	1310250.874	 	4.9288E-6	 	10002.75342	42.98065	 
1045.0	1.0	0.0	8.02245	7.34436	-8.17592	17.02282	24.66675	1.30924	0.7638	149.88893	159.65357	55.78189	0.34353	 	1454956.067	 	4.42183E-6	 	9789.28372	42.69394	 
1040.0	1.0	0.0	8.02593	7.34117	-8.21577	16.95675	24.54468	1.31076	0.76292	150.24003	159.67956	55.92674	0.34319	 	1616940.346	 	3.96376E-6	 	9577.20099	42.41655	 
1035.0	1.0	0.0	8.02938	7.33801	-8.25524	16.89144	24.42478	1.31218	0.76209	150.58849	159.70923	56.07042	0.34285	 	1798418.961	 	3.5502E-6	 	9366.46066	42.14807	 
1030.0	1.0	0.0	8.03281	7.33488	-8.29435	16.82685	24.30695	1.3135	0.76132	150.93449	159.74248	56.21299	0.34252	 	2001910.406	 	3.17714E-6	 	9157.0206	41.88801	 
1025.0	1.0	0.0	8.03621	7.33178	-8.33311	16.76296	24.19111	1.31473	0.76061	151.27818	159.77921	56.35453	0.3422	 	2230280.253	 	2.84088E-6	 	8948.84009	41.6361	 
1020.0	1.0	0.0	8.03957	7.32871	-8.37152	16.69973	24.07719	1.31586	0.75996	151.61973	159.81935	56.49508	0.34188	 	2486792.166	 	2.53803E-6	 	8741.88074	41.39187	 
1015.0	1.0	0.0	8.04292	7.32567	-8.40961	16.63714	23.9651	1.3169	0.75936	151.95927	159.86279	56.63473	0.34157	 	2775166.506	 	2.2655E-6	 	8536.10532	41.15509	 
1010.0	1.0	0.0	8.04624	7.32264	-8.44738	16.57515	23.85479	1.31786	0.75881	152.29695	159.90947	56.77352	0.34127	 	3099648.319	 	2.02047E-6	 	8331.47874	40.92532	 
1005.0	1.0	0.0	8.04953	7.31965	-8.48483	16.51375	23.74618	1.31872	0.75831	152.6329	159.95931	56.91151	0.34097	 	3465085.678	 	1.80034E-6	 	8127.96691	40.70237	 
1000.0	1.0	0.0	8.0528	7.31668	-8.52198	16.45291	23.63921	1.31951	0.75786	152.96724	160.01222	57.04875	0.34067	 	3877020.905	 	1.60276E-6	 	7925.53756	40.48587	 
995.0	1.0	0.0	8.05604	7.31373	-8.55884	16.39261	23.53381	1.32021	0.75745	153.30009	160.06813	57.1853	0.34038	 	4341795.708	 	1.42557E-6	 	7724.15964	40.27558	 
990.0	1.0	0.0	8.05927	7.3108	-8.59541	16.33282	23.42994	1.32084	0.75709	153.63156	160.12698	57.32119	0.34009	 	4866673.748	 	1.2668E-6	 	7523.80357	40.07121	 
985.0	1.0	0.0	8.06247	7.3079	-8.6317	16.27352	23.32753	1.32139	0.75678	153.96176	160.18869	57.45648	0.33981	 	5459983.077	 	1.12468E-6	 	7324.44051	39.87261	 
980.0	1.0	0.0	8.06565	7.30502	-8.66771	16.21469	23.22654	1.32186	0.75651	154.29078	160.2532	57.5912	0.33953	 	6131280.98	 	9.97559E-7	 	7126.04317	39.67947	 
975.0	1.0	0.0	8.06881	7.30216	-8.70346	16.1563	23.12691	1.32225	0.75628	154.61872	160.32045	57.7254	0.33926	 	6891547.005	 	8.83968E-7	 	6928.58528	39.49158	 
970.0	1.0	0.0	8.07194	7.29932	-8.73895	16.09835	23.02861	1.32258	0.7561	154.94567	160.39037	57.85911	0.33899	 	7753407.383	 	7.8256E-7	 	6732.04173	39.30871	 
965.0	1.0	0.0	8.07506	7.29651	-8.77419	16.0408	22.93157	1.32283	0.75595	155.27171	160.46291	57.99237	0.33873	 	8731396.115	 	6.92112E-7	 	6536.38789	39.13077	 
960.0	1.0	0.0	8.07816	7.29371	-8.80918	15.98365	22.83576	1.32302	0.75585	155.59692	160.538	58.12522	0.33846	 	9842262.034	 	6.11516E-7	 	6341.60057	38.95746	 
955.0	1.0	0.0	8.08124	7.29093	-8.84393	15.92687	22.74115	1.32314	0.75578	155.92139	160.61559	58.25769	0.3382	 	1.110532522E7	 	5.39768E-7	 	6147.65728	38.78866	 
950.0	1.0	0.0	8.0843	7.28817	-8.87845	15.87045	22.64768	1.32319	0.75575	156.24518	160.69563	58.38981	0.33795	 	1.254289611E7	 	4.75958E-7	 	5954.53637	38.62418	 
945.0	1.0	0.0	8.08734	7.28542	-8.91274	15.81436	22.55533	1.32318	0.75576	156.56837	160.77807	58.5216	0.3377	 	1.418076575E7	 	4.19264E-7	 	5762.21716	38.46384	 
940.0	1.0	0.0	8.09037	7.2827	-8.9468	15.7586	22.46405	1.3231	0.7558	156.89102	160.86285	58.65311	0.33745	 	1.604878123E7	 	3.68943E-7	 	5570.67925	38.30758	 
935.0	1.0	0.0	8.09338	7.27999	-8.98065	15.70314	22.37382	1.32296	0.75588	157.21318	160.94993	58.78435	0.3372	 	1.818152174E7	 	3.24323E-7	 	5379.90344	38.15516	 
930.0	1.0	0.0	8.09637	7.2773	-9.01428	15.64797	22.2846	1.32276	0.756	157.53493	161.03926	58.91535	0.33696	 	2.061909254E7	 	2.84798E-7	 	5189.87101	38.00649	 
925.0	1.0	0.0	8.09934	7.27463	-9.0477	15.59308	22.19636	1.3225	0.75614	157.85632	161.13079	59.04613	0.33672	 	2.340806191E7	 	2.49823E-7	 	5000.56396	37.86141	 
920.0	1.0	0.0	8.1023	7.27197	-9.08091	15.53845	22.10907	1.32218	0.75633	158.1774	161.22449	59.17672	0.33648	 	2.660256134E7	 	2.18906E-7	 	4811.96489	37.71981	 
915.0	1.0	0.0	8.10525	7.26933	-9.11393	15.48407	22.0227	1.3218	0.75654	158.49822	161.3203	59.30715	0.33625	 	3.026558905E7	 	1.91606E-7	 	4624.05697	37.58158	 
910.0	1.0	0.0	8.10817	7.26671	-9.14675	15.42992	21.93723	1.32137	0.75679	158.81884	161.41819	59.43742	0.33602	 	3.44705456E7	 	1.67525E-7	 	4436.82396	37.4466	 
905.0	1.0	0.0	8.11109	7.2641	-9.17937	15.376	21.85263	1.32088	0.75707	159.13929	161.51811	59.56757	0.33579	 	3.930305368E7	 	1.46306E-7	 	4250.25016	37.31476	 
900.0	1.0	0.0	8.11398	7.2615	-9.21181	15.32227	21.76887	1.32033	0.75738	159.45963	161.62004	59.69761	0.33556	 	4.486311001E7	 	1.27629E-7	 	4064.32055	37.18592	 
895.0	1.0	0.0	8.11687	7.25892	-9.24406	15.26875	21.68594	1.31973	0.75773	159.77989	161.72392	59.82756	0.33534	 	5.126763791E7	 	1.1121E-7	 	3879.02009	37.06009	 
890.0	1.0	0.0	8.11974	7.25636	-9.27613	15.2154	21.6038	1.31908	0.7581	160.10011	161.82973	59.95744	0.33511	 	5.865352326E7	 	9.67895E-8	 	3694.33472	36.93707	 
885.0	1.0	0.0	8.12259	7.25381	-9.30803	15.16222	21.52244	1.31838	0.75851	160.42034	161.93742	60.08726	0.33489	 	6.718121357E7	 	8.41402E-8	 	3510.25067	36.81681	 
880.0	1.0	0.0	8.12544	7.25127	-9.33975	15.10921	21.44184	1.31762	0.75894	160.74061	162.04697	60.21705	0.33468	 	7.703901185E7	 	7.3057E-8	 	3326.75448	36.69924	 
875.0	1.0	0.0	8.12826	7.24875	-9.3713	15.05633	21.36197	1.31681	0.75941	161.06095	162.15834	60.34681	0.33446	 	8.84481927E7	 	6.33573E-8	 	3143.83319	36.58426	 
870.0	1.0	0.0	8.13108	7.24624	-9.40268	15.00359	21.28282	1.31595	0.75991	161.38139	162.2715	60.47656	0.33425	 	1.01669093E8	 	5.48783E-8	 	2961.47445	36.47175	 
865.0	1.0	0.0	8.13388	7.24374	-9.43389	14.95098	21.20436	1.31504	0.76043	161.70198	162.38642	60.60631	0.33404	 	1.170084168E8	 	4.74755E-8	 	2779.66606	36.36168	 
860.0	1.0	0.0	8.13667	7.24126	-9.46494	14.89847	21.12659	1.31409	0.76098	162.02273	162.50306	60.73608	0.33383	 	1.348279593E8	 	4.10199E-8	 	2598.39627	36.25396	 
855.0	1.0	0.0	8.13945	7.23879	-9.49584	14.84607	21.04947	1.31308	0.76157	162.34368	162.6214	60.86589	0.33362	 	1.555550603E8	 	3.53972E-8	 	2417.65358	36.14854	 
850.0	1.0	0.0	8.14221	7.23633	-9.52657	14.79375	20.97301	1.31203	0.76218	162.66485	162.7414	60.99573	0.33341	 	1.796951435E8	 	3.05062E-8	 	2237.42689	36.04534	 
845.0	1.0	0.0	8.1444	7.23439	-9.55082	14.77102	20.91179	1.31001	0.76335	162.99099	162.9287	61.12454	0.33327	 	2.040593792E8	 	2.67442E-8	 	2083.57852	30.76967	 
840.0	1.0	0.0	8.14658	7.23245	-9.57501	14.74828	20.85056	1.30798	0.76454	163.31657	163.11516	61.25317	0.33313	 	2.319919172E8	 	2.3419E-8	 	1926.78035	31.35963	 
835.0	1.0	0.0	8.14875	7.23052	-9.59914	14.72553	20.78931	1.30594	0.76573	163.64158	163.30081	61.3816	0.33299	 	2.64053503E8	 	2.0483E-8	 	1770.17336	31.3214	 
830.0	1.0	0.0	8.15092	7.2286	-9.62322	14.70278	20.72805	1.30389	0.76693	163.96602	163.48563	61.50985	0.33284	 	3.008989249E8	 	1.78937E-8	 	1613.75682	31.28331	 
825.0	1.0	0.0	8.15309	7.22668	-9.64723	14.68002	20.66678	1.30183	0.76815	164.28989	163.66964	61.63791	0.3327	 	3.432937706E8	 	1.56129E-8	 	1457.52999	31.24537	 
820.0	1.0	0.0	8.15525	7.22476	-9.67119	14.65726	20.6055	1.29976	0.76937	164.61318	163.85282	61.76577	0.33256	 	3.921343458E8	 	1.3606E-8	 	1301.49206	31.20758	 
815.0	1.0	0.0	8.15741	7.22285	-9.69509	14.63448	20.5442	1.29767	0.77061	164.93591	164.0352	61.89345	0.33242	 	4.484713806E8	 	1.18424E-8	 	1145.64224	31.16996	 
810.0	1.0	0.0	8.15956	7.22094	-9.71893	14.61171	20.48289	1.29558	0.77186	165.25807	164.21676	62.02094	0.33228	 	5.135382872E8	 	1.02944E-8	 	989.97967	31.13251	 
805.0	1.0	0.0	8.16171	7.21904	-9.74271	14.58892	20.42157	1.29347	0.77311	165.57966	164.39751	62.14823	0.33213	 	5.887848883E8	 	8.93736E-9	 	834.50345	31.09524	 
800.0	1.0	0.0	8.16386	7.21714	-9.76644	14.56614	20.36023	1.29135	0.77438	165.90068	164.57746	62.27534	0.33199	 	6.759177347E8	 	7.74914E-9	 	679.21266	31.05816	 
795.0	1.0	0.0	8.166	7.21525	-9.7901	14.54334	20.29888	1.28922	0.77566	166.22113	164.7566	62.40226	0.33185	 	7.769483685E8	 	6.71007E-9	 	524.10635	31.02126	 
790.0	1.0	0.0	8.16814	7.21336	-9.81371	14.52054	20.23751	1.28707	0.77696	166.54101	164.93494	62.52899	0.33171	 	8.94251185E8	 	5.80259E-9	 	369.18347	30.98457	 
785.0	1.0	0.0	8.17027	7.21148	-9.83726	14.49773	20.17613	1.28492	0.77826	166.86031	165.11248	62.65552	0.33157	 	1.030632905E9	 	5.01106E-9	 	214.44299	30.9481	 
780.0	1.0	0.0	8.1724	7.2096	-9.86074	14.47492	20.11474	1.28275	0.77958	167.17905	165.28922	62.78187	0.33143	 	1.189416114E9	 	4.32159E-9	 	59.88379	30.91184	 
775.0	1.0	0.0	8.17452	7.20773	-9.88418	14.4521	20.05333	1.28057	0.7809	167.49722	165.46516	62.90803	0.33129	 	1.374539875E9	 	3.7218E-9	 	-94.49528	30.87582	 
770.0	1.0	0.0	8.17665	7.20586	-9.90755	14.42928	19.9919	1.27838	0.78224	167.81483	165.64032	63.034	0.33115	 	1.590681083E9	 	3.20074E-9	 	-248.69547	30.84004	 
765.0	1.0	0.0	8.17876	7.20399	-9.93086	14.40645	19.93046	1.27617	0.78359	168.13186	165.81468	63.15978	0.331	 	1.843401087E9	 	2.7487E-9	 	-402.71802	30.80451	 
760.0	1.0	0.0	8.18087	7.20213	-9.95412	14.38361	19.86901	1.27395	0.78496	168.44832	165.98825	63.28536	0.33086	 	2.13932311E9	 	2.35708E-9	 	-556.5643	30.76926	 
755.0	1.0	0.0	8.18298	7.20028	-9.97731	14.36077	19.80753	1.27172	0.78634	168.76421	166.16103	63.41076	0.33072	 	2.486347283E9	 	2.01828E-9	 	-710.23571	30.73428	 
750.0	1.0	0.0	8.18509	7.19843	-10.00045	14.33792	19.74605	1.26948	0.78773	169.07954	166.33303	63.53596	0.33058	 	2.893911714E9	 	1.7256E-9	 	-863.73373	30.6996	 
745.0	1.0	0.0	8.18719	7.19658	-10.02353	14.31507	19.68454	1.26722	0.78913	169.39429	166.50425	63.66098	0.33044	 	3.373309968E9	 	1.47313E-9	 	-1017.05994	30.66524	 
740.0	1.0	0.0	8.18928	7.19474	-10.04655	14.29221	19.62302	1.26495	0.79054	169.70848	166.67469	63.78581	0.3303	 	3.938077791E9	 	1.25567E-9	 	-1170.21595	30.6312	 
735.0	1.0	0.0	8.19137	7.1929	-10.06951	14.26934	19.56149	1.26267	0.79197	170.02209	166.84434	63.91044	0.33016	 	4.604465014E9	 	1.06864E-9	 	-1323.20351	30.59751	 
730.0	1.0	0.0	8.19346	7.19107	-10.09242	14.24647	19.49993	1.26037	0.79342	170.33514	167.01323	64.03488	0.33002	 	5.392012385E9	 	9.08033E-10	 	-1476.02444	30.56419	 
725.0	1.0	0.0	8.19554	7.18924	-10.11526	14.22359	19.43836	1.25806	0.79487	170.64762	167.18134	64.15914	0.32988	 	6.32425791E9	 	7.70323E-10	 	-1628.68067	30.53125	 
720.0	1.0	0.0	8.19762	7.18742	-10.13805	14.20071	19.37678	1.25574	0.79634	170.95953	167.34868	64.2832	0.32974	 	7.429603345E9	 	6.52433E-10	 	-1781.17422	30.49871	 
715.0	1.0	0.0	8.19969	7.1856	-10.16077	14.17782	19.31517	1.2534	0.79783	171.27087	167.51524	64.40707	0.3296	 	8.742379063E9	 	5.51671E-10	 	-1933.50726	30.46661	 
710.0	1.0	0.0	8.20176	7.18379	-10.18344	14.15492	19.25355	1.25105	0.79933	171.58164	167.68105	64.53075	0.32946	 	1.03042E10	 	4.65687E-10	 	-2085.68202	30.43495	 
705.0	1.0	0.0	8.20383	7.18198	-10.20605	14.13202	19.19191	1.24869	0.80084	171.89184	167.84608	64.65424	0.32932	 	1.2165399999999998E10	 	3.92435E-10	 	-2237.70091	30.40378	 
700.0	1.0	0.0	8.20589	7.18018	-10.2286	14.10911	19.13025	1.24631	0.80237	172.20147	168.01036	64.77754	0.32918	 	1.4387299999999998E10	 	3.30132E-10	 	-2389.56647	30.37311	 
695.0	1.0	0.0	8.20794	7.17838	-10.25109	14.0862	19.06857	1.24391	0.80391	172.51054	168.17387	64.90065	0.32904	 	1.7044499999999998E10	 	2.77233E-10	 	-2541.28138	30.34298	 
690.0	1.0	0.0	8.21	7.17658	-10.27352	14.06328	19.00687	1.24151	0.80547	172.81903	168.33662	65.02357	0.3289	 	2.02281E10	 	2.32394E-10	 	-2692.84849	30.31342	 
685.0	1.0	0.0	8.21204	7.1748	-10.29589	14.04035	18.94516	1.23909	0.80705	173.12696	168.49862	65.14629	0.32876	 	2.4049199999999996E10	 	1.94455E-10	 	-2844.27079	30.28446	 
680.0	1.0	0.0	8.21409	7.17301	-10.31821	14.01742	18.88342	1.23665	0.80864	173.43432	168.65986	65.26883	0.32862	 	2.8644199999999996E10	 	1.6241E-10	 	-2995.55148	30.25614	 
675.0	1.0	0.0	8.21613	7.17123	-10.34046	13.99448	18.82166	1.2342	0.81024	173.74111	168.82035	65.39117	0.32848	 	3.4179999999999996E10	 	1.35392E-10	 	-3146.69394	30.22849	 
670.0	1.0	0.0	8.21816	7.16945	-10.36266	13.97154	18.75989	1.23173	0.81186	174.04733	168.98009	65.51332	0.32834	 	4.08621E10	 	1.12654E-10	 	-3297.70179	30.20157	 
665.0	1.0	0.0	8.22019	7.16768	-10.3848	13.94859	18.69809	1.22925	0.8135	174.35298	169.13908	65.63528	0.3282	 	4.894369999999999E10	 	9.35539E-11	 	-3448.57882	30.17541	 
660.0	1.0	0.0	8.22222	7.16592	-10.40687	13.92563	18.63627	1.22676	0.81516	174.65807	169.29732	65.75705	0.32806	 	5.873719999999999E10	 	7.75399E-11	 	-3599.31817	30.14787	 
655.0	1.0	0.0	8.22424	7.16416	-10.42889	13.90267	18.57444	1.22425	0.81683	174.96258	169.45482	65.87862	0.32792	 	7.06289E10	 	6.4139E-11	 	-3749.85905	30.10818	 
650.0	1.0	0.0	8.22625	7.1624	-10.45085	13.87971	18.51258	1.22172	0.81852	175.26653	169.61158	66.00001	0.32778	 	8.5098E10	 	5.29468E-11	 	-3900.12081	30.05235	 
645.0	1.0	0.0	8.22827	7.16065	-10.47275	13.85673	18.4507	1.21918	0.82023	175.56991	169.76759	66.1212	0.32764	 	1.02739E11	 	4.36177E-11	 	-4050.10466	29.99677	 
640.0	1.0	0.0	8.23027	7.1589	-10.49459	13.83375	18.38879	1.21662	0.82195	175.87272	169.92287	66.2422	0.3275	 	1.24294E11	 	3.58573E-11	 	-4199.81181	29.94143	 
635.0	1.0	0.0	8.23228	7.15716	-10.51637	13.81077	18.32687	1.21405	0.82369	176.17496	170.07741	66.36301	0.32736	 	1.50687E11	 	2.94149E-11	 	-4349.24346	29.88633	 
630.0	1.0	0.0	8.23428	7.15542	-10.5381	13.78778	18.26492	1.21146	0.82545	176.47664	170.23122	66.48363	0.32722	 	1.83074E11	 	2.40779E-11	 	-4498.40079	29.83147	 
625.0	1.0	0.0	8.23627	7.15369	-10.55976	13.76478	18.20295	1.20885	0.82723	176.77774	170.38429	66.60406	0.32708	 	2.22905E11	 	1.9666E-11	 	-4647.28515	29.77687	 
620.0	1.0	0.0	8.23826	7.15196	-10.58136	13.74178	18.14095	1.20623	0.82903	177.07828	170.53663	66.72429	0.32694	 	2.72E11	 	1.60266E-11	 	-4795.89803	29.72257	 
615.0	1.0	0.0	8.24025	7.15024	-10.60291	13.71877	18.07893	1.20359	0.83085	177.37825	170.68825	66.84433	0.3268	 	3.32654E11	 	1.30311E-11	 	-4944.24045	29.66848	 
610.0	1.0	0.0	8.24223	7.14852	-10.6244	13.69575	18.01689	1.20094	0.83268	177.67765	170.83914	66.96418	0.32666	 	4.0776E11	 	1.0571E-11	 	-5092.31361	29.61463	 
605.0	1.0	0.0	8.2442	7.14681	-10.64582	13.67273	17.95482	1.19827	0.83454	177.97648	170.9893	67.08384	0.32652	 	5.00985E11	 	8.55521E-12	 	-5240.1187	29.56102	 
600.0	1.0	0.0	8.24617	7.1451	-10.66719	13.6497	17.89273	1.19558	0.83641	178.27474	171.13874	67.2033	0.32638	 	6.16976E11	 	6.90728E-12	 	-5387.6569	29.50764	 
595.0	1.0	0.0	8.24814	7.14339	-10.6885	13.62667	17.83061	1.19287	0.83831	178.57244	171.28746	67.32257	0.32624	 	7.61647E11	 	5.56324E-12	 	-5534.92939	29.4545	 
590.0	1.0	0.0	8.25011	7.14169	-10.70974	13.60363	17.76847	1.19015	0.84023	178.86957	171.43546	67.44165	0.32611	 	9.42539E11	 	4.46965E-12	 	-5681.93737	29.4016	 
585.0	1.0	0.0	8.25206	7.14	-10.73093	13.58059	17.7063	1.18741	0.84217	179.16613	171.58274	67.56054	0.32597	 	1.16929E12	 	3.58201E-12	 	-5828.682	29.34893	 
580.0	1.0	0.0	8.25402	7.13831	-10.75206	13.55754	17.6441	1.18466	0.84413	179.46212	171.72931	67.67924	0.32583	 	1.45427E12	 	2.8633E-12	 	-5975.16447	29.29649	 
575.0	1.0	0.0	8.25597	7.13662	-10.77313	13.53448	17.58187	1.18188	0.84611	179.75754	171.87516	67.79774	0.32569	 	1.81335E12	 	2.28285E-12	 	-6121.38595	29.2443	 
570.0	1.0	0.0	8.25791	7.13494	-10.79414	13.51142	17.51962	1.17909	0.84811	180.0524	172.02031	67.91605	0.32555	 	2.26703E12	 	1.81524E-12	 	-6267.3476	29.19233	 
565.0	1.0	0.0	8.25985	7.13327	-10.81509	13.48835	17.45734	1.17628	0.85014	180.34668	172.16474	68.03416	0.32541	 	2.84177E12	 	1.43953E-12	 	-6413.0506	29.1406	 
560.0	1.0	0.0	8.26179	7.1316	-10.83598	13.46527	17.39503	1.17345	0.85219	180.6404	172.30846	68.15209	0.32527	 	3.57189E12	 	1.13844E-12	 	-6558.49613	29.08911	 
555.0	1.0	0.0	8.26372	7.12993	-10.85681	13.44219	17.33269	1.1706	0.85426	180.93355	172.45148	68.26982	0.32514	 	4.50202E12	 	8.97818E-13	 	-6703.68533	29.03784	 
550.0	1.0	0.0	8.26564	7.12827	-10.87758	13.41911	17.27032	1.16774	0.85636	181.22614	172.5938	68.38735	0.325	 	5.69032E12	 	7.06039E-13	 	-6848.61938	28.98681	 
545.0	1.0	0.0	8.26756	7.12661	-10.8983	13.39601	17.20792	1.16485	0.85848	181.51815	172.73541	68.5047	0.32486	 	7.2129E12	 	5.53617E-13	 	-6993.29944	28.93601	 
540.0	1.0	0.0	8.26948	7.12496	-10.91895	13.37292	17.14549	1.16195	0.86062	181.8096	172.87633	68.62185	0.32472	 	9.16958E12	 	4.3282E-13	 	-7137.72665	28.88544	 
535.0	1.0	0.0	8.27139	7.12331	-10.93954	13.34981	17.08303	1.15903	0.86279	182.10048	173.01654	68.73881	0.32458	 	1.16917E13	 	3.37365E-13	 	-7281.90219	28.83511	 
530.0	1.0	0.0	8.2733	7.12167	-10.96007	13.3267	17.02054	1.15608	0.86499	182.39079	173.15606	68.85557	0.32444	 	1.49528E13	 	2.62157E-13	 	-7425.8272	28.785	 
525.0	1.0	0.0	8.2752	7.12003	-10.98055	13.30359	16.95801	1.15312	0.86721	182.68053	173.29488	68.97214	0.32431	 	1.91825E13	 	2.0308E-13	 	-7569.50282	28.73513	 
520.0	1.0	0.0	8.2771	7.1184	-11.00096	13.28046	16.89545	1.15014	0.86946	182.96971	173.43301	69.08852	0.32417	 	2.4686E13	 	1.56817E-13	 	-7712.93021	28.68548	 
515.0	1.0	0.0	8.27899	7.11677	-11.02131	13.25733	16.83286	1.14714	0.87173	183.25831	173.57045	69.2047	0.32403	 	3.18703E13	 	1.20701E-13	 	-7856.11051	28.63606	 
510.0	1.0	0.0	8.28088	7.11515	-11.04161	13.2342	16.77023	1.14412	0.87403	183.54635	173.7072	69.32069	0.32389	 	4.12799E13	 	9.25962E-14	 	-7999.04488	28.58687	 
505.0	1.0	0.0	8.28277	7.11353	-11.06184	13.21106	16.70757	1.14108	0.87636	183.83383	173.84326	69.43649	0.32376	 	5.36457E13	 	7.07971E-14	 	-8141.73444	28.53791	 
500.0	1.0	0.0	8.28465	7.11192	-11.08202	13.18791	16.64487	1.13802	0.87872	184.12073	173.97863	69.55209	0.32362	 	6.99524E13	 	5.39446E-14	 	-8284.18033	28.48918	 
495.0	1.0	0.0	8.28652	7.11031	-11.10213	13.16476	16.58214	1.13494	0.88111	184.40707	174.11332	69.6675	0.32348	 	9.15316E13	 	4.09602E-14	 	-8426.38367	28.44067	 
490.0	1.0	0.0	8.28839	7.10871	-11.12218	13.1416	16.51937	1.13183	0.88352	184.69283	174.24733	69.78272	0.32334	 	1.2019E14	 	3.09904E-14	 	-8568.3456	28.39239	 
485.0	1.0	0.0	8.29026	7.10711	-11.14218	13.11844	16.45656	1.12871	0.88597	184.97803	174.38066	69.89774	0.3232	 	1.5839E14	 	2.33622E-14	 	-8710.06723	28.34433	 
480.0	1.0	0.0	8.29212	7.10551	-11.16211	13.09527	16.39371	1.12556	0.88844	185.26267	174.51331	70.01256	0.32307	 	2.09498E14	 	1.75464E-14	 	-8851.54968	28.29649	 
475.0	1.0	0.0	8.29397	7.10392	-11.18199	13.07209	16.33082	1.1224	0.89095	185.54673	174.64528	70.1272	0.32293	 	2.7813399999999997E14	 	1.31287E-14	 	-8992.79405	28.24888	 
470.0	1.0	0.0	8.29582	7.10234	-11.2018	13.04891	16.2679	1.11921	0.89349	185.83023	174.77657	70.24163	0.32279	 	3.70666E14	 	9.78543E-15	 	-9133.80148	28.20148	 
465.0	1.0	0.0	8.29767	7.10076	-11.22156	13.02572	16.20493	1.116	0.89606	186.11316	174.9072	70.35588	0.32266	 	4.9591E14	 	7.26488E-15	 	-9274.57305	28.15431	 
460.0	1.0	0.0	8.29951	7.09918	-11.24125	13.00253	16.14192	1.11277	0.89866	186.39552	175.03714	70.46993	0.32252	 	6.66112E14	 	5.37196E-15	 	-9415.10987	28.10736	 
455.0	1.0	0.0	8.30135	7.09761	-11.26089	12.97933	16.07887	1.10951	0.9013	186.67731	175.16642	70.58378	0.32238	 	8.98361E14	 	3.956E-15	 	-9555.41304	28.06063	 
450.0	1.0	0.0	8.30318	7.09605	-11.28046	12.95613	16.01577	1.10623	0.90397	186.95854	175.29503	70.69745	0.32224	 	1.21661E15	 	2.90111E-15	 	-9695.48365	28.01412	 
445.0	1.0	0.0	8.305	7.09449	-11.29998	12.93291	15.95263	1.10293	0.90667	187.23919	175.42298	70.81091	0.32211	 	1.65457E15	 	2.11844E-15	 	-9835.32279	27.96783	 
440.0	1.0	0.0	8.30683	7.09293	-11.31943	12.9097	15.88945	1.09961	0.90941	187.51928	175.55025	70.92418	0.32197	 	2.25992E15	 	1.54019E-15	 	-9974.93152	27.92175	 
435.0	1.0	0.0	8.30864	7.09138	-11.33882	12.88647	15.82622	1.09626	0.91219	187.7988	175.67687	71.03726	0.32183	 	3.10035E15	 	1.11481E-15	 	-10114.31096	27.87589	 
430.0	1.0	0.0	8.31045	7.08983	-11.35816	12.86324	15.76294	1.09289	0.915	188.07776	175.80282	71.15014	0.3217	 	4.2725E15	 	8.03253E-16	 	-10253.46215	27.83024	 
425.0	1.0	0.0	8.31226	7.08829	-11.37743	12.84001	15.69962	1.0895	0.91786	188.35614	175.92811	71.26283	0.32156	 	5.91492E15	 	5.76085E-16	 	-10392.38601	27.78477	 
420.0	1.0	0.0	8.31406	7.08675	-11.39664	12.81677	15.63624	1.08608	0.92074	188.63396	176.05274	71.37532	0.32142	 	8.22723E15	 	4.11207E-16	 	-10531.08385	27.73957	 
415.0	1.0	0.0	8.31586	7.08522	-11.4158	12.79352	15.57282	1.08263	0.92367	188.91121	176.17672	71.48762	0.32129	 	1.14985E16	 	2.92098E-16	 	-10669.55608	27.69445	 
410.0	1.0	0.0	8.31765	7.08369	-11.43489	12.77027	15.50935	1.07917	0.92664	189.1879	176.30004	71.59972	0.32115	 	1.61494E16	 	2.06465E-16	 	-10807.80286	27.64935	 
405.0	1.0	0.0	8.31944	7.08217	-11.45392	12.74701	15.44582	1.07567	0.92965	189.46401	176.4227	71.71163	0.32101	 	2.27954E16	 	1.452E-16	 	-10945.82431	27.60429	 
400.0	1.0	0.0	8.32123	7.08066	-11.4729	12.72374	15.38224	1.07216	0.9327	189.73956	176.54472	71.82334	0.32088	 	3.23415E16	 	1.01587E-16	 	-11083.62061	27.55926	 
395.0	1.0	0.0	8.323	7.07914	-11.49181	12.70047	15.3186	1.06861	0.93579	190.01454	176.66608	71.93485	0.32074	 	4.61263E16	 	7.06989E-17	 	-11221.19187	27.51425	 
390.0	1.0	0.0	8.32478	7.07763	-11.51066	12.67719	15.25491	1.06505	0.93893	190.28895	176.78679	72.04618	0.3206	 	6.6139600000000008E16	 	4.8937E-17	 	-11358.53821	27.46927	 
385.0	1.0	0.0	8.32654	7.07613	-11.52945	12.65391	15.19116	1.06145	0.94211	190.56279	176.90686	72.1573	0.32047	 	9.53569E16	 	3.36868E-17	 	-11495.65977	27.42431	 
380.0	1.0	0.0	8.32831	7.07463	-11.54818	12.63062	15.12736	1.05783	0.94533	190.83607	177.02628	72.26823	0.32033	 	1.38253E17	 	2.30581E-17	 	-11632.55665	27.37938	 
375.0	1.0	0.0	8.33007	7.07314	-11.56685	12.60733	15.06349	1.05418	0.9486	191.10878	177.14506	72.37896	0.3202	 	2.01599E17	 	1.56918E-17	 	-11769.22896	27.33446	 
370.0	1.0	0.0	8.33182	7.07165	-11.58546	12.58402	14.99957	1.05051	0.95192	191.38092	177.26319	72.4895	0.32006	 	2.95698E17	 	1.06157E-17	 	-11905.67681	27.28957	 
365.0	1.0	0.0	8.33357	7.07017	-11.60401	12.56072	14.93558	1.04681	0.95529	191.65249	177.38068	72.59984	0.31992	 	4.3633E17	 	7.1383E-18	 	-12041.90028	27.24469	 
360.0	1.0	0.0	8.33531	7.06869	-11.6225	12.5374	14.87153	1.04308	0.9587	191.9235	177.49753	72.70999	0.31979	 	6.47814E17	 	4.77027E-18	 	-12177.89945	27.19983	 
355.0	1.0	0.0	8.33705	7.06722	-11.64093	12.51409	14.80741	1.03932	0.96217	192.19393	177.61375	72.81994	0.31965	 	9.67872E17	 	3.16761E-18	 	-12313.67439	27.15499	 
350.0	1.0	0.0	8.33878	7.06575	-11.6593	12.49076	14.74322	1.03554	0.96568	192.4638	177.72933	72.9297	0.31952	 	1.4554E18	 	2.08976E-18	 	-12449.22519	27.11016	 
345.0	1.0	0.0	8.34051	7.06428	-11.6776	12.46743	14.67897	1.03173	0.96925	192.7331	177.84427	73.03925	0.31938	 	2.20301E18	 	1.36951E-18	 	-12584.55189	27.06534	 
340.0	1.0	0.0	8.34224	7.06282	-11.69585	12.44409	14.61465	1.02788	0.97287	193.00183	177.95858	73.14862	0.31924	 	3.35725E18	 	8.91394E-19	 	-12719.65452	27.02053	 
335.0	1.0	0.0	8.34395	7.06137	-11.71404	12.42075	14.55025	1.02401	0.97655	193.27	178.07226	73.25778	0.31911	 	5.15182E18	 	5.76152E-19	 	-12854.53316	26.97573	 
330.0	1.0	0.0	8.34567	7.05992	-11.73216	12.3974	14.48578	1.02012	0.98028	193.5376	178.18531	73.36675	0.31897	 	7.96197E18	 	3.69736E-19	 	-12989.18781	26.93093	 
325.0	1.0	0.0	8.34738	7.05847	-11.75023	12.37405	14.42124	1.01619	0.98407	193.80463	178.29773	73.47552	0.31884	 	1.23949E19	 	2.35535E-19	 	-13123.61848	26.88613	 
320.0	1.0	0.0	8.34908	7.05703	-11.76823	12.35069	14.35662	1.01223	0.98792	194.07109	178.40952	73.5841	0.3187	 	1.94403E19	 	1.48918E-19	 	-13257.82519	26.84134	 
315.0	1.0	0.0	8.35078	7.0556	-11.78617	12.32732	14.29192	1.00824	0.99183	194.33698	178.52068	73.69248	0.31857	 	3.07247E19	 	9.34301E-20	 	-13391.80795	26.79655	 
310.0	1.0	0.0	8.35247	7.05417	-11.80406	12.30395	14.22714	1.00422	0.9958	194.60231	178.63123	73.80066	0.31843	 	4.8942E19	 	5.81548E-20	 	-13525.56672	26.75175	 
305.0	1.0	0.0	8.35416	7.05274	-11.82188	12.28057	14.16227	1.00017	0.99983	194.86706	178.74115	73.90865	0.3183	 	7.85909E19	 	3.5905E-20	 	-13659.10148	26.70695	 
300.0	1.0	0.0	8.35584	7.05132	-11.83964	12.25718	14.09732	0.99609	1.00393	195.13125	178.85044	74.01644	0.31816	 	1.2724799999999998E20	 	2.19838E-20	 	-13792.41219	26.66214	 
295.0	1.0	0.0	8.35752	7.04991	-11.85734	12.23379	14.03228	0.99197	1.00809	195.39488	178.95912	74.12403	0.31803	 	2.07786E20	 	1.33455E-20	 	-13925.4988	26.61732	 
290.0	1.0	0.0	8.35919	7.0485	-11.87498	12.2104	13.96716	0.98783	1.01232	195.65793	179.06718	74.23142	0.31789	 	3.4226299999999997E20	 	8.03064E-21	 	-14058.36125	26.57249	 
285.0	1.0	0.0	8.36086	7.04709	-11.89256	12.187	13.90194	0.98365	1.01662	195.92041	179.17462	74.33862	0.31776	 	5.6883799999999993E20	 	4.78905E-21	 	-14190.99945	26.52764	 
280.0	1.0	0.0	8.36252	7.04569	-11.91008	12.16359	13.83662	0.97944	1.02099	196.18233	179.28145	74.44562	0.31762	 	9.54125E20	 	2.8296E-21	 	-14323.4133	26.48277	 
275.0	1.0	0.0	8.36418	7.04429	-11.92753	12.14017	13.77121	0.9752	1.02543	196.44368	179.38766	74.55243	0.31749	 	1.61555E21	 	1.65602E-21	 	-14455.60271	26.43788	 
270.0	1.0	0.0	8.36583	7.0429	-11.94493	12.11675	13.70569	0.97092	1.02995	196.70446	179.49327	74.65903	0.31735	 	2.76214E21	 	9.59757E-22	 	-14587.56754	26.39297	 
265.0	1.0	0.0	8.36748	7.04151	-11.96226	12.09333	13.64008	0.96661	1.03454	196.96468	179.59826	74.76544	0.31722	 	4.76978E21	 	5.5067E-22	 	-14719.30765	26.34802	 
260.0	1.0	0.0	8.36912	7.04013	-11.97954	12.06989	13.57435	0.96227	1.03921	197.22432	179.70264	74.87165	0.31708	 	8.321510000000001E21	 	3.12704E-22	 	-14850.8229	26.30305	 
255.0	1.0	0.0	8.37076	7.03876	-11.99675	12.04646	13.50852	0.95789	1.04396	197.4834	179.80641	74.97767	0.31695	 	1.46718E22	 	1.75696E-22	 	-14982.11309	26.25804	 
250.0	1.0	0.0	8.37239	7.03738	-12.0139	12.02301	13.44258	0.95348	1.04879	197.74191	179.90957	75.08348	0.31681	 	2.61499E22	 	9.76434E-23	 	-15113.17805	26.21299	 
245.0	1.0	0.0	8.37402	7.03602	-12.03099	11.99956	13.37652	0.94903	1.05371	197.99985	180.01213	75.1891	0.31668	 	4.713049999999999E22	 	5.36587E-23	 	-15244.01755	26.1679	 
240.0	1.0	0.0	8.37564	7.03465	-12.04802	11.97611	13.31034	0.94454	1.05871	198.25722	180.11409	75.29452	0.31654	 	8.59249E22	 	2.91482E-23	 	-15374.63139	26.12277	 
235.0	1.0	0.0	8.37726	7.0333	-12.06499	11.95265	13.24404	0.94002	1.06381	198.51402	180.21545	75.39974	0.31641	 	1.5851399999999997E23	 	1.56462E-23	 	-15505.01929	26.07758	 
230.0	1.0	0.0	8.37887	7.03195	-12.0819	11.92918	13.17761	0.93546	1.06899	198.77026	180.3162	75.50477	0.31628	 	2.9600899999999997E23	 	8.29621E-24	 	-15635.18099	26.03234	 
225.0	1.0	0.0	8.38047	7.0306	-12.09875	11.9057	13.11106	0.93087	1.07426	199.02593	180.41635	75.60959	0.31614	 	5.59738E23	 	4.34372E-24	 	-15765.1162	25.98704	 
220.0	1.0	0.0	8.38207	7.02926	-12.11553	11.88222	13.04436	0.92624	1.07964	199.28102	180.51591	75.71422	0.31601	 	1.0722E24	 	2.24486E-24	 	-15894.8246	25.94168	 
215.0	1.0	0.0	8.38367	7.02792	-12.13226	11.85874	12.97754	0.92157	1.08511	199.53556	180.61486	75.81865	0.31587	 	2.08137E24	 	1.1447E-24	 	-16024.30587	25.89625	 
210.0	1.0	0.0	8.38526	7.02658	-12.14892	11.83525	12.91056	0.91686	1.09068	199.78952	180.71323	75.92288	0.31574	 	4.0962400000000003E24	 	5.75683E-25	 	-16153.55963	25.85075	 
205.0	1.0	0.0	8.38684	7.02526	-12.16552	11.81175	12.84345	0.91211	1.09636	200.04291	180.81099	76.02692	0.31561	 	8.17657E24	 	2.85417E-25	 	-16282.5855	25.80517	 
200.0	1.0	0.0	8.38842	7.02393	-12.18206	11.78825	12.77618	0.90733	1.10214	200.29574	180.90817	76.13075	0.31547	 	1.65615E25	 	1.39439E-25	 	-16411.38307	25.75951	 
195.0	1.0	0.0	8.39	7.02262	-12.19854	11.76474	12.70875	0.9025	1.10803	200.548	181.00475	76.23439	0.31534	 	3.4054800000000002E25	 	6.70955E-26	 	-16539.95191	25.71377	 
190.0	1.0	0.0	8.39157	7.0213	-12.21496	11.74122	12.64116	0.89764	1.11404	200.79968	181.10075	76.33782	0.3152	 	7.1124E25	 	3.17828E-26	 	-16668.29154	25.66793	 
185.0	1.0	0.0	8.39313	7.01999	-12.23131	11.7177	12.5734	0.89273	1.12016	201.05081	181.19615	76.44106	0.31507	 	1.5095000000000002E26	 	1.48136E-26	 	-16796.40147	25.62199	 
180.0	1.0	0.0	8.39469	7.01869	-12.24761	11.69417	12.50547	0.88779	1.1264	201.30136	181.29097	76.5441	0.31494	 	3.25736E26	 	6.7899E-27	 	-16924.28118	25.57594	 
175.0	1.0	0.0	8.39624	7.01739	-12.26384	11.67064	12.43736	0.8828	1.13276	201.55134	181.3852	76.64694	0.3148	 	7.15071E26	 	3.05887E-27	 	-17051.93011	25.52979	 
170.0	1.0	0.0	8.39779	7.0161	-12.28002	11.6471	12.36907	0.87777	1.13925	201.80076	181.47885	76.74958	0.31467	 	1.59786E27	 	1.35362E-27	 	-17179.34767	25.48351	 
165.0	1.0	0.0	8.39933	7.01481	-12.29613	11.62355	12.30058	0.8727	1.14587	202.0496	181.57192	76.85202	0.31454	 	3.63663E27	 	5.88045E-28	 	-17306.53326	25.43712	 
160.0	1.0	0.0	8.40087	7.01353	-12.31218	11.6	12.2319	0.86758	1.15263	202.29788	181.6644	76.95427	0.3144	 	8.435369999999999E27	 	2.50623E-28	 	-17433.4862	25.39059	 
155.0	1.0	0.0	8.4024	7.01225	-12.32817	11.57645	12.16301	0.86242	1.15952	202.54559	181.7563	77.05631	0.31427	 	1.9954600000000002E28	 	1.04722E-28	 	-17560.20584	25.34393	 
150.0	1.0	0.0	8.40393	7.01097	-12.34409	11.55288	12.09391	0.85722	1.16656	202.79273	181.84762	77.15815	0.31414	 	4.81749E28	 	4.28707E-29	 	-17686.69142	25.29712	 
145.0	1.0	0.0	8.40545	7.00971	-12.35996	11.52931	12.02458	0.85198	1.17374	203.0393	181.93836	77.2598	0.314	 	1.18782E29	 	1.71817E-29	 	-17812.9422	25.25016	 
140.0	1.0	0.0	8.40697	7.00844	-12.37576	11.50574	11.95502	0.84669	1.18107	203.2853	182.02853	77.36124	0.31387	 	2.99343E29	 	6.73636E-30	 	-17938.95739	25.20304	 
135.0	1.0	0.0	8.40848	7.00718	-12.3915	11.48216	11.88523	0.84135	1.18856	203.53074	182.11812	77.46249	0.31374	 	7.716520000000001E29	 	2.58158E-30	 	-18064.73614	25.15575	 
130.0	1.0	0.0	8.40998	7.00593	-12.40718	11.45857	11.81519	0.83597	1.19621	203.7756	182.20714	77.56353	0.3136	 	2.03646E30	 	9.66225E-31	 	-18190.2776	25.10829	 
125.0	1.0	0.0	8.41148	7.00468	-12.4228	11.43498	11.74489	0.83055	1.20403	204.0199	182.29558	77.66438	0.31347	 	5.506979999999999E30	 	3.52874E-31	 	-18315.58084	25.06065	 
120.0	1.0	0.0	8.41298	7.00343	-12.43836	11.41138	11.67432	0.82507	1.21201	204.26363	182.38346	77.76502	0.31334	 	1.52736E31	 	1.25633E-31	 	-18440.64491	25.01281	 
115.0	1.0	0.0	8.41447	7.0022	-12.45386	11.38777	11.60348	0.81955	1.22018	204.50679	182.47076	77.86547	0.31321	 	4.34894E31	 	4.35615E-32	 	-18565.46882	24.96478	 
110.0	1.0	0.0	8.41595	7.00096	-12.46929	11.36416	11.53234	0.81399	1.22852	204.74938	182.55749	77.96572	0.31307	 	1.2725799999999999E32	 	1.4695E-32	 	-18690.05155	24.91655	 
105.0	1.0	0.0	8.41743	6.99973	-12.48466	11.34055	11.4609	0.80837	1.23705	204.9914	182.64366	78.06576	0.31294	 	3.83106E32	 	4.81762E-33	 	-18814.39201	24.86809	 
100.0	1.0	0.0	8.4189	6.99851	-12.49997	11.31692	11.38914	0.80271	1.24578	205.23285	182.72926	78.16561	0.31281	 	1.1879E33	 	1.53317E-33	 	-18938.4891	24.81942	 
95.0	1.0	0.0	8.42037	6.99729	-12.51522	11.29329	11.31706	0.797	1.25471	205.47374	182.81429	78.26525	0.31268	 	3.7983000000000004E33	 	4.73067E-34	 	-19062.34168	24.77052	 
90.0	1.0	0.0	8.42183	6.99607	-12.53041	11.26966	11.24463	0.79124	1.26384	205.71405	182.89876	78.3647	0.31254	 	1.25401E34	 	1.41343E-34	 	-19185.94855	24.72137	 
85.0	1.0	0.0	8.42329	6.99486	-12.54553	11.24602	11.17184	0.78543	1.27319	205.95379	182.98267	78.46394	0.31241	 	4.28048E34	 	4.08375E-35	 	-19309.3085	24.67199	 
80.0	1.0	0.0	8.42474	6.99366	-12.5606	11.22237	11.09868	0.77957	1.28276	206.19297	183.06601	78.56298	0.31228	 	1.5128099999999998E35	 	1.13936E-35	 	-19432.42029	24.62236	 
75.0	1.0	0.0	8.42618	6.99246	-12.5756	11.19872	11.02513	0.77366	1.29256	206.43158	183.1488	78.66183	0.31215	 	5.544029999999999E35	 	3.06498E-36	 	-19555.28262	24.57247	 
70.0	1.0	0.0	8.42762	6.99126	-12.59054	11.17506	10.95116	0.7677	1.3026	206.66961	183.23103	78.76047	0.31201	 	2.1100999999999998E36	 	7.9372E-37	 	-19677.89422	24.52232	 
65.0	1.0	0.0	8.42906	6.99007	-12.60542	11.1514	10.87676	0.76169	1.31288	206.90708	183.31269	78.85891	0.31188	 	8.355009999999999E36	 	1.97537E-37	 	-19800.25377	24.47191	 
60.0	1.0	0.0	8.43049	6.98889	-12.62023	11.12773	10.80191	0.75562	1.32341	207.14398	183.39381	78.95715	0.31175	 	3.4477099999999997E37	 	4.71624E-38	 	-19922.35995	24.42124	 
55.0	1.0	0.0	8.43191	6.98771	-12.63499	11.10405	10.72659	0.74951	1.33421	207.38031	183.47436	79.05519	0.31162	 	1.4854999999999999E38	 	1.07817E-38	 	-20044.21145	24.3703	 
50.0	1.0	0.0	8.43333	6.98653	-12.64968	11.08037	10.65077	0.74334	1.34527	207.61607	183.55436	79.15302	0.31149	 	6.69646E38	 	2.3553E-39	 	-20165.80697	24.3191	 
45.0	1.0	0.0	8.43474	6.98536	-12.66431	11.05668	10.57442	0.73713	1.35662	207.85126	183.63381	79.25066	0.31135	 	3.1649900000000005E39	 	4.9062E-40	 	-20287.14527	24.26766	 
40.0	1.0	0.0	8.43615	6.9842	-12.67888	11.03299	10.49752	0.73086	1.36826	208.08588	183.71271	79.3481	0.31122	 	1.57196E40	 	9.72295E-41	 	-20408.22515	24.21597	 
35.0	1.0	0.0	8.43755	6.98304	-12.69338	11.00929	10.42005	0.72453	1.3802	208.31994	183.79106	79.44533	0.31109	 	8.22427E40	 	1.82874E-41	 	-20529.04547	24.16407	 
30.0	1.0	0.0	8.43895	6.98188	-12.70783	10.98558	10.34195	0.71816	1.39245	208.55342	183.86885	79.54236	0.31096	 	4.54423E41	 	3.256E-42	 	-20649.60526	24.11196	 
25.0	1.0	0.0	8.44034	6.98073	-12.72221	 	10.26322	0.71173	1.40502	208.78633	183.9461	79.63919	0.31083	 	2.6590199999999998E42	 	5.47267E-43	 	-20769.90364	 	 
