T (C)	Fraction solid (wt)-TOTAL	Fraction liquid (wt)-LIQUID	Density (g/(cm)^3)-TOTAL	Molar volume (cm^3)-TOTAL	Volume change (%)-  	Average expansion coeff. (10e-6 1/K)-  	Thermal conductivity (W/(m*K))-TOTAL	Electrical resistivity (10e-6 Ohm*m)-TOTAL	Electrical conductivity (10e6 1/(Ohm*m))-TOTAL	Young's modulus (GPa)-TOTAL	Bulk modulus (GPa)-TOTAL	Shear modulus(GPa)-TOTAL	Poisson's ratio-TOTAL	Liquid viscosity (mPa s)-  	Total viscosity (mPa s)-  	Liquid diffusivity (10e-9 (m^2)/s)-  	Total diffusivity (10e-9 (m^2)/s)-  	Surface Tension (mN/m)-  	Enthalpy (J/mole)-TOTAL	Specific heat (J/(mole K))-TOTAL	Latent heat (J/mole)-TOTAL
1400.0	8.7E-4	0.99913	7.18371	7.88634	0.0	32.40292	29.38675	1.39492	0.71689	3.96959E-10	121.3283	1.32342E-10	0.49975	6.64534	6.64534	1.22887	1.22887	1748.71525	46001.578	 	0.0
1395.0	0.00111	0.99889	7.18804	7.88163	-0.0597551	32.35636	29.30538	1.39461	0.71704	1.04186E-9	121.53953	3.4736E-10	0.49968	6.72034	6.72034	1.21152	1.21152	1751.52028	45783.869	43.5418	15.083
1390.0	0.00134	0.99866	7.19234	7.87682	-0.12072	32.3061	29.22374	1.39432	0.7172	2.25048E-9	121.74787	7.50356E-10	0.49961	6.79657	6.79657	1.19434	1.19434	1754.35802	45566.795	43.4148	29.988
1385.0	0.00157	0.99843	7.19664	7.87219	-0.17945	32.26169	29.14227	1.39401	0.71735	4.26874E-9	121.95841	1.42335E-9	0.49954	6.87415	6.87415	1.17731	1.17731	1757.22595	45350.351	43.2888	44.72
1380.0	0.0018	0.9982	7.20093	7.86751	-0.23873	32.21542	29.06097	1.3937	0.71752	7.37546E-9	122.1675	2.45934E-9	0.49948	6.95299	6.95299	1.16045	1.16045	1760.12592	45134.535	43.1632	59.277
1375.0	0.00203	0.99797	7.2052	7.8628	-0.29853	32.16735	28.97956	1.39338	0.71768	1.18808E-8	122.37483	3.96181E-9	0.49941	7.03317	7.03317	1.14375	1.14375	1763.05779	44919.343	43.0384	73.662
1370.0	0.00226	0.99774	7.20947	7.85812	-0.35786	32.12023	28.89824	1.39307	0.71784	1.81213E-8	122.58192	6.0431E-9	0.49934	7.11473	7.11473	1.12721	1.12721	1766.02068	44704.772	42.9142	87.876
1365.0	0.00248	0.99752	7.21373	7.85347	-0.41685	32.07373	28.81702	1.39274	0.71801	2.64536E-8	122.78872	8.82213E-9	0.49928	7.19769	7.19769	1.11083	1.11083	1769.01447	44490.817	42.791	101.919
1360.0	0.0027	0.9973	7.21797	7.84886	-0.47527	32.0285	28.73588	1.39241	0.71818	3.72532E-8	122.99532	1.24242E-8	0.49921	7.28208	7.28208	1.0946	1.0946	1772.03877	44277.477	42.668	115.792
1355.0	0.00292	0.99708	7.22221	7.84429	-0.53323	31.98421	28.65482	1.39208	0.71835	5.09133E-8	123.20165	1.69807E-8	0.49915	7.36793	7.36793	1.07854	1.07854	1775.09341	44064.747	42.546	129.496
1350.0	0.00314	0.99686	7.22644	7.83974	-0.59086	31.94057	28.57383	1.39173	0.71853	6.78338E-8	123.40759	2.2625E-8	0.49909	7.45528	7.45528	1.06263	1.06263	1778.17817	43852.625	42.4244	143.03
1345.0	0.00335	0.99665	7.23065	7.83517	-0.64888	31.89544	28.49273	1.3914	0.7187	8.84314E-8	123.61192	2.94963E-8	0.49903	7.54417	7.54417	1.04687	1.04687	1781.29332	43641.106	42.3038	156.398
1340.0	0.00356	0.99644	7.23484	7.8306	-0.70679	31.8503	28.41174	1.39105	0.71888	1.13132E-7	123.81567	3.77366E-8	0.49896	7.6346	7.6346	1.03128	1.03128	1784.43816	43430.189	42.1834	169.6
1335.0	0.00377	0.99623	7.23903	7.82609	-0.76392	31.80706	28.33081	1.3907	0.71906	1.42335E-7	124.0195	4.74797E-8	0.4989	7.72665	7.72665	1.01583	1.01583	1787.61178	43219.869	42.064	182.636
1330.0	0.00398	0.99602	7.24322	7.82154	-0.82167	31.7617	28.25005	1.39034	0.71925	1.76476E-7	124.22174	5.88708E-8	0.49884	7.8203	7.8203	1.00055	1.00055	1790.81488	43010.143	41.9452	195.508
1328.46	0.00405	0.99595	7.2445	7.82021	-0.83854	31.75023	28.22518	1.39023	0.7193	1.88023E-7	124.28482	6.27234E-8	0.49883	7.84944	7.84944	0.99588	0.99588	1791.80413	42945.822	41.86747	199.431
1325.0	0.1447	0.8553	7.28613	7.7755	-1.4055	30.18679	28.62828	1.36769	0.73116	0.0364706	125.51298	0.0123202	0.48011	7.95174	22.07778	0.98094	0.3533	1791.97597	40665.171	658.44357	2344.05
1320.0	0.30086	0.69914	7.33305	7.72569	-2.03713	28.46022	29.08045	1.34221	0.74504	0.75737	127.14962	0.25955	0.45901	8.0993	253.83091	0.96005	0.0306337	1794.33017	38106.88415	511.65737	4705.579
1315.0	0.41579	0.58421	7.3683	7.68864	-2.50682	27.19462	29.41283	1.32288	0.75593	2.90122	128.39902	1.00511	0.44324	8.24697	945.60949	0.9399	0.00819722	1796.69204	36190.97713	383.1814	6424.322
1310.0	0.50321	0.49679	7.39569	7.66008	-2.86903	26.23527	29.66136	1.30767	0.76472	6.42852	129.40282	2.24601	0.4311	8.3951	2132.59707	0.92041	0.00362326	1799.06083	34703.81075	297.43328	7714.783
1305.0	0.5715	0.4285	7.41759	7.63732	-3.15767	25.48562	29.8456	1.29549	0.77191	10.95149	130.24262	3.85206	0.42151	8.54397	3752.71128	0.90152	0.00205253	1801.43692	33513.09577	238.143	8709.241
1300.0	0.62606	0.37394	7.43554	7.61872	-3.39349	24.88664	29.98576	1.28535	0.778	16.0638	130.97068	5.68117	0.41377	8.69393	5730.09708	0.88316	0.00133997	1803.81943	32533.9037	195.83841	9492.626
1295.0	0.67046	0.32954	7.45055	7.60316	-3.59083	24.39742	30.08978	1.27683	0.78319	21.44453	131.61922	7.61841	0.40742	8.84521	8002.47264	0.8653	9.56423E-4	1806.20889	31709.77409	164.82592	10121.395
1290.0	0.70718	0.29282	7.46334	7.58991	-3.75882	23.99203	30.16533	1.26958	0.78766	26.87175	132.21017	9.58262	0.40211	8.99815	10526.8594	0.84788	7.24751E-4	1808.60367	31002.01243	141.55233	10634.239
1285.0	0.73795	0.26205	7.47442	7.57842	-3.90441	23.65058	30.21804	1.26331	0.79157	32.20219	132.75823	11.5204	0.39762	9.15296	13276.96772	0.83087	5.72792E-4	1811.00407	30383.38625	123.72524	11058.387
1280.0	0.76405	0.23595	7.48416	7.56832	-4.03259	23.35886	30.25231	1.25783	0.79502	37.34947	133.27346	13.39875	0.39377	9.30984	16239.86649	0.81425	4.66786E-4	1813.41006	29834.27706	109.82184	11413.461
1275.0	0.78642	0.21358	7.49282	7.55932	-4.14668	23.10739	30.2714	1.25299	0.79809	42.2676	133.76339	15.19942	0.39043	9.46909	19413.5541	0.79798	3.8922E-4	1815.82029	29340.25139	98.80513	11713.884
1270.0	0.80577	0.19423	7.50061	7.55122	-4.24941	22.8884	30.278	1.24867	0.80085	46.93641	134.23364	16.91376	0.38752	9.63089	22803.61685	0.78204	3.30287E-4	1818.23443	28890.49477	89.95132	11970.471
1265.0	0.82265	0.17735	7.50769	7.54383	-4.34314	22.69502	30.27411	1.24478	0.80335	51.34703	134.68745	18.53748	0.38495	9.7953	26418.89962	0.76642	2.84165E-4	1820.65397	28476.76971	82.74501	12191.456
1260.0	0.83748	0.16252	7.51418	7.53705	-4.42905	22.52404	30.26138	1.24126	0.80563	55.50476	135.12835	20.0716	0.38267	9.96266	30275.09203	0.7511	2.47164E-4	1823.07644	28092.70886	76.81217	12383.206
1255.0	0.85059	0.14941	7.52018	7.53078	-4.50856	22.37133	30.24119	1.23804	0.80773	59.42337	135.55877	21.52047	0.38062	10.13308	34393.83775	0.73606	2.16856E-4	1825.50176	27733.31954	71.87786	12550.708
1250.0	0.86226	0.13774	7.52576	7.52492	-4.58285	22.23349	30.21453	1.23507	0.80967	63.11034	135.9796	22.88625	0.37878	10.30669	38793.59391	0.72129	1.91633E-4	1827.9314	27394.64737	67.73443	12697.917
1245.0	0.8727	0.1273	7.531	7.51942	-4.65259	22.10857	30.18238	1.23233	0.81147	66.58533	136.39267	24.1757	0.37711	10.48367	43502.76194	0.70679	1.70327E-4	1830.36414	27073.51789	64.2259	12828.003
1240.0	0.88208	0.11792	7.53593	7.51424	-4.71828	21.99525	30.14541	1.22978	0.81315	69.85833	136.79914	25.39209	0.37559	10.66418	48547.0823	0.69253	1.52127E-4	1832.79876	26767.36267	61.23104	12943.533
1235.0	0.8915	0.1085	7.54069	7.50916	-4.78269	21.88498	30.108	1.22724	0.81484	73.27486	137.21771	26.66374	0.37405	10.85446	54193.50373	0.67815	1.35826E-4	1835.19988	26459.84221	61.50409	13060.842
1230.0	0.9015	0.0984981	7.54536	7.50407	-4.84723	21.77341	30.07266	1.22461	0.81659	77.03625	137.65499	28.06592	0.37242	11.05743	60667.07451	0.66349	1.20931E-4	1837.54305	26143.18009	63.33242	13187.705
1225.0	0.91036	0.0896403	7.54975	7.49926	-4.90818	21.67218	30.03221	1.22218	0.81821	80.52237	138.08061	29.36751	0.37094	11.26372	67575.51817	0.64917	1.08206E-4	1839.88448	25842.90283	60.05545	13298.594
1220.0	0.91824	0.0817569	7.55391	7.4947	-4.96611	21.57967	29.98747	1.21992	0.81973	83.76168	138.49628	30.57868	0.36961	11.47341	74964.77608	0.63518	9.72149E-5	1842.2238	25556.456	57.28937	13396.06
1215.0	0.9253	0.0747034	7.55786	7.49033	-5.02144	21.49466	29.93901	1.2178	0.82115	86.7795	138.90348	31.70852	0.36839	11.68672	82884.59781	0.6215	8.76314E-5	1844.56008	25281.77616	54.93597	13482.164
1210.0	0.93164	0.068362	7.56164	7.48614	-5.07463	21.41573	29.88732	1.21581	0.8225	89.59835	139.30314	32.76516	0.36728	11.90372	91388.69424	0.60812	7.92099E-5	1846.89463	25017.18384	52.91846	13558.583
1205.0	0.93736	0.0626364	7.56528	7.4821	-5.12579	21.34262	29.83285	1.21392	0.82378	92.23763	139.69641	33.7556	0.36626	12.12465	100535.9819	0.59503	7.17602E-5	1849.22429	24761.29563	51.17764	13626.699
1200.0	0.94255	0.0574459	7.56879	7.47819	-5.17545	21.27374	29.77591	1.21213	0.825	94.71544	140.08382	34.68647	0.36531	12.34951	110389.2293	0.58222	6.51339E-5	1851.55268	24512.96809	49.66551	13687.651
1195.0	0.94728	0.0527211	7.57219	7.47439	-5.22356	21.20927	29.71682	1.21041	0.82616	97.04733	140.46623	35.56338	0.36443	12.57855	121018.6327	0.56967	5.92113E-5	1853.87565	24271.24576	48.34447	13742.394
1190.0	0.95159	0.0484062	7.57549	7.4707	-5.27036	21.14849	29.65583	1.20877	0.82728	99.24803	140.8441	36.39174	0.36361	12.81192	132500.6359	0.55739	5.38961E-5	1856.19324	24035.32821	47.18351	13791.724
1185.0	0.95555	0.0444515	7.5787	7.4671	-5.31604	21.09084	29.59313	1.20719	0.82837	101.32922	141.21767	37.17583	0.36284	13.04968	144916.6356	0.54537	4.91101E-5	1858.5065	23804.53906	46.15783	13836.318
1180.0	0.95918	0.0408168	7.58184	7.46357	-5.36074	21.03589	29.52894	1.20567	0.82941	103.30262	141.58727	37.91996	0.36211	13.29202	158357.8993	0.53359	4.47876E-5	1860.81526	23578.29786	45.24824	13876.752
1175.0	0.96253	0.0374662	7.58492	7.46012	-5.40458	20.98329	29.4634	1.2042	0.83043	105.17818	141.95321	38.62778	0.36143	13.53901	172923.9197	0.52205	4.08738E-5	1863.11963	23356.12019	44.43553	13913.506
1170.0	0.96563	0.0343678	7.58794	7.45673	-5.44758	20.93301	29.39665	1.20276	0.83142	106.9649	142.31589	39.30261	0.36079	13.79086	188724.2782	0.51075	3.73225E-5	1865.41732	23137.58364	43.70731	13947.005
1165.0	0.9685	0.0314971	7.5909	7.4534	-5.48981	20.88485	29.3288	1.20137	0.83238	108.66953	142.67559	39.94693	0.36017	14.04777	205876.5476	0.49967	3.40945E-5	1867.70681	22922.32179	43.05237	13977.609
1160.0	0.97117	0.0288296	7.59382	7.45011	-5.53145	20.83821	29.25997	1.20001	0.83333	110.30042	143.03228	40.56384	0.35959	14.30969	224513.9887	0.48882	3.11555E-5	1869.99171	22710.02125	42.46011	14005.632
1155.0	0.97365	0.0263462	7.5967	7.44688	-5.57248	20.79322	29.19025	1.19868	0.83425	111.86335	143.38618	41.15547	0.35903	14.57692	244780.1324	0.47818	2.84764E-5	1872.26962	22500.40559	41.92313	14031.345
1150.0	0.97597	0.0240276	7.59954	7.44368	-5.61296	20.74966	29.11972	1.19737	0.83516	113.36376	143.73755	41.72383	0.3585	14.84953	266834.1002	0.46776	2.60313E-5	1874.53878	22293.23642	41.43383	14054.986
1145.0	0.97814	0.0218599	7.60235	7.44053	-5.65294	20.7074	29.04844	1.19609	0.83605	114.80663	144.08626	42.27077	0.35799	15.12761	290850.4608	0.45755	2.37979E-5	1876.80101	22088.30435	40.98641	14076.762
1140.0	0.98017	0.0198293	7.60513	7.43741	-5.6925	20.66616	28.97649	1.19484	0.83693	116.19722	144.43264	42.79824	0.3575	15.41133	317023.4901	0.44754	2.17562E-5	1879.05621	21885.42298	40.57627	14096.857
1135.0	0.98234	0.0176551	7.60974	7.43269	-5.75242	20.55528	28.80807	1.19757	0.83502	118.03846	144.93535	43.50211	0.3567	15.66694	349043.0565	0.43868	1.96905E-5	1881.27545	21589.48233	59.18813	14123.935
1130.0	0.98492	0.01508	7.61609	7.42605	-5.83653	20.36066	28.53817	1.2046	0.83015	120.50519	145.6203	44.4489	0.35555	15.99211	388667.0021	0.42824	1.76203E-5	1883.42796	21191.34575	79.62732	14167.904
1125.0	0.98745	0.0125524	7.62214	7.41948	-5.91992	20.16674	28.27648	1.21142	0.82548	122.95988	146.30094	45.39155	0.35444	16.36547	432749.6577	0.41698	1.5769E-5	1885.54151	20796.51727	78.9657	14215.716
1120.0	0.98962	0.0103787	7.62784	7.41322	-5.99926	19.98499	28.02737	1.21782	0.82114	125.20155	146.94514	46.25383	0.35342	16.74549	481177.3007	0.40606	1.41312E-5	1887.65019	20415.86833	76.12979	14256.232
1115.0	0.99151	0.00849074	7.63323	7.40724	-6.07509	19.81377	27.78968	1.22382	0.81711	127.26532	147.55802	47.04887	0.35248	17.13272	534461.5296	0.39545	1.26767E-5	1889.75567	20047.69747	73.63417	14290.9
1110.0	0.99316	0.00683549	7.63834	7.40151	-6.14774	19.65207	27.56251	1.22947	0.81336	129.17593	148.14343	47.78588	0.35161	17.52741	593151.561	0.38516	1.13813E-5	1891.85483	19690.66432	71.40663	14320.814
1105.0	0.99463	0.0053739	7.64321	7.396	-6.21757	19.4987	27.34512	1.23476	0.80987	130.95644	148.70472	48.47352	0.3508	17.93006	657863.9558	0.37515	1.02246E-5	1893.94983	19343.68749	69.39537	14346.822
1100.0	0.99593	0.00407232	7.64787	7.3907	-6.28483	19.35296	27.13685	1.23972	0.80663	132.62235	149.2444	49.11759	0.35005	18.34096	729266.5557	0.36541	9.19006E-6	1896.03601	19005.87835	67.56183	14369.584
1095.0	0.9971	0.0029036	7.65234	7.38556	-6.34992	19.21352	26.93691	1.24438	0.80361	134.19039	149.7646	49.72439	0.34934	18.75749	808116.3464	0.356	8.26317E-6	1898.11738	18676.28867	65.91794	14389.783
1090.0	0.99816	0.00183835	7.65666	7.38058	-6.41311	19.07954	26.74472	1.24874	0.80081	135.67595	150.2675	50.29974	0.34867	19.17761	895266.3301	0.34693	7.43153E-6	1900.18903	18354.10502	64.43673	14408.037
1085.0	0.99912	8.75563E-4	7.66081	7.37575	-6.47432	18.95131	26.56003	1.25281	0.79821	137.08214	150.75439	50.84478	0.34805	19.60748	991606.7402	0.33807	6.6849E-6	1902.2528	18039.24999	62.97101	14424.246
1080.0	1.0	0.0	7.66481	7.37107	-6.53372	18.82835	26.38253	1.2566	0.7958	138.417	151.22662	51.36254	0.34745	 	1098161.934	 	6.01404E-6	 	17731.22469	61.60506	14438.704
1075.0	1.0	0.0	7.66911	7.36694	-6.58609	18.72953	26.21266	1.26007	0.79361	139.22109	151.63327	51.67912	0.34698	 	1215619.227	 	5.41287E-6	 	17499.79512	46.28591	 
1071.82	1.0	0.0	7.6718	7.36435	-6.61889	18.66799	26.10792	1.26214	0.79231	139.72116	151.88629	51.87607	0.34668	 	1297196.574	 	5.06051E-6	 	17326.46328	 	 
1071.79	1.0	0.0	7.67185	7.36431	-6.61946	18.66658	26.1065	1.26217	0.79228	139.72696	151.88909	51.87836	0.34668	 	1298141.234	 	5.0567E-6	 	17324.14995	 	 
1070.0	1.0	0.0	7.67335	7.36287	-6.63772	18.63247	26.04867	1.2633	0.79158	140.00463	152.02978	51.98773	0.34652	 	1346619.22	 	4.86818E-6	 	17227.36836	54.48535	 
1065.0	1.0	0.0	7.6775	7.35889	-6.6882	18.53863	25.89078	1.26627	0.78972	140.76797	152.41677	52.28845	0.34607	 	1492769.573	 	4.37521E-6	 	16959.51845	53.56998	 
1060.0	1.0	0.0	7.68158	7.35497	-6.73781	18.44703	25.73837	1.26901	0.78802	141.51234	152.79453	52.5818	0.34564	 	1655934.816	 	3.92937E-6	 	16695.79188	52.74531	 
1055.0	1.0	0.0	7.6856	7.35113	-6.7866	18.35758	25.59111	1.27152	0.78646	142.23877	153.16363	52.86817	0.34522	 	1838220.19	 	3.52644E-6	 	16436.01593	51.95519	 
1050.0	1.0	0.0	7.68956	7.34734	-6.8346	18.27017	25.44869	1.27383	0.78504	142.94822	153.5246	53.14791	0.34482	 	2042007.506	 	3.16256E-6	 	16180.02307	51.19857	 
1045.0	1.0	0.0	7.69346	7.34361	-6.88184	18.18472	25.3108	1.27592	0.78375	143.64161	153.87791	53.42139	0.34442	 	2269993.391	 	2.83418E-6	 	15927.65131	50.47435	 
1040.0	1.0	0.0	7.69731	7.33995	-6.92836	18.10113	25.17717	1.27783	0.78258	144.31979	154.22402	53.68893	0.34404	 	2525233.571	 	2.53805E-6	 	15678.7442	49.78142	 
1035.0	1.0	0.0	7.7011	7.33633	-6.97417	18.01931	25.04755	1.27955	0.78152	144.98359	154.56335	53.95087	0.34366	 	2811193.768	 	2.27119E-6	 	15433.15066	49.11871	 
1031.72	1.0	0.0	7.70356	7.33399	-7.00391	17.96648	24.96445	1.28059	0.78089	145.4122	154.78275	54.12002	0.34342	 	3017634.132	 	2.1105E-6	 	15273.55465	 	 
1030.38	1.0	0.0	7.7057	7.33195	-7.02971	17.89343	24.92132	1.28149	0.78034	145.73225	154.92418	54.24727	0.34322	 	3118097.644	 	2.04041E-6	 	15162.473	 	 
1030.0	1.0	0.0	7.70598	7.33169	-7.03309	17.88741	24.91199	1.2816	0.78028	145.78102	154.94925	54.26652	0.34319	 	3143759.765	 	2.02317E-6	 	15144.22403	57.78533	 
1025.0	1.0	0.0	7.70967	7.32818	-7.07762	17.80859	24.79024	1.28295	0.77945	146.41986	155.27805	54.51868	0.34284	 	3505579.726	 	1.80739E-6	 	14904.23635	47.99754	 
1020.0	1.0	0.0	7.71332	7.32471	-7.12153	17.73132	24.67177	1.28415	0.77873	147.04645	155.6011	54.76605	0.3425	 	3911905.702	 	1.61342E-6	 	14667.18989	47.40929	 
1015.0	1.0	0.0	7.71692	7.3213	-7.16484	17.65553	24.55637	1.28519	0.77809	147.66145	155.91874	55.00889	0.34216	 	4368564.592	 	1.43918E-6	 	14432.95159	46.84766	 
1010.0	1.0	0.0	7.72047	7.31792	-7.2076	17.58115	24.44385	1.2861	0.77755	148.2655	156.23125	55.24745	0.34183	 	4882193.97	 	1.28277E-6	 	14201.39506	46.31131	 
1005.0	1.0	0.0	7.72398	7.3146	-7.2498	17.50809	24.33403	1.28687	0.77708	148.85918	156.53892	55.48195	0.34151	 	5460361.606	 	1.14248E-6	 	13972.39951	45.79911	 
1000.0	1.0	0.0	7.72746	7.31131	-7.2915	17.43629	24.22676	1.28751	0.77669	149.44305	156.84202	55.71262	0.3412	 	6111704.057	 	1.01673E-6	 	13745.85046	45.30981	 
995.0	1.0	0.0	7.73089	7.30806	-7.33269	17.36567	24.12187	1.28803	0.77638	150.01764	157.14079	55.93965	0.34089	 	6846086.582	 	9.04097E-7	 	13521.63891	44.84231	 
990.0	1.0	0.0	7.73429	7.30485	-7.37341	17.29619	24.01922	1.28843	0.77614	150.58344	157.43545	56.16325	0.34059	 	7674788.192	 	8.03295E-7	 	13299.6614	44.3955	 
985.0	1.0	0.0	7.73766	7.30167	-7.41368	17.22777	23.91868	1.28873	0.77596	151.14092	157.72622	56.38358	0.34029	 	8610715.919	 	7.13148E-7	 	13079.8197	43.96834	 
980.0	1.0	0.0	7.74099	7.29853	-7.45351	17.16035	23.82012	1.28892	0.77584	151.6905	158.0133	56.60083	0.34	 	9668655.347	 	6.32592E-7	 	12862.02079	43.55978	 
975.0	1.0	0.0	7.74428	7.29542	-7.49293	17.09389	23.72343	1.28901	0.77579	152.2326	158.29687	56.81515	0.33972	 	1.086555889E7	 	5.60662E-7	 	12646.17604	43.16895	 
970.0	1.0	0.0	7.74755	7.29235	-7.53194	17.02833	23.62849	1.289	0.77579	152.7676	158.5771	57.0267	0.33944	 	1.222088296E7	 	4.96487E-7	 	12432.20188	42.79483	 
965.0	1.0	0.0	7.75079	7.2893	-7.57057	16.96361	23.53522	1.28891	0.77585	153.29585	158.85416	57.23561	0.33917	 	1.37569791E7	 	4.39275E-7	 	12220.01901	42.43657	 
960.0	1.0	0.0	7.754	7.28628	-7.60883	16.8997	23.44351	1.28872	0.77596	153.8177	159.1282	57.44201	0.3389	 	1.549955224E7	 	3.88314E-7	 	12009.5523	42.09334	 
955.0	1.0	0.0	7.75718	7.28329	-7.64673	16.83654	23.35327	1.28846	0.77612	154.33346	159.39935	57.64604	0.33863	 	1.74781906E7	 	3.42959E-7	 	11800.73057	41.76435	 
950.0	1.0	0.0	7.76034	7.28033	-7.68429	16.7741	23.26443	1.28811	0.77633	154.84342	159.66774	57.8478	0.33837	 	1.97269904E7	 	3.02626E-7	 	11593.48647	41.44882	 
945.0	1.0	0.0	7.76347	7.27739	-7.72153	16.71233	23.17691	1.28769	0.77658	155.34788	159.93351	58.04741	0.33811	 	2.228528087E7	 	2.6679E-7	 	11387.75616	41.14606	 
940.0	1.0	0.0	7.76658	7.27448	-7.75845	16.65119	23.09064	1.2872	0.77688	155.84708	160.19677	58.24497	0.33786	 	2.519847704E7	 	2.34978E-7	 	11183.47921	40.85539	 
935.0	1.0	0.0	7.76966	7.2716	-7.79506	16.59064	23.00555	1.28663	0.77722	156.34128	160.45762	58.44058	0.33761	 	2.85190737E7	 	2.06763E-7	 	10980.59837	40.57617	 
930.0	1.0	0.0	7.77272	7.26873	-7.83138	16.53066	22.92159	1.286	0.7776	156.83071	160.71616	58.63432	0.33736	 	3.230781762E7	 	1.8176E-7	 	10779.05941	40.30779	 
925.0	1.0	0.0	7.77576	7.26589	-7.86741	16.4712	22.83868	1.28531	0.77803	157.31558	160.9725	58.82629	0.33712	 	3.663507951E7	 	1.59625E-7	 	10578.81096	40.04969	 
920.0	1.0	0.0	7.77878	7.26307	-7.90317	16.41223	22.75679	1.28455	0.77848	157.7961	161.22671	59.01657	0.33688	 	4.158246751E7	 	1.40046E-7	 	10379.80431	39.80133	 
915.0	1.0	0.0	7.78178	7.26027	-7.93866	16.35373	22.67586	1.28373	0.77898	158.27246	161.47889	59.20522	0.33664	 	4.724472676E7	 	1.22745E-7	 	10181.99331	39.5622	 
910.0	1.0	0.0	7.78476	7.25749	-7.9739	16.29566	22.59585	1.28285	0.77951	158.74484	161.72911	59.39233	0.33641	 	5.373197842E7	 	1.07472E-7	 	9985.3342	39.33182	 
905.0	1.0	0.0	7.78772	7.25473	-8.00889	16.238	22.51671	1.28192	0.78008	159.21342	161.97745	59.57795	0.33618	 	6.117236413E7	 	9.40009E-8	 	9789.78544	39.10975	 
900.0	1.0	0.0	7.79066	7.25199	-8.04364	16.18072	22.43839	1.28094	0.78068	159.67835	162.22398	59.76216	0.33595	 	6.971515367E7	 	8.21321E-8	 	9595.30801	38.89549	 
895.0	1.0	0.0	7.79359	7.24927	-8.07815	16.12379	22.36087	1.2799	0.78131	160.13978	162.46877	59.945	0.33572	 	7.953445246E7	 	7.16853E-8	 	9401.86383	38.68884	 
890.0	1.0	0.0	7.7965	7.24657	-8.11244	16.06719	22.28411	1.27881	0.78198	160.59787	162.71188	60.12655	0.3355	 	9.08335498E7	 	6.24994E-8	 	9209.41775	38.48922	 
885.0	1.0	0.0	7.79939	7.24388	-8.14651	16.01091	22.20806	1.27767	0.78267	161.05273	162.95336	60.30685	0.33528	 	1.038501084E8	 	5.44308E-8	 	9017.93587	38.29638	 
880.0	1.0	0.0	7.80226	7.24121	-8.18037	15.9549	22.13271	1.27649	0.7834	161.50451	163.19328	60.48595	0.33506	 	1.18862303E8	 	4.73509E-8	 	8827.38635	38.1099	 
875.0	1.0	0.0	7.80512	7.23855	-8.21402	15.89917	22.05803	1.27526	0.78416	161.95333	163.43169	60.6639	0.33484	 	1.361961406E8	 	4.11453E-8	 	8637.73845	37.92958	 
870.0	1.0	0.0	7.80797	7.23592	-8.24746	15.84367	21.98397	1.27398	0.78494	162.39928	163.66865	60.84075	0.33463	 	1.562341278E8	 	3.5712E-8	 	8448.96367	37.75495	 
865.0	1.0	0.0	7.8108	7.2333	-8.28071	15.78841	21.91053	1.27266	0.78576	162.8425	163.90419	61.01653	0.33441	 	1.79425642E8	 	3.09601E-8	 	8261.03455	37.58583	 
860.0	1.0	0.0	7.81362	7.23069	-8.31377	15.73335	21.83767	1.2713	0.7866	163.28307	164.13838	61.19129	0.3342	 	2.062993016E8	 	2.68087E-8	 	8073.92493	37.42192	 
855.0	1.0	0.0	7.81642	7.2281	-8.34664	15.67847	21.76538	1.26989	0.78747	163.72109	164.37125	61.36507	0.33399	 	2.374776872E8	 	2.31863E-8	 	7887.60994	37.263	 
850.0	1.0	0.0	7.81921	7.22552	-8.37932	15.62378	21.69362	1.26845	0.78837	164.15667	164.60284	61.5379	0.33379	 	2.736950605E8	 	2.00289E-8	 	7702.06589	37.10881	 
845.0	1.0	0.0	7.82143	7.22346	-8.4054	15.59888	21.62899	1.26657	0.78953	164.53028	164.83943	61.68439	0.33365	 	3.113869562E8	 	1.75261E-8	 	7547.02048	31.00908	 
840.0	1.0	0.0	7.82365	7.22141	-8.43141	15.57397	21.56435	1.26469	0.79071	164.90327	165.07505	61.83068	0.33351	 	3.546804497E8	 	1.5318E-8	 	7389.03885	31.59633	 
835.0	1.0	0.0	7.82587	7.21936	-8.45735	15.54907	21.49971	1.26279	0.7919	165.27563	165.30969	61.97677	0.33337	 	4.044681007E8	 	1.33721E-8	 	7231.28679	31.55041	 
830.0	1.0	0.0	7.82808	7.21732	-8.48323	15.52416	21.43505	1.26089	0.79309	165.64737	165.54336	62.12264	0.33323	 	4.617941526E8	 	1.16593E-8	 	7073.76357	31.50464	 
825.0	1.0	0.0	7.83029	7.21529	-8.50905	15.49925	21.37039	1.25897	0.7943	166.01848	165.77607	62.26831	0.33309	 	5.27881905E8	 	1.01534E-8	 	6916.46847	31.45902	 
820.0	1.0	0.0	7.8325	7.21326	-8.5348	15.47434	21.30572	1.25704	0.79552	166.38897	166.00781	62.41378	0.33295	 	6.041663126E8	 	8.831E-9	 	6759.4007	31.41355	 
815.0	1.0	0.0	7.8347	7.21123	-8.56048	15.44943	21.24104	1.2551	0.79675	166.75884	166.23858	62.55904	0.33281	 	6.92332863E8	 	7.67115E-9	 	6602.5595	31.36824	 
810.0	1.0	0.0	7.83689	7.20921	-8.5861	15.42452	21.17635	1.25315	0.79799	167.12808	166.4684	62.70409	0.33267	 	7.943640071E8	 	6.65512E-9	 	6445.94406	31.32309	 
805.0	1.0	0.0	7.83908	7.2072	-8.61165	15.3996	21.11165	1.25119	0.79924	167.4967	166.69726	62.84894	0.33253	 	9.125946914E8	 	5.76618E-9	 	6289.55355	31.2781	 
800.0	1.0	0.0	7.84127	7.20519	-8.63714	15.37468	21.04695	1.24922	0.8005	167.8647	166.92517	62.99358	0.3324	 	1.049778872E9	 	4.98941E-9	 	6133.38713	31.23328	 
795.0	1.0	0.0	7.84345	7.20318	-8.66256	15.34976	20.98223	1.24723	0.80178	168.23207	167.15213	63.13802	0.33226	 	1.209169299E9	 	4.31153E-9	 	5977.44392	31.18864	 
790.0	1.0	0.0	7.84563	7.20118	-8.68791	15.32483	20.9175	1.24523	0.80306	168.59882	167.37814	63.28225	0.33212	 	1.39461337E9	 	3.72072E-9	 	5821.72302	31.14418	 
785.0	1.0	0.0	7.84781	7.19919	-8.7132	15.29991	20.85276	1.24322	0.80436	168.96495	167.6032	63.42627	0.33198	 	1.610668446E9	 	3.20647E-9	 	5666.22351	31.0999	 
780.0	1.0	0.0	7.84997	7.1972	-8.73843	15.27498	20.78802	1.2412	0.80567	169.33046	167.82733	63.57009	0.33184	 	1.862740818E9	 	2.75946E-9	 	5510.94442	31.05582	 
775.0	1.0	0.0	7.85214	7.19521	-8.76359	15.25005	20.72326	1.23917	0.80699	169.69535	168.05052	63.71371	0.3317	 	2.157253422E9	 	2.37142E-9	 	5355.88474	31.01194	 
770.0	1.0	0.0	7.8543	7.19324	-8.78868	15.22512	20.65849	1.23713	0.80832	170.05962	168.27277	63.85712	0.33156	 	2.501848571E9	 	2.03504E-9	 	5201.04346	30.96826	 
765.0	1.0	0.0	7.85646	7.19126	-8.81371	15.20018	20.59371	1.23507	0.80967	170.42327	168.49408	64.00032	0.33143	 	2.905633407E9	 	1.74384E-9	 	5046.41951	30.92479	 
760.0	1.0	0.0	7.85861	7.18929	-8.83867	15.17524	20.52892	1.233	0.81103	170.78629	168.71447	64.14332	0.33129	 	3.379477576E9	 	1.49211E-9	 	4892.01178	30.88155	 
755.0	1.0	0.0	7.86075	7.18733	-8.86357	15.15031	20.46412	1.23092	0.8124	171.1487	168.93393	64.28611	0.33115	 	3.936374794E9	 	1.27481E-9	 	4737.81912	30.83853	 
750.0	1.0	0.0	7.8629	7.18537	-8.8884	15.12536	20.39931	1.22882	0.81379	171.51049	169.15247	64.4287	0.33101	 	4.591882801E9	 	1.08751E-9	 	4583.84035	30.79576	 
745.0	1.0	0.0	7.86503	7.18342	-8.91316	15.10042	20.33449	1.22672	0.81518	171.87166	169.37008	64.57109	0.33087	 	5.364659553E9	 	9.2631E-10	 	4430.07421	30.75323	 
740.0	1.0	0.0	7.86717	7.18147	-8.93786	15.07548	20.26965	1.2246	0.81659	172.23222	169.58678	64.71327	0.33073	 	6.27711787E9	 	7.87771E-10	 	4276.51941	30.71096	 
735.0	1.0	0.0	7.8693	7.17953	-8.9625	15.05053	20.20481	1.22247	0.81802	172.59215	169.80256	64.85524	0.3306	 	7.356226071E9	 	6.68893E-10	 	4123.17462	30.66896	 
730.0	1.0	0.0	7.87142	7.17759	-8.98707	15.02558	20.13995	1.22032	0.81946	172.95147	170.01742	64.99701	0.33046	 	8.634488903E9	 	5.67043E-10	 	3970.03841	30.62724	 
725.0	1.0	0.0	7.87354	7.17566	-9.01157	15.00063	20.07508	1.21816	0.82091	173.31017	170.23138	65.13858	0.33032	 	1.01512E10	 	4.79918E-10	 	3817.10934	30.58581	 
720.0	1.0	0.0	7.87565	7.17373	-9.03601	14.97567	20.0102	1.21599	0.82238	173.66825	170.44443	65.27993	0.33018	 	1.1953699999999998E10	 	4.05508E-10	 	3664.38584	30.5447	 
715.0	1.0	0.0	7.87777	7.17181	-9.06038	14.95072	19.9453	1.2138	0.82386	174.02572	170.65657	65.42109	0.33004	 	1.4099599999999998E10	 	3.42061E-10	 	3511.86634	30.5039	 
710.0	1.0	0.0	7.87987	7.16989	-9.08469	14.92576	19.88039	1.2116	0.82535	174.38257	170.86781	65.56204	0.3299	 	1.6658699999999998E10	 	2.88049E-10	 	3359.54914	30.46344	 
705.0	1.0	0.0	7.88197	7.16798	-9.10893	14.9008	19.81547	1.20939	0.82686	174.7388	171.07815	65.70279	0.32977	 	1.97158E10	 	2.42146E-10	 	3207.43248	30.42333	 
700.0	1.0	0.0	7.88407	7.16607	-9.1331	14.87584	19.75054	1.20717	0.82839	175.09442	171.28759	65.84333	0.32963	 	2.3374399999999996E10	 	2.03201E-10	 	3055.51452	30.38359	 
695.0	1.0	0.0	7.88616	7.16417	-9.15721	14.85087	19.68559	1.20493	0.82993	175.44943	171.49613	65.98366	0.32949	 	2.7760799999999996E10	 	1.70215E-10	 	2903.79332	30.34424	 
690.0	1.0	0.0	7.88825	7.16228	-9.18125	14.8259	19.62063	1.20267	0.83148	175.80381	171.70379	66.1238	0.32935	 	3.3029099999999996E10	 	1.42326E-10	 	2752.26682	30.3053	 
685.0	1.0	0.0	7.89033	7.16038	-9.20523	14.80093	19.55565	1.2004	0.83305	176.15759	171.91056	66.26372	0.32922	 	3.93686E10	 	1.18787E-10	 	2600.9329	30.26678	 
680.0	1.0	0.0	7.89241	7.1585	-9.22914	14.77596	19.49067	1.19812	0.83464	176.51075	172.11643	66.40345	0.32908	 	4.701139999999999E10	 	9.89566E-11	 	2449.78929	30.22872	 
675.0	1.0	0.0	7.89449	7.15662	-9.25299	14.75099	19.42566	1.19582	0.83624	176.86329	172.32143	66.54297	0.32894	 	5.624309999999999E10	 	8.22801E-11	 	2298.83361	30.19114	 
670.0	1.0	0.0	7.89656	7.15474	-9.27677	14.72601	19.36064	1.19351	0.83786	177.21522	172.52554	66.68228	0.3288	 	6.741559999999999E10	 	6.82821E-11	 	2148.06336	30.15405	 
665.0	1.0	0.0	7.89862	7.15287	-9.30049	14.70104	19.29561	1.19119	0.8395	177.56654	172.72878	66.82139	0.32867	 	8.09638E10	 	5.65546E-11	 	1997.47589	30.11749	 
660.0	1.0	0.0	7.90068	7.15101	-9.32413	14.67606	19.23056	1.18885	0.84115	177.91724	172.93114	66.9603	0.32853	 	9.742559999999998E10	 	4.67482E-11	 	1847.07524	30.08013	 
655.0	1.0	0.0	7.90274	7.14915	-9.34772	14.65107	19.1655	1.18649	0.84282	178.26733	173.13262	67.099	0.32839	 	1.17469E11	 	3.85641E-11	 	1696.89935	30.03518	 
650.0	1.0	0.0	7.90479	7.14729	-9.37124	14.62609	19.10042	1.18412	0.84451	178.61681	173.33323	67.2375	0.32825	 	1.41922E11	 	3.17474E-11	 	1546.99863	29.98014	 
645.0	1.0	0.0	7.90683	7.14544	-9.39469	14.6011	19.03532	1.18173	0.84621	178.96568	173.53298	67.37579	0.32812	 	1.7182E11	 	2.60811E-11	 	1397.37206	29.92531	 
640.0	1.0	0.0	7.90887	7.1436	-9.41807	14.57612	18.97021	1.17933	0.84794	179.31393	173.73185	67.51388	0.32798	 	2.08452E11	 	2.13807E-11	 	1248.01864	29.87068	 
635.0	1.0	0.0	7.91091	7.14176	-9.44139	14.55112	18.90508	1.17692	0.84968	179.66157	173.92987	67.65177	0.32784	 	2.53433E11	 	1.74897E-11	 	1098.93736	29.81626	 
630.0	1.0	0.0	7.91294	7.13993	-9.46465	14.52613	18.83993	1.17448	0.85144	180.00861	174.12702	67.78945	0.3277	 	3.08787E11	 	1.42754E-11	 	950.12723	29.76203	 
625.0	1.0	0.0	7.91497	7.1381	-9.48784	14.50114	18.77477	1.17203	0.85322	180.35502	174.32331	67.92692	0.32757	 	3.7706E11	 	1.16259E-11	 	801.58696	29.70805	 
620.0	1.0	0.0	7.91699	7.13627	-9.51096	14.47614	18.70959	1.16957	0.85501	180.70083	174.51875	68.0642	0.32743	 	4.61459E11	 	9.44666E-12	 	653.31482	29.65443	 
615.0	1.0	0.0	7.91901	7.13446	-9.53402	14.45114	18.64439	1.16709	0.85683	181.04603	174.71333	68.20127	0.32729	 	5.66035E11	 	7.65825E-12	 	505.3102	29.60092	 
610.0	1.0	0.0	7.92102	7.13264	-9.55701	14.42614	18.57917	1.16459	0.85867	181.39062	174.90706	68.33813	0.32716	 	6.95918E11	 	6.19388E-12	 	357.57212	29.54762	 
605.0	1.0	0.0	7.92303	7.13083	-9.57993	14.40113	18.51393	1.16208	0.86053	181.73459	175.09994	68.47479	0.32702	 	8.57619E11	 	4.99759E-12	 	210.0996	29.4945	 
600.0	1.0	0.0	7.92503	7.12903	-9.60279	14.37613	18.44868	1.15955	0.8624	182.07796	175.29198	68.61125	0.32688	 	1.05943E12	 	4.02259E-12	 	62.89167	29.44159	 
595.0	1.0	0.0	7.92703	7.12723	-9.62559	14.35112	18.38341	1.157	0.8643	182.42072	175.48317	68.7475	0.32674	 	1.31191E12	 	3.22982E-12	 	-84.05265	29.38886	 
590.0	1.0	0.0	7.92903	7.12544	-9.64832	14.32611	18.31811	1.15444	0.86622	182.76286	175.67352	68.88355	0.32661	 	1.62859E12	 	2.58679E-12	 	-230.73432	29.33633	 
585.0	1.0	0.0	7.93102	7.12365	-9.67098	14.3011	18.2528	1.15186	0.86816	183.1044	175.86303	69.0194	0.32647	 	2.02682E12	 	2.0665E-12	 	-377.15432	29.284	 
580.0	1.0	0.0	7.933	7.12187	-9.69357	14.27608	18.18747	1.14926	0.87012	183.44533	176.0517	69.15504	0.32633	 	2.52889E12	 	1.64658E-12	 	-523.31359	29.23186	 
575.0	1.0	0.0	7.93498	7.1201	-9.71611	14.25107	18.12211	1.14665	0.87211	183.78565	176.23953	69.29047	0.3262	 	3.16359E12	 	1.30852E-12	 	-669.21312	29.17991	 
570.0	1.0	0.0	7.93696	7.11832	-9.73857	14.22605	18.05674	1.14401	0.87411	184.12536	176.42654	69.42571	0.32606	 	3.9681E12	 	1.03707E-12	 	-814.85386	29.12815	 
565.0	1.0	0.0	7.93893	7.11656	-9.76097	14.20103	17.99134	1.14136	0.87614	184.46447	176.61271	69.56074	0.32592	 	4.99068E12	 	8.19689E-13	 	-960.23676	29.07658	 
560.0	1.0	0.0	7.94089	7.1148	-9.7833	14.176	17.92592	1.1387	0.8782	184.80296	176.79806	69.69556	0.32579	 	6.29407E12	 	6.46068E-13	 	-1105.36278	29.0252	 
555.0	1.0	0.0	7.94285	7.11304	-9.80557	14.15098	17.86048	1.13601	0.88027	185.14085	176.98258	69.83018	0.32565	 	7.96014E12	 	5.07779E-13	 	-1250.23286	28.97402	 
550.0	1.0	0.0	7.94481	7.11129	-9.82777	14.12595	17.79502	1.1333	0.88238	185.47813	177.16628	69.9646	0.32551	 	1.0096E13	 	3.9794E-13	 	-1394.84796	28.92302	 
545.0	1.0	0.0	7.94676	7.10954	-9.8499	14.10092	17.72953	1.13058	0.8845	185.8148	177.34915	70.09882	0.32538	 	1.28422E13	 	3.10943E-13	 	-1539.20902	28.87221	 
540.0	1.0	0.0	7.9487	7.1078	-9.87197	14.07589	17.66402	1.12784	0.88665	186.15087	177.53121	70.23283	0.32524	 	1.63837E13	 	2.42239E-13	 	-1683.31698	28.82159	 
535.0	1.0	0.0	7.95065	7.10607	-9.89398	14.05086	17.59849	1.12508	0.88883	186.48633	177.71245	70.36663	0.3251	 	2.09651E13	 	1.88141E-13	 	-1827.17278	28.77116	 
530.0	1.0	0.0	7.95258	7.10434	-9.91591	14.02582	17.53293	1.1223	0.89103	186.82118	177.89288	70.50024	0.32497	 	2.691E13	 	1.4567E-13	 	-1970.77734	28.72091	 
525.0	1.0	0.0	7.95451	7.10261	-9.93778	14.00078	17.46735	1.1195	0.89326	187.15542	178.0725	70.63363	0.32483	 	3.46488E13	 	1.1243E-13	 	-2114.1316	28.67085	 
520.0	1.0	0.0	7.95644	7.10089	-9.95959	13.97574	17.40174	1.11668	0.89551	187.48906	178.2513	70.76683	0.3247	 	4.47556E13	 	8.64957E-14	 	-2257.2365	28.62098	 
515.0	1.0	0.0	7.95836	7.09918	-9.98133	13.9507	17.3361	1.11384	0.89779	187.8221	178.4293	70.89982	0.32456	 	5.79985E13	 	6.63252E-14	 	-2400.09294	28.57129	 
510.0	1.0	0.0	7.96028	7.09747	-10.003	13.92566	17.27044	1.11098	0.9001	188.15453	178.60649	71.03261	0.32442	 	7.54092E13	 	5.06883E-14	 	-2542.70184	28.52178	 
505.0	1.0	0.0	7.96219	7.09577	-10.02461	13.90061	17.20475	1.10811	0.90244	188.48635	178.78288	71.16519	0.32429	 	9.83776E13	 	3.86059E-14	 	-2685.06413	28.47246	 
500.0	1.0	0.0	7.9641	7.09407	-10.04615	13.87556	17.13904	1.10521	0.90481	188.81756	178.95847	71.29757	0.32415	 	1.2878399999999998E14	 	2.93014E-14	 	-2827.1807	28.42331	 
495.0	1.0	0.0	7.966	7.09237	-10.06763	13.85051	17.0733	1.10229	0.9072	189.14818	179.13326	71.42975	0.32402	 	1.6918E14	 	2.21607E-14	 	-2969.05247	28.37435	 
490.0	1.0	0.0	7.96789	7.09068	-10.08903	13.82545	17.00752	1.09935	0.90963	189.47818	179.30726	71.56172	0.32388	 	2.23044E14	 	1.66996E-14	 	-3110.68034	28.32557	 
485.0	1.0	0.0	7.96979	7.089	-10.11038	13.8004	16.94172	1.09639	0.91209	189.80758	179.48046	71.69349	0.32374	 	2.95131E14	 	1.2538E-14	 	-3252.0652	28.27697	 
480.0	1.0	0.0	7.97167	7.08732	-10.13165	13.77534	16.87589	1.0934	0.91457	190.13638	179.65286	71.82506	0.32361	 	3.91971E14	 	9.37808E-15	 	-3393.20795	28.22855	 
475.0	1.0	0.0	7.97355	7.08565	-10.15287	13.75028	16.81003	1.0904	0.91709	190.46458	179.82448	71.95642	0.32347	 	5.2256599999999994E14	 	6.98771E-15	 	-3534.10947	28.1803	 
470.0	1.0	0.0	7.97543	7.08398	-10.17401	13.72522	16.74414	1.08738	0.91964	190.79216	179.99531	72.08757	0.32334	 	6.99371E14	 	5.18628E-15	 	-3674.77064	28.13223	 
465.0	1.0	0.0	7.9773	7.08232	-10.19509	13.70016	16.67821	1.08433	0.92223	191.11915	180.16536	72.21853	0.3232	 	9.397E14	 	3.83391E-15	 	-3815.19234	28.08434	 
460.0	1.0	0.0	7.97917	7.08066	-10.2161	13.67509	16.61226	1.08126	0.92485	191.44553	180.33462	72.34928	0.32306	 	1.26771E15	 	2.82266E-15	 	-3955.37544	28.03662	 
455.0	1.0	0.0	7.98103	7.07901	-10.23705	13.65002	16.54627	1.07817	0.9275	191.77131	180.5031	72.47983	0.32293	 	1.71727E15	 	2.06952E-15	 	-4095.3208	27.98907	 
450.0	1.0	0.0	7.98289	7.07737	-10.25793	13.62495	16.48024	1.07506	0.93018	192.09648	180.67079	72.61017	0.32279	 	2.33602E15	 	1.51091E-15	 	-4235.02928	27.9417	 
445.0	1.0	0.0	7.98474	7.07572	-10.27874	13.59988	16.41419	1.07192	0.93291	192.42105	180.83772	72.74031	0.32266	 	3.19138E15	 	1.09831E-15	 	-4374.50174	27.89449	 
440.0	1.0	0.0	7.98659	7.07409	-10.29949	13.5748	16.34809	1.06876	0.93566	192.74502	181.00386	72.87024	0.32252	 	4.37904E15	 	7.94857E-16	 	-4513.73902	27.84746	 
435.0	1.0	0.0	7.98843	7.07246	-10.32017	13.54973	16.28196	1.06558	0.93846	193.06839	181.16924	72.99997	0.32239	 	6.03559E15	 	5.72654E-16	 	-4652.74197	27.80059	 
430.0	1.0	0.0	7.99027	7.07083	-10.34079	13.52465	16.2158	1.06237	0.94129	193.39115	181.33384	73.1295	0.32225	 	8.35685E15	 	4.10669E-16	 	-4791.51141	27.75389	 
425.0	1.0	0.0	7.9921	7.06921	-10.36134	13.49957	16.1496	1.05914	0.94416	193.71331	181.49767	73.25882	0.32212	 	1.16249E16	 	2.9312E-16	 	-4930.04807	27.70733	 
420.0	1.0	0.0	7.99393	7.06759	-10.38182	13.47448	16.08336	1.05589	0.94707	194.03487	181.66074	73.38794	0.32198	 	1.62482E16	 	2.08214E-16	 	-5068.35293	27.66097	 
415.0	1.0	0.0	7.99575	7.06598	-10.40224	13.4494	16.01708	1.05261	0.95002	194.35583	181.82304	73.51686	0.32185	 	2.28209E16	 	1.47176E-16	 	-5206.42639	27.61469	 
410.0	1.0	0.0	7.99756	7.06438	-10.42259	13.42431	15.95076	1.0493	0.95301	194.67618	181.98458	73.64557	0.32171	 	3.22122E16	 	1.0351E-16	 	-5344.2687	27.56846	 
405.0	1.0	0.0	7.99938	7.06278	-10.44288	13.39922	15.8844	1.04597	0.95605	194.99593	182.14536	73.77408	0.32157	 	4.56999E16	 	7.24264E-17	 	-5481.88008	27.52228	 
400.0	1.0	0.0	8.00118	7.06118	-10.4631	13.37413	15.81799	1.04262	0.95912	195.31508	182.30538	73.90239	0.32144	 	6.51729E16	 	5.04117E-17	 	-5619.26076	27.47614	 
395.0	1.0	0.0	8.00298	7.0596	-10.48325	13.34903	15.75155	1.03924	0.96224	195.63363	182.46464	74.03049	0.3213	 	9.34384E16	 	3.49008E-17	 	-5756.41096	27.43004	 
390.0	1.0	0.0	8.00478	7.05801	-10.50334	13.32394	15.68506	1.03584	0.9654	195.95158	182.62315	74.15838	0.32117	 	1.34692E17	 	2.40301E-17	 	-5893.33087	27.38398	 
385.0	1.0	0.0	8.00657	7.05643	-10.52336	13.29884	15.61853	1.03241	0.96861	196.26893	182.7809	74.28608	0.32103	 	1.95243E17	 	1.64527E-17	 	-6030.0207	27.33797	 
380.0	1.0	0.0	8.00836	7.05486	-10.54331	13.27374	15.55195	1.02895	0.97186	196.58568	182.93791	74.41357	0.3209	 	2.84626E17	 	1.12002E-17	 	-6166.48063	27.29199	 
375.0	1.0	0.0	8.01014	7.05329	-10.5632	13.24863	15.48532	1.02547	0.97517	196.90182	183.09416	74.54085	0.32076	 	4.17349E17	 	7.57989E-18	 	-6302.71085	27.24604	 
370.0	1.0	0.0	8.01191	7.05173	-10.58302	13.22353	15.41865	1.02196	0.97852	197.21737	183.24967	74.66793	0.32063	 	6.15614E17	 	5.09906E-18	 	-6438.71151	27.20013	 
365.0	1.0	0.0	8.01368	7.05017	-10.60278	13.19842	15.35193	1.01842	0.98192	197.53231	183.40443	74.79481	0.32049	 	9.13616E17	 	3.40915E-18	 	-6574.48278	27.15425	 
360.0	1.0	0.0	8.01545	7.04862	-10.62247	13.17331	15.28516	1.01485	0.98537	197.84666	183.55845	74.92148	0.32036	 	1.36435E18	 	2.26499E-18	 	-6710.02479	27.1084	 
355.0	1.0	0.0	8.01721	7.04707	-10.64209	13.1482	15.21833	1.01126	0.98887	198.1604	183.71173	75.04795	0.32023	 	2.05051E18	 	1.49516E-18	 	-6845.33769	27.06258	 
350.0	1.0	0.0	8.01896	7.04553	-10.66165	13.12309	15.15146	1.00764	0.99242	198.47355	183.86426	75.17422	0.32009	 	3.10197E18	 	9.80487E-19	 	-6980.42159	27.01678	 
345.0	1.0	0.0	8.02071	7.04399	-10.68114	13.09797	15.08453	1.00399	0.99603	198.78609	184.01607	75.30028	0.31996	 	4.72412E18	 	6.38646E-19	 	-7115.27659	26.971	 
340.0	1.0	0.0	8.02246	7.04246	-10.70056	13.07285	15.01754	1.00031	0.99969	199.09804	184.16713	75.42614	0.31982	 	7.24408E18	 	4.13114E-19	 	-7249.90281	26.92524	 
335.0	1.0	0.0	8.0242	7.04093	-10.71992	13.04773	14.9505	0.9966	1.00341	199.40938	184.31746	75.55179	0.31969	 	1.11866E19	 	2.65337E-19	 	-7384.30032	26.8795	 
330.0	1.0	0.0	8.02593	7.03941	-10.73921	13.02261	14.88341	0.99286	1.00719	199.72013	184.46706	75.67724	0.31955	 	1.73998E19	 	1.69188E-19	 	-7518.46917	26.83377	 
325.0	1.0	0.0	8.02766	7.03789	-10.75844	12.99748	14.81625	0.98909	1.01103	200.03028	184.61594	75.80249	0.31942	 	2.72644E19	 	1.07078E-19	 	-7652.40944	26.78805	 
320.0	1.0	0.0	8.02938	7.03638	-10.7776	12.97236	14.74903	0.9853	1.01492	200.33982	184.76408	75.92753	0.31928	 	4.30462E19	 	6.72537E-20	 	-7786.12115	26.74234	 
315.0	1.0	0.0	8.0311	7.03488	-10.79669	12.94723	14.68175	0.98147	1.01888	200.64877	184.91149	76.05236	0.31915	 	6.84932E19	 	4.19109E-20	 	-7919.60432	26.69663	 
310.0	1.0	0.0	8.03282	7.03338	-10.81572	12.9221	14.6144	0.97761	1.0229	200.95713	185.05819	76.177	0.31901	 	1.0985499999999998E20	 	2.59088E-20	 	-8052.85897	26.65093	 
305.0	1.0	0.0	8.03452	7.03188	-10.83468	12.89697	14.54699	0.97372	1.02699	201.26488	185.20416	76.30143	0.31888	 	1.77639E20	 	1.5885E-20	 	-8185.88508	26.60522	 
300.0	1.0	0.0	8.03623	7.03039	-10.85357	12.87183	14.47952	0.9698	1.03114	201.57203	185.34941	76.42565	0.31875	 	2.8966799999999997E20	 	9.65726E-21	 	-8318.68261	26.55951	 
295.0	1.0	0.0	8.03793	7.02891	-10.8724	12.84669	14.41197	0.96584	1.03537	201.87859	185.49394	76.54967	0.31861	 	4.7643199999999993E20	 	5.82035E-21	 	-8451.25151	26.51378	 
290.0	1.0	0.0	8.03962	7.02743	-10.89116	12.82155	14.34435	0.96185	1.03966	202.18455	185.63775	76.67349	0.31848	 	7.90565E20	 	3.47675E-21	 	-8583.59173	26.46804	 
285.0	1.0	0.0	8.0413	7.02595	-10.90985	12.79641	14.27666	0.95783	1.04402	202.48991	185.78085	76.7971	0.31834	 	1.3237800000000001E21	 	2.05789E-21	 	-8715.70315	26.42228	 
280.0	1.0	0.0	8.04299	7.02448	-10.92848	12.77127	14.2089	0.95378	1.04846	202.79467	185.92324	76.92051	0.31821	 	2.2373800000000001E21	 	1.20667E-21	 	-8847.58569	26.37651	 
275.0	1.0	0.0	8.04466	7.02302	-10.94704	12.74612	14.14106	0.94969	1.05297	203.09883	186.06491	77.04371	0.31808	 	3.8178800000000003E21	 	7.00751E-22	 	-8979.23918	26.3307	 
270.0	1.0	0.0	8.04633	7.02156	-10.96554	12.72097	14.07314	0.94557	1.05756	203.4024	186.20588	77.16671	0.31794	 	6.579280000000001E21	 	4.02929E-22	 	-9110.66348	26.28486	 
265.0	1.0	0.0	8.048	7.02011	-10.98397	12.69582	14.00514	0.94142	1.06223	203.70537	186.34613	77.28951	0.31781	 	1.14532E22	 	2.29332E-22	 	-9241.85841	26.23899	 
260.0	1.0	0.0	8.04966	7.01866	-11.00233	12.67067	13.93705	0.93723	1.06698	204.00774	186.48568	77.4121	0.31767	 	2.0146E22	 	1.29166E-22	 	-9372.82376	26.19307	 
255.0	1.0	0.0	8.05132	7.01722	-11.02063	12.64551	13.86888	0.933	1.07181	204.30951	186.62453	77.53449	0.31754	 	3.5817599999999996E22	 	7.19694E-23	 	-9503.55927	26.1471	 
250.0	1.0	0.0	8.05297	7.01578	-11.03886	12.62036	13.80063	0.92874	1.07673	204.61069	186.76267	77.65667	0.31741	 	6.43843E22	 	3.96582E-23	 	-9634.0647	26.10109	 
245.0	1.0	0.0	8.05461	7.01435	-11.05702	12.5952	13.73228	0.92444	1.08174	204.91127	186.90012	77.77865	0.31727	 	1.17052E23	 	2.16054E-23	 	-9764.33976	26.05501	 
240.0	1.0	0.0	8.05625	7.01292	-11.07512	12.57004	13.66384	0.92011	1.08683	205.21126	187.03686	77.90042	0.31714	 	2.1529699999999998E23	 	1.1633E-23	 	-9894.3841	26.00887	 
235.0	1.0	0.0	8.05788	7.0115	-11.09315	12.54487	13.5953	0.91573	1.09202	205.51064	187.17291	78.02199	0.317	 	4.00778E23	 	6.18834E-24	 	-10024.19737	25.96265	 
230.0	1.0	0.0	8.05951	7.01008	-11.11111	12.51971	13.52666	0.91132	1.0973	205.80943	187.30826	78.14335	0.31687	 	7.55326E23	 	3.25125E-24	 	-10153.77918	25.91636	 
225.0	1.0	0.0	8.06113	7.00867	-11.12901	12.49454	13.45792	0.90688	1.10269	206.10763	187.44292	78.26451	0.31674	 	1.44175E24	 	1.68639E-24	 	-10283.1291	25.86998	 
220.0	1.0	0.0	8.06275	7.00726	-11.14684	12.46937	13.38908	0.90239	1.10817	206.40523	187.57688	78.38547	0.3166	 	2.78829E24	 	8.63233E-25	 	-10412.24667	25.82351	 
215.0	1.0	0.0	8.06436	7.00586	-11.1646	12.4442	13.32013	0.89786	1.11375	206.70223	187.71016	78.50622	0.31647	 	5.465800000000001E24	 	4.35899E-25	 	-10541.13136	25.77694	 
210.0	1.0	0.0	8.06597	7.00447	-11.1823	12.41902	13.25107	0.8933	1.11945	206.99863	187.84275	78.62677	0.31634	 	1.0864800000000001E25	 	2.17044E-25	 	-10669.78264	25.73026	 
205.0	1.0	0.0	8.06757	7.00308	-11.19993	12.39385	13.18189	0.88869	1.12525	207.29444	187.97464	78.74711	0.3162	 	2.1909200000000002E25	 	1.06518E-25	 	-10798.1999	25.68345	 
200.0	1.0	0.0	8.06917	7.00169	-11.2175	12.36867	13.1126	0.88405	1.13116	207.58966	188.10586	78.86724	0.31607	 	4.484060000000001E25	 	5.15009E-26	 	-10926.38252	25.63653	 
195.0	1.0	0.0	8.07076	7.00031	-11.235	12.34349	13.04318	0.87936	1.13719	207.88428	188.23639	78.98718	0.31594	 	9.318790000000001E25	 	2.45195E-26	 	-11054.3298	25.58946	 
190.0	1.0	0.0	8.07234	6.99894	-11.25243	12.31831	12.97363	0.87463	1.14334	208.1783	188.36624	79.1069	0.3158	 	1.9674700000000003E26	 	1.14895E-26	 	-11182.041	25.54224	 
185.0	1.0	0.0	8.07392	6.99757	-11.26979	12.29312	12.90396	0.86986	1.14961	208.47172	188.49541	79.22643	0.31567	 	4.2222000000000006E26	 	5.29609E-27	 	-11309.51533	25.49486	 
180.0	1.0	0.0	8.0755	6.9962	-11.28709	12.26793	12.83415	0.86505	1.156	208.76456	188.6239	79.34574	0.31554	 	9.214860000000001E26	 	2.40016E-27	 	-11436.75193	25.44732	 
175.0	1.0	0.0	8.07707	6.99484	-11.30432	12.24275	12.7642	0.86019	1.16253	209.05679	188.75171	79.46486	0.3154	 	2.04645E27	 	1.06883E-27	 	-11563.74989	25.39959	 
170.0	1.0	0.0	8.07863	6.99349	-11.32149	12.21755	12.69411	0.85529	1.16919	209.34843	188.87885	79.58377	0.31527	 	4.6273699999999995E27	 	4.67415E-28	 	-11690.50823	25.35167	 
165.0	1.0	0.0	8.08019	6.99214	-11.33859	12.19236	12.62387	0.85035	1.17599	209.63948	189.00531	79.70247	0.31514	 	1.06599E28	 	2.00611E-28	 	-11817.02592	25.30354	 
160.0	1.0	0.0	8.08174	6.9908	-11.35562	12.16716	12.55347	0.84536	1.18293	209.92993	189.13111	79.82097	0.315	 	2.5034600000000003E28	 	8.4447E-29	 	-11943.30182	25.25518	 
155.0	1.0	0.0	8.08329	6.98946	-11.37259	12.14197	12.48292	0.84032	1.19002	210.21979	189.25623	79.93926	0.31487	 	5.997740000000001E28	 	3.48414E-29	 	-12069.33477	25.20659	 
150.0	1.0	0.0	8.08483	6.98813	-11.38949	12.11677	12.4122	0.83524	1.19726	210.50905	189.38068	80.05735	0.31474	 	1.4669E29	 	1.40792E-29	 	-12195.12346	25.15774	 
145.0	1.0	0.0	8.08637	6.9868	-11.40632	12.09156	12.34131	0.83011	1.20466	210.79772	189.50447	80.17523	0.31461	 	3.66526E29	 	5.56819E-30	 	-12320.66657	25.10862	 
140.0	1.0	0.0	8.0879	6.98548	-11.42308	12.06636	12.27024	0.82494	1.21221	211.08579	189.62759	80.29291	0.31447	 	9.363400000000001E29	 	2.15358E-30	 	-12445.96265	25.05921	 
135.0	1.0	0.0	8.08942	6.98416	-11.43978	12.04115	12.19899	0.81971	1.21994	211.37327	189.75005	80.41039	0.31434	 	2.44761E30	 	8.13887E-31	 	-12571.01013	25.0095	 
130.0	1.0	0.0	8.09094	6.98285	-11.45642	12.01594	12.12754	0.81444	1.22784	211.66015	189.87184	80.52765	0.31421	 	6.552439999999999E30	 	3.00297E-31	 	-12695.80739	24.95945	 
125.0	1.0	0.0	8.09246	6.98154	-11.47298	11.99073	12.0559	0.80912	1.23591	211.94644	189.99298	80.64472	0.31408	 	1.79806E31	 	1.08076E-31	 	-12820.35267	24.90906	 
120.0	1.0	0.0	8.09396	6.98024	-11.48948	11.96552	11.98406	0.80375	1.24417	212.23214	190.11345	80.76157	0.31394	 	5.0624E31	 	3.79043E-32	 	-12944.64411	24.85829	 
115.0	1.0	0.0	8.09547	6.97894	-11.50591	11.94031	11.912	0.79833	1.25262	212.51724	190.23327	80.87823	0.31381	 	1.46383E32	 	1.29418E-32	 	-13068.67972	24.80712	 
110.0	1.0	0.0	8.09697	6.97765	-11.52228	11.91509	11.83971	0.79285	1.26126	212.80175	190.35243	80.99467	0.31368	 	4.35171E32	 	4.2973E-33	 	-13192.45739	24.75553	 
105.0	1.0	0.0	8.09846	6.97637	-11.53858	11.88987	11.7672	0.78733	1.27011	213.08566	190.47094	81.11092	0.31354	 	1.3315E33	 	1.38614E-33	 	-13315.97486	24.70349	 
100.0	1.0	0.0	8.09994	6.97509	-11.55481	11.86465	11.69444	0.78175	1.27918	213.36898	190.58879	81.22695	0.31341	 	4.19798E33	 	4.3384E-34	 	-13439.22971	24.65097	 
95.0	1.0	0.0	8.10142	6.97381	-11.57098	11.83942	11.62144	0.77612	1.28845	213.65171	190.706	81.34279	0.31328	 	1.3654800000000001E34	 	1.31591E-34	 	-13562.21941	24.59794	 
90.0	1.0	0.0	8.1029	6.97254	-11.58708	11.8142	11.54817	0.77044	1.29796	213.93384	190.82255	81.45841	0.31315	 	4.58812E34	 	3.86312E-35	 	-13684.94121	24.54436	 
85.0	1.0	0.0	8.10437	6.97128	-11.60311	11.78897	11.47463	0.7647	1.3077	214.21538	190.93846	81.57383	0.31302	 	1.5947099999999998E35	 	1.09615E-35	 	-13807.39221	24.4902	 
80.0	1.0	0.0	8.10583	6.97002	-11.61908	11.76374	11.40081	0.75891	1.31768	214.49633	191.05372	81.68905	0.31288	 	5.7417899999999995E35	 	3.00192E-36	 	-13929.5693	24.43542	 
75.0	1.0	0.0	8.10729	6.96877	-11.63497	11.73851	11.32669	0.75306	1.32792	214.77669	191.16833	81.80406	0.31275	 	2.14484E36	 	7.92243E-37	 	-14051.46917	24.37997	 
70.0	1.0	0.0	8.10874	6.96752	-11.65081	11.71327	11.25226	0.74715	1.33841	215.05645	191.2823	81.91886	0.31262	 	8.3257E36	 	2.01164E-37	 	-14173.0883	24.32383	 
65.0	1.0	0.0	8.11019	6.96627	-11.66657	11.68803	11.17751	0.74119	1.34918	215.33561	191.39563	82.03346	0.31249	 	3.3640799999999997E37	 	4.90602E-38	 	-14294.4229	24.26692	 
60.0	1.0	0.0	8.11163	6.96504	-11.68227	11.6628	11.10242	0.73517	1.36023	215.61419	191.50832	82.14785	0.31235	 	1.41748E38	 	1.14713E-38	 	-14415.46895	24.20921	 
55.0	1.0	0.0	8.11307	6.9638	-11.6979	11.63755	11.02697	0.72909	1.37157	215.89217	191.62037	82.26204	0.31222	 	6.24022E38	 	2.56661E-39	 	-14536.22217	24.15064	 
50.0	1.0	0.0	8.1145	6.96258	-11.71347	11.61231	10.95116	0.72295	1.38322	216.16956	191.73178	82.37602	0.31209	 	2.8761E39	 	5.48387E-40	 	-14656.67794	24.09115	 
45.0	1.0	0.0	8.11592	6.96135	-11.72897	11.58707	10.87495	0.71676	1.39518	216.44636	191.84256	82.4898	0.31196	 	1.3908E40	 	1.11649E-40	 	-14776.83134	24.03068	 
40.0	1.0	0.0	8.11734	6.96014	-11.7444	11.56182	10.79833	0.7105	1.40747	216.72256	191.9527	82.60337	0.31183	 	7.07268E40	 	2.161E-41	 	-14896.67711	23.96915	 
35.0	1.0	0.0	8.11876	6.95893	-11.75976	11.53657	10.72129	0.70418	1.4201	216.99817	192.06221	82.71673	0.31169	 	3.79162E41	 	3.96665E-42	 	-15016.20962	23.9065	 
30.0	1.0	0.0	8.12016	6.95772	-11.77506	11.51131	10.6438	0.69779	1.43309	217.27319	192.17108	82.82989	0.31156	 	2.14843E42	 	6.8869E-43	 	-15135.4228	23.84264	 
25.0	1.0	0.0	8.12157	6.95652	-11.79029	 	10.56583	0.69135	1.44645	217.54762	192.27933	82.94284	0.31143	 	1.29027E43	 	1.12782E-43	 	-15254.31018	 	 
