T (C)	Fraction solid (wt)-TOTAL	Fraction liquid (wt)-LIQUID	Density (g/(cm)^3)-TOTAL	Molar volume (cm^3)-TOTAL	Volume change (%)-  	Average expansion coeff. (10e-6 1/K)-  	Thermal conductivity (W/(m*K))-TOTAL	Electrical resistivity (10e-6 Ohm*m)-TOTAL	Electrical conductivity (10e6 1/(Ohm*m))-TOTAL	Young's modulus (GPa)-TOTAL	Bulk modulus (GPa)-TOTAL	Shear modulus(GPa)-TOTAL	Poisson's ratio-TOTAL	Liquid viscosity (mPa s)-  	Total viscosity (mPa s)-  	Liquid diffusivity (10e-9 (m^2)/s)-  	Total diffusivity (10e-9 (m^2)/s)-  	Surface Tension (mN/m)-  	Enthalpy (J/mole)-TOTAL	Specific heat (J/(mole K))-TOTAL	Latent heat (J/mole)-TOTAL
1400.0	0.0	1.0	7.23164	7.91972	0.0	31.79762	28.60313	1.43314	0.69777	0.0	121.82385	0.0	0.5	6.84678	6.84678	1.19271	1.19271	1756.97629	47042.204	 	0.0
1395.0	0.0	1.0	7.2356	7.91538	-0.0548263	31.76277	28.52431	1.4328	0.69793	0.0	121.96969	0.0	0.5	6.91979	6.91979	1.1766	1.1766	1759.6467	46839.155	40.6098	0.0
1390.0	0.0	1.0	7.23956	7.91105	-0.1095	31.7281	28.44549	1.43247	0.6981	0.0	122.11552	0.0	0.5	6.99402	6.99402	1.16062	1.16062	1762.35515	46636.566	40.5178	0.0
1385.0	0.0	1.0	7.24352	7.90673	-0.16401	31.69361	28.36667	1.43213	0.69826	0.0	122.26135	0.0	0.5	7.0695	7.0695	1.14478	1.14478	1765.10227	46434.434	40.4264	0.0
1380.0	0.0	1.0	7.24746	7.90243	-0.21837	31.6593	28.28785	1.43179	0.69843	0.0	122.40718	0.0	0.5	7.14626	7.14626	1.12907	1.12907	1767.8887	46232.757	40.3354	0.0
1375.0	0.0	1.0	7.2514	7.89814	-0.27257	31.62517	28.20903	1.43144	0.69859	0.0	122.55301	0.0	0.5	7.22433	7.22433	1.11349	1.11349	1770.71506	46031.532	40.245	0.0
1370.0	0.0	1.0	7.25533	7.89386	-0.32662	31.59122	28.13021	1.4311	0.69876	0.0	122.69884	0.0	0.5	7.30373	7.30373	1.09804	1.09804	1773.58196	45830.758	40.1548	0.0
1365.0	0.0	1.0	7.25926	7.88959	-0.38051	31.55746	28.05139	1.43076	0.69893	0.0	122.84467	0.0	0.5	7.3845	7.3845	1.08273	1.08273	1776.48999	45630.431	40.0654	0.0
1360.0	0.0	1.0	7.26318	7.88533	-0.43424	31.52388	27.97257	1.43041	0.6991	0.0	122.9905	0.0	0.5	7.46666	7.46666	1.06755	1.06755	1779.43973	45430.55	39.9762	0.0
1355.0	0.0	1.0	7.26709	7.88109	-0.48782	31.4905	27.89375	1.43006	0.69927	0.0	123.13633	0.0	0.5	7.55025	7.55025	1.05249	1.05249	1782.43174	45231.112	39.8876	0.0
1350.0	0.0	1.0	7.27099	7.87686	-0.54124	31.45731	27.81493	1.42971	0.69944	0.0	123.28216	0.0	0.5	7.6353	7.6353	1.03757	1.03757	1785.46657	45032.115	39.7994	0.0
1345.0	0.0	1.0	7.27489	7.87264	-0.59451	31.42431	27.73611	1.42935	0.69962	0.0	123.428	0.0	0.5	7.72185	7.72185	1.02278	1.02278	1788.54473	44833.557	39.7116	0.0
1340.0	0.0	1.0	7.27878	7.86843	-0.64762	31.39151	27.65729	1.429	0.69979	0.0	123.57383	0.0	0.5	7.80992	7.80992	1.00813	1.00813	1791.66671	44635.436	39.6242	0.0
1335.0	0.0	1.0	7.28266	7.86424	-0.70058	31.3589	27.57847	1.42864	0.69997	0.0	123.71966	0.0	0.5	7.89955	7.89955	0.9936	0.9936	1794.83301	44437.749	39.5374	0.0
1330.0	0.0	1.0	7.28653	7.86006	-0.75338	31.3265	27.49965	1.42828	0.70014	0.0	123.86549	0.0	0.5	7.99078	7.99078	0.9792	0.9792	1798.04406	44240.494	39.451	0.0
1325.06	0.0	1.0	7.29035	7.85594	-0.80539	31.29468	27.42178	1.42792	0.70032	0.0	124.00957	0.0	0.5	8.08252	8.08252	0.9651	0.9651	1801.26092	44046.036	39.36437	0.0
1325.0	0.00159	0.99841	7.29079	7.85542	-0.81192	31.27717	27.42636	1.42763	0.70046	5.91603E-10	124.02894	1.97228E-10	0.49979	8.08343	8.10034	0.96496	0.96294	1801.24726	44020.693	422.03164	22.972
1324.75	0.00807	0.99193	7.29261	7.8534	-0.83739	31.20921	27.44582	1.4264	0.70107	3.93547E-7	124.11067	1.31275E-7	0.49895	8.087	8.17352	0.96438	0.95418	1801.19098	43917.353	 	116.646
1320.0	0.18903	0.81097	7.34316	7.7994	-1.51934	29.33821	28.00799	1.39361	0.71756	0.12062	126.67749	0.0408915	0.47483	8.19466	48.74452	0.94888	0.15952	1800.03734	41034.613	597.216	2812.657
1315.0	0.33332	0.66668	7.38422	7.75607	-2.06644	27.85278	28.46484	1.36694	0.73156	1.21049	128.72685	0.4159	0.45527	8.30828	405.87513	0.93297	0.0190979	1798.8967	38709.421	465.0384	4941.876
1310.0	0.444	0.556	7.41634	7.72241	-2.4914	26.71422	28.82107	1.34579	0.74306	3.92469	130.31926	1.36272	0.44002	8.4224	1330.69233	0.91743	0.00580672	1801.44368	36898.5463	362.17494	6556.474
1305.0	0.53069	0.46931	7.44198	7.69581	-2.82726	25.82922	29.10007	1.32868	0.75263	8.1981	131.59637	2.87065	0.42792	8.53735	2872.81758	0.90222	0.00268119	1804.00755	35454.07391	288.89448	7804.778
1300.0	0.59978	0.40022	7.46292	7.67416	-3.10071	25.12183	29.32088	1.3145	0.76075	13.63104	132.64986	4.80592	0.41815	8.65322	4976.71209	0.88732	0.00154282	1806.59031	34276.80055	235.45467	8786.33
1295.0	0.65567	0.34433	7.48033	7.65629	-3.3263	24.55099	29.49423	1.30262	0.76769	19.77466	133.544	7.0115	0.41016	8.77039	7558.9211	0.87268	0.00101255	1809.19008	33298.19658	195.72079	9569.651
1290.0	0.70148	0.29852	7.49504	7.64123	-3.51645	24.08123	29.62904	1.29256	0.77366	26.25286	134.31982	9.35241	0.40353	8.88886	10541.43633	0.8583	7.23748E-4	1811.80839	32470.00245	165.63883	10203.001
1285.0	0.73945	0.26055	7.50767	7.62836	-3.67899	23.69039	29.73222	1.28395	0.77885	32.78787	135.00701	11.72686	0.39798	9.00901	13864.66674	0.84415	5.48513E-4	1814.44465	31757.52776	142.49494	10721.065
1280.0	0.77124	0.22876	7.51865	7.6172	-3.81982	23.36168	29.80953	1.27651	0.78339	39.19378	135.62739	14.06532	0.39328	9.13094	17488.66375	0.8302	4.33454E-4	1817.09879	31135.38316	124.42892	11149.233
1275.0	0.79811	0.20189	7.52833	7.60741	-3.94354	23.08192	29.86527	1.27003	0.78739	45.35085	136.19543	16.32198	0.38926	9.25481	21388.75703	0.81645	3.53276E-4	1819.77099	30584.67228	110.14218	11506.398
1270.0	0.82098	0.17902	7.53695	7.59871	-4.05336	22.84202	29.90308	1.26432	0.79094	51.19367	136.72284	18.47091	0.38579	9.38084	25555.26276	0.80288	2.94723E-4	1822.46084	30091.12277	98.7099	11806.829
1265.0	0.84062	0.15938	7.54471	7.59089	-4.15212	22.63382	29.92586	1.25927	0.79411	56.689	137.21775	20.4982	0.38278	9.50915	29987.94481	0.78949	2.50345E-4	1825.16911	29643.80726	89.4631	12061.454
1260.0	0.85756	0.14244	7.55176	7.5838	-4.24165	22.45211	29.9359	1.25475	0.79697	61.82743	137.68652	22.3989	0.38014	9.63991	34695.19695	0.77624	2.15676E-4	1827.89527	29234.25542	81.91037	12278.736
1255.0	0.87228	0.12772	7.55822	7.57733	-4.32335	22.29293	29.93516	1.25069	0.79956	66.61397	138.1344	24.17362	0.37782	9.77331	39692.33681	0.76315	1.87908E-4	1830.63856	28855.82786	75.68551	12465.315
1250.0	0.88515	0.11485	7.56419	7.57134	-4.39892	22.15132	29.92521	1.24701	0.80192	71.06346	138.56459	25.82689	0.37576	9.9094	45000.70046	0.75021	1.652E-4	1833.40065	28503.26627	70.51232	12626.447
1245.0	0.89645	0.10355	7.56975	7.56578	-4.46916	22.02503	29.90746	1.24366	0.80408	75.19967	138.98044	27.36669	0.37393	10.04843	50648.94879	0.7374	1.46295E-4	1836.18043	28172.36629	66.18	12766.332
1240.0	0.90642	0.0935779	7.57496	7.56057	-4.53486	21.91177	29.88285	1.24058	0.80607	79.03675	139.38389	28.79761	0.37228	10.19045	56662.02539	0.72473	1.3034E-4	1838.97842	27859.73856	62.52555	12888.359
1235.0	0.91527	0.0847328	7.57986	7.55569	-4.59655	21.81007	29.85237	1.23775	0.80792	82.60306	139.77724	30.12963	0.37079	10.33567	63078.79611	0.71218	1.16694E-4	1841.79281	27562.62476	59.42276	12995.284
1230.0	0.92314	0.0768631	7.58451	7.55106	-4.65504	21.71755	29.81677	1.23512	0.80964	85.91879	140.16165	31.36987	0.36945	10.48422	69935.41875	0.69977	1.04904E-4	1844.62566	27278.76655	56.77164	13089.362
1225.0	0.93017	0.0698315	7.58894	7.54666	-4.7105	21.63378	29.77668	1.23267	0.81125	89.00504	140.53846	32.52579	0.36822	10.6362	77274.34031	0.68747	9.46252E-5	1847.47473	27006.3016	54.49299	13172.453
1220.0	0.93648	0.063524	7.59317	7.54246	-4.7636	21.55676	29.73267	1.23037	0.81276	91.88285	140.90843	33.60501	0.3671	10.79184	85142.11027	0.6753	8.55945E-5	1850.34208	26743.68256	52.52381	13246.103
1215.0	0.94215	0.0578483	7.59723	7.53842	-4.81455	21.48588	29.68521	1.22821	0.81419	94.57088	141.27235	34.61422	0.36607	10.95115	93589.70021	0.66324	7.76078E-5	1853.22713	26489.61713	50.81309	13311.601
1210.0	0.94728	0.0527233	7.60114	7.53454	-4.86361	21.42046	29.63468	1.22617	0.81555	97.08584	141.63102	35.55949	0.36512	11.11435	102672.9247	0.65131	7.05043E-5	1856.12914	26243.02096	49.31923	13370.03
1205.0	0.95228	0.0477191	7.60496	7.53072	-4.91183	21.35714	29.58329	1.22416	0.81689	99.60722	141.99323	36.50811	0.36418	11.28348	112631.2612	0.63938	6.4054E-5	1859.02607	25997.50575	49.10304	13427.775
1200.0	0.95741	0.0425904	7.60875	7.52689	-4.96013	21.29303	29.53256	1.22211	0.81825	102.24525	142.36134	37.50157	0.36321	11.4588	123682.2718	0.62747	5.81335E-5	1861.90737	25749.76316	49.54852	13488.142
1195.0	0.962	0.0380031	7.6124	7.5232	-5.00683	21.23352	29.47886	1.22019	0.81955	104.69181	142.7223	38.42393	0.36233	11.63731	135566.2486	0.61575	5.28574E-5	1864.8029	25509.43889	48.06485	13541.484
1190.0	0.96611	0.033887	7.61595	7.51961	-5.05215	21.17797	29.42256	1.21836	0.82078	106.9664	143.0772	39.28232	0.36151	11.8191	148365.8191	0.60421	4.81329E-5	1867.71207	25275.55262	46.77725	13588.779
1185.0	0.96981	0.0301919	7.61943	7.51605	-5.09706	21.12327	29.3606	1.21676	0.82186	109.09426	143.43519	40.08607	0.36075	12.02202	162175.5018	0.59199	4.38837E-5	1870.63575	25044.43905	46.22271	13633.688
1180.0	0.97642	0.023583	7.62443	7.51092	-5.16183	21.00328	29.28992	1.21551	0.8227	112.80667	143.97055	41.48795	0.35951	12.23614	179528.1408	0.57963	3.95061E-5	1873.51304	24733.59587	62.16864	13758.714
1175.0	0.98649	0.0135141	7.6314	7.50396	-5.24969	20.80653	29.21931	1.21425	0.82355	118.50056	144.71225	43.63988	0.35771	12.34698	201606.9325	0.57245	3.50586E-5	1876.25557	24333.49876	80.01942	13973.376
1170.0	0.99274	0.00725601	7.63684	7.4985	-5.31865	20.67028	29.14616	1.2131	0.82433	122.32339	145.29434	45.08747	0.35651	12.46318	222955.5177	0.56516	3.15922E-5	1879.0225	24016.54645	63.39046	14105.275
1165.0	0.99697	0.00302873	7.64145	7.49386	-5.37728	20.56703	29.07125	1.21201	0.82508	125.10814	145.79033	46.14366	0.35564	12.58613	244638.8356	0.5577	2.86923E-5	1881.81151	23744.01563	54.50616	14193.131
1160.0	1.0	0.0	7.64707	7.48915	-5.43672	20.46017	28.94472	1.21308	0.82435	127.44432	146.34453	47.03235	0.35486	 	269122.6113	 	2.59913E-5	 	23443.52606	60.09791	14255.074
1155.0	1.0	0.0	7.65292	7.48342	-5.50902	20.30947	28.66557	1.22062	0.81926	128.5355	146.93149	47.45809	0.3542	 	294151.8111	 	2.36968E-5	 	23055.40017	77.62518	 
1150.0	1.0	0.0	7.65863	7.47784	-5.57952	20.16342	28.40083	1.22768	0.81454	129.5753	147.47783	47.86445	0.35357	 	321762.4103	 	2.15875E-5	 	22686.91894	73.69625	 
1145.0	1.0	0.0	7.66421	7.47239	-5.64829	20.02192	28.14848	1.23434	0.81015	130.57505	147.99692	48.25558	0.35295	 	352241.8584	 	1.96502E-5	 	22327.02525	71.97874	 
1140.0	1.0	0.0	7.66967	7.46708	-5.71541	19.88475	27.9076	1.2406	0.80606	131.53902	148.4932	48.63305	0.35236	 	385911.4152	 	1.78726E-5	 	21975.32662	70.33973	 
1135.0	1.0	0.0	7.675	7.46189	-5.78093	19.75173	27.67743	1.24649	0.80225	132.47002	148.96935	48.9979	0.35179	 	423130.4177	 	1.62428E-5	 	21631.45376	68.77457	 
1130.0	1.0	0.0	7.68022	7.45682	-5.84494	19.62268	27.45733	1.25202	0.79871	133.37034	149.42736	49.35099	0.35124	 	464300.9958	 	1.475E-5	 	21295.05837	67.27908	 
1125.0	1.0	0.0	7.68533	7.45186	-5.90751	19.49742	27.2467	1.2572	0.79542	134.24198	149.8689	49.69305	0.35071	 	509873.4057	 	1.33838E-5	 	20965.81119	65.84944	 
1120.0	1.0	0.0	7.69033	7.44702	-5.96869	19.37578	27.04498	1.26205	0.79236	135.08673	150.29538	50.02476	0.3502	 	560352.1366	 	1.21345E-5	 	20643.40004	64.48223	 
1115.0	1.0	0.0	7.69523	7.44228	-6.02854	19.25761	26.85163	1.26658	0.78953	135.90623	150.70805	50.34673	0.3497	 	616302.7277	 	1.09933E-5	 	20327.52836	63.17434	 
1110.0	1.0	0.0	7.70003	7.43764	-6.08713	19.14276	26.66616	1.27079	0.78691	136.70197	151.10804	50.65953	0.34922	 	678359.5156	 	9.95167E-6	 	20017.91367	61.92294	 
1105.0	1.0	0.0	7.70473	7.4331	-6.1445	19.03108	26.4881	1.27471	0.78449	137.47538	151.49633	50.96368	0.34876	 	747234.575	 	9.00174E-6	 	19714.28635	60.72546	 
1100.0	1.0	0.0	7.70935	7.42864	-6.20072	18.92243	26.31699	1.27834	0.78226	138.22775	151.87383	51.25969	0.34831	 	823727.6621	 	8.13619E-6	 	19416.38848	59.57957	 
1095.0	1.0	0.0	7.71388	7.42428	-6.25581	18.81669	26.15241	1.2817	0.78021	138.96033	152.24137	51.54801	0.34787	 	908737.7152	 	7.34822E-6	 	19123.97298	58.4831	 
1090.0	1.0	0.0	7.71833	7.42	-6.30985	18.71373	25.99397	1.2848	0.77833	139.67425	152.59969	51.82909	0.34745	 	1003275.74	 	6.63147E-6	 	18836.8029	57.43402	 
1085.0	1.0	0.0	7.7227	7.4158	-6.36286	18.61342	25.84128	1.28766	0.7766	140.37062	152.94948	52.10335	0.34704	 	1108479.737	 	5.98008E-6	 	18554.65063	56.43045	 
1080.0	1.0	0.0	7.727	7.41168	-6.4149	18.51565	25.69398	1.29027	0.77503	141.05044	153.29138	52.37116	0.34664	 	1225631.486	 	5.38856E-6	 	18277.29755	55.47062	 
1075.0	1.0	0.0	7.73122	7.40763	-6.46601	18.42031	25.55174	1.29266	0.7736	141.7147	153.62596	52.6329	0.34626	 	1356175.821	 	4.85187E-6	 	18004.53346	54.55282	 
1070.0	1.0	0.0	7.73537	7.40366	-6.51621	18.32728	25.41424	1.29483	0.7723	142.36429	153.95375	52.88893	0.34588	 	1501742.67	 	4.36532E-6	 	17736.15638	53.67542	 
1065.0	1.0	0.0	7.73946	7.39975	-6.56557	18.23646	25.28118	1.2968	0.77113	143.00007	154.27524	53.13956	0.34551	 	1664172.094	 	3.92458E-6	 	17471.97218	52.83684	 
1060.0	1.0	0.0	7.74348	7.3959	-6.6141	18.14775	25.15228	1.29858	0.77007	143.62286	154.59088	53.38512	0.34516	 	1845543.11	 	3.52567E-6	 	17211.79444	52.03555	 
1055.0	1.0	0.0	7.74744	7.39212	-6.66185	18.06106	25.02729	1.30017	0.76913	144.23342	154.90108	53.6259	0.34481	 	2048206.486	 	3.1649E-6	 	16955.44419	51.27005	 
1050.0	1.0	0.0	7.75134	7.3884	-6.70885	17.97627	24.90594	1.30158	0.76829	144.83246	155.20624	53.86216	0.34447	 	2274822.634	 	2.83889E-6	 	16702.7498	50.53888	 
1045.0	1.0	0.0	7.75519	7.38474	-6.75513	17.89331	24.78801	1.30283	0.76756	145.42067	155.50669	54.09419	0.34414	 	2528404.43	 	2.54451E-6	 	16453.54685	49.84059	 
1040.0	1.0	0.0	7.75898	7.38113	-6.80072	17.81209	24.67329	1.30393	0.76691	145.99867	155.80276	54.32221	0.34382	 	2812367.389	 	2.27892E-6	 	16207.67785	49.1738	 
1035.0	1.0	0.0	7.76273	7.37757	-6.84565	17.73251	24.56157	1.30487	0.76636	146.56707	156.09476	54.54648	0.34351	 	3130585.89	 	2.03948E-6	 	15964.99234	48.5371	 
1030.0	1.0	0.0	7.76642	7.37406	-6.88996	17.6545	24.45266	1.30567	0.76589	147.12642	156.38294	54.76719	0.3432	 	3487459.597	 	1.82378E-6	 	15725.34644	47.92918	 
1027.47	1.0	0.0	7.76827	7.3723	-6.91214	17.61561	24.39861	1.30603	0.76568	147.40595	156.52726	54.8775	0.34305	 	3684159.126	 	1.72306E-6	 	15605.29925	 	 
1025.0	1.0	0.0	7.77007	7.3706	-6.93364	17.57809	24.34639	1.30634	0.7655	147.6774	156.6678	54.98461	0.3429	 	3888036.852	 	1.6296E-6	 	15488.53528	47.36223	 
1021.38	1.0	0.0	7.77267	7.36813	-6.96487	17.52378	24.271	1.30674	0.76526	148.07135	156.87213	55.14008	0.34268	 	4208538.986	 	1.5013E-6	 	15318.77656	 	 
1021.0	1.0	0.0	7.77368	7.36717	-6.97696	17.48476	24.25969	1.30697	0.76513	148.18052	156.91773	55.18361	0.34261	 	4251819.295	 	1.48558E-6	 	15273.34473	 	 
1020.0	1.0	0.0	7.7744	7.36649	-6.9855	17.46991	24.23928	1.30706	0.76508	148.28832	156.97388	55.22616	0.34256	 	4345957.509	 	1.45228E-6	 	15226.85066	52.33692	 
1015.0	1.0	0.0	7.77795	7.36312	-7.02804	17.39612	24.13812	1.30746	0.76484	148.82532	157.25402	55.43806	0.34227	 	4853443.618	 	1.2954E-6	 	14994.9201	46.38611	 
1010.0	1.0	0.0	7.78147	7.3598	-7.07005	17.32361	24.03911	1.30775	0.76467	149.3551	157.53114	55.64714	0.34198	 	5424398.116	 	1.15455E-6	 	14765.55649	45.87272	 
1005.0	1.0	0.0	7.78495	7.35651	-7.11155	17.25232	23.94213	1.30793	0.76457	149.87807	157.80545	55.85355	0.34171	 	6067273.963	 	1.02819E-6	 	14538.6436	45.38258	 
1000.0	1.0	0.0	7.78839	7.35326	-7.15256	17.18217	23.84705	1.30801	0.76452	150.39463	158.0771	56.05744	0.34143	 	6791720.179	 	9.14927E-7	 	14314.07085	44.91455	 
995.0	1.0	0.0	7.79179	7.35005	-7.19311	17.11312	23.75375	1.30799	0.76453	150.90514	158.34625	56.25896	0.34117	 	7608761.279	 	8.13473E-7	 	14091.73383	44.4674	 
990.0	1.0	0.0	7.79516	7.34687	-7.23322	17.04509	23.66213	1.30788	0.7646	151.40991	158.61304	56.45822	0.3409	 	8531004.688	 	7.22672E-7	 	13871.53339	44.04009	 
985.0	1.0	0.0	7.79849	7.34373	-7.27289	16.97804	23.57209	1.30768	0.76472	151.90928	158.8776	56.65537	0.34064	 	9572881.764	 	6.4147E-7	 	13653.37548	43.63158	 
980.0	1.0	0.0	7.8018	7.34062	-7.31216	16.9119	23.48354	1.30739	0.76488	152.40353	159.14005	56.85051	0.34039	 	1.07509267E7	 	5.6891E-7	 	13437.17161	43.24077	 
975.0	1.0	0.0	7.80507	7.33754	-7.35103	16.84664	23.39639	1.30703	0.7651	152.89293	159.40049	57.04375	0.34014	 	1.20841025E7	 	5.04126E-7	 	13222.83734	42.86685	 
970.0	1.0	0.0	7.80831	7.33449	-7.38952	16.7822	23.31057	1.30658	0.76536	153.37773	159.65903	57.23518	0.33989	 	1.359417691E7	 	4.46331E-7	 	13010.29326	42.50882	 
965.0	1.0	0.0	7.81153	7.33147	-7.42764	16.71854	23.22599	1.30607	0.76566	153.85818	159.91575	57.42491	0.33965	 	1.530616261E7	 	3.94815E-7	 	12799.46419	42.16581	 
960.0	1.0	0.0	7.81472	7.32848	-7.46542	16.65561	23.14259	1.30548	0.766	154.33448	160.17075	57.61302	0.33941	 	1.724883089E7	 	3.48934E-7	 	12590.27846	41.83715	 
955.0	1.0	0.0	7.81788	7.32552	-7.50285	16.59337	23.06031	1.30483	0.76639	154.80685	160.42409	57.79959	0.33917	 	1.945530577E7	 	3.08106E-7	 	12382.66895	41.5219	 
950.0	1.0	0.0	7.82102	7.32258	-7.53997	16.53179	22.97908	1.30411	0.76681	155.27548	160.67584	57.9847	0.33894	 	2.196376493E7	 	2.71806E-7	 	12176.57141	41.21951	 
945.0	1.0	0.0	7.82413	7.31966	-7.57676	16.47082	22.89886	1.30333	0.76727	155.74055	160.92608	58.16841	0.3387	 	2.481825491E7	 	2.39561E-7	 	11971.92549	40.92919	 
940.0	1.0	0.0	7.82722	7.31677	-7.61326	16.41042	22.81958	1.30249	0.76776	156.20222	161.17486	58.3508	0.33848	 	2.80696443E7	 	2.10943E-7	 	11768.67412	40.65027	 
935.0	1.0	0.0	7.83029	7.31391	-7.64947	16.35058	22.7412	1.30159	0.76829	156.66065	161.42224	58.53192	0.33825	 	3.177674397E7	 	1.85566E-7	 	11566.76268	40.38229	 
930.0	1.0	0.0	7.83334	7.31106	-7.68539	16.29125	22.66367	1.30064	0.76885	157.11598	161.66825	58.71184	0.33803	 	3.600761788E7	 	1.63084E-7	 	11366.13992	40.12455	 
925.0	1.0	0.0	7.83637	7.30824	-7.72104	16.23239	22.58695	1.29963	0.76945	157.56835	161.91296	58.89061	0.33781	 	4.084112427E7	 	1.43186E-7	 	11166.75714	39.87656	 
920.0	1.0	0.0	7.83937	7.30544	-7.75643	16.17399	22.51101	1.29857	0.77008	158.01789	162.1564	59.06827	0.33759	 	4.636872679E7	 	1.2559E-7	 	10968.56828	39.63777	 
915.0	1.0	0.0	7.84236	7.30265	-7.79156	16.11602	22.4358	1.29747	0.77073	158.46472	162.39862	59.24488	0.33737	 	5.269662561E7	 	1.10046E-7	 	10771.52928	39.4078	 
910.0	1.0	0.0	7.84533	7.29989	-7.82644	16.05844	22.36129	1.29631	0.77142	158.90894	162.63964	59.42048	0.33716	 	5.994826729E7	 	9.63274E-8	 	10575.59874	39.18611	 
905.0	1.0	0.0	7.84828	7.29715	-7.86109	16.00124	22.28745	1.29511	0.77214	159.35066	162.87951	59.5951	0.33694	 	6.826731346E7	 	8.42315E-8	 	10380.73723	38.9723	 
900.0	1.0	0.0	7.85121	7.29442	-7.8955	15.94438	22.21425	1.29386	0.77288	159.78998	163.11824	59.7688	0.33673	 	7.782112878E7	 	7.35771E-8	 	10186.90736	38.76597	 
895.0	1.0	0.0	7.85412	7.29171	-7.92969	15.88784	22.14166	1.29257	0.77365	160.22699	163.35588	59.94161	0.33653	 	8.880492657E7	 	6.4202E-8	 	9994.07359	38.56676	 
890.0	1.0	0.0	7.85702	7.28902	-7.96366	15.83161	22.06965	1.29124	0.77445	160.66176	163.59245	60.11355	0.33632	 	1.014466679E8	 	5.59609E-8	 	9802.20216	38.37428	 
885.0	1.0	0.0	7.85991	7.28635	-7.99741	15.77566	21.9982	1.28986	0.77528	161.0944	163.82797	60.28466	0.33611	 	1.160128537E8	 	4.87243E-8	 	9611.26118	38.1882	 
880.0	1.0	0.0	7.86277	7.28369	-8.03096	15.71997	21.92728	1.28845	0.77613	161.52495	164.06247	60.45498	0.33591	 	1.32815431E8	 	4.23764E-8	 	9421.21954	38.00833	 
875.0	1.0	0.0	7.86563	7.28105	-8.06431	15.66452	21.85687	1.28699	0.777	161.95351	164.29596	60.62452	0.33571	 	1.522199722E8	 	3.68141E-8	 	9232.04822	37.83426	 
870.0	1.0	0.0	7.86846	7.27843	-8.09746	15.6093	21.78696	1.2855	0.77791	162.38012	164.52847	60.79332	0.33551	 	1.746554047E8	 	3.19454E-8	 	9043.72038	37.66557	 
865.0	1.0	0.0	7.87129	7.27582	-8.13041	15.55427	21.71752	1.28397	0.77883	162.80486	164.76002	60.9614	0.33531	 	2.00625636E8	 	2.76885E-8	 	8856.20986	37.5021	 
860.0	1.0	0.0	7.87409	7.27322	-8.16318	15.49944	21.64853	1.2824	0.77979	163.22779	164.99063	61.12878	0.33511	 	2.307233673E8	 	2.39708E-8	 	8669.49172	37.34363	 
855.0	1.0	0.0	7.87689	7.27064	-8.19577	15.44478	21.58007	1.2808	0.78076	163.64894	165.2203	61.29548	0.33492	 	2.656466331E8	 	2.07276E-8	 	8483.54226	37.18989	 
850.0	1.0	0.0	7.87967	7.26807	-8.22817	15.39027	21.5119	1.27916	0.78176	164.06839	165.44907	61.46153	0.33472	 	3.062185616E8	 	1.79016E-8	 	8298.33888	37.04068	 
845.0	1.0	0.0	7.88189	7.26603	-8.25397	15.36549	21.44747	1.27729	0.78291	164.43134	165.67393	61.604	0.33458	 	3.485653477E8	 	1.56568E-8	 	8143.60467	30.94684	 
840.0	1.0	0.0	7.8841	7.26399	-8.27971	15.3407	21.38303	1.27541	0.78406	164.79367	165.89782	61.74626	0.33444	 	3.97230196E8	 	1.36772E-8	 	7985.94111	31.53271	 
835.0	1.0	0.0	7.8863	7.26196	-8.30537	15.31591	21.31858	1.27352	0.78522	165.15538	166.12075	61.88831	0.3343	 	4.532235693E8	 	1.19336E-8	 	7828.50768	31.48669	 
830.0	1.0	0.0	7.88851	7.25993	-8.33098	15.29113	21.25413	1.27162	0.7864	165.51647	166.34271	62.03016	0.33416	 	5.177282589E8	 	1.03997E-8	 	7671.3037	31.4408	 
825.0	1.0	0.0	7.8907	7.25791	-8.35651	15.26634	21.18966	1.26971	0.78758	165.87693	166.56371	62.17181	0.33402	 	5.921305897E8	 	9.05172E-9	 	7514.32843	31.39505	 
820.0	1.0	0.0	7.8929	7.25589	-8.38198	15.24155	21.12519	1.26778	0.78878	166.23678	166.78376	62.31325	0.33388	 	6.780576006E8	 	7.86864E-9	 	7357.58117	31.34945	 
815.0	1.0	0.0	7.89509	7.25388	-8.40739	15.21676	21.06072	1.26585	0.78998	166.596	167.00284	62.45448	0.33374	 	7.77421411E8	 	6.83155E-9	 	7201.06117	31.304	 
810.0	1.0	0.0	7.89727	7.25187	-8.43273	15.19196	20.99623	1.2639	0.7912	166.95461	167.22097	62.59551	0.3336	 	8.924722341E8	 	5.92353E-9	 	7044.76766	31.2587	 
805.0	1.0	0.0	7.89945	7.24987	-8.458	15.16717	20.93174	1.26194	0.79243	167.31259	167.43816	62.73634	0.33346	 	1.025861817E9	 	5.12952E-9	 	6888.69986	31.21356	 
800.0	1.0	0.0	7.90163	7.24788	-8.48321	15.14238	20.86723	1.25997	0.79367	167.66996	167.65439	62.87696	0.33332	 	1.180719468E9	 	4.43609E-9	 	6732.85698	31.16858	 
795.0	1.0	0.0	7.9038	7.24589	-8.50835	15.11758	20.80272	1.25799	0.79492	168.0267	167.86968	63.01738	0.33318	 	1.3607433E9	 	3.83127E-9	 	6577.23818	31.12376	 
790.0	1.0	0.0	7.90597	7.2439	-8.53343	15.09279	20.7382	1.256	0.79618	168.38283	168.08402	63.1576	0.33304	 	1.570309916E9	 	3.30442E-9	 	6421.84261	31.07911	 
785.0	1.0	0.0	7.90813	7.24192	-8.55844	15.06799	20.67368	1.25399	0.79745	168.73834	168.29743	63.2976	0.3329	 	1.814606435E9	 	2.84611E-9	 	6266.66938	31.03465	 
780.0	1.0	0.0	7.91029	7.23994	-8.58339	15.0432	20.60914	1.25198	0.79874	169.09322	168.5099	63.43741	0.33276	 	2.099789688E9	 	2.44794E-9	 	6111.71762	30.99035	 
775.0	1.0	0.0	7.91244	7.23797	-8.60827	15.0184	20.54459	1.24995	0.80003	169.44749	168.72143	63.57701	0.33262	 	2.433178455E9	 	2.1025E-9	 	5956.98636	30.94625	 
770.0	1.0	0.0	7.91459	7.23601	-8.63309	14.9936	20.48004	1.24791	0.80134	169.80114	168.93203	63.7164	0.33248	 	2.823485975E9	 	1.80322E-9	 	5802.47466	30.90234	 
765.0	1.0	0.0	7.91674	7.23405	-8.65784	14.9688	20.41547	1.24585	0.80266	170.15417	169.14171	63.85559	0.33234	 	3.281101615E9	 	1.54428E-9	 	5648.18153	30.85863	 
760.0	1.0	0.0	7.91888	7.23209	-8.68252	14.944	20.3509	1.24379	0.804	170.50658	169.35045	63.99458	0.3322	 	3.818432656E9	 	1.32058E-9	 	5494.10591	30.81512	 
755.0	1.0	0.0	7.92101	7.23014	-8.70714	14.9192	20.28632	1.24171	0.80534	170.85837	169.55827	64.13336	0.33206	 	4.450319708E9	 	1.12759E-9	 	5340.24674	30.77183	 
750.0	1.0	0.0	7.92314	7.2282	-8.73169	14.8944	20.22172	1.23962	0.8067	171.20954	169.76517	64.27193	0.33192	 	5.19454246E9	 	9.61344E-10	 	5186.60292	30.72876	 
745.0	1.0	0.0	7.92527	7.22626	-8.75618	14.86959	20.15712	1.23751	0.80807	171.5601	169.97115	64.4103	0.33178	 	6.072436456E9	 	8.18343E-10	 	5033.17329	30.68593	 
740.0	1.0	0.0	7.92739	7.22432	-8.7806	14.84479	20.09251	1.23539	0.80946	171.91003	170.17622	64.54847	0.33164	 	7.109646571E9	 	6.95525E-10	 	4879.95666	30.64333	 
735.0	1.0	0.0	7.92951	7.2224	-8.80496	14.81999	20.02788	1.23326	0.81086	172.25935	170.38037	64.68643	0.3315	 	8.337049095E9	 	5.902E-10	 	4726.95176	30.60098	 
730.0	1.0	0.0	7.93162	7.22047	-8.82925	14.79518	19.96325	1.23112	0.81227	172.60805	170.58361	64.82418	0.33136	 	9.791882144E9	 	5.00019E-10	 	4574.15733	30.55889	 
725.0	1.0	0.0	7.93373	7.21855	-8.85347	14.77037	19.8986	1.22896	0.81369	172.95613	170.78594	64.96173	0.33122	 	1.15191E10	 	4.22924E-10	 	4421.57198	30.51707	 
720.0	1.0	0.0	7.93583	7.21664	-8.87763	14.74557	19.83395	1.22679	0.81513	173.3036	170.98737	65.09908	0.33108	 	1.3573299999999998E10	 	3.57123E-10	 	4269.19431	30.47553	 
715.0	1.0	0.0	7.93793	7.21473	-8.90172	14.72076	19.76928	1.22461	0.81659	173.65045	171.18789	65.23622	0.33094	 	1.6020199999999998E10	 	3.01051E-10	 	4117.02285	30.43429	 
710.0	1.0	0.0	7.94002	7.21283	-8.92575	14.69595	19.70461	1.22241	0.81805	173.99668	171.38751	65.37316	0.3308	 	1.89403E10	 	2.53349E-10	 	3965.05605	30.39336	 
705.0	1.0	0.0	7.94211	7.21093	-8.94971	14.67114	19.63992	1.2202	0.81954	174.34229	171.58623	65.50989	0.33066	 	2.24309E10	 	2.12836E-10	 	3813.29231	30.35275	 
700.0	1.0	0.0	7.9442	7.20904	-8.97361	14.64633	19.57522	1.21798	0.82103	174.68728	171.78405	65.64641	0.33052	 	2.6611099999999996E10	 	1.78486E-10	 	3661.72992	30.31248	 
695.0	1.0	0.0	7.94628	7.20715	-8.99744	14.62151	19.5105	1.21574	0.82255	175.03166	171.98099	65.78273	0.33038	 	3.1626099999999996E10	 	1.49411E-10	 	3510.36711	30.27256	 
690.0	1.0	0.0	7.94835	7.20527	-9.02121	14.5967	19.44578	1.21349	0.82407	175.37542	172.17703	65.91885	0.33024	 	3.76536E10	 	1.24846E-10	 	3359.20202	30.23302	 
685.0	1.0	0.0	7.95043	7.20339	-9.04491	14.57189	19.38104	1.21122	0.82561	175.71857	172.37218	66.05476	0.3301	 	4.49115E10	 	1.04127E-10	 	3208.2327	30.19387	 
680.0	1.0	0.0	7.95249	7.20152	-9.06854	14.54707	19.31629	1.20894	0.82717	176.06109	172.56644	66.19046	0.32996	 	5.366759999999999E10	 	8.66833E-11	 	3057.45708	30.15512	 
675.0	1.0	0.0	7.95455	7.19965	-9.09211	14.52226	19.25153	1.20664	0.82875	176.403	172.75982	66.32596	0.32982	 	6.425139999999999E10	 	7.20246E-11	 	2906.873	30.11682	 
670.0	1.0	0.0	7.95661	7.19779	-9.11561	14.49744	19.18676	1.20433	0.83034	176.7443	172.95232	66.46126	0.32968	 	7.70694E10	 	5.9729E-11	 	2756.47819	30.07896	 
665.0	1.0	0.0	7.95866	7.19594	-9.13905	14.47262	19.12197	1.202	0.83194	177.08498	173.14394	66.59635	0.32954	 	9.2624E10	 	4.94351E-11	 	2606.27023	30.04159	 
660.0	1.0	0.0	7.96071	7.19409	-9.16242	14.44781	19.05717	1.19966	0.83357	177.42504	173.33469	66.73123	0.3294	 	1.11537E11	 	4.08336E-11	 	2456.25271	30.00351	 
655.0	1.0	0.0	7.96275	7.19224	-9.18573	14.42299	18.99236	1.19731	0.83521	177.76448	173.52456	66.86591	0.32926	 	1.34582E11	 	3.36603E-11	 	2306.45945	29.95865	 
650.0	1.0	0.0	7.96479	7.1904	-9.20896	14.39817	18.92753	1.19494	0.83687	178.10331	173.71355	67.00038	0.32912	 	1.62719E11	 	2.76899E-11	 	2156.93538	29.90481	 
645.0	1.0	0.0	7.96683	7.18856	-9.23214	14.37335	18.86269	1.19255	0.83854	178.44153	173.90168	67.13465	0.32898	 	1.97145E11	 	2.27308E-11	 	2007.67958	29.85116	 
640.0	1.0	0.0	7.96885	7.18673	-9.25525	14.34852	18.79783	1.19015	0.84023	178.77912	174.08894	67.26871	0.32884	 	2.39357E11	 	1.86201E-11	 	1858.69111	29.7977	 
635.0	1.0	0.0	7.97088	7.18491	-9.27829	14.3237	18.73296	1.18773	0.84194	179.11611	174.27534	67.40257	0.3287	 	2.91229E11	 	1.52198E-11	 	1709.96903	29.74442	 
630.0	1.0	0.0	7.9729	7.18309	-9.30127	14.29888	18.66808	1.18529	0.84367	179.45247	174.46087	67.53622	0.32856	 	3.55113E11	 	1.24131E-11	 	1561.51242	29.69132	 
625.0	1.0	0.0	7.97491	7.18127	-9.32418	14.27405	18.60318	1.18284	0.84542	179.78822	174.64554	67.66966	0.32843	 	4.33967E11	 	1.01013E-11	 	1413.31987	29.63851	 
620.0	1.0	0.0	7.97692	7.17946	-9.34703	14.24923	18.53827	1.18038	0.84719	180.12336	174.82936	67.8029	0.32829	 	5.31524E11	 	8.2014E-12	 	1265.38932	29.58611	 
615.0	1.0	0.0	7.97893	7.17766	-9.36981	14.2244	18.47334	1.1779	0.84897	180.45788	175.01232	67.93594	0.32815	 	6.525E11	 	6.64343E-12	 	1117.72044	29.53378	 
610.0	1.0	0.0	7.98093	7.17586	-9.39252	14.19957	18.40839	1.1754	0.85078	180.79179	175.19442	68.06876	0.32801	 	8.02872E11	 	5.36877E-12	 	970.31234	29.48162	 
605.0	1.0	0.0	7.98292	7.17407	-9.41517	14.17475	18.34343	1.17288	0.8526	181.12508	175.37568	68.20139	0.32787	 	9.90234E11	 	4.3283E-12	 	823.1641	29.42965	 
600.0	1.0	0.0	7.98491	7.17228	-9.43775	14.14992	18.27845	1.17035	0.85445	181.45775	175.55609	68.3338	0.32773	 	1.22426E12	 	3.48099E-12	 	676.27482	29.37785	 
595.0	1.0	0.0	7.9869	7.1705	-9.46027	14.12509	18.21346	1.1678	0.85631	181.78981	175.73565	68.46601	0.32759	 	1.51729E12	 	2.79263E-12	 	529.64363	29.32624	 
590.0	1.0	0.0	7.98888	7.16872	-9.48272	14.10026	18.14845	1.16523	0.8582	182.12126	175.91436	68.59802	0.32745	 	1.88514E12	 	2.23475E-12	 	383.26961	29.2748	 
585.0	1.0	0.0	7.99086	7.16695	-9.50511	14.07543	18.08342	1.16265	0.8601	182.45209	176.09224	68.72982	0.32731	 	2.34811E12	 	1.78374E-12	 	237.15189	29.22354	 
580.0	1.0	0.0	7.99283	7.16518	-9.52743	14.05059	18.01838	1.16005	0.86203	182.7823	176.26927	68.86141	0.32718	 	2.93232E12	 	1.42004E-12	 	91.28957	29.17246	 
575.0	1.0	0.0	7.99479	7.16342	-9.54968	14.02576	17.95331	1.15743	0.86398	183.11191	176.44547	68.9928	0.32704	 	3.67148E12	 	1.1275E-12	 	-54.31824	29.12156	 
570.0	1.0	0.0	7.99676	7.16166	-9.57187	14.00093	17.88823	1.15479	0.86596	183.44089	176.62083	69.12398	0.3269	 	4.60924E12	 	8.92817E-13	 	-199.6724	29.07083	 
565.0	1.0	0.0	7.99871	7.15991	-9.59399	13.97609	17.82313	1.15214	0.86795	183.76927	176.79536	69.25496	0.32676	 	5.80224E12	 	7.05038E-13	 	-344.77381	29.02028	 
560.0	1.0	0.0	8.00067	7.15816	-9.61605	13.95125	17.75801	1.14946	0.86997	184.09703	176.96906	69.38572	0.32662	 	7.32423E12	 	5.55198E-13	 	-489.62333	28.9699	 
555.0	1.0	0.0	8.00261	7.15642	-9.63804	13.92642	17.69288	1.14677	0.87201	184.42417	177.14193	69.51629	0.32648	 	9.2715E12	 	4.35959E-13	 	-634.22185	28.9197	 
550.0	1.0	0.0	8.00455	7.15468	-9.65997	13.90158	17.62772	1.14406	0.87408	184.7507	177.31397	69.64664	0.32634	 	1.17701E13	 	3.41337E-13	 	-778.57022	28.86967	 
545.0	1.0	0.0	8.00649	7.15295	-9.68183	13.87674	17.56255	1.14133	0.87617	185.07662	177.48519	69.7768	0.3262	 	1.49858E13	 	2.66464E-13	 	-922.6693	28.81982	 
540.0	1.0	0.0	8.00842	7.15122	-9.70362	13.8519	17.49735	1.13858	0.87829	185.40192	177.65559	69.90674	0.32607	 	1.91368E13	 	2.0739E-13	 	-1066.51998	28.77013	 
535.0	1.0	0.0	8.01035	7.1495	-9.72535	13.82706	17.43213	1.13581	0.88043	185.72661	177.82517	70.03648	0.32593	 	2.45116E13	 	1.60919E-13	 	-1210.1231	28.72062	 
530.0	1.0	0.0	8.01227	7.14779	-9.74701	13.80222	17.3669	1.13303	0.88259	186.05069	177.99393	70.16601	0.32579	 	3.14929E13	 	1.24472E-13	 	-1353.47952	28.67128	 
525.0	1.0	0.0	8.01419	7.14608	-9.76861	13.77738	17.30164	1.13022	0.88478	186.37415	178.16187	70.29533	0.32565	 	4.05898E13	 	9.59741E-14	 	-1496.59007	28.62211	 
520.0	1.0	0.0	8.01611	7.14437	-9.79014	13.75253	17.23636	1.12739	0.887	186.697	178.329	70.42445	0.32551	 	5.24821E13	 	7.37617E-14	 	-1639.45563	28.57311	 
515.0	1.0	0.0	8.01801	7.14267	-9.81161	13.72769	17.17106	1.12455	0.88925	187.01923	178.49532	70.55337	0.32537	 	6.80803E13	 	5.65034E-14	 	-1782.07702	28.52428	 
510.0	1.0	0.0	8.01992	7.14098	-9.833	13.70284	17.10573	1.12168	0.89152	187.34086	178.66083	70.68207	0.32524	 	8.86083E13	 	4.31377E-14	 	-1924.45508	28.47561	 
505.0	1.0	0.0	8.02181	7.13929	-9.85434	13.678	17.04039	1.11879	0.89382	187.66187	178.82553	70.81057	0.3251	 	1.15717E14	 	3.2821E-14	 	-2066.59065	28.42711	 
500.0	1.0	0.0	8.02371	7.1376	-9.87561	13.65315	16.97502	1.11589	0.89615	187.98226	178.98943	70.93886	0.32496	 	1.51643E14	 	2.48845E-14	 	-2208.48456	28.37878	 
495.0	1.0	0.0	8.02559	7.13592	-9.89681	13.6283	16.90962	1.11296	0.89851	188.30204	179.15253	71.06695	0.32482	 	1.99422E14	 	1.88001E-14	 	-2350.13762	28.33061	 
490.0	1.0	0.0	8.02748	7.13425	-9.91795	13.60346	16.8442	1.11001	0.9009	188.62121	179.31482	71.19483	0.32468	 	2.6319899999999997E14	 	1.41518E-14	 	-2491.55068	28.28261	 
485.0	1.0	0.0	8.02936	7.13258	-9.93902	13.57861	16.77876	1.10703	0.90331	188.93977	179.47632	71.3225	0.32455	 	3.48645E14	 	1.06135E-14	 	-2632.72451	28.23477	 
480.0	1.0	0.0	8.03123	7.13092	-9.96002	13.55376	16.71329	1.10404	0.90576	189.25772	179.63701	71.44997	0.32441	 	4.63559E14	 	7.92981E-15	 	-2773.65997	28.18709	 
475.0	1.0	0.0	8.0331	7.12926	-9.98096	13.52891	16.6478	1.10103	0.90824	189.57505	179.79692	71.57723	0.32427	 	6.187E14	 	5.90194E-15	 	-2914.35782	28.13957	 
470.0	1.0	0.0	8.03496	7.12761	-10.00183	13.50405	16.58228	1.09799	0.91076	189.89177	179.95603	71.70428	0.32413	 	8.28977E14	 	4.37543E-15	 	-3054.81888	28.09221	 
465.0	1.0	0.0	8.03682	7.12596	-10.02264	13.4792	16.51673	1.09493	0.9133	190.20787	180.11435	71.83112	0.32399	 	1.11513E15	 	3.23077E-15	 	-3195.04395	28.04501	 
460.0	1.0	0.0	8.03867	7.12432	-10.04338	13.45435	16.45116	1.09185	0.91588	190.52337	180.27188	71.95776	0.32386	 	1.50614E15	 	2.37582E-15	 	-3335.03379	27.99797	 
455.0	1.0	0.0	8.04052	7.12268	-10.06406	13.42949	16.38556	1.08874	0.91849	190.83825	180.42863	72.08419	0.32372	 	2.04267E15	 	1.73984E-15	 	-3474.78922	27.95109	 
450.0	1.0	0.0	8.04236	7.12105	-10.08467	13.40464	16.31993	1.08562	0.92114	191.15252	180.58459	72.21042	0.32358	 	2.78203E15	 	1.26868E-15	 	-3614.31098	27.90435	 
445.0	1.0	0.0	8.0442	7.11942	-10.10521	13.37978	16.25427	1.08246	0.92382	191.46617	180.73977	72.33644	0.32344	 	3.80533E15	 	9.21106E-16	 	-3753.59986	27.85778	 
440.0	1.0	0.0	8.04603	7.1178	-10.12569	13.35492	16.18859	1.07929	0.92654	191.77922	180.89417	72.46225	0.3233	 	5.22794E15	 	6.65789E-16	 	-3892.65661	27.81135	 
435.0	1.0	0.0	8.04786	7.11618	-10.1461	13.33006	16.12287	1.07609	0.92929	192.09165	181.04779	72.58785	0.32317	 	7.21468E15	 	4.79066E-16	 	-4031.48198	27.76508	 
430.0	1.0	0.0	8.04968	7.11457	-10.16645	13.3052	16.05712	1.07287	0.93208	192.40347	181.20064	72.71324	0.32303	 	1.00021E16	 	3.43117E-16	 	-4170.07674	27.71895	 
425.0	1.0	0.0	8.0515	7.11296	-10.18673	13.28034	15.99135	1.06962	0.93491	192.71468	181.35271	72.83843	0.32289	 	1.39316E16	 	2.44588E-16	 	-4308.44152	27.67296	 
420.0	1.0	0.0	8.05331	7.11136	-10.20695	13.25548	15.92553	1.06635	0.93778	193.02527	181.504	72.96341	0.32275	 	1.94978E16	 	1.73512E-16	 	-4446.57721	27.62714	 
415.0	1.0	0.0	8.05512	7.10977	-10.2271	13.23062	15.85969	1.06305	0.94069	193.33526	181.65453	73.08819	0.32262	 	2.74214E16	 	1.22484E-16	 	-4584.48415	27.58139	 
410.0	1.0	0.0	8.05692	7.10818	-10.24718	13.20576	15.79382	1.05973	0.94364	193.64463	181.80429	73.21275	0.32248	 	3.87582E16	 	8.60279E-17	 	-4722.16258	27.53569	 
405.0	1.0	0.0	8.05872	7.10659	-10.2672	13.1809	15.72791	1.05638	0.94663	193.95339	181.95328	73.33711	0.32234	 	5.50621E16	 	6.01118E-17	 	-4859.61269	27.49002	 
400.0	1.0	0.0	8.06051	7.10501	-10.28715	13.15603	15.66196	1.05301	0.94966	194.26154	182.10151	73.46126	0.3222	 	7.86334E16	 	4.17822E-17	 	-4996.83467	27.4444	 
395.0	1.0	0.0	8.0623	7.10343	-10.30703	13.13117	15.59598	1.04961	0.95274	194.56908	182.24897	73.5852	0.32207	 	1.12896E17	 	2.88857E-17	 	-5133.82871	27.39881	 
390.0	1.0	0.0	8.06408	7.10187	-10.32685	13.1063	15.52997	1.04618	0.95586	194.87601	182.39567	73.70894	0.32193	 	1.62974E17	 	1.98601E-17	 	-5270.595	27.35326	 
385.0	1.0	0.0	8.06586	7.1003	-10.34661	13.08143	15.46391	1.04273	0.95902	195.18232	182.54162	73.83247	0.32179	 	2.36581E17	 	1.35779E-17	 	-5407.13368	27.30774	 
380.0	1.0	0.0	8.06763	7.09874	-10.3663	13.05656	15.39782	1.03925	0.96223	195.48803	182.68681	73.95579	0.32165	 	3.45397E17	 	9.22955E-18	 	-5543.44494	27.26225	 
375.0	1.0	0.0	8.0694	7.09719	-10.38592	13.03169	15.33169	1.03574	0.96549	195.79312	182.83124	74.0789	0.32152	 	5.07218E17	 	6.23688E-18	 	-5679.52891	27.21679	 
370.0	1.0	0.0	8.07116	7.09564	-10.40547	13.00682	15.26553	1.03221	0.9688	196.0976	182.97492	74.2018	0.32138	 	7.49316E17	 	4.18923E-18	 	-5815.38572	27.17136	 
365.0	1.0	0.0	8.07292	7.09409	-10.42497	12.98195	15.19932	1.02864	0.97215	196.40147	183.11784	74.3245	0.32124	 	1.11376E18	 	2.79652E-18	 	-5951.0155	27.12596	 
360.0	1.0	0.0	8.07467	7.09256	-10.44439	12.95708	15.13307	1.02505	0.97556	196.70473	183.26002	74.44699	0.32111	 	1.66585E18	 	1.85506E-18	 	-6086.41837	27.08057	 
355.0	1.0	0.0	8.07641	7.09102	-10.46375	12.93221	15.06678	1.02143	0.97902	197.00737	183.40145	74.56927	0.32097	 	2.50763E18	 	1.22261E-18	 	-6221.59442	27.03521	 
350.0	1.0	0.0	8.07815	7.0895	-10.48304	12.90734	15.00044	1.01778	0.98253	197.30941	183.54214	74.69134	0.32083	 	3.79963E18	 	8.00457E-19	 	-6356.54373	26.98986	 
345.0	1.0	0.0	8.07989	7.08797	-10.50227	12.88246	14.93406	1.0141	0.98609	197.61084	183.68208	74.81321	0.32069	 	5.79615E18	 	5.20524E-19	 	-6491.26639	26.94453	 
340.0	1.0	0.0	8.08162	7.08646	-10.52143	12.85759	14.86764	1.01039	0.98971	197.91165	183.82128	74.93486	0.32056	 	8.90284E18	 	3.36144E-19	 	-6625.76245	26.89921	 
335.0	1.0	0.0	8.08334	7.08494	-10.54052	12.83271	14.80117	1.00666	0.99339	198.21186	183.95974	75.05631	0.32042	 	1.37715E19	 	2.15533E-19	 	-6760.03196	26.8539	 
330.0	1.0	0.0	8.08506	7.08344	-10.55955	12.80783	14.73465	1.00289	0.99712	198.51145	184.09746	75.17755	0.32028	 	2.14574E19	 	1.37194E-19	 	-6894.07494	26.8086	 
325.0	1.0	0.0	8.08678	7.08193	-10.57852	12.78296	14.66808	0.99909	1.00091	198.81043	184.23444	75.29858	0.32015	 	3.36816E19	 	8.66771E-20	 	-7027.89143	26.7633	 
320.0	1.0	0.0	8.08849	7.08044	-10.59742	12.75808	14.60147	0.99525	1.00477	199.1088	184.37069	75.4194	0.32001	 	5.32732E19	 	5.43429E-20	 	-7161.48139	26.71799	 
315.0	1.0	0.0	8.09019	7.07895	-10.61625	12.7332	14.5348	0.99139	1.00868	199.40656	184.50621	75.54002	0.31987	 	8.49201E19	 	3.38037E-20	 	-7294.84484	26.67269	 
310.0	1.0	0.0	8.09189	7.07746	-10.63501	12.70832	14.46808	0.9875	1.01266	199.70371	184.64099	75.66042	0.31974	 	1.3645299999999998E20	 	2.08585E-20	 	-7427.98171	26.62737	 
305.0	1.0	0.0	8.09358	7.07598	-10.65371	12.68344	14.40131	0.98357	1.01671	200.00025	184.77505	75.78062	0.3196	 	2.2106599999999997E20	 	1.27646E-20	 	-7560.89196	26.58205	 
300.0	1.0	0.0	8.09527	7.0745	-10.67235	12.65855	14.33449	0.97961	1.02082	200.29618	184.90838	75.90061	0.31946	 	3.61172E20	 	7.74535E-21	 	-7693.57552	26.53671	 
295.0	1.0	0.0	8.09696	7.07303	-10.69091	12.63367	14.2676	0.97561	1.025	200.5915	185.04098	76.02039	0.31933	 	5.951949999999999E20	 	4.65898E-21	 	-7826.03229	26.49135	 
290.0	1.0	0.0	8.09863	7.07157	-10.70942	12.60879	14.20067	0.97159	1.02924	200.88621	185.17286	76.13996	0.31919	 	9.89593E20	 	2.7775E-21	 	-7958.26215	26.44597	 
285.0	1.0	0.0	8.10031	7.07011	-10.72785	12.5839	14.13367	0.96752	1.03357	201.18031	185.30402	76.25933	0.31905	 	1.66039E21	 	1.64069E-21	 	-8090.26497	26.40056	 
280.0	1.0	0.0	8.10197	7.06865	-10.74622	12.55901	14.06661	0.96343	1.03796	201.4738	185.43445	76.37848	0.31892	 	2.81207E21	 	9.6007E-22	 	-8222.04058	26.35512	 
275.0	1.0	0.0	8.10364	7.0672	-10.76453	12.53413	13.99949	0.9593	1.04243	201.76668	185.56417	76.49742	0.31878	 	4.80859E21	 	5.56376E-22	 	-8353.58881	26.30965	 
270.0	1.0	0.0	8.10529	7.06576	-10.78276	12.50924	13.9323	0.95513	1.04698	202.05894	185.69317	76.61616	0.31864	 	8.3042E21	 	3.19234E-22	 	-8484.90943	26.26412	 
265.0	1.0	0.0	8.10694	7.06432	-10.80094	12.48435	13.86506	0.95093	1.0516	202.3506	185.82146	76.73469	0.31851	 	1.4487299999999998E22	 	1.81302E-22	 	-8616.00222	26.21856	 
260.0	1.0	0.0	8.10859	7.06289	-10.81904	12.45946	13.79774	0.94669	1.05631	202.64165	185.94903	76.853	0.31837	 	2.55394E22	 	1.01889E-22	 	-8746.86691	26.17294	 
255.0	1.0	0.0	8.11023	7.06146	-10.83708	12.43457	13.73035	0.94241	1.06111	202.93209	186.07589	76.97111	0.31824	 	4.550879999999999E22	 	5.66433E-23	 	-8877.50321	26.12726	 
250.0	1.0	0.0	8.11186	7.06003	-10.85506	12.40968	13.6629	0.9381	1.06598	203.22192	186.20204	77.08901	0.3181	 	8.19928E22	 	3.11413E-23	 	-9007.91079	26.08152	 
245.0	1.0	0.0	8.11349	7.05861	-10.87297	12.38479	13.59537	0.93375	1.07095	203.51113	186.32749	77.2067	0.31796	 	1.4941399999999999E23	 	1.69259E-23	 	-9138.0893	26.0357	 
240.0	1.0	0.0	8.11512	7.0572	-10.89081	12.3599	13.52777	0.92936	1.07601	203.79974	186.45222	77.32418	0.31783	 	2.7547699999999998E23	 	9.09173E-24	 	-9268.03835	25.98981	 
235.0	1.0	0.0	8.11674	7.05579	-10.90859	12.335	13.46009	0.92493	1.08116	204.08774	186.57626	77.44146	0.31769	 	5.14052E23	 	4.82471E-24	 	-9397.75753	25.94384	 
230.0	1.0	0.0	8.11835	7.05439	-10.9263	12.31011	13.39233	0.92047	1.08641	204.37513	186.69958	77.55852	0.31755	 	9.712119999999999E23	 	2.52854E-24	 	-9527.24637	25.89777	 
225.0	1.0	0.0	8.11996	7.05299	-10.94394	12.28521	13.32449	0.91596	1.09175	204.66191	186.82221	77.67537	0.31742	 	1.85852E24	 	1.30822E-24	 	-9656.50437	25.8516	 
220.0	1.0	0.0	8.12156	7.0516	-10.96152	12.26031	13.25657	0.91141	1.0972	204.94808	186.94414	77.79201	0.31728	 	3.6036E24	 	6.67927E-25	 	-9785.531	25.80533	 
215.0	1.0	0.0	8.12316	7.05021	-10.97903	12.23542	13.18856	0.90682	1.10275	205.23364	187.06537	77.90845	0.31715	 	7.08266E24	 	3.3639E-25	 	-9914.32568	25.75894	 
210.0	1.0	0.0	8.12475	7.04883	-10.99648	12.21052	13.12046	0.90219	1.10841	205.51859	187.1859	78.02467	0.31701	 	1.41166E25	 	1.67047E-25	 	-10042.88779	25.71242	 
205.0	1.0	0.0	8.12634	7.04746	-11.01386	12.18562	13.05227	0.89752	1.11418	205.80293	187.30574	78.14069	0.31687	 	2.8544900000000004E25	 	8.17565E-26	 	-10171.21664	25.66577	 
200.0	1.0	0.0	8.12792	7.04608	-11.03117	12.16072	12.98398	0.89281	1.12006	206.08666	187.42489	78.25649	0.31674	 	5.85855E25	 	3.94181E-26	 	-10299.31153	25.61898	 
195.0	1.0	0.0	8.1295	7.04472	-11.04842	12.13582	12.9156	0.88805	1.12607	206.36978	187.54334	78.37209	0.3166	 	1.2210200000000001E26	 	1.87133E-26	 	-10427.17168	25.57203	 
190.0	1.0	0.0	8.13107	7.04336	-11.0656	12.11092	12.84712	0.88325	1.13219	206.65229	187.6611	78.48747	0.31647	 	2.5854700000000004E26	 	8.74318E-27	 	-10554.79626	25.52492	 
185.0	1.0	0.0	8.13263	7.042	-11.08272	12.08601	12.77854	0.8784	1.13843	206.9342	187.77818	78.60265	0.31633	 	5.5650400000000003E26	 	4.01815E-27	 	-10682.18439	25.47763	 
180.0	1.0	0.0	8.13419	7.04065	-11.09977	12.06111	12.70985	0.87351	1.14481	207.21549	187.89457	78.71761	0.3162	 	1.21827E27	 	1.81545E-27	 	-10809.33513	25.43015	 
175.0	1.0	0.0	8.13575	7.03931	-11.11676	12.0362	12.64105	0.86857	1.15131	207.49617	188.01028	78.83237	0.31606	 	2.71402E27	 	8.05929E-28	 	-10936.24746	25.38247	 
170.0	1.0	0.0	8.1373	7.03797	-11.13367	12.0113	12.57213	0.86359	1.15796	207.77625	188.1253	78.94691	0.31592	 	6.15648E27	 	3.51322E-28	 	-11062.92031	25.33457	 
165.0	1.0	0.0	8.13884	7.03663	-11.15053	11.98639	12.5031	0.85856	1.16474	208.05572	188.23964	79.06125	0.31579	 	1.4228900000000002E28	 	1.50293E-28	 	-11189.35253	25.28644	 
160.0	1.0	0.0	8.14038	7.0353	-11.16731	11.96149	12.43395	0.85348	1.17167	208.33457	188.3533	79.17537	0.31565	 	3.3528000000000002E28	 	6.30547E-29	 	-11315.54289	25.23807	 
155.0	1.0	0.0	8.14191	7.03398	-11.18403	11.93658	12.36467	0.84836	1.17875	208.61282	188.46628	79.28928	0.31552	 	8.06007E28	 	2.59265E-29	 	-11441.49009	25.18944	 
150.0	1.0	0.0	8.14344	7.03266	-11.20069	11.91167	12.29526	0.84318	1.18598	208.89046	188.57859	79.40299	0.31538	 	1.9782100000000003E29	 	1.04402E-29	 	-11567.19274	25.14053	 
145.0	1.0	0.0	8.14496	7.03135	-11.21728	11.88676	12.22572	0.83796	1.19337	209.16749	188.69022	79.51648	0.31525	 	4.9605700000000005E29	 	4.11422E-30	 	-11692.64936	25.09132	 
140.0	1.0	0.0	8.14648	7.03004	-11.2338	11.86185	12.15604	0.83269	1.20093	209.44391	188.80118	79.62976	0.31511	 	1.2719E30	 	1.5854E-30	 	-11817.85837	25.0418	 
135.0	1.0	0.0	8.14799	7.02873	-11.25026	11.83694	12.08622	0.82736	1.20866	209.71972	188.91146	79.74284	0.31498	 	3.33731E30	 	5.96912E-31	 	-11942.8181	24.99195	 
130.0	1.0	0.0	8.14949	7.02744	-11.26665	11.81202	12.01624	0.82199	1.21657	209.99493	189.02108	79.8557	0.31484	 	8.9687E30	 	2.19393E-31	 	-12067.52677	24.94173	 
125.0	1.0	0.0	8.15099	7.02614	-11.28297	11.78711	11.94612	0.81656	1.22466	210.26952	189.13002	79.96835	0.3147	 	2.47085E31	 	7.86479E-32	 	-12191.98247	24.89114	 
120.0	1.0	0.0	8.15249	7.02486	-11.29923	11.7622	11.87583	0.81107	1.23293	210.54351	189.2383	80.08079	0.31457	 	6.98486E31	 	2.74718E-32	 	-12316.18318	24.84014	 
115.0	1.0	0.0	8.15397	7.02357	-11.31542	11.73728	11.80537	0.80554	1.24141	210.81688	189.34591	80.19302	0.31443	 	2.02813E32	 	9.34093E-33	 	-12440.12676	24.78872	 
110.0	1.0	0.0	8.15546	7.0223	-11.33155	11.71236	11.73475	0.79995	1.25008	211.08965	189.45286	80.30504	0.3143	 	6.0550399999999994E32	 	3.08843E-33	 	-12563.81092	24.73683	 
105.0	1.0	0.0	8.15693	7.02102	-11.34761	11.68745	11.66394	0.7943	1.25897	211.36181	189.55915	80.41685	0.31416	 	1.8608E33	 	9.91862E-34	 	-12687.23321	24.68446	 
100.0	1.0	0.0	8.15841	7.01976	-11.3636	11.66253	11.59295	0.7886	1.26807	211.63336	189.66477	80.52845	0.31403	 	5.89317E33	 	3.09045E-34	 	-12810.39108	24.63157	 
95.0	1.0	0.0	8.15987	7.0185	-11.37953	11.63761	11.52176	0.78284	1.2774	211.9043	189.76974	80.63983	0.31389	 	1.9257400000000002E34	 	9.3307E-35	 	-12933.28172	24.57813	 
90.0	1.0	0.0	8.16133	7.01724	-11.39539	11.61269	11.45037	0.77702	1.28697	212.17463	189.87405	80.75101	0.31376	 	6.5014E34	 	2.72625E-35	 	-13055.90224	24.5241	 
85.0	1.0	0.0	8.16279	7.01599	-11.41119	11.58777	11.37877	0.77114	1.29677	212.44436	189.9777	80.86197	0.31362	 	2.2707499999999996E35	 	7.69807E-36	 	-13178.24949	24.46945	 
80.0	1.0	0.0	8.16424	7.01474	-11.42692	11.56285	11.30695	0.76521	1.30683	212.71348	190.0807	80.97272	0.31349	 	8.216999999999999E35	 	2.09765E-36	 	-13300.32013	24.41413	 
75.0	1.0	0.0	8.16568	7.0135	-11.44258	11.53792	11.2349	0.75921	1.31715	212.98198	190.18304	81.08327	0.31335	 	3.0853199999999995E36	 	5.50748E-37	 	-13422.11061	24.3581	 
70.0	1.0	0.0	8.16712	7.01227	-11.45818	11.513	11.16262	0.75315	1.32775	213.24988	190.28473	81.1936	0.31322	 	1.2040099999999998E37	 	1.39104E-37	 	-13543.61716	24.30131	 
65.0	1.0	0.0	8.16855	7.01104	-11.47371	11.48808	11.09008	0.74703	1.33863	213.51717	190.38577	81.30372	0.31308	 	4.89158E37	 	3.37401E-38	 	-13664.83572	24.24371	 
60.0	1.0	0.0	8.16998	7.00981	-11.48917	11.46315	11.01729	0.74085	1.3498	213.78386	190.48617	81.41362	0.31295	 	2.0727299999999998E38	 	7.84484E-39	 	-13785.76199	24.18525	 
55.0	1.0	0.0	8.1714	7.00859	-11.50457	11.43823	10.94422	0.7346	1.36128	214.04993	190.58591	81.52332	0.31281	 	9.17794E38	 	1.74507E-39	 	-13906.39136	24.12587	 
50.0	1.0	0.0	8.17282	7.00738	-11.51991	11.4133	10.87087	0.72829	1.37307	214.3154	190.68501	81.6328	0.31268	 	4.2554500000000005E39	 	3.70634E-40	 	-14026.71891	24.06551	 
45.0	1.0	0.0	8.17423	7.00617	-11.53517	11.38837	10.79722	0.72191	1.38521	214.58026	190.78346	81.74208	0.31254	 	2.07055E40	 	7.49952E-41	 	-14146.73938	24.00409	 
40.0	1.0	0.0	8.17563	7.00497	-11.55037	11.36344	10.72326	0.71547	1.39768	214.84451	190.88128	81.85114	0.31241	 	1.05966E41	 	1.44235E-41	 	-14266.44714	23.94155	 
35.0	1.0	0.0	8.17703	7.00377	-11.56551	11.33851	10.64898	0.70896	1.41052	215.10815	190.97845	81.95999	0.31228	 	5.71823E41	 	2.63019E-42	 	-14385.83617	23.87781	 
30.0	1.0	0.0	8.17843	7.00257	-11.58058	11.31358	10.57434	0.70238	1.42374	215.37118	191.07498	82.06863	0.31214	 	3.26215E42	 	4.53565E-43	 	-14504.90001	23.81277	 
25.0	1.0	0.0	8.17981	7.00139	-11.59558	 	10.49935	0.69573	1.43735	215.63361	191.17087	82.17705	0.31201	 	1.97293E43	 	7.3758E-44	 	-14623.63174	 	 
