T (C)	Fraction solid (wt)-TOTAL	Fraction liquid (wt)-LIQUID	Density (g/(cm)^3)-TOTAL	Molar volume (cm^3)-TOTAL	Volume change (%)-  	Average expansion coeff. (10e-6 1/K)-  	Thermal conductivity (W/(m*K))-TOTAL	Electrical resistivity (10e-6 Ohm*m)-TOTAL	Electrical conductivity (10e6 1/(Ohm*m))-TOTAL	Young's modulus (GPa)-TOTAL	Bulk modulus (GPa)-TOTAL	Shear modulus(GPa)-TOTAL	Poisson's ratio-TOTAL	Liquid viscosity (mPa s)-  	Total viscosity (mPa s)-  	Liquid diffusivity (10e-9 (m^2)/s)-  	Total diffusivity (10e-9 (m^2)/s)-  	Surface Tension (mN/m)-  	Enthalpy (J/mole)-TOTAL	Specific heat (J/(mole K))-TOTAL	Latent heat (J/mole)-TOTAL
1400.0	0.0	1.0	7.38693	7.85771	0.0	30.60628	29.16947	1.40531	0.71159	0.0	122.64774	0.0	0.5	6.85129	6.85129	1.19193	1.19193	1757.02015	52924.553	 	0.0
1397.88	0.0	1.0	7.38863	7.85591	-0.0228996	30.59088	29.13552	1.40517	0.71166	0.0	122.71212	0.0	0.5	6.8818	6.8818	1.18514	1.18514	1758.10133	52838.553	40.60051	0.0
1395.0	1.5E-4	0.99985	7.39112	7.85325	-0.0568249	30.56227	29.08668	1.4051	0.71169	4.42229E-13	122.84359	1.47414E-13	0.49996	6.92663	6.92663	1.17544	1.17544	1759.69799	52711.284	44.16302	10.403
1390.0	4.0E-4	0.9996	7.39546	7.84862	-0.11566	30.51241	29.00211	1.40497	0.71176	2.42541E-11	123.07128	8.08537E-12	0.49988	7.00543	7.00543	1.15873	1.15873	1762.49742	52491.004	44.056	28.271
1385.0	6.5E-4	0.99935	7.39979	7.84406	-0.17375	30.46424	28.91765	1.40484	0.71182	1.69594E-10	123.29871	5.6539E-11	0.4998	7.08553	7.08553	1.14219	1.14219	1765.33398	52271.401	43.9206	45.913
1380.0	9.0E-4	0.9991	7.4041	7.83953	-0.23135	30.41704	28.83331	1.4047	0.7119	6.16948E-10	123.5258	2.05687E-10	0.49972	7.16699	7.16699	1.1258	1.1258	1768.20809	52052.473	43.7856	63.331
1375.0	0.00115	0.99885	7.40839	7.83489	-0.29044	30.36537	28.74865	1.40458	0.71196	1.62097E-9	123.7498	5.40454E-10	0.49964	7.24985	7.24985	1.10957	1.10957	1771.1209	51834.217	43.6512	80.526
1370.0	0.00139	0.99861	7.41269	7.83037	-0.34793	30.31781	28.66451	1.40443	0.71203	3.50109E-9	123.97509	1.16737E-9	0.49957	7.33405	7.33405	1.0935	1.0935	1774.07134	51616.627	43.518	97.499
1365.0	0.00163	0.99837	7.41697	7.82589	-0.40499	30.27108	28.58032	1.40428	0.71211	6.635E-9	124.1998	2.21241E-9	0.49949	7.41972	7.41972	1.07759	1.07759	1777.06014	51399.701	43.3852	114.251
1360.0	0.00187	0.99813	7.42123	7.82138	-0.46237	30.22307	28.496	1.40413	0.71218	1.14474E-8	124.42284	3.81726E-9	0.49942	7.50689	7.50689	1.06182	1.06182	1780.08785	51183.436	43.253	130.786
1355.0	0.0021	0.9979	7.42549	7.8169	-0.51934	30.17589	28.412	1.40397	0.71226	1.84119E-8	124.64572	6.13997E-9	0.49935	7.5955	7.5955	1.04622	1.04622	1783.15433	50967.828	43.1216	147.103
1350.0	0.00234	0.99766	7.42974	7.8124	-0.57662	30.12746	28.32789	1.40382	0.71234	2.803E-8	124.86696	9.34786E-9	0.49927	7.68566	7.68566	1.03078	1.03078	1786.26004	50752.873	42.991	163.204
1345.0	0.00257	0.99743	7.43396	7.80803	-0.6323	30.08325	28.24393	1.40365	0.71243	4.08367E-8	125.08904	1.36195E-8	0.4992	7.77739	7.77739	1.01548	1.01548	1789.40421	50538.568	42.861	179.09
1340.0	0.00279	0.99721	7.43818	7.8036	-0.68861	30.03686	28.16005	1.40348	0.71251	5.73911E-8	125.30961	1.91414E-8	0.49913	7.87074	7.87074	1.00034	1.00034	1792.58797	50324.909	42.7318	194.764
1335.0	0.00302	0.99698	7.44238	7.79915	-0.74523	29.98925	28.07607	1.40332	0.7126	7.82702E-8	125.52848	2.61064E-8	0.49906	7.96571	7.96571	0.98535	0.98535	1795.81122	50111.893	42.6032	210.226
1330.0	0.00324	0.99676	7.44657	7.79474	-0.80136	29.94267	27.9922	1.40315	0.71268	1.04069E-7	125.74704	3.47129E-8	0.49899	8.06236	8.06236	0.97051	0.97051	1799.07359	49899.518	42.475	225.476
1329.29	0.00327	0.99673	7.44716	7.79413	-0.80916	29.93651	27.98034	1.40312	0.7127	1.08151E-7	125.77812	3.60748E-8	0.49898	8.07619	8.12667	0.96842	0.9624	1799.5397	49869.426	 	227.626
1325.0	0.16341	0.83659	7.4901	7.74952	-1.37684	28.39595	28.50064	1.37382	0.7279	0.0665858	127.59065	0.022547	0.4766	8.21369	35.88898	0.94966	0.21734	1799.56154	47088.147	562.2742	2840.143
1320.0	0.30402	0.69598	7.52829	7.71005	-1.87912	27.04949	28.96062	1.34777	0.74197	0.86313	129.35304	0.29627	0.45665	8.3721	334.95186	0.92877	0.0232146	1802.07605	44614.41391	494.74662	5116.979
1315.0	0.40981	0.59019	7.55732	7.68073	-2.25226	26.06841	29.30428	1.32778	0.75314	2.97067	130.68726	1.03044	0.44146	8.52922	1142.55501	0.9088	0.00678424	1804.60495	42720.92185	378.69841	6813.219
1310.0	0.49175	0.50825	7.58018	7.65789	-2.54301	25.32042	29.56589	1.31189	0.76226	6.33568	131.75508	2.21595	0.42956	8.68554	2500.24731	0.88963	0.00309048	1807.14973	41225.26549	299.13127	8112.077
1305.0	0.55673	0.44327	7.5987	7.63947	-2.77739	24.73192	29.76311	1.29908	0.76978	10.63143	132.6445	3.74336	0.42004	8.84149	4357.16364	0.87118	0.00176779	1809.71098	40010.97866	242.85737	9130.014
1300.0	0.60931	0.39069	7.61406	7.62432	-2.97019	24.26121	29.91672	1.28832	0.77621	15.50742	133.41313	5.49025	0.41227	8.99756	6644.48004	0.85336	0.00115557	1812.28707	39001.35775	201.92418	9943.731
1295.0	0.65257	0.34743	7.62708	7.6115	-3.13339	23.8743	30.03383	1.27921	0.78173	20.67939	134.09543	7.35489	0.40583	9.15411	9303.17375	0.8361	8.22703E-4	1814.87906	38144.28427	171.4147	10605.347
1290.0	0.68871	0.31129	7.63832	7.60046	-3.27386	23.55178	30.12197	1.2714	0.78653	25.94111	134.71613	9.26199	0.40041	9.31147	12290.05093	0.81935	6.20774E-4	1817.48602	37403.36375	148.1841	11151.251
1285.0	0.71925	0.28075	7.64818	7.59075	-3.39742	23.2771	30.18675	1.26462	0.79075	31.15665	135.291	11.16097	0.39579	9.46997	15580.07396	0.80306	4.8812E-4	1820.10865	36752.55774	130.1612	11607.48
1280.0	0.74537	0.25463	7.65695	7.5821	-3.50746	23.04066	30.2324	1.25866	0.7945	36.23645	135.83179	13.01776	0.39181	9.62997	19160.03902	0.78718	3.95643E-4	1822.74616	36172.83478	115.94459	11993.064
1275.0	0.76791	0.23209	7.66485	7.5743	-3.60685	22.83434	30.26241	1.25336	0.79786	41.13066	136.34645	14.81281	0.38835	9.79166	23028.96902	0.77169	3.28114E-4	1825.39835	35650.01239	104.56448	12322.181
1270.0	0.78752	0.21248	7.67205	7.56714	-3.69789	22.65151	30.27928	1.24862	0.80089	45.81083	136.84076	16.53451	0.38531	9.95533	27193.45037	0.75655	2.76969E-4	1828.06566	35173.34315	95.33385	12605.578
1265.0	0.80475	0.19525	7.67867	7.56051	-3.78229	22.48731	30.28513	1.24433	0.80365	50.26535	137.31866	18.17756	0.38262	10.12119	31666.79422	0.74174	2.37073E-4	1830.74832	34734.55456	87.75772	12851.525
1260.0	0.81995	0.18005	7.68481	7.55433	-3.86089	22.33942	30.28163	1.24043	0.80617	54.49176	137.78381	19.74017	0.38023	10.28952	36468.24798	0.72724	2.0519E-4	1833.44518	34327.18824	81.47326	13066.477
1255.0	0.83345	0.16655	7.69055	7.54853	-3.93481	22.20464	30.27028	1.23685	0.80851	58.49877	138.23869	21.2248	0.37808	10.46044	41624.43134	0.71302	1.79186E-4	1836.15625	33946.1417	76.20931	13255.533
1250.0	0.84553	0.15447	7.69595	7.54302	-4.00482	22.08071	30.25207	1.23354	0.81067	62.29163	138.68475	22.6328	0.37614	10.63409	47161.43701	0.69908	1.57631E-4	1838.88164	33587.33751	71.76084	13422.771
1245.0	0.85638	0.14362	7.70106	7.53778	-4.07157	21.9658	30.22795	1.23047	0.8127	65.88572	139.1237	23.96935	0.37437	10.81087	53115.55617	0.68539	1.39502E-4	1841.62112	33247.48022	67.97146	13571.483
1240.0	0.86617	0.13383	7.70592	7.53275	-4.13551	21.85861	30.19865	1.22761	0.81459	69.28766	139.55623	25.23648	0.37277	10.99088	59519.27076	0.67195	1.24083E-4	1844.37473	32923.88241	64.71956	13704.354
1235.0	0.87504	0.12496	7.71057	7.52793	-4.19692	21.75841	30.16492	1.22492	0.81638	72.51613	139.98373	26.44075	0.37129	11.17425	66419.7641	0.65874	1.10824E-4	1847.14114	32614.33465	61.90955	13823.59
1230.0	0.88312	0.11688	7.71503	7.52325	-4.25642	21.66332	30.12718	1.22239	0.81807	75.57887	140.40624	27.58478	0.36994	11.36116	73858.36632	0.64575	9.9332E-5	1849.92191	32317.0035	59.46623	13931.024
1225.0	0.8905	0.1095	7.71932	7.51872	-4.31409	21.57318	30.08591	1.22	0.81968	78.48893	140.8245	28.67315	0.36868	11.55196	81886.41266	0.63297	8.92956E-5	1852.71595	32030.35753	57.32919	14028.184
1220.0	0.89727	0.10273	7.72347	7.51432	-4.37008	21.48754	30.04159	1.21772	0.82121	81.25986	141.2393	29.7107	0.36752	11.74668	90562.8348	0.6204	8.04711E-5	1855.5223	31753.10833	55.44984	14116.356
1215.0	0.90349	0.0965051	7.72749	7.51003	-4.42477	21.40529	29.99445	1.21555	0.82267	83.89942	141.65052	30.70017	0.36643	11.94561	99945.15076	0.60803	7.26728E-5	1858.34211	31484.16448	53.78877	14196.63
1210.0	0.90924	0.0907605	7.7314	7.50582	-4.47823	21.32625	29.94482	1.21347	0.82408	86.41803	142.05847	31.64528	0.36542	12.14884	110100.445	0.59585	6.5748E-5	1861.17466	31222.59556	52.31378	14269.933
1205.0	0.91455	0.0854476	7.7352	7.50172	-4.53048	21.25037	29.89298	1.21148	0.82544	88.8254	142.4638	32.54952	0.36447	12.3566	121104.4935	0.58386	5.95724E-5	1864.01863	30967.60717	50.99768	14337.058
1200.0	0.91948	0.0805186	7.73891	7.49768	-4.58188	21.17659	29.83911	1.20956	0.82675	91.13102	142.8662	33.41637	0.36357	12.56913	133038.5473	0.57204	5.40451E-5	1866.87557	30718.51388	49.81866	14398.688
1195.0	0.92407	0.0759295	7.74254	7.49372	-4.63227	21.1054	29.78344	1.20771	0.82802	93.34165	143.26627	34.24822	0.36272	12.78665	145991.2391	0.5604	4.90829E-5	1869.74316	30474.72031	48.75871	14455.415
1190.0	0.92835	0.0716481	7.74609	7.48981	-4.68204	21.03559	29.72609	1.20592	0.82924	95.46493	143.66358	35.04791	0.36192	13.00943	160059.6785	0.54893	4.46163E-5	1872.62395	30235.71303	47.80146	14507.753
1185.0	0.93236	0.0676441	7.74957	7.48596	-4.73102	20.96774	29.66726	1.20418	0.83044	97.50748	144.05872	35.81781	0.36116	13.23754	175353.0761	0.53763	4.05859E-5	1875.51533	30001.03968	46.93467	14556.15
1180.0	0.93611	0.0638912	7.75299	7.48216	-4.77935	20.90141	29.60707	1.20249	0.83161	99.47557	144.45161	36.56021	0.36043	13.4712	191989.7975	0.52649	3.69419E-5	1878.41768	29770.30583	46.14677	14600.998
1175.0	0.9401	0.0599031	7.75647	7.47827	-4.82886	20.83068	29.54253	1.20097	0.83266	101.21529	144.85718	37.22017	0.35968	13.74332	210519.962	0.51429	3.35743E-5	1881.32921	29530.22211	48.01674	14655.585
1170.0	0.94407	0.0559297	7.75994	7.47437	-4.87855	20.75871	29.47563	1.19954	0.83365	102.81707	145.26687	37.83	0.35894	14.04026	230936.3809	0.50168	3.05004E-5	1884.24799	29287.58113	48.5282	14713.116
1165.0	0.94831	0.0516889	7.7633	7.4704	-4.92906	20.68344	29.41085	1.19802	0.83471	104.6039	145.69026	38.51005	0.35814	14.35629	253761.7125	0.48893	2.76608E-5	1887.12737	29040.50351	49.41552	14775.467
1160.0	0.95541	0.0445897	7.76732	7.46535	-4.99332	20.56201	29.36805	1.19559	0.83641	106.70092	146.22526	39.31743	0.35692	14.72627	282355.4445	0.47499	2.47732E-5	1889.94872	28706.09386	66.88193	14925.534
1155.0	0.96315	0.0368489	7.77138	7.45999	-5.06159	20.42615	29.33118	1.19292	0.83828	109.11288	146.79692	40.24515	0.3556	15.13267	315081.2917	0.46062	2.21227E-5	1892.73518	28345.46483	72.12581	15102.2
1150.0	0.96949	0.0305129	7.77505	7.45508	-5.12405	20.30852	29.28497	1.19062	0.8399	112.04176	147.3255	41.35906	0.3545	15.52846	349593.3757	0.44731	1.98689E-5	1895.53452	28020.37002	65.01896	15243.708
1145.0	0.97542	0.0245828	7.7789	7.45035	-5.18418	20.19764	29.23094	1.18863	0.84131	115.96726	147.84138	42.84051	0.35348	15.84475	387120.7853	0.43684	1.78798E-5	1898.36059	27709.07707	62.25859	15371.79
1140.0	0.98048	0.0195238	7.78245	7.44584	-5.24157	20.09498	29.16704	1.18703	0.84244	120.27815	148.33171	44.46299	0.35256	16.20669	427421.861	0.42558	1.61368E-5	1901.19441	27419.84963	57.84549	15478.181
1135.0	0.98495	0.0150487	7.78581	7.4415	-5.29689	19.99838	29.0951	1.18576	0.84334	124.43377	148.80494	46.02759	0.35173	16.60347	471050.6287	0.41394	1.45904E-5	1904.03516	27145.60534	54.84886	15569.959
1130.0	0.98872	0.0112824	7.78896	7.43741	-5.34893	19.91208	29.01942	1.18463	0.84415	127.93038	149.25535	47.34654	0.351	17.00691	517931.2417	0.40268	1.32227E-5	1906.88518	26887.97083	51.5269	15645.497
1125.0	0.99197	0.00802636	7.79197	7.43351	-5.39853	19.83329	28.93974	1.18366	0.84484	130.79455	149.68888	48.43002	0.35035	17.41593	568623.7245	0.39183	1.20009E-5	1909.74389	26642.62076	49.07001	15709.117
1120.0	0.99487	0.00513046	7.79488	7.42975	-5.44634	19.75995	28.8589	1.18273	0.8455	133.16558	150.10985	49.32989	0.34975	17.8297	623708.9331	0.38136	1.09019E-5	1912.61051	26406.42978	47.2382	15763.942
1115.0	0.99752	0.00248429	7.79773	7.4261	-5.49287	19.69033	28.77603	1.18188	0.84611	135.20599	150.52178	50.10668	0.34918	18.24728	683816.6284	0.3713	9.90794E-6	1915.48511	26177.09855	45.86625	15812.269
1110.0	1.0	0.0	7.80056	7.42251	-5.5385	19.62319	28.69152	1.18109	0.84668	137.06446	150.9272	50.81574	0.34864	 	749625.006	 	9.00558E-6	 	25952.93273	44.83316	15855.792
1109.65	1.0	0.0	7.80074	7.42234	-5.54067	19.62206	28.68568	1.18103	0.84672	137.09592	150.94992	50.82786	0.34863	 	754039.9557	 	8.95057E-6	 	25924.96084	 	 
1105.0	1.0	0.0	7.80552	7.41779	-5.59856	19.50527	28.48444	1.18537	0.84362	137.83521	151.3641	51.1171	0.34823	 	825387.6457	 	8.14939E-6	 	25627.99518	64.98751	 
1100.0	1.0	0.0	7.81057	7.413	-5.65959	19.38286	28.27662	1.18975	0.84051	138.61059	151.79724	51.4206	0.34781	 	910403.711	 	7.36157E-6	 	25314.70705	62.65763	 
1095.0	1.0	0.0	7.81552	7.4083	-5.71932	19.26386	28.07704	1.19385	0.83763	139.36689	152.2193	51.71676	0.34741	 	1004945.962	 	6.64474E-6	 	25007.68837	61.40373	 
1090.0	1.0	0.0	7.82037	7.40371	-5.7778	19.14815	27.88548	1.19765	0.83497	140.10523	152.6312	52.00597	0.34701	 	1110143.157	 	5.9931E-6	 	24706.70702	60.19627	 
1085.0	1.0	0.0	7.82513	7.39921	-5.83508	19.03562	27.7014	1.20119	0.83251	140.8266	153.03373	52.28861	0.34663	 	1227264.861	 	5.40127E-6	 	24411.533	59.03481	 
1080.0	1.0	0.0	7.82979	7.3948	-5.89119	18.92616	27.52429	1.20447	0.83024	141.53195	153.42756	52.56504	0.34626	 	1357740.052	 	4.86425E-6	 	24121.93878	57.91884	 
1075.0	1.0	0.0	7.83437	7.39048	-5.94619	18.81966	27.3537	1.2075	0.82816	142.22215	153.81332	52.83561	0.34589	 	1503178.675	 	4.37738E-6	 	23837.69989	56.84778	 
1070.0	1.0	0.0	7.83887	7.38624	-6.00011	18.71598	27.18922	1.2103	0.82624	142.89808	154.1916	53.10062	0.34554	 	1665395.786	 	3.93635E-6	 	23558.59544	55.82089	 
1065.0	1.0	0.0	7.84328	7.38208	-6.053	18.61503	27.03047	1.21288	0.82449	143.56053	154.5629	53.3604	0.3452	 	1846439.369	 	3.53717E-6	 	23284.40887	54.83731	 
1060.0	1.0	0.0	7.84762	7.378	-6.10491	18.51668	26.87709	1.21524	0.82288	144.21028	154.92772	53.61524	0.34486	 	2048622.157	 	3.17617E-6	 	23014.92851	53.89607	 
1055.0	1.0	0.0	7.85188	7.374	-6.15587	18.42082	26.72874	1.2174	0.82142	144.84805	155.28649	53.86541	0.34454	 	2274558.151	 	2.84995E-6	 	22749.94827	52.99605	 
1050.0	1.0	0.0	7.85607	7.37007	-6.20593	18.32733	26.5851	1.21937	0.82009	145.47454	155.63963	54.11119	0.34422	 	2527204.055	 	2.55538E-6	 	22489.26815	52.13602	 
1045.0	1.0	0.0	7.86019	7.3662	-6.25512	18.23612	26.44587	1.22116	0.81889	146.0904	155.9875	54.35283	0.34391	 	2809907.139	 	2.2896E-6	 	22232.69469	51.31469	 
1040.0	1.0	0.0	7.86425	7.3624	-6.30349	18.14706	26.31077	1.22278	0.81781	146.69624	156.33043	54.59056	0.3436	 	3126459.901	 	2.04997E-6	 	21980.04135	50.53067	 
1035.0	1.0	0.0	7.86824	7.35866	-6.35106	18.06006	26.17954	1.22423	0.81684	147.29265	156.66875	54.82461	0.34331	 	3481162.858	 	1.83409E-6	 	21731.12867	49.78254	 
1030.0	1.0	0.0	7.87218	7.35498	-6.39788	17.97502	26.05194	1.22552	0.81598	147.88016	157.00274	55.05519	0.34302	 	3878896.98	 	1.63973E-6	 	21485.78496	49.06874	 
1025.0	1.0	0.0	7.87606	7.35136	-6.44398	17.89183	25.92772	1.22667	0.81522	148.4593	157.33265	55.2825	0.34273	 	4325206.344	 	1.46489E-6	 	21243.84567	48.38786	 
1020.0	1.0	0.0	7.87988	7.34779	-6.48939	17.81041	25.80669	1.22767	0.81455	149.03052	157.65872	55.50673	0.34245	 	4826393.994	 	1.30771E-6	 	21005.15389	47.73836	 
1015.0	1.0	0.0	7.88366	7.34428	-6.53414	17.73067	25.68862	1.22855	0.81397	149.59429	157.98117	55.72805	0.34218	 	5389631.537	 	1.16653E-6	 	20769.56	47.11878	 
1010.0	1.0	0.0	7.88738	7.34081	-6.57826	17.65253	25.57334	1.22929	0.81347	150.15101	158.30021	55.94662	0.34191	 	6023087.164	 	1.03979E-6	 	20536.92181	46.52764	 
1005.0	1.0	0.0	7.89106	7.33739	-6.62177	17.57589	25.46067	1.22992	0.81306	150.70108	158.616	56.16259	0.34165	 	6736070.658	 	9.26109E-7	 	20307.10426	45.96351	 
1000.0	1.0	0.0	7.89469	7.33402	-6.66471	17.50068	25.35045	1.23044	0.81272	151.24485	158.92871	56.37611	0.34139	 	7539203.425	 	8.24216E-7	 	20079.97926	45.425	 
995.0	1.0	0.0	7.89827	7.33069	-6.7071	17.42684	25.24253	1.23085	0.81245	151.78267	159.23851	56.58731	0.34114	 	8444614.82	 	7.32955E-7	 	19855.42545	44.91076	 
990.0	1.0	0.0	7.90182	7.3274	-6.74896	17.35428	25.13676	1.23115	0.81225	152.31485	159.54551	56.79632	0.34089	 	9466166.802	 	6.5128E-7	 	19633.32791	44.41951	 
985.0	1.0	0.0	7.90533	7.32415	-6.79032	17.28295	25.03301	1.23136	0.81211	152.84168	159.84986	57.00324	0.34064	 	1.061971901E7	 	5.78237E-7	 	19413.57795	43.94999	 
980.0	1.0	0.0	7.90879	7.32094	-6.83119	17.21277	24.93116	1.23148	0.81203	153.36343	160.15166	57.20818	0.3404	 	1.19234304E7	 	5.12966E-7	 	19196.07275	43.50104	 
975.0	1.0	0.0	7.91223	7.31776	-6.87159	17.14369	24.8311	1.23151	0.81201	153.88036	160.45102	57.41125	0.34016	 	1.339811576E7	 	4.54684E-7	 	18980.71513	43.07152	 
970.0	1.0	0.0	7.91562	7.31462	-6.91155	17.07565	24.73272	1.23145	0.81205	154.39269	160.74804	57.61254	0.33992	 	1.506765291E7	 	4.02684E-7	 	18767.41327	42.66037	 
965.0	1.0	0.0	7.91899	7.31151	-6.95109	17.0086	24.63592	1.23132	0.81214	154.90066	161.0428	57.81213	0.33969	 	1.69594649E7	 	3.56326E-7	 	18556.08034	42.26659	 
960.0	1.0	0.0	7.92232	7.30844	-6.99021	16.94248	24.54061	1.23111	0.81228	155.40445	161.33538	58.0101	0.33946	 	1.91050714E7	 	3.15031E-7	 	18346.63437	41.88919	 
955.0	1.0	0.0	7.92562	7.3054	-7.02893	16.87724	24.4467	1.23083	0.81246	155.90427	161.62586	58.20654	0.33923	 	2.154074292E7	 	2.78277E-7	 	18138.9978	41.52732	 
950.0	1.0	0.0	7.92889	7.30238	-7.06727	16.81285	24.35412	1.23048	0.81269	156.40029	161.91431	58.4015	0.33901	 	2.430825185E7	 	2.45591E-7	 	17933.09743	41.18007	 
945.0	1.0	0.0	7.93213	7.2994	-7.10525	16.74925	24.26279	1.23006	0.81297	156.89266	162.20079	58.59505	0.33879	 	2.745576337E7	 	2.16548E-7	 	17728.86412	40.84666	 
940.0	1.0	0.0	7.93534	7.29644	-7.14288	16.6864	24.17264	1.22958	0.81329	157.38155	162.48535	58.78726	0.33857	 	3.10388643E7	 	1.90764E-7	 	17526.23214	40.5264	 
938.67	1.0	0.0	7.9362	7.29566	-7.15284	16.66978	24.14883	1.22944	0.81338	157.51114	162.56078	58.83822	0.33851	 	3.207421273E7	 	1.84403E-7	 	17472.54259	 	 
935.0	1.0	0.0	7.93853	7.29352	-7.18013	16.62442	24.08363	1.22904	0.81365	157.86722	162.76825	58.97822	0.33835	 	3.512203263E7	 	1.67891E-7	 	17325.12034	40.22236	 
930.0	1.0	0.0	7.94169	7.29062	-7.21702	16.5632	23.99568	1.22844	0.81404	158.34971	163.0494	59.16796	0.33814	 	3.977951086E7	 	1.47621E-7	 	17125.47931	39.92821	 
925.0	1.0	0.0	7.94482	7.28774	-7.25361	16.50262	23.90873	1.22778	0.81448	158.82911	163.32879	59.35651	0.33792	 	4.509719426E7	 	1.29673E-7	 	16927.2644	39.64298	 
920.0	1.0	0.0	7.94793	7.28489	-7.28988	16.44265	23.82273	1.22707	0.81495	159.30554	163.60644	59.54392	0.33771	 	5.117477739E7	 	1.13796E-7	 	16730.42298	39.36828	 
915.0	1.0	0.0	7.95102	7.28207	-7.32586	16.38325	23.73762	1.22631	0.81545	159.7791	163.88239	59.73022	0.33751	 	5.812794046E7	 	9.97638E-8	 	16534.9052	39.10355	 
910.0	1.0	0.0	7.95408	7.27926	-7.36156	16.3244	23.65336	1.2255	0.81599	160.24989	164.15669	59.91547	0.3373	 	6.609104918E7	 	8.73743E-8	 	16340.66387	38.84827	 
905.0	1.0	0.0	7.95712	7.27648	-7.39698	16.26605	23.56991	1.22464	0.81657	160.71801	164.42936	60.09969	0.3371	 	7.522035753E7	 	7.64455E-8	 	16147.65416	38.60194	 
902.29	1.0	0.0	7.95876	7.27498	-7.41605	16.23465	23.52502	1.22416	0.81689	160.97056	164.57643	60.19909	0.33699	 	8.071710997E7	 	7.10758E-8	 	16043.57356	 	 
902.18	1.0	0.0	7.95887	7.27488	-7.4173	16.23132	23.52275	1.22416	0.81689	160.98633	164.58541	60.2053	0.33698	 	8.095846535E7	 	7.08574E-8	 	16037.9147	 	 
900.0	1.0	0.0	7.96019	7.27367	-7.43271	16.20571	23.48656	1.22377	0.81715	161.19255	164.70584	60.28646	0.33689	 	8.572333575E7	 	6.67946E-8	 	15953.46334	38.83816	 
895.0	1.0	0.0	7.96322	7.2709	-7.46795	16.14678	23.4041	1.22285	0.81776	161.66379	164.98076	60.47195	0.33668	 	9.779425024E7	 	5.83005E-8	 	15760.66459	38.55975	 
890.0	1.0	0.0	7.96628	7.26811	-7.50343	16.0861	23.32203	1.2219	0.8184	162.13699	165.25628	60.65825	0.33648	 	1.116997679E8	 	5.08242E-8	 	15567.80433	38.57205	 
885.05	1.0	0.0	7.96989	7.26481	-7.54542	15.9955	23.23767	1.22111	0.81893	162.67769	165.56761	60.87132	0.33624	 	1.278987761E8	 	4.41979E-8	 	15358.78648	 	 
885.0	1.0	0.0	7.96991	7.26479	-7.54573	15.995	23.23694	1.2211	0.81893	162.68182	165.57002	60.87295	0.33624	 	1.280542522E8	 	4.41426E-8	 	15357.08449	42.14397	 
880.0	1.0	0.0	7.97286	7.26211	-7.57987	15.9386	23.15706	1.22002	0.81966	163.13957	165.83655	61.05322	0.33604	 	1.465198482E8	 	3.84128E-8	 	15169.40111	37.53668	 
875.0	1.0	0.0	7.97578	7.25944	-7.61379	15.88258	23.07777	1.21891	0.82041	163.59502	166.10156	61.23263	0.33585	 	1.678304898E8	 	3.33899E-8	 	14982.73946	37.33233	 
870.0	1.0	0.0	7.97869	7.25679	-7.64747	15.82691	22.99904	1.21775	0.82118	164.04824	166.36506	61.41119	0.33565	 	1.924526742E8	 	2.89912E-8	 	14797.06823	37.13425	 
865.0	1.0	0.0	7.98158	7.25417	-7.68093	15.77157	22.92085	1.21656	0.82199	164.49928	166.62709	61.58892	0.33546	 	2.209339885E8	 	2.51434E-8	 	14612.35711	36.94222	 
860.0	1.0	0.0	7.98446	7.25155	-7.71417	15.71655	22.84318	1.21534	0.82282	164.94821	166.88765	61.76586	0.33527	 	2.539179913E8	 	2.17811E-8	 	14428.57728	36.75597	 
855.0	1.0	0.0	7.98732	7.24896	-7.74721	15.66182	22.766	1.21408	0.82367	165.39508	167.14678	61.94201	0.33508	 	2.92161989E8	 	1.88465E-8	 	14245.70121	36.57521	 
850.0	1.0	0.0	7.99016	7.24638	-7.78003	15.60737	22.6893	1.21278	0.82455	165.83992	167.4045	62.1174	0.33489	 	3.365582312E8	 	1.62879E-8	 	14063.7027	36.3997	 
845.0	1.0	0.0	7.99245	7.2443	-7.80647	15.58148	22.61781	1.2112	0.82563	166.22934	167.65369	62.26987	0.33475	 	3.832624776E8	 	1.42394E-8	 	13913.93788	29.95296	 
840.0	1.0	0.0	7.99474	7.24223	-7.83284	15.55559	22.54633	1.20961	0.82672	166.61801	167.90173	62.4221	0.33461	 	4.369576865E8	 	1.24337E-8	 	13761.34934	30.51771	 
835.0	1.0	0.0	7.99702	7.24016	-7.85915	15.52971	22.47483	1.208	0.82781	167.00594	168.14864	62.57407	0.33447	 	4.987654034E8	 	1.0844E-8	 	13608.99517	30.47084	 
830.0	1.0	0.0	7.9993	7.2381	-7.88538	15.50383	22.40332	1.20639	0.82892	167.39312	168.39442	62.7258	0.33432	 	5.699990125E8	 	9.44598E-9	 	13456.87468	30.4241	 
825.0	1.0	0.0	8.00157	7.23604	-7.91154	15.47796	22.33181	1.20477	0.83003	167.77956	168.63906	62.87728	0.33418	 	6.521985728E8	 	8.21805E-9	 	13304.98718	30.3775	 
820.0	1.0	0.0	8.00384	7.23399	-7.93763	15.45209	22.26029	1.20314	0.83116	168.16525	168.88257	63.02851	0.33404	 	7.471723434E8	 	7.14078E-9	 	13153.33196	30.33104	 
815.0	1.0	0.0	8.0061	7.23195	-7.96366	15.42622	22.18876	1.20149	0.8323	168.5502	169.12495	63.17949	0.3339	 	8.570463566E8	 	6.19685E-9	 	13001.90829	30.28473	 
810.0	1.0	0.0	8.00836	7.22991	-7.98961	15.40036	22.11722	1.19984	0.83344	168.9344	169.36621	63.33022	0.33376	 	9.843236794E8	 	5.37078E-9	 	12850.71546	30.23857	 
805.0	1.0	0.0	8.01061	7.22788	-8.01549	15.3745	22.04567	1.19818	0.8346	169.31786	169.60636	63.4807	0.33362	 	1.131955361E9	 	4.64875E-9	 	12699.75269	30.19255	 
800.0	1.0	0.0	8.01286	7.22585	-8.04131	15.34865	21.97411	1.19651	0.83577	169.70057	169.84538	63.63093	0.33348	 	1.303425499E9	 	4.01847E-9	 	12549.01925	30.14669	 
795.0	1.0	0.0	8.01511	7.22383	-8.06705	15.3228	21.90254	1.19482	0.83694	170.08254	170.0833	63.78092	0.33333	 	1.502853375E9	 	3.46898E-9	 	12398.51435	30.10098	 
790.0	1.0	0.0	8.01735	7.22181	-8.09273	15.29695	21.83097	1.19313	0.83813	170.46377	170.3201	63.93065	0.33319	 	1.735116288E9	 	2.99056E-9	 	12248.23721	30.05543	 
785.0	1.0	0.0	8.01958	7.2198	-8.11833	15.27111	21.75938	1.19143	0.83933	170.84425	170.5558	64.08014	0.33305	 	2.005997483E9	 	2.57456E-9	 	12098.18703	30.01004	 
780.0	1.0	0.0	8.02181	7.21779	-8.14387	15.24527	21.68779	1.18971	0.84054	171.22399	170.79039	64.22938	0.33291	 	2.322364602E9	 	2.21333E-9	 	11948.36297	29.96481	 
775.0	1.0	0.0	8.02403	7.21579	-8.16933	15.21944	21.61618	1.18798	0.84176	171.60299	171.02389	64.37837	0.33277	 	2.692385274E9	 	1.90008E-9	 	11798.7642	29.91975	 
770.0	1.0	0.0	8.02625	7.21379	-8.19473	15.19361	21.54456	1.18625	0.84299	171.98124	171.25629	64.52711	0.33263	 	3.125787992E9	 	1.62882E-9	 	11649.38985	29.87487	 
765.0	1.0	0.0	8.02847	7.2118	-8.22005	15.16779	21.47294	1.1845	0.84424	172.35876	171.48759	64.6756	0.33249	 	3.634178315E9	 	1.39425E-9	 	11500.23906	29.83016	 
760.0	1.0	0.0	8.03068	7.20982	-8.24531	15.14197	21.4013	1.18274	0.84549	172.73553	171.7178	64.82385	0.33235	 	4.231422729E9	 	1.19169E-9	 	11351.31089	29.78563	 
755.0	1.0	0.0	8.03288	7.20784	-8.2705	15.11615	21.32966	1.18097	0.84676	173.11155	171.94693	64.97184	0.3322	 	4.934115437E9	 	1.01703E-9	 	11202.60445	29.74129	 
750.0	1.0	0.0	8.03508	7.20587	-8.29561	15.09034	21.258	1.17919	0.84804	173.48684	172.17497	65.11959	0.33206	 	5.762146945E9	 	8.66646E-10	 	11054.11875	29.69714	 
745.0	1.0	0.0	8.03728	7.2039	-8.32066	15.06453	21.18633	1.17739	0.84933	173.86139	172.40193	65.26708	0.33192	 	6.73939781E9	 	7.37356E-10	 	10905.85282	29.65319	 
740.0	1.0	0.0	8.03947	7.20193	-8.34564	15.03873	21.11465	1.17559	0.85064	174.23519	172.62781	65.41433	0.33178	 	7.894586589E9	 	6.2637E-10	 	10757.80565	29.60943	 
735.0	1.0	0.0	8.04166	7.19998	-8.37055	15.01293	21.04296	1.17377	0.85195	174.60825	172.85262	65.56133	0.33164	 	9.262308055E9	 	5.31242E-10	 	10609.9762	29.56589	 
730.0	1.0	0.0	8.04384	7.19803	-8.39539	14.98713	20.97126	1.17195	0.85328	174.98057	173.07636	65.70808	0.3315	 	1.08843E10	 	4.49834E-10	 	10462.36338	29.52256	 
725.0	1.0	0.0	8.04601	7.19608	-8.42016	14.96134	20.89954	1.17011	0.85462	175.35215	173.29902	65.85458	0.33136	 	1.2810999999999998E10	 	3.80275E-10	 	10314.96608	29.47946	 
720.0	1.0	0.0	8.04818	7.19414	-8.44486	14.93556	20.82782	1.16825	0.85598	175.723	173.52062	66.00084	0.33122	 	1.5103599999999998E10	 	3.20938E-10	 	10167.78316	29.43658	 
715.0	1.0	0.0	8.05035	7.1922	-8.46949	14.90977	20.75608	1.16639	0.85735	176.0931	173.74116	66.14684	0.33108	 	1.78361E10	 	2.70401E-10	 	10020.81342	29.39395	 
710.0	1.0	0.0	8.05251	7.19027	-8.49405	14.88399	20.68433	1.16451	0.85873	176.46246	173.96064	66.29259	0.33094	 	2.10987E10	 	2.27432E-10	 	9874.05563	29.35156	 
705.0	1.0	0.0	8.05466	7.18835	-8.51854	14.85822	20.61256	1.16262	0.86012	176.83108	174.17906	66.4381	0.3308	 	2.5000899999999996E10	 	1.90957E-10	 	9727.50849	29.30943	 
700.0	1.0	0.0	8.05682	7.18643	-8.54296	14.83245	20.54079	1.16072	0.86153	177.19896	174.39642	66.58336	0.33066	 	2.9676499999999996E10	 	1.60049E-10	 	9581.17069	29.26756	 
695.0	1.0	0.0	8.05896	7.18452	-8.56732	14.80668	20.469	1.15881	0.86295	177.5661	174.61274	66.72837	0.33051	 	3.52891E10	 	1.33903E-10	 	9435.04083	29.22597	 
690.0	1.0	0.0	8.0611	7.18261	-8.5916	14.78092	20.3972	1.15688	0.86439	177.9325	174.82801	66.87312	0.33037	 	4.20386E10	 	1.11823E-10	 	9289.11747	29.18467	 
685.0	1.0	0.0	8.06324	7.18071	-8.61581	14.75516	20.32539	1.15494	0.86584	178.29816	175.04223	67.01763	0.33023	 	5.017049999999999E10	 	9.32119E-11	 	9143.39912	29.14367	 
680.0	1.0	0.0	8.06537	7.17881	-8.63996	14.72941	20.25356	1.15299	0.86731	178.66309	175.25541	67.1619	0.33009	 	5.998679999999999E10	 	7.75519E-11	 	8997.88419	29.10299	 
675.0	1.0	0.0	8.0675	7.17692	-8.66403	14.70366	20.18172	1.15103	0.86879	179.02727	175.46755	67.30591	0.32995	 	7.1859E10	 	6.43995E-11	 	8852.57105	29.06263	 
670.0	1.0	0.0	8.06962	7.17503	-8.68804	14.67792	20.10986	1.14905	0.87029	179.39072	175.67865	67.44967	0.32981	 	8.62458E10	 	5.3374E-11	 	8707.45797	29.02261	 
665.0	1.0	0.0	8.07173	7.17315	-8.71198	14.65218	20.03799	1.14705	0.8718	179.75343	175.88872	67.59318	0.32967	 	1.03715E11	 	4.41489E-11	 	8562.54318	28.98296	 
660.0	1.0	0.0	8.07384	7.17127	-8.73585	14.62644	19.96611	1.14505	0.87332	180.1154	176.09776	67.73645	0.32953	 	1.24968E11	 	3.6445E-11	 	8417.8288	28.94288	 
655.0	1.0	0.0	8.07595	7.1694	-8.75964	14.60071	19.89421	1.14303	0.87487	180.47663	176.30578	67.87946	0.32939	 	1.5088E11	 	3.00243E-11	 	8273.33691	28.89838	 
650.0	1.0	0.0	8.07805	7.16754	-8.78337	14.57498	19.82229	1.141	0.87643	180.83713	176.51277	68.02223	0.32925	 	1.82537E11	 	2.46836E-11	 	8129.09687	28.84801	 
645.0	1.0	0.0	8.08015	7.16568	-8.80703	14.54925	19.75037	1.13895	0.878	181.19689	176.71873	68.16475	0.32911	 	2.21294E11	 	2.02502E-11	 	7985.10788	28.7978	 
640.0	1.0	0.0	8.08224	7.16383	-8.83062	14.52353	19.67842	1.13689	0.87959	181.55591	176.92368	68.30702	0.32897	 	2.68848E11	 	1.65776E-11	 	7841.3691	28.74776	 
635.0	1.0	0.0	8.08432	7.16198	-8.85415	14.49782	19.60646	1.13481	0.8812	181.91419	177.12761	68.44904	0.32883	 	3.2732E11	 	1.35417E-11	 	7697.87972	28.69788	 
630.0	1.0	0.0	8.0864	7.16013	-8.8776	14.47211	19.53449	1.13272	0.88283	182.27173	177.33052	68.59081	0.32869	 	3.99379E11	 	1.10373E-11	 	7554.6389	28.64816	 
625.0	1.0	0.0	8.08848	7.1583	-8.90098	14.4464	19.4625	1.13062	0.88447	182.62854	177.53243	68.73233	0.32855	 	4.88382E11	 	8.97585E-12	 	7411.64553	28.59867	 
620.0	1.0	0.0	8.09055	7.15647	-8.9243	14.42069	19.39049	1.1285	0.88613	182.98462	177.73333	68.8736	0.32841	 	5.98567E11	 	7.2828E-12	 	7268.89804	28.5495	 
615.0	1.0	0.0	8.09261	7.15464	-8.94754	14.39499	19.31846	1.12637	0.88781	183.33995	177.93322	69.01462	0.32827	 	7.35293E11	 	5.89539E-12	 	7126.39602	28.50041	 
610.0	1.0	0.0	8.09467	7.15282	-8.97072	14.3693	19.24642	1.12422	0.88951	183.69455	178.13211	69.15539	0.32813	 	9.05358E11	 	4.76103E-12	 	6984.13866	28.45147	 
605.0	1.0	0.0	8.09673	7.151	-8.99382	14.34361	19.17436	1.12205	0.89122	184.04841	178.33	69.29591	0.32799	 	1.1174E12	 	3.83572E-12	 	6842.12517	28.4027	 
600.0	1.0	0.0	8.09878	7.14919	-9.01686	14.31792	19.10229	1.11988	0.89296	184.40154	178.52689	69.43619	0.32785	 	1.38243E12	 	3.0827E-12	 	6700.35476	28.35408	 
595.0	1.0	0.0	8.10083	7.14739	-9.03983	14.29224	19.03019	1.11768	0.89471	184.75393	178.72279	69.57621	0.32771	 	1.71452E12	 	2.47137E-12	 	6558.82665	28.30562	 
590.0	1.0	0.0	8.10287	7.14559	-9.06273	14.26656	18.95808	1.11547	0.89648	185.10559	178.9177	69.71599	0.32757	 	2.1317E12	 	1.97627E-12	 	6417.54004	28.25732	 
585.0	1.0	0.0	8.1049	7.14379	-9.08556	14.24089	18.88595	1.11324	0.89828	185.45651	179.11161	69.85551	0.32743	 	2.65713E12	 	1.5763E-12	 	6276.49416	28.20917	 
580.0	1.0	0.0	8.10693	7.14201	-9.10832	14.21522	18.8138	1.111	0.90009	185.80669	179.30454	69.99479	0.32729	 	3.32062E12	 	1.25399E-12	 	6135.68824	28.16118	 
575.0	1.0	0.0	8.10895	7.14022	-9.13102	14.18955	18.74163	1.10874	0.90192	186.16509	179.50512	70.13718	0.32715	 	4.16071E12	 	9.94929E-13	 	5995.12149	28.11335	 
570.0	1.0	0.0	8.11097	7.13844	-9.15364	14.16389	18.66944	1.10647	0.90378	186.51375	179.69603	70.27594	0.32701	 	5.2273E12	 	7.87253E-13	 	5854.79314	28.06567	 
565.0	1.0	0.0	8.11299	7.13667	-9.17619	14.13823	18.59723	1.10418	0.90565	186.86167	179.88595	70.41445	0.32687	 	6.58521E12	 	6.21211E-13	 	5714.70242	28.01814	 
560.0	1.0	0.0	8.115	7.13491	-9.19868	14.11258	18.52501	1.10187	0.90755	187.20886	180.07491	70.5527	0.32673	 	8.3189E12	 	4.88815E-13	 	5574.84857	27.97077	 
555.0	1.0	0.0	8.117	7.13314	-9.2211	14.08693	18.45276	1.09955	0.90947	187.55531	180.26289	70.69071	0.32659	 	1.05387E13	 	3.83538E-13	 	5435.23084	27.92355	 
550.0	1.0	0.0	8.119	7.13139	-9.24344	14.06128	18.38049	1.09721	0.91141	187.90103	180.44989	70.82847	0.32645	 	1.33893E13	 	3.0006E-13	 	5295.84846	27.87648	 
545.0	1.0	0.0	8.12099	7.12964	-9.26572	14.03564	18.3082	1.09485	0.91337	188.24602	180.63593	70.96598	0.32631	 	1.70607E13	 	2.34057E-13	 	5156.70068	27.82956	 
540.0	1.0	0.0	8.12298	7.12789	-9.28793	14.01001	18.23589	1.09247	0.91536	188.59027	180.82101	71.10323	0.32617	 	2.18038E13	 	1.82022E-13	 	5017.78675	27.78279	 
535.0	1.0	0.0	8.12496	7.12615	-9.31008	13.98437	18.16355	1.09008	0.91737	188.93378	181.00512	71.24024	0.32603	 	2.79502E13	 	1.41122E-13	 	4879.10593	27.73616	 
530.0	1.0	0.0	8.12694	7.12442	-9.33215	13.95874	18.0912	1.08767	0.9194	189.27656	181.18827	71.377	0.32589	 	3.59403E13	 	1.09069E-13	 	4740.65747	27.68969	 
525.0	1.0	0.0	8.12892	7.12269	-9.35415	13.93312	18.01882	1.08524	0.92146	189.61861	181.37047	71.5135	0.32575	 	4.63602E13	 	8.40284E-14	 	4602.44066	27.64336	 
520.0	1.0	0.0	8.13088	7.12096	-9.37609	13.9075	17.94642	1.08279	0.92354	189.95992	181.55171	71.64976	0.32561	 	5.99933E13	 	6.45266E-14	 	4464.45473	27.59719	 
515.0	1.0	0.0	8.13285	7.11925	-9.39795	13.88188	17.87399	1.08032	0.92565	190.3005	181.73199	71.78577	0.32548	 	7.789E13	 	4.93872E-14	 	4326.69898	27.55115	 
510.0	1.0	0.0	8.1348	7.11753	-9.41975	13.85627	17.80155	1.07784	0.92778	190.64035	181.91133	71.92153	0.32534	 	1.01463E14	 	3.76725E-14	 	4189.17269	27.50526	 
505.0	1.0	0.0	8.13675	7.11583	-9.44148	13.83066	17.72907	1.07533	0.92994	190.97946	182.08972	72.05703	0.3252	 	1.3261999999999998E14	 	2.86379E-14	 	4051.87514	27.45951	 
500.0	1.0	0.0	8.1387	7.11412	-9.46314	13.80506	17.65657	1.07281	0.93213	191.31784	182.26716	72.19229	0.32506	 	1.73946E14	 	2.16938E-14	 	3914.80561	27.41391	 
495.0	1.0	0.0	8.14064	7.11243	-9.48473	13.77946	17.58405	1.07027	0.93434	191.65549	182.44366	72.32729	0.32492	 	2.28958E14	 	1.63749E-14	 	3777.9634	27.36844	 
490.0	1.0	0.0	8.14258	7.11074	-9.50625	13.75387	17.5115	1.06771	0.93659	191.9924	182.61923	72.46205	0.32478	 	3.02454E14	 	1.23151E-14	 	3641.34781	27.32312	 
485.0	1.0	0.0	8.14451	7.10905	-9.52771	13.72828	17.43893	1.06513	0.93886	192.32858	182.79385	72.59656	0.32464	 	4.01012E14	 	9.22752E-15	 	3504.95815	27.27793	 
480.0	1.0	0.0	8.14644	7.10737	-9.54909	13.70269	17.36633	1.06253	0.94115	192.66403	182.96754	72.73081	0.3245	 	5.3368099999999994E14	 	6.8879E-15	 	3368.79372	27.23288	 
475.0	1.0	0.0	8.14836	7.1057	-9.57041	13.67711	17.2937	1.0599	0.94348	192.99874	183.14029	72.86482	0.32436	 	7.1296E14	 	5.12165E-15	 	3232.85385	27.18797	 
470.0	1.0	0.0	8.15027	7.10403	-9.59166	13.65153	17.22104	1.05726	0.94584	193.33272	183.31212	72.99857	0.32422	 	9.56184E14	 	3.79334E-15	 	3097.13787	27.1432	 
465.0	1.0	0.0	8.15218	7.10236	-9.61283	13.62595	17.14836	1.0546	0.94823	193.66597	183.48302	73.13207	0.32408	 	1.28749E15	 	2.79825E-15	 	2961.6451	27.09855	 
460.0	1.0	0.0	8.15408	7.1007	-9.63395	13.60038	17.07564	1.05192	0.95064	193.99849	183.65299	73.26533	0.32394	 	1.74065E15	 	2.05574E-15	 	2826.37487	27.05405	 
455.0	1.0	0.0	8.15598	7.09905	-9.65499	13.57482	17.0029	1.04921	0.95309	194.33027	183.82204	73.39833	0.32381	 	2.36306E15	 	1.50395E-15	 	2691.32654	27.00967	 
450.0	1.0	0.0	8.15788	7.0974	-9.67596	13.54926	16.93013	1.04649	0.95558	194.66132	183.99017	73.53108	0.32367	 	3.22162E15	 	1.09557E-15	 	2556.49946	26.96542	 
445.0	1.0	0.0	8.15977	7.09576	-9.69687	13.5237	16.85733	1.04374	0.95809	194.99164	184.15738	73.66358	0.32353	 	4.41112E15	 	7.94607E-16	 	2421.89298	26.9213	 
440.0	1.0	0.0	8.16165	7.09412	-9.7177	13.49815	16.78449	1.04097	0.96064	195.32123	184.32367	73.79584	0.32339	 	6.06649E15	 	5.7376E-16	 	2287.50647	26.8773	 
435.0	1.0	0.0	8.16353	7.09249	-9.73847	13.4726	16.71163	1.03818	0.96322	195.65009	184.48905	73.92784	0.32325	 	8.38069E15	 	4.12413E-16	 	2153.33932	26.83343	 
430.0	1.0	0.0	8.1654	7.09086	-9.75917	13.44705	16.63873	1.03537	0.96584	195.97822	184.65352	74.05958	0.32311	 	1.1631E16	 	2.95064E-16	 	2019.39089	26.78969	 
425.0	1.0	0.0	8.16727	7.08924	-9.7798	13.42151	16.5658	1.03253	0.9685	196.30561	184.81709	74.19108	0.32297	 	1.62179E16	 	2.10107E-16	 	1885.66065	26.74605	 
420.0	1.0	0.0	8.16913	7.08763	-9.80036	13.39597	16.49284	1.02967	0.97119	196.63227	184.97974	74.32233	0.32283	 	2.27224E16	 	1.48888E-16	 	1752.14791	26.70255	 
415.0	1.0	0.0	8.17099	7.08602	-9.82086	13.37044	16.41984	1.02679	0.97391	196.9582	185.14149	74.45333	0.3227	 	3.19921E16	 	1.04985E-16	 	1618.8523	26.65912	 
410.0	1.0	0.0	8.17284	7.08441	-9.84128	13.34491	16.34681	1.02388	0.97668	197.2834	185.30234	74.58407	0.32256	 	4.52696E16	 	7.3654E-17	 	1485.77359	26.61574	 
405.0	1.0	0.0	8.17468	7.08281	-9.86164	13.31939	16.27374	1.02095	0.97948	197.60787	185.46229	74.71457	0.32242	 	6.43862E16	 	5.14067E-17	 	1352.91153	26.57241	 
400.0	1.0	0.0	8.17652	7.08122	-9.88193	13.29387	16.20064	1.018	0.98232	197.93161	185.62135	74.84481	0.32228	 	9.20559E16	 	3.569E-17	 	1220.26591	26.52913	 
395.0	1.0	0.0	8.17836	7.07963	-9.90215	13.26835	16.1275	1.01502	0.98521	198.25462	185.7795	74.9748	0.32214	 	1.32323E17	 	2.46448E-17	 	1087.8365	26.48588	 
390.0	1.0	0.0	8.18019	7.07805	-9.9223	13.24284	16.05432	1.01201	0.98813	198.57689	185.93677	75.10454	0.322	 	1.91247E17	 	1.69241E-17	 	955.62308	26.44268	 
385.0	1.0	0.0	8.18201	7.07647	-9.94238	13.21733	15.98111	1.00898	0.9911	198.89844	186.09315	75.23403	0.32186	 	2.77961E17	 	1.15566E-17	 	823.62548	26.39952	 
380.0	1.0	0.0	8.18383	7.07489	-9.9624	13.19183	15.90785	1.00593	0.99411	199.21925	186.24864	75.36327	0.32173	 	4.06311E17	 	7.84586E-18	 	691.8435	26.35639	 
375.0	1.0	0.0	8.18564	7.07333	-9.98235	13.16633	15.83455	1.00285	0.99716	199.53934	186.40324	75.49226	0.32159	 	5.97418E17	 	5.29521E-18	 	560.27698	26.3133	 
370.0	1.0	0.0	8.18745	7.07176	-10.00222	13.14084	15.76122	0.99974	1.00026	199.85869	186.55696	75.62099	0.32145	 	8.83693E17	 	3.5522E-18	 	428.92577	26.27024	 
365.0	1.0	0.0	8.18925	7.07021	-10.02203	13.11535	15.68784	0.99661	1.0034	200.17732	186.7098	75.74948	0.32131	 	1.31519E18	 	2.36821E-18	 	297.78971	26.22721	 
360.0	1.0	0.0	8.19105	7.06866	-10.04178	13.08986	15.61442	0.99345	1.00659	200.49521	186.86176	75.87771	0.32117	 	1.96971E18	 	1.56888E-18	 	166.86868	26.18421	 
355.0	1.0	0.0	8.19284	7.06711	-10.06145	13.06438	15.54095	0.99027	1.00983	200.81238	187.01284	76.00569	0.32104	 	2.969E18	 	1.03262E-18	 	36.16255	26.14123	 
350.0	1.0	0.0	8.19463	7.06557	-10.08106	13.0389	15.46744	0.98705	1.01312	201.12881	187.16305	76.13342	0.3209	 	4.50481E18	 	6.75154E-19	 	-94.32877	26.09826	 
345.0	1.0	0.0	8.19641	7.06404	-10.10059	13.01343	15.39389	0.98381	1.01646	201.44452	187.31238	76.2609	0.32076	 	6.88133E18	 	4.38438E-19	 	-224.60535	26.05532	 
340.0	1.0	0.0	8.19819	7.06251	-10.12006	12.98796	15.32029	0.98054	1.01984	201.75949	187.46085	76.38813	0.32062	 	1.05845E19	 	2.82738E-19	 	-354.66728	26.01239	 
335.0	1.0	0.0	8.19996	7.06098	-10.13946	12.96249	15.24664	0.97724	1.02329	202.07374	187.60845	76.5151	0.32048	 	1.63961E19	 	1.81032E-19	 	-484.51461	25.96947	 
330.0	1.0	0.0	8.20172	7.05946	-10.15879	12.93703	15.17294	0.97392	1.02678	202.38726	187.75518	76.64182	0.32034	 	2.55837E19	 	1.15066E-19	 	-614.14736	25.92655	 
325.0	1.0	0.0	8.20348	7.05795	-10.17806	12.91157	15.0992	0.97056	1.03033	202.70004	187.90105	76.76829	0.32021	 	4.02177E19	 	7.25905E-20	 	-743.56555	25.88364	 
320.0	1.0	0.0	8.20523	7.05644	-10.19726	12.88612	15.0254	0.96717	1.03394	203.0121	188.04606	76.89451	0.32007	 	6.37063E19	 	4.54432E-20	 	-872.76918	25.84073	 
315.0	1.0	0.0	8.20698	7.05494	-10.21638	12.86067	14.95155	0.96376	1.0376	203.32343	188.1902	77.02048	0.31993	 	1.01705E20	 	2.82248E-20	 	-1001.75822	25.79781	 
310.0	1.0	0.0	8.20872	7.05344	-10.23544	12.83522	14.87765	0.96031	1.04133	203.63403	188.3335	77.1462	0.31979	 	1.63678E20	 	1.73891E-20	 	-1130.53263	25.75488	 
305.0	1.0	0.0	8.21046	7.05195	-10.25444	12.80978	14.80369	0.95683	1.04511	203.9439	188.47593	77.27166	0.31966	 	2.6558899999999997E20	 	1.06247E-20	 	-1259.09234	25.71194	 
300.0	1.0	0.0	8.21219	7.05046	-10.27336	12.78435	14.72968	0.95333	1.04896	204.25304	188.61752	77.39687	0.31952	 	4.3460799999999993E20	 	6.43661E-21	 	-1387.43727	25.66899	 
295.0	1.0	0.0	8.21392	7.04898	-10.29222	12.75891	14.65561	0.94978	1.05287	204.56145	188.75825	77.52183	0.31938	 	7.17381E20	 	3.86545E-21	 	-1515.56729	25.626	 
290.0	1.0	0.0	8.21564	7.0475	-10.311	12.73349	14.58148	0.94621	1.05685	204.86914	188.89814	77.64654	0.31924	 	1.19472E21	 	2.30061E-21	 	-1643.48227	25.583	 
285.0	1.0	0.0	8.21735	7.04603	-10.32972	12.70806	14.50729	0.94261	1.06089	205.17609	189.03717	77.77099	0.3191	 	2.00795E21	 	1.3567E-21	 	-1771.18204	25.53995	 
280.0	1.0	0.0	8.21906	7.04457	-10.34838	12.68264	14.43304	0.93897	1.065	205.48232	189.17537	77.89519	0.31897	 	3.40656E21	 	7.92527E-22	 	-1898.66642	25.49688	 
275.0	1.0	0.0	8.22077	7.04311	-10.36696	12.65723	14.35873	0.9353	1.06918	205.78782	189.31272	78.01914	0.31883	 	5.83534E21	 	4.5848E-22	 	-2025.93519	25.45375	 
270.0	1.0	0.0	8.22247	7.04165	-10.38548	12.63181	14.28436	0.93159	1.07343	206.09259	189.44923	78.14284	0.31869	 	1.0095299999999998E22	 	2.62595E-22	 	-2152.9881	25.41058	 
265.0	1.0	0.0	8.22416	7.0402	-10.40392	12.60641	14.20991	0.92785	1.07776	206.39663	189.58491	78.26628	0.31855	 	1.7643999999999999E22	 	1.48865E-22	 	-2279.82485	25.36735	 
260.0	1.0	0.0	8.22585	7.03876	-10.4223	12.581	14.1354	0.92408	1.08216	206.69994	189.71975	78.38948	0.31842	 	3.11619E22	 	8.3505E-23	 	-2406.44515	25.32406	 
255.0	1.0	0.0	8.22753	7.03732	-10.44062	12.5556	14.06083	0.92026	1.08664	207.00253	189.85375	78.51241	0.31828	 	5.5632199999999994E22	 	4.63359E-23	 	-2532.84865	25.2807	 
250.0	1.0	0.0	8.22921	7.03588	-10.45886	12.53021	13.98618	0.91642	1.09121	207.30439	189.98692	78.6351	0.31814	 	1.0042499999999999E23	 	2.54257E-23	 	-2659.03496	25.23726	 
245.0	1.0	0.0	8.23088	7.03446	-10.47704	12.50482	13.91145	0.91253	1.09585	207.60552	190.11927	78.75754	0.318	 	1.8335999999999998E23	 	1.37923E-23	 	-2785.00367	25.19374	 
240.0	1.0	0.0	8.23254	7.03303	-10.49515	12.47943	13.83666	0.90861	1.10058	207.90592	190.25078	78.87972	0.31787	 	3.38739E23	 	7.39377E-24	 	-2910.75432	25.15013	 
235.0	1.0	0.0	8.2342	7.03162	-10.51319	12.45405	13.76178	0.90466	1.10539	208.20559	190.38147	79.00165	0.31773	 	6.333889999999999E23	 	3.91569E-24	 	-3036.2864	25.10642	 
230.0	1.0	0.0	8.23586	7.0302	-10.53116	12.42867	13.68683	0.90066	1.1103	208.50454	190.51134	79.12332	0.31759	 	1.19916E24	 	2.04789E-24	 	-3161.59938	25.0626	 
225.0	1.0	0.0	8.2375	7.0288	-10.54906	12.4033	13.61179	0.89663	1.11529	208.80276	190.64038	79.24474	0.31745	 	2.29959E24	 	1.0573E-24	 	-3286.69266	25.01866	 
220.0	1.0	0.0	8.23915	7.02739	-10.5669	12.37793	13.53667	0.89255	1.12038	209.10025	190.76861	79.36591	0.31732	 	4.46845E24	 	5.38652E-25	 	-3411.56563	24.97459	 
215.0	1.0	0.0	8.24078	7.026	-10.58467	12.35256	13.46147	0.88844	1.12557	209.39701	190.89601	79.48683	0.31718	 	8.80185E24	 	2.70686E-25	 	-3536.21757	24.93039	 
210.0	1.0	0.0	8.24242	7.02461	-10.60237	12.3272	13.38618	0.88428	1.13086	209.69305	191.0226	79.60749	0.31704	 	1.7582600000000002E25	 	1.34117E-25	 	-3660.64776	24.88604	 
205.0	1.0	0.0	8.24404	7.02322	-10.62001	12.30184	13.3108	0.88009	1.13625	209.98836	191.14838	79.7279	0.31691	 	3.56352E25	 	6.54895E-26	 	-3784.85542	24.84153	 
200.0	1.0	0.0	8.24566	7.02184	-10.63757	12.27649	13.23532	0.87585	1.14175	210.28294	191.27335	79.84806	0.31677	 	7.33092E25	 	3.15012E-26	 	-3908.83967	24.79685	 
195.0	1.0	0.0	8.24728	7.02047	-10.65507	12.25114	13.15975	0.87157	1.14735	210.5768	191.3975	79.96796	0.31663	 	1.5315500000000002E26	 	1.49191E-26	 	-4032.59961	24.75199	 
190.0	1.0	0.0	8.24889	7.0191	-10.6725	12.2258	13.08408	0.86725	1.15307	210.86993	191.52085	80.08761	0.3165	 	3.2509400000000005E26	 	6.95343E-27	 	-4156.13427	24.70693	 
185.0	1.0	0.0	8.25049	7.01773	-10.68986	12.20046	13.00831	0.86289	1.1589	211.16233	191.64339	80.20701	0.31636	 	7.014940000000001E26	 	3.18765E-27	 	-4279.4426	24.66167	 
180.0	1.0	0.0	8.25209	7.01637	-10.70716	12.17512	12.93243	0.85848	1.16486	211.454	191.76513	80.32615	0.31622	 	1.53961E27	 	1.43654E-27	 	-4402.52349	24.61618	 
175.0	1.0	0.0	8.25368	7.01502	-10.72439	12.14979	12.85645	0.85402	1.17093	211.74495	191.88607	80.44504	0.31608	 	3.4388499999999997E27	 	6.36059E-28	 	-4525.37574	24.57045	 
170.0	1.0	0.0	8.25527	7.01367	-10.74155	12.12446	12.78035	0.84952	1.17713	212.03517	192.00621	80.56368	0.31595	 	7.821519999999999E27	 	2.76532E-28	 	-4647.99807	24.52447	 
165.0	1.0	0.0	8.25685	7.01233	-10.75864	12.09914	12.70414	0.84497	1.18347	212.32467	192.12554	80.68206	0.31581	 	1.81265E28	 	1.17976E-28	 	-4770.38914	24.47821	 
160.0	1.0	0.0	8.25842	7.01099	-10.77566	12.07382	12.62782	0.84038	1.18994	212.61343	192.24409	80.80019	0.31567	 	4.2831800000000005E28	 	4.93582E-29	 	-4892.54748	24.43167	 
155.0	1.0	0.0	8.25999	7.00966	-10.79262	12.0485	12.55137	0.83574	1.19654	212.90148	192.36184	80.91807	0.31554	 	1.0326200000000001E29	 	2.02369E-29	 	-5014.47157	24.38482	 
150.0	1.0	0.0	8.26156	7.00833	-10.80951	12.02319	12.47479	0.83105	1.2033	213.18879	192.47879	81.03569	0.3154	 	2.5418200000000002E29	 	8.12525E-30	 	-5136.15975	24.33764	 
145.0	1.0	0.0	8.26312	7.00701	-10.82633	11.99788	12.39808	0.82631	1.2102	213.47538	192.59496	81.15306	0.31526	 	6.39301E29	 	3.19237E-30	 	-5257.61028	24.29011	 
140.0	1.0	0.0	8.26467	7.00569	-10.84309	11.97258	12.32124	0.82152	1.21725	213.76124	192.71033	81.27017	0.31513	 	1.6442199999999998E30	 	1.2264E-30	 	-5378.8213	24.2422	 
135.0	1.0	0.0	8.26622	7.00438	-10.85977	11.94728	12.24426	0.81668	1.22447	214.04638	192.82492	81.38703	0.31499	 	4.32781E30	 	4.60297E-31	 	-5499.79084	24.19391	 
130.0	1.0	0.0	8.26776	7.00308	-10.87639	11.92198	12.16714	0.81179	1.23184	214.33079	192.93873	81.50363	0.31485	 	1.1668099999999999E31	 	1.68637E-31	 	-5620.51675	24.14518	 
125.0	1.0	0.0	8.26929	7.00177	-10.89295	11.89669	12.08986	0.80685	1.23939	214.61448	193.05175	81.61999	0.31472	 	3.22517E31	 	6.02532E-32	 	-5740.99684	24.09602	 
120.0	1.0	0.0	8.27082	7.00048	-10.90943	11.87141	12.01244	0.80185	1.24712	214.89743	193.16399	81.73608	0.31458	 	9.148199999999999E31	 	2.09754E-32	 	-5861.22867	24.04637	 
115.0	1.0	0.0	8.27235	6.99919	-10.92585	11.84613	11.93485	0.7968	1.25502	215.17967	193.27546	81.85193	0.31444	 	2.6655299999999997E32	 	7.10727E-33	 	-5981.20975	23.99621	 
110.0	1.0	0.0	8.27387	6.9979	-10.9422	11.82085	11.8571	0.79169	1.26312	215.46118	193.38614	81.96751	0.31431	 	7.986439999999999E32	 	2.34154E-33	 	-6100.93734	23.94552	 
105.0	1.0	0.0	8.27538	6.99663	-10.95848	11.79557	11.77918	0.78653	1.27141	215.74196	193.49605	82.08285	0.31417	 	2.46335E33	 	7.49248E-34	 	-6220.40857	23.89425	 
100.0	1.0	0.0	8.27689	6.99535	-10.97469	11.7703	11.70108	0.78131	1.2799	216.02201	193.60519	82.19793	0.31404	 	7.830810000000001E33	 	2.32575E-34	 	-6339.62039	23.84236	 
95.0	1.0	0.0	8.27839	6.99408	-10.99084	11.74504	11.62279	0.77603	1.2886	216.30134	193.71355	82.31275	0.3139	 	2.5688100000000003E34	 	6.99487E-35	 	-6458.56953	23.78983	 
90.0	1.0	0.0	8.27988	6.99282	-11.00692	11.71978	11.54431	0.7707	1.29753	216.57995	193.82115	82.42733	0.31376	 	8.706900000000001E34	 	2.03568E-35	 	-6577.25252	23.7366	 
85.0	1.0	0.0	8.28137	6.99156	-11.02293	11.69452	11.46564	0.7653	1.30667	216.85783	193.92798	82.54164	0.31363	 	3.05349E35	 	5.72472E-36	 	-6695.66567	23.68263	 
80.0	1.0	0.0	8.28286	6.99031	-11.03888	11.66927	11.38675	0.75985	1.31606	217.13499	194.03404	82.6557	0.31349	 	1.1095899999999999E36	 	1.5534E-36	 	-6813.80502	23.62787	 
75.0	1.0	0.0	8.28434	6.98906	-11.05476	11.64402	11.30765	0.75433	1.32568	217.41142	194.13933	82.76951	0.31335	 	4.1842899999999996E36	 	4.06099E-37	 	-6931.66638	23.57227	 
70.0	1.0	0.0	8.28581	6.98782	-11.07057	11.61877	11.22833	0.74875	1.33557	217.68712	194.24386	82.88306	0.31322	 	1.6401399999999998E37	 	1.02115E-37	 	-7049.24527	23.51578	 
65.0	1.0	0.0	8.28728	6.98658	-11.08631	11.59353	11.14877	0.7431	1.34571	217.9621	194.34764	82.99636	0.31308	 	6.69397E37	 	2.46554E-38	 	-7166.53693	23.45833	 
60.0	1.0	0.0	8.28874	6.98535	-11.10199	11.5683	11.06897	0.73739	1.35613	218.23636	194.45065	83.1094	0.31295	 	2.84984E38	 	5.70565E-39	 	-7283.53623	23.39986	 
55.0	1.0	0.0	8.29019	6.98412	-11.1176	11.54306	10.98892	0.73162	1.36684	218.50989	194.55291	83.22219	0.31281	 	1.2680300000000001E39	 	1.26307E-39	 	-7400.23775	23.3403	 
50.0	1.0	0.0	8.29164	6.9829	-11.13314	11.51784	10.9086	0.72577	1.37784	218.78269	194.65441	83.33472	0.31267	 	5.90885E39	 	2.66924E-40	 	-7516.63564	23.27958	 
45.0	1.0	0.0	8.29309	6.98169	-11.14861	11.49261	10.828	0.71986	1.38915	219.05477	194.75516	83.447	0.31254	 	2.8899E40	 	5.37324E-41	 	-7632.72372	23.21761	 
40.0	1.0	0.0	8.29453	6.98047	-11.16402	11.46739	10.74711	0.71388	1.40079	219.32613	194.85515	83.55902	0.3124	 	1.4868800000000002E41	 	1.02793E-41	 	-7748.49529	23.15432	 
35.0	1.0	0.0	8.29596	6.97927	-11.17936	11.44217	10.66592	0.70783	1.41277	219.59676	194.9544	83.67079	0.31227	 	8.067840000000001E41	 	1.8642E-42	 	-7863.94327	23.08959	 
30.0	1.0	0.0	8.29739	6.97807	-11.19463	11.41697	10.58442	0.70171	1.42509	219.86667	195.0529	83.7823	0.31213	 	4.62877E42	 	3.19653E-43	 	-7979.05999	23.02334	 
25.0	1.0	0.0	8.29881	6.97687	-11.20984	 	10.50258	0.69551	1.43779	220.13586	195.15065	83.89356	0.31199	 	2.81593E43	 	5.16773E-44	 	-8093.83728	 	 
