T (C)	Fraction solid (wt)-TOTAL	Fraction liquid (wt)-LIQUID	Density (g/(cm)^3)-TOTAL	Molar volume (cm^3)-TOTAL	Volume change (%)-  	Average expansion coeff. (10e-6 1/K)-  	Thermal conductivity (W/(m*K))-TOTAL	Electrical resistivity (10e-6 Ohm*m)-TOTAL	Electrical conductivity (10e6 1/(Ohm*m))-TOTAL	Young's modulus (GPa)-TOTAL	Bulk modulus (GPa)-TOTAL	Shear modulus(GPa)-TOTAL	Poisson's ratio-TOTAL	Liquid viscosity (mPa s)-  	Total viscosity (mPa s)-  	Liquid diffusivity (10e-9 (m^2)/s)-  	Total diffusivity (10e-9 (m^2)/s)-  	Surface Tension (mN/m)-  	Enthalpy (J/mole)-TOTAL	Specific heat (J/(mole K))-TOTAL	Latent heat (J/mole)-TOTAL
1400.0	0.0	1.0	7.63223	7.73247	0.0	24.3814	28.37201	1.44481	0.69213	0.0	127.40728	0.0	0.5	9.11057	9.11057	0.89635	0.89635	1862.0065	62615.192	 	0.0
1395.0	0.0	1.0	7.63614	7.72851	-0.0512008	24.33328	28.29863	1.44423	0.69241	0.0	127.58626	0.0	0.5	9.20991	9.20991	0.88403	0.88403	1864.0017	62407.376	41.5632	0.0
1390.47	0.0	1.0	7.63968	7.72493	-0.0974782	24.28971	28.23212	1.4437	0.69267	0.0	127.74849	0.0	0.5	9.30141	9.30141	0.87295	0.87295	1865.81143	62219.435	41.46721	0.0
1390.0	0.02301	0.97699	7.64351	7.72109	-0.14715	24.16455	28.31403	1.43912	0.69487	2.87742E-5	127.68918	9.61265E-6	0.49668	9.32151	9.6223	0.87083	0.84361	1866.13321	61884.547	716.00103	315.51
1385.0	0.24909	0.75091	7.68126	7.68317	-0.63761	22.93037	29.13318	1.39445	0.71713	0.40345	127.06139	0.13781	0.46377	9.53882	132.50572	0.84843	0.0610767	1869.51394	58596.472	657.615	3396.762
1380.0	0.41219	0.58781	7.70913	7.65535	-0.99741	22.04085	29.73973	1.36189	0.73427	3.07497	126.657	1.06793	0.43969	9.76104	963.09132	0.82661	0.00837783	1872.8473	56183.481	482.5982	5603.422
1375.0	0.5324	0.4676	7.73028	7.63444	-1.26775	21.38785	30.19467	1.33731	0.74777	8.66821	126.4185	3.04843	0.42175	9.98806	2809.34334	0.80538	0.00286338	1876.12997	54363.559	363.9844	7217.505
1370.0	0.62266	0.37734	7.74674	7.61818	-1.47804	20.89377	30.53447	1.31842	0.75849	16.38673	126.30043	5.81862	0.40813	10.21984	5553.17877	0.78473	0.00144418	1879.36039	52955.752	281.5614	8419.959
1365.0	0.69155	0.30845	7.75986	7.60533	-1.64429	20.51659	30.78569	1.30368	0.76706	25.14998	126.27539	8.99735	0.39763	10.45626	8949.02261	0.76465	8.93439E-4	1882.53557	51840.599	223.0306	9330.244
1360.0	0.74489	0.25511	7.77057	7.59483	-1.78001	20.22045	30.96821	1.29204	0.77397	34.1081	126.32002	12.27421	0.38942	10.6973	12774.08852	0.74514	6.23998E-4	1885.65525	50937.258	180.6682	10029.198
1355.0	0.78673	0.21327	7.7795	7.5861	-1.89297	19.98489	31.09766	1.28272	0.77959	42.72386	126.41888	15.44703	0.38291	10.94295	16871.00869	0.72618	4.71021E-4	1888.71799	50189.826	149.4864	10572.722
1350.0	0.81994	0.18006	7.78711	7.57868	-1.98888	19.79478	31.18587	1.27517	0.78421	50.7071	126.56023	18.40285	0.3777	11.19313	21141.75636	0.70777	3.74718E-4	1891.72324	49558.897	126.1858	11000.218
1345.0	0.84658	0.15342	7.79372	7.57224	-2.07215	19.63831	31.24193	1.26896	0.78805	57.94197	126.73473	21.09341	0.37346	11.44783	25536.25945	0.68989	3.09277E-4	1894.67148	49016.221	108.5352	11339.934
1341.11	0.86355	0.13645	7.7983	7.56779	-2.12968	19.53593	31.26696	1.2649	0.79058	62.97467	126.89079	22.97112	0.37074	11.64915	28997.71094	0.67634	2.71705E-4	1896.93488	48644.582	 	11554.159
1340.0	0.87733	0.12267	7.80151	7.56467	-2.17003	19.43994	31.30519	1.26248	0.79209	67.25999	127.02712	24.5728	0.36859	11.68448	31272.99529	0.67383	2.51763E-4	1896.79503	48414.794	120.2854	11738.872
1335.0	0.91942	0.080584	7.81225	7.55428	-2.30444	19.13772	31.39666	1.2549	0.79688	81.85329	127.56342	30.04974	0.36196	11.8488	39979.94776	0.66243	1.96323E-4	1895.99253	47649.243	153.1102	12302.403
1330.0	0.9413	0.0587019	7.81916	7.54759	-2.3909	18.96799	31.40685	1.25059	0.79962	90.51417	128.01208	33.31559	0.35844	12.01864	46703.47233	0.65104	1.67537E-4	1895.23259	47157.291	98.3904	12592.8
1325.0	0.95436	0.0456433	7.82439	7.54256	-2.45605	18.85709	31.38146	1.2477	0.80147	96.1572	128.42079	35.44927	0.35627	12.19365	52548.41639	0.63969	1.48438E-4	1894.53655	46785.293	74.3996	12763.705
1320.0	0.9629	0.0370986	7.82875	7.53836	-2.51027	18.77628	31.33786	1.24553	0.80287	100.12503	128.80782	36.95225	0.35479	12.37347	58037.75798	0.62842	1.33978E-4	1893.91342	46474.984	62.0618	12873.381
1315.0	0.96887	0.0311317	7.83261	7.53465	-2.55833	18.7124	31.28384	1.24376	0.80401	103.08744	129.1814	38.0759	0.35371	12.55745	63445.60327	0.61727	1.22173E-4	1893.36744	46200.092	54.9784	12948.098
1310.0	0.97324	0.0267579	7.83616	7.53124	-2.60242	18.65932	31.22344	1.24225	0.80499	105.40638	129.54608	38.9564	0.35288	12.74604	68933.87867	0.60622	1.12092E-4	1892.89405	45947.248	50.5688	13001.222
1305.43	0.97631	0.0236856	7.83922	7.5283	-2.64044	18.61697	31.16455	1.241	0.8058	107.14261	129.8735	39.61621	0.35226	12.9218	74108.55753	0.59625	1.03965E-4	1892.52646	45729.19	 	13037.231
1305.0	0.97833	0.0216724	7.8398	7.52775	-2.64758	18.60277	31.16181	1.24077	0.80595	108.08769	129.92005	39.97547	0.35193	12.93446	75143.46164	0.59551	1.02505E-4	1892.82281	45681.958	53.058	13067.245
1300.0	1.0	0.0	7.84624	7.52157	-2.72747	18.44586	31.12368	1.23836	0.80752	118.72044	130.45407	44.02519	0.34832	 	87614.6399	 	8.76355E-5	 	45156.176	105.1564	13394.209
1295.0	1.0	0.0	7.84893	7.51897	-2.76103	18.42157	31.04619	1.2375	0.80808	119.15104	130.79008	44.19008	0.34817	 	93644.89172	 	8.17316E-5	 	44970.66084	37.10303	 
1290.0	1.0	0.0	7.85162	7.51641	-2.79423	18.39807	30.96874	1.23664	0.80864	119.58128	131.12546	44.35486	0.34801	 	100134.5325	 	7.6191E-5	 	44785.24574	37.08302	 
1285.0	1.0	0.0	7.85429	7.51384	-2.82737	18.37459	30.89129	1.23577	0.80921	120.01098	131.45954	44.51948	0.34785	 	107119.9635	 	7.09946E-5	 	44600.1465	37.01985	 
1280.0	1.0	0.0	7.85697	7.51129	-2.86044	18.35113	30.81383	1.23491	0.80978	120.44013	131.79233	44.68393	0.34769	 	114642.466	 	6.61233E-5	 	44415.36248	36.9568	 
1275.0	1.0	0.0	7.85964	7.50874	-2.89345	18.32767	30.73637	1.23403	0.81035	120.86874	132.12383	44.84822	0.34753	 	122747.0328	 	6.15586E-5	 	44230.89308	36.89388	 
1270.0	1.0	0.0	7.8623	7.50619	-2.92638	18.30422	30.65891	1.23315	0.81093	121.2968	132.45405	45.01235	0.34737	 	131482.7338	 	5.7283E-5	 	44046.73767	36.83108	 
1265.0	1.0	0.0	7.86497	7.50365	-2.95925	18.28079	30.58145	1.23227	0.81151	121.72432	132.78299	45.17631	0.34721	 	140903.1016	 	5.32801E-5	 	43862.89562	36.76841	 
1260.0	1.0	0.0	7.86763	7.50111	-2.99205	18.25737	30.50399	1.23139	0.81209	122.15129	133.11065	45.34011	0.34706	 	151066.5789	 	4.95339E-5	 	43679.36632	36.70586	 
1255.0	1.0	0.0	7.87028	7.49858	-3.02478	18.23396	30.42652	1.23049	0.81268	122.57772	133.43703	45.50375	0.3469	 	162036.9922	 	4.60297E-5	 	43496.14916	36.64343	 
1250.0	1.0	0.0	7.87293	7.49605	-3.05745	18.21056	30.34906	1.2296	0.81327	123.0036	133.76216	45.66722	0.34674	 	173884.0868	 	4.27533E-5	 	43313.2435	36.58113	 
1245.0	1.0	0.0	7.87558	7.49353	-3.09005	18.18717	30.27159	1.2287	0.81387	123.42893	134.08601	45.83053	0.34658	 	186684.1113	 	3.96912E-5	 	43130.64875	36.51895	 
1240.0	1.0	0.0	7.87823	7.49102	-3.12257	18.1638	30.19412	1.22779	0.81447	123.85372	134.40861	45.99367	0.34642	 	200520.4855	 	3.68307E-5	 	42948.36426	36.4569	 
1235.0	1.0	0.0	7.88087	7.48851	-3.15504	18.14044	30.11664	1.22689	0.81507	124.27797	134.72994	46.15665	0.34626	 	215484.4912	 	3.41598E-5	 	42766.38944	36.39496	 
1230.0	1.0	0.0	7.8835	7.486	-3.18743	18.11709	30.03917	1.22597	0.81568	124.70166	135.05003	46.31946	0.3461	 	231676.1008	 	3.16671E-5	 	42584.72367	36.33315	 
1225.0	1.0	0.0	7.88614	7.4835	-3.21976	18.09375	29.96169	1.22505	0.81629	125.12481	135.36886	46.48211	0.34595	 	249204.8434	 	2.93417E-5	 	42403.36633	36.27147	 
1220.0	1.0	0.0	7.88877	7.48101	-3.25202	18.07042	29.88422	1.22413	0.81691	125.54742	135.68645	46.6446	0.34579	 	268190.7899	 	2.71735E-5	 	42222.3168	36.20991	 
1215.0	1.0	0.0	7.89139	7.47852	-3.28421	18.0471	29.80674	1.2232	0.81753	125.96948	136.0028	46.80692	0.34563	 	288765.6332	 	2.51529E-5	 	42041.57448	36.14846	 
1210.0	1.0	0.0	7.89401	7.47604	-3.31633	18.0238	29.72925	1.22227	0.81815	126.39099	136.31791	46.96907	0.34547	 	311073.9213	 	2.32706E-5	 	41861.13875	36.08715	 
1205.0	1.0	0.0	7.89663	7.47356	-3.34839	18.00051	29.65177	1.22133	0.81878	126.81196	136.63178	47.13107	0.34531	 	335274.3513	 	2.15181E-5	 	41681.009	36.02595	 
1200.0	1.0	0.0	7.89925	7.47108	-3.38038	17.97723	29.57428	1.22039	0.81941	127.23238	136.94443	47.29289	0.34515	 	361541.3148	 	1.98873E-5	 	41501.18461	35.96488	 
1195.0	1.0	0.0	7.90186	7.46862	-3.4123	17.95396	29.49679	1.21944	0.82005	127.65225	137.25585	47.45455	0.34499	 	390066.4939	 	1.83704E-5	 	41321.66498	35.90393	 
1190.0	1.0	0.0	7.90447	7.46615	-3.44416	17.9307	29.4193	1.21849	0.82069	128.07157	137.56604	47.61605	0.34484	 	421060.7692	 	1.69602E-5	 	41142.44949	35.8431	 
1185.0	1.0	0.0	7.90707	7.46369	-3.47594	17.90746	29.34181	1.21753	0.82133	128.49035	137.87502	47.77738	0.34468	 	454756.2012	 	1.56499E-5	 	40963.53754	35.78239	 
1180.0	1.0	0.0	7.90967	7.46124	-3.50767	17.88422	29.26432	1.21657	0.82198	128.90859	138.18277	47.93854	0.34452	 	491408.3807	 	1.44329E-5	 	40784.92852	35.7218	 
1175.0	1.0	0.0	7.91226	7.45879	-3.53932	17.861	29.18682	1.21561	0.82264	129.32627	138.48932	48.09954	0.34436	 	531298.9525	 	1.33034E-5	 	40606.62181	35.66134	 
1170.0	1.0	0.0	7.91486	7.45635	-3.57091	17.83779	29.10932	1.21463	0.82329	129.74341	138.79466	48.26038	0.3442	 	574738.4177	 	1.22554E-5	 	40428.61681	35.601	 
1165.0	1.0	0.0	7.91744	7.45391	-3.60243	17.8146	29.03182	1.21366	0.82396	130.16	139.09879	48.42105	0.34404	 	622069.379	 	1.12837E-5	 	40250.91291	35.54078	 
1160.0	1.0	0.0	7.92003	7.45148	-3.63388	17.79141	28.95432	1.21267	0.82462	130.57604	139.40172	48.58155	0.34389	 	673670.0369	 	1.03832E-5	 	40073.50951	35.48068	 
1155.0	1.0	0.0	7.92261	7.44905	-3.66527	17.76824	28.87682	1.21169	0.8253	130.99154	139.70345	48.74189	0.34373	 	729958.1626	 	9.5491E-6	 	39896.406	35.4207	 
1150.0	1.0	0.0	7.92518	7.44663	-3.69659	17.74508	28.79931	1.21069	0.82597	131.40649	140.00399	48.90206	0.34357	 	791395.5468	 	8.77695E-6	 	39719.60177	35.36085	 
1145.0	1.0	0.0	7.92776	7.44422	-3.72784	17.72193	28.7218	1.2097	0.82665	131.82089	140.30333	49.06206	0.34341	 	858492.8832	 	8.06255E-6	 	39543.09621	35.30111	 
1140.0	1.0	0.0	7.93033	7.4418	-3.75903	17.69879	28.64429	1.20869	0.82734	132.23475	140.60149	49.2219	0.34325	 	931815.4303	 	7.40193E-6	 	39366.88873	35.2415	 
1135.0	1.0	0.0	7.93289	7.4394	-3.79014	17.67566	28.56678	1.20769	0.82803	132.64805	140.89846	49.38157	0.34309	 	1011989.164	 	6.79141E-6	 	39190.97872	35.182	 
1130.0	1.0	0.0	7.93545	7.437	-3.8212	17.65254	28.48926	1.20667	0.82873	133.06081	141.19425	49.54108	0.34293	 	1099707.772	 	6.2275E-6	 	39015.36558	35.12263	 
1125.0	1.0	0.0	7.93801	7.4346	-3.85218	17.62944	28.41174	1.20565	0.82943	133.47302	141.48887	49.70042	0.34278	 	1195740.488	 	5.70694E-6	 	38840.0487	35.06337	 
1120.0	1.0	0.0	7.94056	7.43221	-3.8831	17.60635	28.33422	1.20463	0.83013	133.88468	141.78231	49.85959	0.34262	 	1300940.89	 	5.22669E-6	 	38665.02748	35.00424	 
1115.0	1.0	0.0	7.94311	7.42982	-3.91396	17.58327	28.2567	1.2036	0.83084	134.29579	142.07458	50.0186	0.34246	 	1416256.782	 	4.78389E-6	 	38490.30133	34.94523	 
1110.0	1.0	0.0	7.94566	7.42744	-3.94474	17.5602	28.17918	1.20256	0.83156	134.70636	142.36569	50.17744	0.3423	 	1542741.316	 	4.37585E-6	 	38315.86964	34.88634	 
1106.7	1.0	0.0	7.94734	7.42588	-3.96503	17.54498	28.128	1.20187	0.83203	134.9771	142.55722	50.28221	0.3422	 	1632925.649	 	4.12432E-6	 	38200.87812	 	 
1105.0	1.0	0.0	7.9482	7.42507	-3.97541	17.53734	28.10165	1.20152	0.83228	135.11658	142.65596	50.33619	0.34214	 	1681589.209	 	4.00003E-6	 	38141.62295	34.84934	 
1100.0	1.0	0.0	7.95072	7.42271	-4.0059	17.51484	28.02412	1.20047	0.83301	135.52665	142.94568	50.4949	0.34198	 	1834132.62	 	3.65405E-6	 	37967.46503	34.83158	 
1095.0	1.0	0.0	7.95324	7.42036	-4.03634	17.49233	27.94659	1.19942	0.83374	135.93615	143.23419	50.65344	0.34183	 	2001779.461	 	3.33583E-6	 	37793.6166	34.76969	 
1090.0	1.0	0.0	7.95576	7.41801	-4.06672	17.4698	27.86906	1.19836	0.83447	136.34506	143.52151	50.81181	0.34167	 	2186147.445	 	3.04334E-6	 	37620.07631	34.70806	 
1085.0	1.0	0.0	7.95828	7.41567	-4.09704	17.44727	27.79152	1.1973	0.83522	136.7534	143.80763	50.96999	0.34151	 	2389040.606	 	2.77467E-6	 	37446.84278	34.64671	 
1080.0	1.0	0.0	7.96079	7.41333	-4.12731	17.42472	27.71398	1.19623	0.83596	137.16116	144.09255	51.128	0.34135	 	2612471.794	 	2.52802E-6	 	37273.91472	34.58561	 
1075.0	1.0	0.0	7.9633	7.41099	-4.15751	17.40217	27.63645	1.19515	0.83672	137.56835	144.3763	51.28584	0.34119	 	2858688.861	 	2.30175E-6	 	37101.29083	34.52478	 
1070.0	1.0	0.0	7.9658	7.40866	-4.18765	17.37961	27.55891	1.19407	0.83747	137.97496	144.65887	51.44349	0.34103	 	3130203.929	 	2.0943E-6	 	36928.96985	34.46419	 
1065.0	1.0	0.0	7.96831	7.40633	-4.21774	17.35704	27.48136	1.19298	0.83824	138.381	144.94026	51.60098	0.34088	 	3429826.139	 	1.90423E-6	 	36756.95055	34.40386	 
1060.0	1.0	0.0	7.9708	7.40401	-4.24776	17.33446	27.40382	1.19188	0.83901	138.78648	145.22048	51.75828	0.34072	 	3760699.846	 	1.7302E-6	 	36585.23173	34.34377	 
1055.0	1.0	0.0	7.9733	7.4017	-4.27773	17.31188	27.32627	1.19078	0.83978	139.19138	145.49954	51.91542	0.34056	 	4126346.645	 	1.57097E-6	 	36413.81219	34.28391	 
1050.0	1.0	0.0	7.97579	7.39938	-4.30763	17.2893	27.24872	1.18968	0.84056	139.59571	145.77744	52.07237	0.3404	 	4530714.202	 	1.42537E-6	 	36242.69078	34.22428	 
1045.0	1.0	0.0	7.97828	7.39708	-4.33748	17.26671	27.17117	1.18856	0.84135	139.99947	146.05419	52.22915	0.34024	 	4978230.951	 	1.29234E-6	 	36071.86638	34.16488	 
1040.0	1.0	0.0	7.98076	7.39477	-4.36726	17.24412	27.09362	1.18744	0.84214	140.40266	146.32978	52.38576	0.34008	 	5473868.383	 	1.17086E-6	 	35901.33785	34.1057	 
1035.0	1.0	0.0	7.98325	7.39247	-4.39699	17.22152	27.01606	1.18632	0.84294	140.80529	146.60423	52.54219	0.33993	 	6023212.837	 	1.06002E-6	 	35731.10413	34.04674	 
1030.0	1.0	0.0	7.98572	7.39018	-4.42665	17.19893	26.9385	1.18519	0.84375	141.20735	146.87754	52.69845	0.33977	 	6632546.034	 	9.58961E-7	 	35561.16415	33.988	 
1025.0	1.0	0.0	7.9882	7.38789	-4.45625	17.17633	26.86094	1.18405	0.84456	141.60884	147.14972	52.85454	0.33961	 	7308937.157	 	8.66877E-7	 	35391.51684	33.92946	 
1020.0	1.0	0.0	7.99067	7.38561	-4.48579	17.15373	26.78338	1.1829	0.84538	142.00977	147.42076	53.01045	0.33945	 	8060349.156	 	7.83036E-7	 	35222.1612	33.87113	 
1015.0	1.0	0.0	7.99313	7.38333	-4.51526	17.13113	26.70582	1.18175	0.8462	142.41013	147.69067	53.16619	0.33929	 	8895757.73	 	7.06757E-7	 	35053.09622	33.813	 
1010.0	1.0	0.0	7.9956	7.38105	-4.54468	17.10854	26.62825	1.18059	0.84703	142.80993	147.95946	53.32175	0.33913	 	9825290.527	 	6.3741E-7	 	34884.32091	33.75506	 
1005.0	1.0	0.0	7.99806	7.37878	-4.57403	17.08594	26.55068	1.17943	0.84787	143.20916	148.22714	53.47714	0.33898	 	1.086038301E7	 	5.74412E-7	 	34715.8343	33.69732	 
1000.0	1.0	0.0	8.00051	7.37652	-4.60333	17.06335	26.4731	1.17826	0.84871	143.60783	148.49369	53.63236	0.33882	 	1.201395958E7	 	5.17226E-7	 	34547.63545	33.63977	 
995.0	1.0	0.0	8.00296	7.37426	-4.63256	17.04076	26.39553	1.17708	0.84956	144.00594	148.75914	53.7874	0.33866	 	1.330063992E7	 	4.65355E-7	 	34379.72342	33.58241	 
990.0	1.0	0.0	8.00541	7.372	-4.66172	17.01817	26.31795	1.1759	0.85042	144.40349	149.02348	53.94227	0.3385	 	1.473697592E7	 	4.18344E-7	 	34212.0973	33.52522	 
985.0	1.0	0.0	8.00786	7.36975	-4.69083	16.99558	26.24037	1.1747	0.85128	144.80047	149.28671	54.09697	0.33834	 	1.6341724E7	 	3.75769E-7	 	34044.7562	33.46822	 
980.0	1.0	0.0	8.0103	7.36751	-4.71987	16.973	26.16279	1.17351	0.85215	145.19689	149.54885	54.25149	0.33818	 	1.813615674E7	 	3.37244E-7	 	33877.69921	33.4114	 
975.0	1.0	0.0	8.01274	7.36527	-4.74885	16.95042	26.0852	1.1723	0.85302	145.59275	149.80989	54.40584	0.33802	 	2.01444252E7	 	3.02412E-7	 	33710.9255	33.35474	 
970.0	1.0	0.0	8.01517	7.36303	-4.77777	16.92785	26.00761	1.17109	0.85391	145.98805	150.06984	54.56002	0.33787	 	2.239397098E7	 	2.70944E-7	 	33544.43419	33.29826	 
965.0	1.0	0.0	8.0176	7.3608	-4.80662	16.90528	25.93002	1.16987	0.8548	146.38279	150.32871	54.71403	0.33771	 	2.491600494E7	 	2.42539E-7	 	33378.22446	33.24195	 
960.0	1.0	0.0	8.02002	7.35857	-4.83541	16.88272	25.85243	1.16864	0.8557	146.77697	150.58649	54.86786	0.33755	 	2.774605845E7	 	2.16921E-7	 	33212.29547	33.1858	 
955.0	1.0	0.0	8.02245	7.35635	-4.86414	16.86016	25.77483	1.16741	0.8566	147.17059	150.84319	55.02152	0.33739	 	3.092462203E7	 	1.93836E-7	 	33046.64641	33.12981	 
950.0	1.0	0.0	8.02486	7.35414	-4.8928	16.83761	25.69723	1.16616	0.85751	147.56364	151.09881	55.175	0.33723	 	3.449787699E7	 	1.73051E-7	 	32881.2765	33.07398	 
945.0	1.0	0.0	8.02728	7.35192	-4.92141	16.81507	25.61963	1.16491	0.85843	147.95614	151.35336	55.32832	0.33707	 	3.851855337E7	 	1.54354E-7	 	32716.18494	33.01831	 
940.0	1.0	0.0	8.02969	7.34972	-4.94994	16.79253	25.54202	1.16366	0.85936	148.34808	151.60684	55.48146	0.33692	 	4.304691548E7	 	1.3755E-7	 	32551.37095	32.9628	 
935.0	1.0	0.0	8.03209	7.34752	-4.97842	16.77	25.46441	1.16239	0.86029	148.73946	151.85926	55.63443	0.33676	 	4.815190395E7	 	1.2246E-7	 	32386.83377	32.90744	 
930.0	1.0	0.0	8.0345	7.34532	-5.00683	16.74748	25.3868	1.16112	0.86124	149.13028	152.11061	55.78722	0.3366	 	5.391247429E7	 	1.08922E-7	 	32222.57266	32.85222	 
925.0	1.0	0.0	8.0369	7.34313	-5.03518	16.72497	25.30918	1.15984	0.86219	149.52055	152.36091	55.93985	0.33644	 	6.041913431E7	 	9.67884E-8	 	32058.58688	32.79716	 
920.0	1.0	0.0	8.03929	7.34094	-5.06347	16.70246	25.23157	1.15856	0.86314	149.91025	152.61015	56.0923	0.33628	 	6.777574737E7	 	8.59226E-8	 	31894.87568	32.74224	 
915.0	1.0	0.0	8.04168	7.33876	-5.09169	16.67996	25.15395	1.15726	0.86411	150.29939	152.85833	56.24458	0.33612	 	7.61016327E7	 	7.62016E-8	 	31731.43834	32.68747	 
910.0	1.0	0.0	8.04407	7.33658	-5.11985	16.65747	25.07632	1.15596	0.86508	150.68798	153.10547	56.39668	0.33596	 	8.5534003E7	 	6.7513E-8	 	31568.27418	32.63283	 
905.0	1.0	0.0	8.04645	7.33441	-5.14794	16.63499	24.9987	1.15465	0.86607	151.07601	153.35156	56.54861	0.33581	 	9.623082544E7	 	5.97548E-8	 	31405.38246	32.57834	 
900.0	1.0	0.0	8.04883	7.33224	-5.17598	16.61251	24.92107	1.15333	0.86706	151.46348	153.59661	56.70037	0.33565	 	1.083741542E8	 	5.28341E-8	 	31242.7625	32.52399	 
895.0	1.0	0.0	8.0512	7.33008	-5.20395	16.59005	24.84343	1.152	0.86805	151.85039	153.84062	56.85196	0.33549	 	1.221740443E8	 	4.66666E-8	 	31080.41362	32.46978	 
890.0	1.0	0.0	8.05357	7.32792	-5.23185	16.56759	24.7658	1.15067	0.86906	152.23674	154.08359	57.00337	0.33533	 	1.378731184E8	 	4.11759E-8	 	30918.33513	32.4157	 
885.0	1.0	0.0	8.05594	7.32577	-5.25969	16.54515	24.68816	1.14932	0.87008	152.62254	154.32554	57.15461	0.33517	 	1.557519377E8	 	3.62926E-8	 	30756.52638	32.36175	 
880.0	1.0	0.0	8.0583	7.32362	-5.28747	16.52271	24.61052	1.14797	0.8711	153.00777	154.56645	57.30568	0.33501	 	1.761353195E8	 	3.19541E-8	 	30594.98669	32.30794	 
875.0	1.0	0.0	8.06066	7.32147	-5.31519	16.50029	24.53287	1.14661	0.87213	153.39245	154.80633	57.45657	0.33486	 	1.993997231E8	 	2.81035E-8	 	30433.71541	32.25426	 
870.0	1.0	0.0	8.06302	7.31934	-5.34284	16.47787	24.45522	1.14524	0.87318	153.77657	155.04519	57.6073	0.3347	 	2.25982026E8	 	2.46897E-8	 	30272.71189	32.2007	 
865.0	1.0	0.0	8.06537	7.3172	-5.37043	16.45547	24.37757	1.14387	0.87423	154.16014	155.28303	57.75784	0.33454	 	2.563897685E8	 	2.16663E-8	 	30111.97549	32.14728	 
860.0	1.0	0.0	8.06771	7.31508	-5.39795	16.43307	24.29991	1.14248	0.87529	154.54314	155.51985	57.90822	0.33438	 	2.912133288E8	 	1.89917E-8	 	29951.50558	32.09398	 
855.0	1.0	0.0	8.07006	7.31295	-5.42541	16.41068	24.22226	1.14109	0.87636	154.92559	155.75566	58.05842	0.33422	 	3.311402946E8	 	1.66281E-8	 	29791.30153	32.04081	 
850.0	1.0	0.0	8.0724	7.31083	-5.45281	16.38831	24.14459	1.13968	0.87744	155.30748	155.99046	58.20845	0.33406	 	3.769724146E8	 	1.45417E-8	 	29631.3627	31.98776	 
845.0	1.0	0.0	8.07473	7.30872	-5.48015	16.36593	24.06693	1.13827	0.87853	155.68879	156.22421	58.35829	0.3339	 	4.296451787E8	 	1.27021E-8	 	29474.88897	31.29475	 
840.0	1.0	0.0	8.07706	7.30661	-5.50743	16.34355	23.98926	1.13685	0.87962	156.06954	156.45697	58.50797	0.33375	 	4.902533624E8	 	1.1082E-8	 	29315.48252	31.88129	 
835.0	1.0	0.0	8.07939	7.30451	-5.53464	16.32119	23.91159	1.13542	0.88073	156.44974	156.68872	58.65747	0.33359	 	5.600778445E8	 	9.65688E-9	 	29156.33875	31.82875	 
830.0	1.0	0.0	8.08171	7.30241	-5.56179	16.29884	23.83391	1.13398	0.88185	156.82938	156.91947	58.8068	0.33343	 	6.4061988E8	 	8.40467E-9	 	28997.45714	31.77632	 
825.0	1.0	0.0	8.08403	7.30031	-5.58887	16.27651	23.75623	1.13253	0.88298	157.20846	157.14923	58.95595	0.33327	 	7.336413424E8	 	7.30575E-9	 	28838.83713	31.724	 
820.0	1.0	0.0	8.08634	7.29822	-5.61589	16.25419	23.67855	1.13107	0.88412	157.58699	157.378	59.10493	0.33311	 	8.41212737E8	 	6.3425E-9	 	28680.47817	31.67179	 
815.0	1.0	0.0	8.08865	7.29614	-5.64285	16.23187	23.60086	1.12961	0.88526	157.96495	157.60578	59.25374	0.33295	 	9.657705678E8	 	5.49923E-9	 	28522.37972	31.61969	 
810.0	1.0	0.0	8.09096	7.29406	-5.66975	16.20957	23.52318	1.12813	0.88642	158.34236	157.83256	59.40237	0.33279	 	1.110185978E9	 	4.76189E-9	 	28364.54124	31.5677	 
805.0	1.0	0.0	8.09326	7.29198	-5.69658	16.18729	23.44548	1.12664	0.88759	158.71922	158.05837	59.55083	0.33264	 	1.277847001E9	 	4.11801E-9	 	28206.96219	31.51581	 
800.0	1.0	0.0	8.09556	7.28991	-5.72335	16.16501	23.36779	1.12515	0.88877	159.09551	158.28319	59.69911	0.33248	 	1.472757261E9	 	3.55644E-9	 	28049.64202	31.46403	 
795.0	1.0	0.0	8.09785	7.28785	-5.75005	16.14275	23.29009	1.12364	0.88996	159.47125	158.50703	59.84722	0.33232	 	1.699654605E9	 	3.06731E-9	 	27892.5802	31.41236	 
790.0	1.0	0.0	8.10014	7.28579	-5.77669	16.1205	23.21238	1.12212	0.89117	159.84642	158.72989	59.99516	0.33216	 	1.964153879E9	 	2.64184E-9	 	27735.77618	31.3608	 
785.0	1.0	0.0	8.10243	7.28373	-5.80327	16.09826	23.13468	1.1206	0.89238	160.22104	158.95178	60.14292	0.332	 	2.272919067E9	 	2.27222E-9	 	27579.22944	31.30935	 
780.0	1.0	0.0	8.10471	7.28168	-5.82978	16.07603	23.05697	1.11906	0.89361	160.5951	159.1727	60.29051	0.33184	 	2.633871108E9	 	1.95156E-9	 	27422.93944	31.258	 
775.0	1.0	0.0	8.10699	7.27964	-5.85624	16.05382	22.97925	1.11752	0.89484	160.9686	159.39265	60.43792	0.33169	 	3.056439229E9	 	1.67376E-9	 	27266.90565	31.20676	 
770.0	1.0	0.0	8.10926	7.2776	-5.88263	16.03162	22.90153	1.11596	0.89609	161.34155	159.61163	60.58516	0.33153	 	3.551865353E9	 	1.43343E-9	 	27111.12752	31.15563	 
765.0	1.0	0.0	8.11153	7.27556	-5.90895	16.00942	22.82381	1.11439	0.89735	161.71393	159.82964	60.73222	0.33137	 	4.133573412E9	 	1.2258E-9	 	26955.60454	31.1046	 
760.0	1.0	0.0	8.11379	7.27353	-5.93521	15.98725	22.74609	1.11281	0.89862	162.08575	160.0467	60.87911	0.33121	 	4.817618135E9	 	1.04669E-9	 	26800.33617	31.05367	 
755.0	1.0	0.0	8.11605	7.27151	-5.96142	15.96508	22.66836	1.11123	0.89991	162.45702	160.26279	61.02582	0.33105	 	5.623231316E9	 	8.92395E-10	 	26645.32191	31.00285	 
750.0	1.0	0.0	8.11831	7.26948	-5.98755	15.94293	22.59062	1.10963	0.9012	162.82772	160.47793	61.17236	0.33089	 	6.573487877E9	 	7.59679E-10	 	26490.5612	30.95214	 
745.0	1.0	0.0	8.12056	7.26747	-6.01363	15.92078	22.51289	1.10802	0.90251	163.19786	160.69212	61.31872	0.33073	 	7.696119365E9	 	6.45694E-10	 	26336.05354	30.90153	 
740.0	1.0	0.0	8.12281	7.26546	-6.03964	15.89866	22.43515	1.1064	0.90383	163.56745	160.90535	61.46491	0.33058	 	9.024509261E9	 	5.47945E-10	 	26181.7984	30.85103	 
735.0	1.0	0.0	8.12506	7.26345	-6.06559	15.87654	22.3574	1.10476	0.90517	163.93647	161.11763	61.61092	0.33042	 	1.05989E10	 	4.64249E-10	 	26027.79528	30.80063	 
730.0	1.0	0.0	8.1273	7.26145	-6.09147	15.85443	22.27966	1.10312	0.90652	164.30493	161.32897	61.75675	0.33026	 	1.2467999999999998E10	 	3.92697E-10	 	25874.04363	30.75033	 
725.0	1.0	0.0	8.12953	7.25945	-6.1173	15.83234	22.2019	1.10147	0.90788	164.67284	161.53936	61.90241	0.3301	 	1.4690499999999998E10	 	3.31625E-10	 	25720.54297	30.70013	 
720.0	1.0	0.0	8.13176	7.25746	-6.14306	15.81026	22.12415	1.0998	0.90925	165.04018	161.74882	62.04789	0.32994	 	1.73378E10	 	2.79581E-10	 	25567.29275	30.65004	 
715.0	1.0	0.0	8.13399	7.25547	-6.16876	15.78819	22.04639	1.09812	0.91064	165.40696	161.95733	62.1932	0.32978	 	2.04965E10	 	2.35304E-10	 	25414.29249	30.60005	 
710.0	1.0	0.0	8.13621	7.25349	-6.1944	15.76613	21.96862	1.09644	0.91205	165.77318	162.1649	62.33833	0.32962	 	2.4271999999999996E10	 	1.97698E-10	 	25261.54167	30.55016	 
705.0	1.0	0.0	8.13843	7.25151	-6.21997	15.74409	21.89086	1.09473	0.91346	166.13884	162.37154	62.48328	0.32947	 	2.8792599999999996E10	 	1.6581E-10	 	25109.0398	30.50038	 
700.0	1.0	0.0	8.14065	7.24954	-6.24548	15.72205	21.81308	1.09302	0.91489	166.50393	162.57725	62.62805	0.32931	 	3.4215199999999996E10	 	1.38818E-10	 	24956.78634	30.45069	 
695.0	1.0	0.0	8.14286	7.24757	-6.27093	15.70003	21.73531	1.0913	0.91634	166.86847	162.78203	62.77265	0.32915	 	4.07316E10	 	1.16011E-10	 	24804.78082	30.4011	 
690.0	1.0	0.0	8.14506	7.24561	-6.29632	15.67803	21.65753	1.08956	0.9178	167.23244	162.98588	62.91708	0.32899	 	4.857689999999999E10	 	9.67722E-11	 	24653.02272	30.35162	 
685.0	1.0	0.0	8.14726	7.24365	-6.32164	15.65603	21.57975	1.08781	0.91928	167.59585	163.18881	63.06132	0.32883	 	5.803999999999999E10	 	8.05737E-11	 	24501.51154	30.30223	 
680.0	1.0	0.0	8.14946	7.2417	-6.34691	15.63404	21.50196	1.08605	0.92077	167.9587	163.39082	63.20539	0.32867	 	6.9476E10	 	6.69596E-11	 	24350.24681	30.25295	 
675.0	1.0	0.0	8.15166	7.23975	-6.37211	15.61207	21.42416	1.08427	0.92228	168.32099	163.5919	63.34928	0.32852	 	8.33233E10	 	5.55389E-11	 	24199.22802	30.20376	 
670.0	1.0	0.0	8.15384	7.2378	-6.39725	15.59011	21.34637	1.08249	0.9238	168.68271	163.79207	63.49299	0.32836	 	1.00123E11	 	4.59762E-11	 	24048.45468	30.15467	 
665.0	1.0	0.0	8.15603	7.23587	-6.42232	15.56816	21.26857	1.08069	0.92534	169.04387	163.99132	63.63653	0.3282	 	1.20546E11	 	3.79844E-11	 	23897.9263	30.10568	 
660.0	1.0	0.0	8.15821	7.23393	-6.44734	15.54623	21.19076	1.07887	0.92689	169.40447	164.18966	63.77989	0.32804	 	1.45424E11	 	3.13186E-11	 	23747.64241	30.05678	 
655.0	1.0	0.0	8.16039	7.232	-6.47229	15.52431	21.11295	1.07705	0.92846	169.7645	164.38709	63.92307	0.32788	 	1.75791E11	 	2.57696E-11	 	23597.6025	30.00798	 
650.0	1.0	0.0	8.16256	7.23008	-6.49718	15.50239	21.03514	1.07521	0.93005	170.12398	164.58361	64.06607	0.32772	 	2.12936E11	 	2.11597E-11	 	23447.80612	29.95928	 
645.0	1.0	0.0	8.16473	7.22816	-6.52201	15.4805	20.95732	1.07336	0.93166	170.48288	164.77923	64.2089	0.32756	 	2.58469E11	 	1.73377E-11	 	23298.25277	29.91067	 
640.0	1.0	0.0	8.16689	7.22624	-6.54678	15.45861	20.8795	1.07149	0.93328	170.84123	164.97394	64.35154	0.32741	 	3.14406E11	 	1.41755E-11	 	23148.94199	29.86216	 
635.0	1.0	0.0	8.16905	7.22433	-6.57149	15.43673	20.80167	1.06961	0.93492	171.19901	165.16775	64.49401	0.32725	 	3.83273E11	 	1.15647E-11	 	22999.8733	29.81374	 
630.0	1.0	0.0	8.17121	7.22243	-6.59613	15.41487	20.72384	1.06772	0.93658	171.55623	165.36066	64.6363	0.32709	 	4.68251E11	 	9.41387E-12	 	22851.04623	29.76541	 
625.0	1.0	0.0	8.17336	7.22053	-6.62072	15.39302	20.646	1.06581	0.93826	171.91288	165.55268	64.77841	0.32693	 	5.73347E11	 	7.64572E-12	 	22702.46032	29.71718	 
620.0	1.0	0.0	8.1755	7.21863	-6.64524	15.37118	20.56816	1.06389	0.93995	172.26897	165.7438	64.92034	0.32677	 	7.03624E11	 	6.19542E-12	 	22554.11512	29.66904	 
615.0	1.0	0.0	8.17765	7.21674	-6.6697	15.34935	20.49032	1.06195	0.94166	172.62449	165.93403	65.0621	0.32661	 	8.65496E11	 	5.0085E-12	 	22406.01015	29.62099	 
610.0	1.0	0.0	8.17979	7.21485	-6.6941	15.32754	20.41247	1.06	0.9434	172.97945	166.12337	65.20367	0.32645	 	1.06711E12	 	4.03937E-12	 	22258.14496	29.57304	 
605.0	1.0	0.0	8.18192	7.21297	-6.71843	15.30574	20.33462	1.05803	0.94515	173.33385	166.31182	65.34507	0.3263	 	1.31882E12	 	3.24989E-12	 	22110.51911	29.52517	 
600.0	1.0	0.0	8.18405	7.21109	-6.74271	15.28395	20.25676	1.05605	0.94692	173.68768	166.49939	65.48628	0.32614	 	1.63387E12	 	2.6083E-12	 	21963.13214	29.47739	 
595.0	1.0	0.0	8.18618	7.20922	-6.76692	15.26217	20.17889	1.05406	0.94872	174.04094	166.68608	65.62732	0.32598	 	2.02918E12	 	2.08814E-12	 	21815.9836	29.42971	 
590.0	1.0	0.0	8.1883	7.20735	-6.79108	15.2404	20.10103	1.05204	0.95053	174.39364	166.87188	65.76818	0.32582	 	2.52648E12	 	1.66747E-12	 	21669.07306	29.38211	 
585.0	1.0	0.0	8.19041	7.20549	-6.81517	15.21865	20.02315	1.05002	0.95236	174.74577	167.0568	65.90885	0.32566	 	3.15368E12	 	1.3281E-12	 	21522.40008	29.3346	 
580.0	1.0	0.0	8.19253	7.20363	-6.8392	15.19691	19.94528	1.04798	0.95422	175.09734	167.24085	66.04935	0.3255	 	3.94684E12	 	1.05502E-12	 	21375.96422	29.28717	 
575.0	1.0	0.0	8.19463	7.20178	-6.86317	15.17518	19.86739	1.04592	0.9561	175.44834	167.42403	66.18967	0.32535	 	4.95257E12	 	8.35851E-13	 	21229.76506	29.23983	 
570.0	1.0	0.0	8.19674	7.19993	-6.88708	15.15346	19.78951	1.04384	0.958	175.79878	167.60633	66.32981	0.32519	 	6.23132E12	 	6.60407E-13	 	21083.80215	29.19258	 
565.0	1.0	0.0	8.19884	7.19808	-6.91093	15.13176	19.71161	1.04176	0.95992	176.14865	167.78777	66.46977	0.32503	 	7.86176E12	 	5.20342E-13	 	20938.0751	29.14541	 
560.0	1.0	0.0	8.20093	7.19625	-6.93471	15.11006	19.63372	1.03965	0.96186	176.49795	167.96833	66.60954	0.32487	 	9.94652E12	 	4.08826E-13	 	20792.58348	29.09832	 
555.0	1.0	0.0	8.20303	7.19441	-6.95844	15.08838	19.55581	1.03753	0.96383	176.84669	168.14804	66.74914	0.32471	 	1.26199E13	 	3.20287E-13	 	20647.32688	29.05132	 
550.0	1.0	0.0	8.20511	7.19258	-6.98211	15.06671	19.47791	1.03539	0.96582	177.19486	168.32688	66.88856	0.32455	 	1.60582E13	 	2.50189E-13	 	20502.30488	29.0044	 
545.0	1.0	0.0	8.2072	7.19076	-7.00571	15.04506	19.4	1.03323	0.96784	177.54246	168.50485	67.02779	0.32439	 	2.04935E13	 	1.94851E-13	 	20357.51708	28.95756	 
540.0	1.0	0.0	8.20927	7.18894	-7.02925	15.02341	19.32208	1.03106	0.96988	177.8895	168.68197	67.16685	0.32424	 	2.62325E13	 	1.51293E-13	 	20212.96309	28.9108	 
535.0	1.0	0.0	8.21135	7.18712	-7.05274	15.00178	19.24416	1.02887	0.97194	178.23596	168.85824	67.30572	0.32408	 	3.36812E13	 	1.17109E-13	 	20068.64251	28.86412	 
530.0	1.0	0.0	8.21342	7.18531	-7.07616	14.98016	19.16623	1.02666	0.97403	178.58187	169.03364	67.44442	0.32392	 	4.33799E13	 	9.03638E-14	 	19924.55496	28.81751	 
525.0	1.0	0.0	8.21548	7.1835	-7.09952	14.95855	19.0883	1.02443	0.97615	178.9272	169.2082	67.58293	0.32376	 	5.60488E13	 	6.95032E-14	 	19780.70004	28.77098	 
520.0	1.0	0.0	8.21754	7.1817	-7.12282	14.93695	19.01036	1.02219	0.97829	179.27197	169.38191	67.72126	0.3236	 	7.26519E13	 	5.32838E-14	 	19637.07738	28.72453	 
515.0	1.0	0.0	8.2196	7.1799	-7.14606	14.91537	18.93242	1.01993	0.98046	179.61616	169.55477	67.85941	0.32344	 	9.44838E13	 	4.07135E-14	 	19493.6866	28.67816	 
510.0	1.0	0.0	8.22165	7.17811	-7.16924	14.8938	18.85447	1.01765	0.98266	179.95979	169.72678	67.99738	0.32328	 	1.23289E14	 	3.10032E-14	 	19350.52735	28.63185	 
505.0	1.0	0.0	8.2237	7.17632	-7.19236	14.87224	18.77651	1.01535	0.98489	180.30286	169.89795	68.13516	0.32313	 	1.61427E14	 	2.35273E-14	 	19207.59925	28.58562	 
500.0	1.0	0.0	8.22575	7.17454	-7.21542	14.85069	18.69855	1.01303	0.98714	180.64535	170.06828	68.27277	0.32297	 	2.12101E14	 	1.77913E-14	 	19064.90196	28.53946	 
495.0	1.0	0.0	8.22778	7.17276	-7.23842	14.82915	18.62059	1.01069	0.98942	180.98727	170.23777	68.41019	0.32281	 	2.7967499999999997E14	 	1.34054E-14	 	18922.43513	28.49337	 
490.0	1.0	0.0	8.22982	7.17099	-7.26136	14.80763	18.54262	1.00834	0.99173	181.32863	170.40642	68.54743	0.32265	 	3.70116E14	 	1.00637E-14	 	18780.1984	28.44735	 
485.0	1.0	0.0	8.23185	7.16922	-7.28424	14.78612	18.46465	1.00596	0.99408	181.66942	170.57423	68.68449	0.32249	 	4.91616E14	 	7.52689E-15	 	18638.19145	28.40139	 
480.0	1.0	0.0	8.23388	7.16745	-7.30706	14.76462	18.38666	1.00356	0.99645	182.00964	170.74122	68.82136	0.32233	 	6.55469E14	 	5.6081E-15	 	18496.41395	28.3555	 
475.0	1.0	0.0	8.2359	7.16569	-7.32982	14.74313	18.30868	1.00115	0.99885	182.34929	170.90737	68.95806	0.32218	 	8.773E14	 	4.16224E-15	 	18354.86557	28.30968	 
470.0	1.0	0.0	8.23792	7.16394	-7.35252	14.72166	18.23069	0.99871	1.00129	182.68837	171.07269	69.09457	0.32202	 	1.17882E15	 	3.07692E-15	 	18213.54601	28.26391	 
465.0	1.0	0.0	8.23993	7.16219	-7.37516	14.7002	18.15269	0.99625	1.00376	183.02688	171.23719	69.2309	0.32186	 	1.59032E15	 	2.26541E-15	 	18072.45495	28.21821	 
460.0	1.0	0.0	8.24194	7.16044	-7.39774	14.67875	18.07469	0.99378	1.00626	183.36482	171.40086	69.36704	0.3217	 	2.15425E15	 	1.66106E-15	 	17931.59209	28.17257	 
455.0	1.0	0.0	8.24394	7.1587	-7.42025	14.65731	17.99668	0.99128	1.0088	183.70219	171.56371	69.50301	0.32154	 	2.93033E15	 	1.21281E-15	 	17790.95714	28.12699	 
450.0	1.0	0.0	8.24595	7.15696	-7.44271	14.63588	17.91866	0.98876	1.01137	184.03899	171.72574	69.63879	0.32138	 	4.003E15	 	8.81718E-16	 	17650.54983	28.08146	 
445.0	1.0	0.0	8.24794	7.15523	-7.46511	14.61447	17.84064	0.98621	1.01398	184.37522	171.88695	69.77438	0.32122	 	5.49213E15	 	6.38206E-16	 	17510.36987	28.03599	 
440.0	1.0	0.0	8.24993	7.15351	-7.48745	14.59306	17.76261	0.98365	1.01662	184.71088	172.04734	69.90979	0.32107	 	7.56872E15	 	4.59881E-16	 	17370.417	27.99057	 
435.0	1.0	0.0	8.25192	7.15178	-7.50973	14.57167	17.68458	0.98106	1.0193	185.04597	172.20692	70.04502	0.32091	 	1.04778E16	 	3.29869E-16	 	17230.69097	27.94521	 
430.0	1.0	0.0	8.2539	7.15006	-7.53195	14.5503	17.60654	0.97845	1.02202	185.38049	172.36568	70.18007	0.32075	 	1.45723E16	 	2.35509E-16	 	17091.19153	27.89989	 
425.0	1.0	0.0	8.25588	7.14835	-7.55411	14.52893	17.5285	0.97582	1.02478	185.71444	172.52364	70.31493	0.32059	 	2.03627E16	 	1.6734E-16	 	16951.91843	27.85462	 
420.0	1.0	0.0	8.25786	7.14664	-7.57621	14.50758	17.45045	0.97317	1.02757	186.04782	172.68078	70.44961	0.32043	 	2.85918E16	 	1.18324E-16	 	16812.87145	27.8094	 
415.0	1.0	0.0	8.25983	7.14494	-7.59826	14.48624	17.37239	0.97049	1.03041	186.38063	172.83712	70.58411	0.32027	 	4.03449E16	 	8.32494E-17	 	16674.05039	27.76421	 
410.0	1.0	0.0	8.26179	7.14324	-7.62024	14.46491	17.29433	0.96778	1.03329	186.71286	172.99266	70.71842	0.32011	 	5.7217E16	 	5.82744E-17	 	16535.45503	27.71907	 
405.0	1.0	0.0	8.26375	7.14154	-7.64216	14.44359	17.21626	0.96506	1.03621	187.04453	173.14739	70.85254	0.31996	 	8.15641E16	 	4.05801E-17	 	16397.08517	27.67397	 
400.0	1.0	0.0	8.26571	7.13985	-7.66402	14.42228	17.13819	0.96231	1.03917	187.37562	173.30132	70.98649	0.3198	 	1.16885E17	 	2.81085E-17	 	16258.94064	27.62891	 
395.0	1.0	0.0	8.26766	7.13817	-7.68583	14.40099	17.06011	0.95953	1.04218	187.70614	173.45446	71.12024	0.31964	 	1.68407E17	 	1.93642E-17	 	16121.02126	27.58388	 
390.0	1.0	0.0	8.26961	7.13648	-7.70757	14.37971	16.98202	0.95673	1.04523	188.03609	173.60679	71.25382	0.31948	 	2.43979E17	 	1.32662E-17	 	15983.32689	27.53887	 
385.0	1.0	0.0	8.27155	7.13481	-7.72926	14.35844	16.90392	0.9539	1.04833	188.36547	173.75833	71.38721	0.31932	 	3.55459E17	 	9.03695E-18	 	15845.85736	27.49391	 
380.0	1.0	0.0	8.27349	7.13314	-7.75088	14.33719	16.82582	0.95105	1.05147	188.69428	173.90908	71.52041	0.31916	 	5.20871E17	 	6.12026E-18	 	15708.61255	27.44896	 
375.0	1.0	0.0	8.27543	7.13147	-7.77245	14.31594	16.74772	0.94817	1.05466	189.02251	174.05904	71.65343	0.31901	 	7.67768E17	 	4.12033E-18	 	15571.59235	27.40404	 
370.0	1.0	0.0	8.27736	7.1298	-7.79396	14.29471	16.6696	0.94526	1.05791	189.35018	174.20821	71.78626	0.31885	 	1.13855E18	 	2.75708E-18	 	15434.79664	27.35914	 
365.0	1.0	0.0	8.27928	7.12815	-7.81541	14.27349	16.59148	0.94233	1.0612	189.67727	174.3566	71.91891	0.31869	 	1.69884E18	 	1.8334E-18	 	15298.22535	27.31426	 
360.0	1.0	0.0	8.2812	7.12649	-7.8368	14.25228	16.51336	0.93937	1.06454	190.00378	174.50419	72.05138	0.31853	 	2.55093E18	 	1.21142E-18	 	15161.8784	27.26939	 
355.0	1.0	0.0	8.28312	7.12484	-7.85813	14.23108	16.43522	0.93638	1.06794	190.32973	174.65101	72.18365	0.31837	 	3.85528E18	 	7.95233E-19	 	15025.75573	27.22454	 
350.0	1.0	0.0	8.28503	7.1232	-7.8794	14.2099	16.35708	0.93337	1.07139	190.6551	174.79704	72.31575	0.31821	 	5.86532E18	 	5.18547E-19	 	14889.85731	27.17968	 
345.0	1.0	0.0	8.28694	7.12156	-7.90062	14.18873	16.27894	0.93032	1.0749	190.9799	174.9423	72.44765	0.31805	 	8.98411E18	 	3.35819E-19	 	14754.18311	27.13484	 
340.0	1.0	0.0	8.28885	7.11992	-7.92177	14.16757	16.20078	0.92725	1.07846	191.30413	175.08678	72.57938	0.3179	 	1.38573E19	 	2.15961E-19	 	14618.73314	27.08999	 
335.0	1.0	0.0	8.29075	7.11829	-7.94287	14.14642	16.12262	0.92415	1.08208	191.62778	175.23048	72.71091	0.31774	 	2.15267E19	 	1.37886E-19	 	14483.50739	27.04515	 
330.0	1.0	0.0	8.29264	7.11666	-7.96391	14.12529	16.04446	0.92101	1.08576	191.95086	175.37341	72.84226	0.31758	 	3.36859E19	 	8.73906E-20	 	14348.50593	27.00029	 
325.0	1.0	0.0	8.29453	7.11504	-7.98489	14.10416	15.96628	0.91785	1.0895	192.27337	175.51557	72.97343	0.31742	 	5.31091E19	 	5.49703E-20	 	14213.72879	26.95543	 
320.0	1.0	0.0	8.29642	7.11342	-8.00581	14.08305	15.8881	0.91466	1.09331	192.5953	175.65696	73.10441	0.31726	 	8.43769E19	 	3.43105E-20	 	14079.17607	26.91054	 
315.0	1.0	0.0	8.2983	7.11181	-8.02667	14.06195	15.80991	0.91143	1.09717	192.91666	175.79758	73.2352	0.3171	 	1.3511299999999998E20	 	2.1246E-20	 	13944.84785	26.86564	 
310.0	1.0	0.0	8.30018	7.1102	-8.04747	14.04087	15.73172	0.90818	1.10111	193.23745	175.93744	73.3658	0.31694	 	2.1810999999999997E20	 	1.30494E-20	 	13810.74425	26.82072	 
305.0	1.0	0.0	8.30205	7.1086	-8.06822	14.01979	15.65351	0.90489	1.10511	193.55766	176.07653	73.49622	0.31679	 	3.5502E20	 	7.9483E-21	 	13676.86544	26.77576	 
300.0	1.0	0.0	8.30392	7.107	-8.0889	13.99873	15.57531	0.90157	1.10918	193.8773	176.21486	73.62646	0.31663	 	5.8280299999999997E20	 	4.79991E-21	 	13543.21158	26.73077	 
295.0	1.0	0.0	8.30578	7.1054	-8.10953	13.97768	15.49709	0.89821	1.11332	194.19637	176.35243	73.7565	0.31647	 	9.651149999999999E20	 	2.87323E-21	 	13409.78288	26.68574	 
290.0	1.0	0.0	8.30764	7.10381	-8.1301	13.95664	15.41886	0.89482	1.11754	194.51486	176.48924	73.88636	0.31631	 	1.6126E21	 	1.70445E-21	 	13276.57955	26.64067	 
285.0	1.0	0.0	8.3095	7.10223	-8.15061	13.93561	15.34063	0.8914	1.12183	194.83278	176.6253	74.01604	0.31615	 	2.71937E21	 	1.00177E-21	 	13143.60186	26.59554	 
280.0	1.0	0.0	8.31135	7.10064	-8.17107	13.9146	15.26239	0.88795	1.12619	195.15012	176.7606	74.14552	0.31599	 	4.62926E21	 	5.832E-22	 	13010.85008	26.55036	 
275.0	1.0	0.0	8.3132	7.09907	-8.19146	13.8936	15.18414	0.88445	1.13064	195.46689	176.89515	74.27482	0.31584	 	7.9574E21	 	3.36213E-22	 	12878.32455	26.50511	 
270.0	1.0	0.0	8.31504	7.0975	-8.2118	13.87261	15.10589	0.88093	1.13517	195.78308	177.02895	74.40393	0.31568	 	1.3815299999999998E22	 	1.91887E-22	 	12746.02561	26.45979	 
265.0	1.0	0.0	8.31687	7.09593	-8.23208	13.85163	15.02763	0.87736	1.13978	196.09871	177.162	74.53286	0.31552	 	2.4232799999999997E22	 	1.08389E-22	 	12613.95365	26.41439	 
260.0	1.0	0.0	8.31871	7.09436	-8.2523	13.83066	14.94936	0.87376	1.14448	196.41375	177.29431	74.6616	0.31536	 	4.29561E22	 	6.05775E-23	 	12482.10908	26.36891	 
255.0	1.0	0.0	8.32054	7.0928	-8.27247	13.80971	14.87108	0.87012	1.14926	196.72823	177.42587	74.79015	0.3152	 	7.697539999999999E22	 	3.34882E-23	 	12350.49236	26.32334	 
250.0	1.0	0.0	8.32236	7.09125	-8.29257	13.78877	14.79279	0.86645	1.15414	197.04213	177.55668	74.91851	0.31504	 	1.3948299999999999E23	 	1.83059E-23	 	12219.104	26.27767	 
245.0	1.0	0.0	8.32418	7.0897	-8.31262	13.76784	14.7145	0.86273	1.15911	197.35545	177.68676	75.04669	0.31488	 	2.55667E23	 	9.89163E-24	 	12087.94452	26.2319	 
240.0	1.0	0.0	8.326	7.08815	-8.33261	13.74692	14.6362	0.85898	1.16417	197.6682	177.8161	75.17468	0.31473	 	4.7419199999999995E23	 	5.28173E-24	 	11957.01453	26.186	 
235.0	1.0	0.0	8.32781	7.08661	-8.35254	13.72602	14.55789	0.85518	1.16934	197.98038	177.9447	75.30248	0.31457	 	8.902559999999999E23	 	2.78589E-24	 	11826.31464	26.13998	 
230.0	1.0	0.0	8.32961	7.08508	-8.37242	13.70513	14.47957	0.85135	1.17461	198.29198	178.07256	75.43009	0.31441	 	1.69243E24	 	1.45102E-24	 	11695.84553	26.09382	 
225.0	1.0	0.0	8.33142	7.08354	-8.39224	13.68425	14.40125	0.84747	1.17998	198.60301	178.19969	75.55751	0.31425	 	3.25919E24	 	7.45997E-25	 	11565.60793	26.04752	 
220.0	1.0	0.0	8.33321	7.08202	-8.412	13.66338	14.32291	0.84356	1.18546	198.91346	178.32609	75.68475	0.31409	 	6.36031E24	 	3.78432E-25	 	11435.6026	26.00107	 
215.0	1.0	0.0	8.33501	7.08049	-8.4317	13.64252	14.24457	0.8396	1.19105	199.22334	178.45176	75.8118	0.31393	 	1.2583300000000001E25	 	1.89341E-25	 	11305.8304	25.95444	 
210.0	1.0	0.0	8.33679	7.07897	-8.45134	13.62168	14.16622	0.83559	1.19676	199.53264	178.5767	75.93866	0.31378	 	2.52491E25	 	9.33949E-26	 	11176.29221	25.90764	 
205.0	1.0	0.0	8.33858	7.07746	-8.47093	13.60084	14.08786	0.83154	1.20258	199.84137	178.70092	76.06534	0.31362	 	5.14068E25	 	4.53973E-26	 	11046.98898	25.86065	 
200.0	1.0	0.0	8.34036	7.07595	-8.49046	13.58002	14.00949	0.82745	1.20853	200.14953	178.82441	76.19182	0.31346	 	1.0624800000000002E26	 	2.17352E-26	 	10917.92174	25.81345	 
195.0	1.0	0.0	8.34213	7.07444	-8.50993	13.55922	13.93111	0.82331	1.2146	200.45711	178.94718	76.31812	0.3133	 	2.2302800000000002E26	 	1.0245E-26	 	10789.09157	25.76603	 
190.0	1.0	0.0	8.3439	7.07294	-8.52935	13.53842	13.85273	0.81913	1.22081	200.76412	179.06923	76.44423	0.31314	 	4.75717E26	 	4.75182E-27	 	10660.49962	25.71839	 
185.0	1.0	0.0	8.34567	7.07144	-8.54871	13.51764	13.77434	0.8149	1.22715	201.07055	179.19056	76.57015	0.31298	 	1.0316199999999999E27	 	2.16758E-27	 	10532.14712	25.6705	 
180.0	1.0	0.0	8.34743	7.06995	-8.56801	13.49686	13.69593	0.81062	1.23363	201.37641	179.31118	76.69589	0.31282	 	2.27566E27	 	9.71898E-28	 	10404.0354	25.62234	 
175.0	1.0	0.0	8.34919	7.06846	-8.58725	13.47611	13.61752	0.80629	1.24025	201.6817	179.43108	76.82143	0.31267	 	5.10933E27	 	4.28101E-28	 	10276.16583	25.57391	 
170.0	1.0	0.0	8.35094	7.06698	-8.60644	13.45536	13.5391	0.80191	1.24702	201.98641	179.55027	76.94679	0.31251	 	1.16828E28	 	1.85136E-28	 	10148.53992	25.52518	 
165.0	1.0	0.0	8.35269	7.0655	-8.62557	13.43462	13.46067	0.79748	1.25394	202.29055	179.66874	77.07196	0.31235	 	2.7222400000000003E28	 	7.85567E-29	 	10021.15923	25.47614	 
160.0	1.0	0.0	8.35443	7.06403	-8.64464	13.4139	13.38223	0.793	1.26103	202.59412	179.78651	77.19694	0.31219	 	6.46827E28	 	3.26842E-29	 	9894.02544	25.42676	 
155.0	1.0	0.0	8.35617	7.06256	-8.66366	13.39319	13.30378	0.78847	1.26827	202.89711	179.90358	77.32173	0.31203	 	1.5683000000000002E29	 	1.33246E-29	 	9767.14034	25.37702	 
150.0	1.0	0.0	8.35791	7.06109	-8.68262	13.37249	13.22533	0.78389	1.27569	203.19953	180.01993	77.44634	0.31187	 	3.8829200000000004E29	 	5.31891E-30	 	9640.5058	25.32691	 
145.0	1.0	0.0	8.35964	7.05963	-8.70152	13.3518	13.14686	0.77925	1.28329	203.50138	180.13559	77.57075	0.31171	 	9.82436E29	 	2.07737E-30	 	9514.12385	25.27639	 
140.0	1.0	0.0	8.36136	7.05817	-8.72037	13.33113	13.06839	0.77455	1.29106	203.80265	180.25054	77.69498	0.31156	 	2.54219E30	 	7.93206E-31	 	9387.99662	25.22545	 
135.0	1.0	0.0	8.36309	7.05672	-8.73916	13.31047	12.9899	0.7698	1.29903	204.10336	180.3648	77.81902	0.3114	 	6.73332E30	 	2.95854E-31	 	9262.12636	25.17405	 
130.0	1.0	0.0	8.3648	7.05527	-8.75789	13.28982	12.91141	0.765	1.3072	204.40349	180.47836	77.94287	0.31124	 	1.82702E31	 	1.07699E-31	 	9136.51549	25.12217	 
125.0	1.0	0.0	8.36652	7.05383	-8.77656	13.26918	12.8329	0.76013	1.31556	204.70305	180.59122	78.06653	0.31108	 	5.08328E31	 	3.82287E-32	 	9011.16657	25.06978	 
120.0	1.0	0.0	8.36822	7.05239	-8.79518	13.24855	12.75439	0.7552	1.32414	205.00204	180.70339	78.19001	0.31092	 	1.45161E32	 	1.32189E-32	 	8886.0823	25.01685	 
115.0	1.0	0.0	8.36993	7.05095	-8.81375	13.22794	12.67586	0.75022	1.33294	205.30045	180.81488	78.3133	0.31076	 	4.25888E32	 	4.44827E-33	 	8761.26555	24.96335	 
110.0	1.0	0.0	8.37163	7.04952	-8.83225	13.20734	12.59733	0.74517	1.34197	205.5983	180.92567	78.4364	0.31061	 	1.2851100000000001E33	 	1.45517E-33	 	8636.71942	24.90923	 
105.0	1.0	0.0	8.37332	7.04809	-8.8507	13.18675	12.51879	0.74006	1.35124	205.89558	181.03577	78.55931	0.31045	 	3.99273E33	 	4.62254E-34	 	8512.44712	24.85446	 
100.0	1.0	0.0	8.37501	7.04667	-8.86909	13.16617	12.44023	0.73489	1.36075	206.19229	181.1452	78.68204	0.31029	 	1.27877E34	 	1.42422E-34	 	8388.45212	24.799	 
95.0	1.0	0.0	8.3767	7.04525	-8.88743	13.1456	12.36167	0.72965	1.37052	206.48842	181.25394	78.80457	0.31013	 	4.22716E34	 	4.25072E-35	 	8264.73811	24.7428	 
90.0	1.0	0.0	8.37838	7.04384	-8.90571	13.12505	12.28309	0.72434	1.38056	206.78399	181.362	78.92692	0.30997	 	1.44412E35	 	1.22735E-35	 	8141.30898	24.68583	 
85.0	1.0	0.0	8.38005	7.04243	-8.92394	13.10451	12.20451	0.71897	1.39088	207.079	181.46938	79.04909	0.30981	 	5.105689999999999E35	 	3.42372E-36	 	8018.16888	24.62802	 
80.0	1.0	0.0	8.38173	7.04102	-8.9421	13.08398	12.12591	0.71353	1.40149	207.37343	181.57608	79.17106	0.30965	 	1.8708399999999997E36	 	9.2132E-37	 	7895.32225	24.56933	 
75.0	1.0	0.0	8.38339	7.03962	-8.96022	13.06346	12.04731	0.70802	1.4124	207.6673	181.68212	79.29285	0.3095	 	7.115679999999999E36	 	2.38801E-37	 	7772.77377	24.5097	 
70.0	1.0	0.0	8.38506	7.03823	-8.97827	13.04296	11.96869	0.70243	1.42363	207.9606	181.78748	79.41445	0.30934	 	2.81387E37	 	5.95204E-38	 	7650.52847	24.44906	 
65.0	1.0	0.0	8.38671	7.03684	-8.99627	13.02247	11.89006	0.69677	1.43519	208.25334	181.89218	79.53587	0.30918	 	1.1589099999999999E38	 	1.42412E-38	 	7528.59171	24.38735	 
60.0	1.0	0.0	8.38837	7.03545	-9.01422	13.00199	11.81143	0.69104	1.44709	208.54551	181.9962	79.6571	0.30902	 	4.98022E38	 	3.26496E-39	 	7406.96914	24.32451	 
55.0	1.0	0.0	8.39002	7.03407	-9.0321	12.98152	11.73278	0.68523	1.45936	208.83712	182.09957	79.77814	0.30886	 	2.2374000000000002E39	 	7.1584E-40	 	7285.66687	24.26045	 
50.0	1.0	0.0	8.39166	7.03269	-9.04994	12.96106	11.65412	0.67935	1.472	209.12817	182.20227	79.899	0.3087	 	1.053E40	 	1.49783E-40	 	7164.69137	24.1951	 
45.0	1.0	0.0	8.3933	7.03131	-9.06771	12.94062	11.57545	0.67338	1.48505	209.41865	182.30432	80.01967	0.30854	 	5.20306E40	 	2.98442E-41	 	7044.04956	24.12836	 
40.0	1.0	0.0	8.39494	7.02994	-9.08543	12.92019	11.49676	0.66733	1.4985	209.70858	182.4057	80.14016	0.30839	 	2.70549E41	 	5.64929E-42	 	6923.74885	24.06014	 
35.0	1.0	0.0	8.39657	7.02858	-9.1031	12.89976	11.41807	0.6612	1.51239	209.99794	182.50644	80.26046	0.30823	 	1.4841099999999998E42	 	1.0134E-42	 	6803.79715	23.99034	 
30.0	1.0	0.0	8.3982	7.02721	-9.12071	12.87936	11.33937	0.65499	1.52674	210.28675	182.60652	80.38058	0.30807	 	8.61137E42	 	1.71819E-43	 	6684.20293	23.91884	 
25.0	1.0	0.0	8.39982	7.02586	-9.13826	 	11.26065	0.64869	1.54157	210.57501	182.70596	80.50052	0.30791	 	5.30017E43	 	2.74557E-44	 	6564.97526	 	 
