T (C)	Fraction solid (wt)-TOTAL	Fraction liquid (wt)-LIQUID	Density (g/(cm)^3)-TOTAL	Molar volume (cm^3)-TOTAL	Volume change (%)-  	Average expansion coeff. (10e-6 1/K)-  	Thermal conductivity (W/(m*K))-TOTAL	Electrical resistivity (10e-6 Ohm*m)-TOTAL	Electrical conductivity (10e6 1/(Ohm*m))-TOTAL	Young's modulus (GPa)-TOTAL	Bulk modulus (GPa)-TOTAL	Shear modulus(GPa)-TOTAL	Poisson's ratio-TOTAL	Liquid viscosity (mPa s)-  	Total viscosity (mPa s)-  	Liquid diffusivity (10e-9 (m^2)/s)-  	Total diffusivity (10e-9 (m^2)/s)-  	Surface Tension (mN/m)-  	Enthalpy (J/mole)-TOTAL	Specific heat (J/(mole K))-TOTAL	Latent heat (J/mole)-TOTAL
1400.0	0.0	1.0	7.23821	7.79287	0.0	29.36374	28.82569	1.42207	0.7032	0.0	122.00376	0.0	0.5	7.27402	7.27402	1.12266	1.12266	1754.90556	48867.022	 	0.0
1395.0	0.0	1.0	7.24218	7.7886	-0.0548567	29.32127	28.75137	1.42149	0.70349	0.0	122.15521	0.0	0.5	7.35206	7.35206	1.10742	1.10742	1757.64054	48662.296	40.9452	0.0
1390.0	0.0	1.0	7.24615	7.78433	-0.10955	29.27892	28.67705	1.4209	0.70378	0.0	122.30667	0.0	0.5	7.43142	7.43142	1.09231	1.09231	1760.39642	48458.049	40.8494	0.0
1385.0	0.0	1.0	7.25011	7.78008	-0.16409	29.2367	28.60273	1.42031	0.70407	0.0	122.45812	0.0	0.5	7.51211	7.51211	1.07733	1.07733	1763.17319	48254.278	40.7542	0.0
1380.0	0.0	1.0	7.25406	7.77585	-0.21848	29.1946	28.5284	1.41971	0.70437	0.0	122.60957	0.0	0.5	7.59418	7.59418	1.06247	1.06247	1765.97079	48050.98	40.6596	0.0
1375.0	0.0	1.0	7.258	7.77162	-0.2727	29.15263	28.45408	1.41912	0.70466	0.0	122.76102	0.0	0.5	7.67766	7.67766	1.04774	1.04774	1768.78918	47848.153	40.5654	0.0
1370.0	0.0	1.0	7.26194	7.76741	-0.32676	29.11078	28.37976	1.41852	0.70496	0.0	122.91248	0.0	0.5	7.76256	7.76256	1.03314	1.03314	1771.62832	47645.794	40.4718	0.0
1365.0	0.0	1.0	7.26587	7.76321	-0.38067	29.06907	28.30544	1.41791	0.70526	0.0	123.06393	0.0	0.5	7.84894	7.84894	1.01866	1.01866	1774.48812	47443.9	40.3788	0.0
1360.0	0.0	1.0	7.26979	7.75902	-0.43442	29.02749	28.23112	1.41731	0.70556	0.0	123.21538	0.0	0.5	7.93681	7.93681	1.00431	1.00431	1777.36853	47242.468	40.2864	0.0
1355.0	0.0	1.0	7.27371	7.75484	-0.488	28.98604	28.15679	1.4167	0.70587	0.0	123.36684	0.0	0.5	8.02621	8.02621	0.99008	0.99008	1780.26946	47041.496	40.1944	0.0
1350.0	0.0	1.0	7.27761	7.75068	-0.54144	28.94472	28.08247	1.41609	0.70617	0.0	123.51829	0.0	0.5	8.11718	8.11718	0.97598	0.97598	1783.19082	46840.982	40.1028	0.0
1347.13	0.0	1.0	7.27985	7.7483	-0.57199	28.9211	28.03987	1.41573	0.70635	0.0	123.60511	0.0	0.5	8.17005	8.17005	0.96795	0.96795	1784.87469	46726.242	40.03112	0.0
1345.0	0.0466901	0.95331	7.29265	7.73475	-0.74577	28.47586	28.17422	1.40713	0.71067	4.33313E-4	123.78159	1.45032E-4	0.49386	8.20595	8.84648	0.96245	0.89276	1784.2976	45995.257	342.58552	645.664
1340.0	0.14547	0.85453	7.32007	7.70574	-1.11803	27.52621	28.45667	1.38885	0.72002	0.0416016	124.18293	0.0140476	0.48074	8.29105	22.04744	0.94962	0.35711	1783.02581	44435.294	311.9926	2006.019
1335.0	0.22965	0.77035	7.34394	7.68069	-1.43955	26.71407	28.69377	1.37311	0.72827	0.26275	124.57528	0.0894057	0.46945	8.37761	90.42533	0.9369	0.0868007	1781.89261	43082.828	270.4932	3159.327
1330.0	0.302	0.698	7.36488	7.65886	-1.71968	26.01421	28.89365	1.35937	0.73563	0.79748	124.96139	0.27318	0.45964	8.46578	263.43841	0.92426	0.0297017	1780.89789	41898.487	236.8682	4144.958
1325.0	0.36469	0.63531	7.38341	7.63965	-1.96621	25.40558	29.06285	1.34724	0.74226	1.71836	125.34241	0.5921	0.45107	8.55564	579.72455	0.9117	0.013455	1780.04099	40851.72	209.3534	4993.458
1322.49	0.39282	0.60718	7.39188	7.63092	-2.07819	25.13226	29.13676	1.34171	0.74532	2.32753	125.53286	0.80415	0.4472	8.60144	799.50896	0.90542	0.00974086	1779.66521	40372.965	 	5372.693
1320.0	0.43799	0.56201	7.40511	7.61729	-2.25316	24.6756	29.26624	1.33369	0.7498	3.63016	125.95596	1.25975	0.44082	8.68221	1269.94278	0.8956	0.00612293	1779.44268	39627.658	244.8124	6019.695
1315.0	0.51476	0.48524	7.42795	7.59389	-2.55341	23.90141	29.48245	1.31976	0.75772	7.05496	126.70409	2.46697	0.42988	8.84698	2575.40054	0.87616	0.00300977	1779.06252	38337.988	257.934	7111.98
1310.0	0.57573	0.42427	7.44655	7.57492	-2.79683	23.28651	29.64634	1.30833	0.76433	11.22328	127.35235	3.9488	0.4211	9.01536	4293.78669	0.85709	0.00179957	1778.80712	37281.517	211.2942	7971.504
1305.0	0.62505	0.37495	7.46203	7.55927	-2.99765	22.79114	29.76979	1.29879	0.76995	15.81909	127.93153	5.59406	0.41392	9.18749	6361.77415	0.83837	0.00121076	1778.67751	36396.021	177.0992	8660.487
1300.0	0.66558	0.33442	7.47514	7.54602	-3.16764	22.38228	29.86124	1.29071	0.77477	20.59781	128.45899	7.3148	0.40795	9.3635	8728.01589	0.82001	8.79714E-4	1778.6793	35638.827	151.4388	9221.599
1299.84	0.66672	0.33328	7.47552	7.54568	-3.17207	22.37206	29.86363	1.29048	0.77491	20.74596	128.47558	7.36828	0.40779	9.36912	8805.582	0.81944	8.71877E-4	1778.68021	35616.989	 	9237.282
1295.0	0.73888	0.26112	7.49202	7.52895	-3.38672	21.82572	30.07577	1.27743	0.78282	31.9354	129.43921	11.4301	0.39699	9.60797	14279.43926	0.7966	5.35998E-4	1781.1371	34390.915	249.5824	10273.86
1290.0	0.79394	0.20606	7.50488	7.51591	-3.55404	21.41771	30.22167	1.26721	0.78914	43.26538	130.244	15.57843	0.38863	9.86165	20482.5609	0.77364	3.7248E-4	1783.5118	33415.667	195.0496	11053.886
1285.0	0.83526	0.16474	7.51477	7.5057	-3.68502	21.11422	30.31365	1.25932	0.79408	53.68189	130.92115	19.4181	0.38226	10.12253	26971.58745	0.75129	2.81961E-4	1786.51748	32640.84239	154.96492	11631.467
1280.0	0.87154	0.12846	7.52543	7.49572	-3.81317	20.81673	30.34348	1.25405	0.79742	64.3023	131.50887	23.35605	0.37657	10.34247	34441.92325	0.73295	2.20096E-4	1789.51442	31910.44376	146.07973	12164.603
1275.0	0.9	0.1	7.53424	7.48734	-3.92068	20.57859	30.34023	1.25014	0.79991	73.76223	132.03035	26.88071	0.37203	10.55467	42159.92194	0.7159	1.79226E-4	1792.49222	31297.54258	122.58024	12580.722
1270.0	0.92166	0.0783388	7.54137	7.48045	-4.00905	20.39597	30.31816	1.24701	0.80192	81.72964	132.50176	29.86068	0.36852	10.76538	49869.21441	0.69963	1.5103E-4	1795.45081	30788.46303	101.81591	12893.496
1265.0	0.93844	0.0615579	7.54732	7.47459	-4.08426	20.25154	30.28398	1.24438	0.80362	88.42033	132.94035	32.37076	0.36574	10.97434	57608.11607	0.68408	1.30317E-4	1798.39314	30353.62942	86.96672	13132.498
1260.0	0.95163	0.0483716	7.55241	7.46946	-4.15012	20.13425	30.24134	1.24208	0.8051	94.04666	133.35697	34.48672	0.36352	11.18139	65435.05459	0.66923	1.14357E-4	1801.32046	29973.11801	76.10228	13317.649
1255.0	0.96212	0.0378774	7.5569	7.46485	-4.20922	20.03654	30.19251	1.24003	0.80643	98.79657	133.75854	36.27666	0.36171	11.38626	73416.65787	0.65505	1.01592E-4	1804.23382	29633.12708	67.99819	13462.747
1250.0	0.97057	0.0294319	7.56098	7.46065	-4.26313	19.95384	30.13839	1.23819	0.80763	102.831	134.14784	37.79961	0.36021	11.58878	81644.48916	0.64149	9.10547E-5	1807.13544	29323.09431	62.00655	13577.585
1245.0	0.97743	0.022567	7.56476	7.45674	-4.31329	19.88197	30.08058	1.2365	0.80873	106.28192	134.52968	39.10416	0.35896	11.78885	90184.17255	0.62854	8.2162E-5	1810.0245	29036.12499	57.39386	13669.253
1240.0	0.98306	0.0169359	7.56828	7.45303	-4.36087	19.81745	30.02044	1.2349	0.80978	109.25663	134.90738	40.23005	0.3579	11.98631	99091.39453	0.61615	7.45303E-5	1812.9057	28767.6208	53.70084	13742.976
1235.0	0.98772	0.0122763	7.57162	7.44948	-4.40644	19.75861	29.95848	1.23336	0.81079	111.84239	135.28189	41.20975	0.35699	12.18126	108440.0321	0.60428	6.788E-5	1815.77753	28513.6697	50.79022	13802.66
1230.0	0.99161	0.0083888	7.57482	7.44606	-4.45042	19.7042	29.89504	1.23188	0.81177	114.10857	135.65364	42.06917	0.3562	12.37357	118304.277	0.59292	6.20138E-5	1818.64174	28271.3097	48.472	13851.263
1225.0	0.99488	0.00512244	7.57791	7.44272	-4.49317	19.65314	29.83041	1.23045	0.81271	116.11346	136.02318	42.83015	0.35551	12.56348	128761.9059	0.58201	5.67877E-5	1821.49943	28038.27089	46.60776	13891.05
1220.0	0.99764	0.00235677	7.58093	7.43947	-4.53492	19.60483	29.76689	1.22896	0.8137	117.90159	136.39058	43.50938	0.3549	12.75101	139891.241	0.57154	5.20954E-5	1824.35214	27812.80143	45.09389	13923.767
1215.0	1.0	0.0	7.5839	7.43628	-4.57583	19.55871	29.69828	1.22767	0.81455	119.5112	136.75604	44.12124	0.35435	 	151776.3119	 	4.78552E-5	 	27593.53252	43.85378	13950.777
1210.0	1.0	0.0	7.58633	7.43389	-4.60648	19.54458	29.61964	1.22679	0.81513	119.9605	137.09201	44.29331	0.35416	 	163204.2528	 	4.43548E-5	 	27434.46523	31.81346	 
1205.0	1.0	0.0	7.58877	7.43151	-4.63709	19.53045	29.541	1.22591	0.81572	120.40888	137.42617	44.46507	0.35397	 	175576.2591	 	4.10903E-5	 	27252.41068	36.41091	 
1200.0	1.0	0.0	7.5912	7.42913	-4.66767	19.51632	29.46236	1.22503	0.81631	120.85636	137.75854	44.63655	0.35378	 	188977.1099	 	3.80474E-5	 	27070.72245	36.33765	 
1195.0	1.0	0.0	7.59363	7.42675	-4.6982	19.50219	29.38371	1.22414	0.8169	121.30294	138.08913	44.80774	0.35359	 	203499.8065	 	3.52122E-5	 	26889.39761	36.26497	 
1190.0	1.0	0.0	7.59607	7.42437	-4.7287	19.48806	29.30506	1.22324	0.8175	121.74861	138.41795	44.97865	0.3534	 	219246.4162	 	3.25719E-5	 	26708.43331	36.19286	 
1185.0	1.0	0.0	7.59849	7.422	-4.75916	19.47393	29.2264	1.22234	0.8181	122.19339	138.74501	45.14926	0.35322	 	236329.0122	 	3.01142E-5	 	26527.82674	36.12131	 
1180.0	1.0	0.0	7.60092	7.41963	-4.78958	19.45981	29.14774	1.22144	0.81871	122.63727	139.07033	45.31958	0.35303	 	254870.7527	 	2.78277E-5	 	26347.57516	36.05032	 
1175.0	1.0	0.0	7.60335	7.41726	-4.81996	19.44571	29.06907	1.22053	0.81932	123.08025	139.39392	45.48962	0.35284	 	275007.023	 	2.57014E-5	 	26167.67587	35.97986	 
1170.0	1.0	0.0	7.60577	7.41489	-4.85029	19.43161	28.9904	1.21962	0.81993	123.52235	139.71578	45.65938	0.35265	 	296886.7573	 	2.37251E-5	 	25988.12626	35.90992	 
1165.0	1.0	0.0	7.60819	7.41253	-4.88058	19.41753	28.91172	1.2187	0.82055	123.96356	140.03594	45.82885	0.35246	 	320673.8878	 	2.18891E-5	 	25808.92372	35.84051	 
1160.0	1.0	0.0	7.61061	7.41018	-4.91083	19.40347	28.83304	1.21778	0.82117	124.40389	140.3544	45.99803	0.35227	 	346548.9469	 	2.01843E-5	 	25630.06572	35.7716	 
1155.0	1.0	0.0	7.61303	7.40782	-4.94104	19.38942	28.75435	1.21685	0.8218	124.84333	140.67116	46.16693	0.35209	 	374710.8911	 	1.86022E-5	 	25451.5498	35.70319	 
1150.0	1.0	0.0	7.61545	7.40547	-4.9712	19.3754	28.67566	1.21592	0.82243	125.2819	140.98626	46.33555	0.3519	 	405379.0969	 	1.71347E-5	 	25273.37351	35.63526	 
1145.0	1.0	0.0	7.61786	7.40312	-5.00132	19.36141	28.59696	1.21498	0.82306	125.71958	141.29969	46.50389	0.35171	 	438795.6371	 	1.57742E-5	 	25095.53448	35.56781	 
1140.0	1.0	0.0	7.62028	7.40078	-5.03139	19.34744	28.51825	1.21404	0.8237	126.1564	141.61146	46.67194	0.35152	 	475227.7393	 	1.45135E-5	 	24918.03037	35.50082	 
1135.0	1.0	0.0	7.62269	7.39844	-5.06142	19.3335	28.43953	1.21309	0.82434	126.59234	141.92159	46.83972	0.35134	 	514970.634	 	1.33461E-5	 	24740.8589	35.43429	 
1130.0	1.0	0.0	7.62509	7.3961	-5.0914	19.31959	28.36081	1.21214	0.82499	127.02741	142.23009	47.00722	0.35115	 	558350.6669	 	1.22655E-5	 	24564.01782	35.36822	 
1125.0	1.0	0.0	7.6275	7.39377	-5.12133	19.30571	28.28208	1.21118	0.82564	127.46162	142.53696	47.17444	0.35096	 	605728.8367	 	1.12658E-5	 	24387.50496	35.30257	 
1120.0	1.0	0.0	7.6299	7.39144	-5.15122	19.29188	28.20335	1.21022	0.8263	127.89496	142.84223	47.34138	0.35077	 	657504.7067	 	1.03416E-5	 	24211.31815	35.23736	 
1115.0	1.0	0.0	7.6323	7.38912	-5.18106	19.27807	28.12461	1.20925	0.82696	128.32744	143.14589	47.50804	0.35059	 	714120.8285	 	9.48749E-6	 	24035.45528	35.17257	 
1110.0	1.0	0.0	7.6347	7.3868	-5.21084	19.26431	28.04586	1.20828	0.82762	128.75906	143.44795	47.67442	0.3504	 	776067.6549	 	8.69874E-6	 	23859.91432	35.10819	 
1105.0	1.0	0.0	7.6371	7.38448	-5.24058	19.25059	27.9671	1.2073	0.82829	129.18983	143.74844	47.84053	0.35021	 	843889.18	 	7.97072E-6	 	23684.69321	35.04422	 
1100.0	1.0	0.0	7.63949	7.38217	-5.27027	19.23692	27.88834	1.20632	0.82897	129.61974	144.04735	48.00637	0.35003	 	918189.1196	 	7.29915E-6	 	23509.79	34.98064	 
1095.0	1.0	0.0	7.64188	7.37986	-5.29991	19.22329	27.80956	1.20533	0.82965	130.0488	144.34471	48.17193	0.34984	 	999637.8413	 	6.68002E-6	 	23335.20273	34.91745	 
1090.0	1.0	0.0	7.64427	7.37755	-5.3295	19.20971	27.73078	1.20434	0.83033	130.47701	144.6405	48.33722	0.34965	 	1088980.465	 	6.10956E-6	 	23160.9295	34.85465	 
1085.0	1.0	0.0	7.64666	7.37525	-5.35904	19.19618	27.65199	1.20334	0.83102	130.90437	144.93476	48.50223	0.34947	 	1187045.567	 	5.58428E-6	 	22986.96846	34.79221	 
1080.0	1.0	0.0	7.64904	7.37295	-5.38853	19.18271	27.5732	1.20233	0.83172	131.33089	145.22748	48.66698	0.34928	 	1294755.281	 	5.10088E-6	 	22813.31776	34.73014	 
1075.0	1.0	0.0	7.65142	7.37066	-5.41797	19.16928	27.49439	1.20132	0.83241	131.75657	145.51867	48.83145	0.3491	 	1413136.472	 	4.6563E-6	 	22639.97562	34.66843	 
1070.0	1.0	0.0	7.6538	7.36837	-5.44735	19.15592	27.41558	1.20031	0.83312	132.18141	145.80836	48.99565	0.34891	 	1543333.687	 	4.24768E-6	 	22466.94028	34.60707	 
1065.0	1.0	0.0	7.65617	7.36608	-5.47668	19.14261	27.33675	1.19929	0.83383	132.6054	146.09653	49.15958	0.34872	 	1686623.323	 	3.87234E-6	 	22294.21002	34.54605	 
1060.0	1.0	0.0	7.65855	7.3638	-5.50596	19.12937	27.25792	1.19826	0.83454	133.02857	146.3832	49.32324	0.34854	 	1844429.968	 	3.5278E-6	 	22121.78315	34.48537	 
1055.0	1.0	0.0	7.66092	7.36152	-5.53519	19.11618	27.17908	1.19723	0.83526	133.4509	146.66839	49.48663	0.34835	 	2018344.837	 	3.21173E-6	 	21949.65802	34.42503	 
1050.0	1.0	0.0	7.66328	7.35925	-5.56437	19.10306	27.10023	1.1962	0.83598	133.87239	146.9521	49.64975	0.34817	 	2210146.492	 	2.92196E-6	 	21777.83299	34.36501	 
1045.0	1.0	0.0	7.66565	7.35698	-5.59349	19.09001	27.02137	1.19515	0.83671	134.29306	147.23433	49.81261	0.34798	 	2421824.49	 	2.65649E-6	 	21606.30647	34.3053	 
1040.0	1.0	0.0	7.66801	7.35471	-5.62255	19.07702	26.9425	1.19411	0.83745	134.7129	147.51511	49.9752	0.3478	 	2655606.015	 	2.41344E-6	 	21435.07691	34.24591	 
1035.19	1.0	0.0	7.67027	7.35254	-5.65044	19.06461	26.86669	1.19309	0.83816	135.11563	147.78358	50.13121	0.34762	 	2903439.222	 	2.19936E-6	 	21270.78814	 	 
1035.0	1.0	0.0	7.67045	7.35237	-5.65256	19.06044	26.8618	1.19313	0.83813	135.14975	147.80319	50.14455	0.3476	 	2915106.493	 	2.19023E-6	 	21259.94308	35.02677	 
1033.06	1.0	0.0	7.67216	7.35074	-5.67358	19.01915	26.79643	1.19427	0.83733	135.48766	147.99718	50.27666	0.34742	 	3034080.252	 	2.10123E-6	 	21152.27906	 	 
1031.45	1.0	0.0	7.67636	7.34671	-5.72522	18.85792	26.73206	1.19567	0.83635	136.12229	148.27675	50.52813	0.347	 	3156532.427	 	2.01722E-6	 	20947.05731	 	 
1030.0	1.0	0.0	7.67762	7.3455	-5.74074	18.82737	26.68531	1.19643	0.83582	136.37021	148.41879	50.62511	0.34686	 	3252958.092	 	1.95525E-6	 	20867.17837	78.55294	 
1025.0	1.0	0.0	7.68194	7.34137	-5.79377	18.72333	26.5268	1.19896	0.83405	137.21258	148.90004	50.95478	0.34642	 	3610932.36	 	1.75466E-6	 	20593.9428	54.64712	 
1020.0	1.0	0.0	7.6862	7.33731	-5.84593	18.62152	26.37272	1.20132	0.83242	138.03401	149.36729	51.27643	0.34598	 	4011139.077	 	1.5735E-6	 	20324.78332	53.8319	 
1015.0	1.0	0.0	7.69039	7.33331	-5.89725	18.52184	26.2228	1.20352	0.8309	138.83558	149.82136	51.59048	0.34555	 	4458897.096	 	1.41002E-6	 	20059.53227	53.05021	 
1010.0	1.0	0.0	7.69452	7.32937	-5.94776	18.42422	26.07681	1.20556	0.82949	139.61828	150.263	51.8973	0.34514	 	4960238.073	 	1.26259E-6	 	19798.02979	52.3005	 
1005.0	1.0	0.0	7.69859	7.32549	-5.9975	18.32856	25.93453	1.20745	0.82819	140.38307	150.69291	52.19726	0.34474	 	5522008.08	 	1.12972E-6	 	19540.12337	51.58128	 
1000.0	1.0	0.0	7.70261	7.32168	-6.04649	18.23478	25.79577	1.2092	0.82699	141.13084	151.11173	52.49069	0.34434	 	6151984.565	 	1.01007E-6	 	19285.66749	50.89118	 
995.0	1.0	0.0	7.70657	7.31791	-6.09476	18.14279	25.66033	1.21081	0.8259	141.8624	151.52004	52.7779	0.34396	 	6859010.756	 	9.02393E-7	 	19034.52327	50.22884	 
990.0	1.0	0.0	7.71047	7.31421	-6.14234	18.05253	25.52803	1.21228	0.82489	142.57856	151.91839	53.0592	0.34358	 	7653150.621	 	8.05566E-7	 	18786.55808	49.59304	 
985.0	1.0	0.0	7.71433	7.31055	-6.18926	17.96391	25.39871	1.21363	0.82397	143.28003	152.3073	53.33487	0.34321	 	8545867.724	 	7.1856E-7	 	18541.64526	48.98256	 
980.0	1.0	0.0	7.71814	7.30694	-6.23554	17.87687	25.27221	1.21486	0.82314	143.96752	152.68723	53.60516	0.34285	 	9550232.363	 	6.40436E-7	 	18299.66386	48.39628	 
975.0	1.0	0.0	7.7219	7.30339	-6.2812	17.79133	25.14838	1.21597	0.82239	144.64167	153.05862	53.87032	0.3425	 	1.068116059E7	 	5.70342E-7	 	18060.49832	47.83311	 
970.0	1.0	0.0	7.72561	7.29987	-6.32627	17.70723	25.02707	1.21697	0.82171	145.3031	153.42189	54.1306	0.34215	 	1.195569011E7	 	5.07499E-7	 	17824.03824	47.29202	 
965.0	1.0	0.0	7.72928	7.29641	-6.37077	17.62451	24.90817	1.21786	0.82111	145.95239	153.77741	54.38621	0.34181	 	1.339330203E7	 	4.51203E-7	 	17590.17814	46.77202	 
960.0	1.0	0.0	7.73291	7.29298	-6.41472	17.5431	24.79154	1.21865	0.82058	146.59009	154.12554	54.63737	0.34148	 	1.501629179E7	 	4.00811E-7	 	17358.81721	46.27218	 
955.0	1.0	0.0	7.7365	7.2896	-6.45814	17.46295	24.67706	1.21934	0.82012	147.21672	154.46662	54.88427	0.34116	 	1.685020113E7	 	3.5574E-7	 	17129.85914	45.79162	 
950.0	1.0	0.0	7.74005	7.28625	-6.50104	17.38399	24.56462	1.21993	0.81972	147.83277	154.80095	55.1271	0.34084	 	1.892432125E7	 	3.15461E-7	 	16903.21188	45.32945	 
945.0	1.0	0.0	7.74357	7.28295	-6.54346	17.30618	24.45412	1.22044	0.81938	148.4387	155.12885	55.36604	0.34052	 	2.127227322E7	 	2.79495E-7	 	16678.78743	44.88489	 
940.0	1.0	0.0	7.74704	7.27968	-6.5854	17.22945	24.34546	1.22085	0.8191	149.03495	155.45057	55.60126	0.34021	 	2.39326924E7	 	2.47406E-7	 	16456.50169	44.45715	 
935.0	1.0	0.0	7.75049	7.27645	-6.62688	17.15376	24.23854	1.22118	0.81888	149.62193	155.76638	55.83292	0.33991	 	2.695001872E7	 	2.18801E-7	 	16236.27429	44.04548	 
930.0	1.0	0.0	7.75389	7.27325	-6.66793	17.07905	24.13329	1.22143	0.81871	150.20005	156.07652	56.06117	0.33961	 	3.037542332E7	 	1.93323E-7	 	16018.02835	43.64919	 
925.0	1.0	0.0	7.75727	7.27008	-6.70854	17.00528	24.0296	1.2216	0.8186	150.76966	156.38123	56.28615	0.33931	 	3.426789085E7	 	1.70652E-7	 	15801.69039	43.26759	 
920.0	1.0	0.0	7.76061	7.26695	-6.74875	16.9324	23.92741	1.2217	0.81853	151.33112	156.68071	56.508	0.33902	 	3.869548443E7	 	1.50495E-7	 	15587.19015	42.90005	 
915.0	1.0	0.0	7.76393	7.26385	-6.78856	16.86036	23.82665	1.22173	0.81851	151.88478	156.97518	56.72685	0.33874	 	4.373682891E7	 	1.3259E-7	 	15374.46043	42.54595	 
910.0	1.0	0.0	7.76721	7.26077	-6.82799	16.78913	23.72723	1.22168	0.81854	152.43094	157.26483	56.94282	0.33846	 	4.948285362E7	 	1.167E-7	 	15163.43696	42.20469	 
905.0	1.0	0.0	7.77047	7.25773	-6.86704	16.71866	23.62911	1.22157	0.81862	152.9699	157.54983	57.15602	0.33818	 	5.603882896E7	 	1.02612E-7	 	14954.05826	41.87574	 
900.0	1.0	0.0	7.7737	7.25472	-6.90574	16.6489	23.53221	1.2214	0.81873	153.50196	157.83037	57.36658	0.3379	 	6.35267674E7	 	9.01329E-8	 	14746.2655	41.55855	 
895.0	1.0	0.0	7.77691	7.25173	-6.9441	16.57983	23.43648	1.22116	0.81889	154.02737	158.1066	57.57458	0.33763	 	7.208825361E7	 	7.90899E-8	 	14540.00239	41.25262	 
890.0	1.0	0.0	7.78009	7.24876	-6.98212	16.51139	23.34186	1.22086	0.81909	154.54641	158.37868	57.78014	0.33737	 	8.188776632E7	 	6.93272E-8	 	14335.21509	40.95746	 
885.0	1.0	0.0	7.78324	7.24583	-7.01982	16.44356	23.2483	1.22051	0.81933	155.05932	158.64676	57.98335	0.3371	 	9.311661111E7	 	6.0705E-8	 	14131.85202	40.67261	 
880.0	1.0	0.0	7.78637	7.24291	-7.05721	16.3763	23.15575	1.22009	0.81961	155.56632	158.91098	58.18429	0.33684	 	1.059975573E8	 	5.30978E-8	 	13929.86376	40.39765	 
875.0	1.0	0.0	7.78948	7.24002	-7.0943	16.30957	23.06417	1.21963	0.81992	156.06764	159.17146	58.38306	0.33658	 	1.207903339E8	 	4.63931E-8	 	13729.20273	40.13221	 
870.0	1.0	0.0	7.79257	7.23715	-7.1311	16.24334	22.97351	1.21911	0.82027	156.56349	159.42834	58.57973	0.33633	 	1.377981121E8	 	4.04899E-8	 	13529.82417	39.87571	 
865.0	1.0	0.0	7.79563	7.23431	-7.16761	16.17757	22.88374	1.21854	0.82066	157.05407	159.68173	58.77438	0.33608	 	1.573752243E8	 	3.5298E-8	 	13331.68473	39.62789	 
860.0	1.0	0.0	7.79868	7.23148	-7.20386	16.11224	22.79481	1.21792	0.82107	157.53957	159.93176	58.96709	0.33583	 	1.799363172E8	 	3.07366E-8	 	13134.74293	39.38836	 
855.0	1.0	0.0	7.8017	7.22868	-7.23983	16.04731	22.70668	1.21725	0.82152	158.02018	160.17852	59.15793	0.33558	 	2.059672244E8	 	2.67335E-8	 	12938.95897	39.15679	 
850.0	1.0	0.0	7.80471	7.2259	-7.27556	15.98276	22.61933	1.21653	0.82201	158.49606	160.42213	59.34696	0.33533	 	2.360379236E8	 	2.32243E-8	 	12744.29474	38.93285	 
845.0	1.0	0.0	7.80693	7.22384	-7.30194	15.95998	22.5491	1.21489	0.82312	158.86786	160.64566	59.49315	0.33518	 	2.684015445E8	 	2.0333E-8	 	12587.05837	31.44727	 
840.0	1.0	0.0	7.80914	7.22179	-7.32826	15.93719	22.47885	1.21324	0.82424	159.23903	160.8682	59.63914	0.33502	 	3.055551056E8	 	1.77808E-8	 	12426.85177	32.04132	 
835.0	1.0	0.0	7.81136	7.21974	-7.35452	15.91441	22.4086	1.21157	0.82537	159.60959	161.08976	59.78493	0.33486	 	3.482588599E8	 	1.55304E-8	 	12266.88562	31.99323	 
830.0	1.0	0.0	7.81357	7.2177	-7.38073	15.89161	22.33832	1.2099	0.82651	159.97954	161.31034	59.93052	0.33471	 	3.974017788E8	 	1.35485E-8	 	12107.15926	31.94527	 
825.0	1.0	0.0	7.81577	7.21566	-7.40687	15.86882	22.26804	1.20822	0.82766	160.34886	161.52994	60.07592	0.33455	 	4.540246974E8	 	1.18051E-8	 	11947.67204	31.89744	 
820.0	1.0	0.0	7.81798	7.21363	-7.43295	15.84601	22.19774	1.20653	0.82883	160.71758	161.74856	60.22111	0.3344	 	5.193478646E8	 	1.02733E-8	 	11788.42329	31.84975	 
815.0	1.0	0.0	7.82017	7.2116	-7.45897	15.82321	22.12743	1.20482	0.83	161.08568	161.96621	60.36611	0.33424	 	5.948037795E8	 	8.92898E-9	 	11629.4123	31.8022	 
810.0	1.0	0.0	7.82237	7.20958	-7.48493	15.8004	22.05711	1.20311	0.83118	161.45316	162.18289	60.5109	0.33408	 	6.82076387E8	 	7.75072E-9	 	11470.63838	31.75479	 
805.0	1.0	0.0	7.82456	7.20756	-7.51083	15.77759	21.98677	1.20139	0.83237	161.82003	162.39861	60.6555	0.33393	 	7.831479292E8	 	6.71927E-9	 	11312.10078	31.70752	 
800.0	1.0	0.0	7.82675	7.20555	-7.53668	15.75477	21.91642	1.19966	0.83357	162.18629	162.61337	60.7999	0.33377	 	9.003550302E8	 	5.81746E-9	 	11153.79878	31.6604	 
795.0	1.0	0.0	7.82893	7.20354	-7.56246	15.73195	21.84605	1.19791	0.83478	162.55194	162.82717	60.9441	0.33362	 	1.036455933E9	 	5.03E-9	 	10995.73161	31.61343	 
790.0	1.0	0.0	7.83111	7.20153	-7.58818	15.70912	21.77567	1.19616	0.83601	162.91697	163.04001	61.0881	0.33346	 	1.194711224E9	 	4.34328E-9	 	10837.89848	31.56663	 
785.0	1.0	0.0	7.83328	7.19953	-7.61384	15.68629	21.70528	1.1944	0.83724	163.28139	163.2519	61.2319	0.3333	 	1.378980908E9	 	3.74521E-9	 	10680.29861	31.51997	 
780.0	1.0	0.0	7.83545	7.19754	-7.63944	15.66346	21.63487	1.19262	0.83849	163.64519	163.46284	61.3755	0.33315	 	1.593841304E9	 	3.22502E-9	 	10522.93114	31.47349	 
775.0	1.0	0.0	7.83762	7.19555	-7.66498	15.64062	21.56444	1.19083	0.83975	164.00838	163.67284	61.51891	0.33299	 	1.844726049E9	 	2.77318E-9	 	10365.79523	31.42718	 
770.0	1.0	0.0	7.83979	7.19356	-7.69046	15.61778	21.494	1.18904	0.84102	164.37097	163.8819	61.66211	0.33284	 	2.138096438E9	 	2.38126E-9	 	10208.88999	31.38105	 
765.0	1.0	0.0	7.84194	7.19158	-7.71588	15.59493	21.42355	1.18723	0.8423	164.73293	164.09001	61.80512	0.33268	 	2.481647539E9	 	2.04177E-9	 	10052.21454	31.33509	 
760.0	1.0	0.0	7.8441	7.18961	-7.74124	15.57208	21.35307	1.18541	0.84359	165.09429	164.29719	61.94793	0.33252	 	2.884557988E9	 	1.74812E-9	 	9895.76792	31.28932	 
755.0	1.0	0.0	7.84625	7.18763	-7.76654	15.54923	21.28259	1.18358	0.84489	165.45504	164.50343	62.09054	0.33237	 	3.35779324E9	 	1.49448E-9	 	9739.54915	31.24375	 
750.0	1.0	0.0	7.8484	7.18567	-7.79177	15.52637	21.21208	1.18174	0.84621	165.81518	164.70875	62.23295	0.33221	 	3.9144743E9	 	1.27571E-9	 	9583.55724	31.19838	 
745.0	1.0	0.0	7.85054	7.18371	-7.81695	15.50351	21.14156	1.17989	0.84754	166.1747	164.91314	62.37516	0.33206	 	4.570326857E9	 	1.0873E-9	 	9427.79114	31.15322	 
740.0	1.0	0.0	7.85268	7.18175	-7.84207	15.48064	21.07102	1.17802	0.84888	166.53362	165.1166	62.51717	0.3319	 	5.344229277E9	 	9.25285E-10	 	9272.24978	31.10827	 
735.0	1.0	0.0	7.85482	7.1798	-7.86713	15.45777	21.00047	1.17615	0.85023	166.89192	165.31915	62.65898	0.33175	 	6.258882365E9	 	7.86167E-10	 	9116.93203	31.06355	 
730.0	1.0	0.0	7.85695	7.17785	-7.89212	15.4349	20.9299	1.17426	0.8516	167.24962	165.52077	62.8006	0.33159	 	7.341629417E9	 	6.66899E-10	 	8961.83672	31.01906	 
725.0	1.0	0.0	7.85908	7.1759	-7.91706	15.41202	20.85931	1.17236	0.85298	167.6067	165.72148	62.94202	0.33144	 	8.625462069E9	 	5.64807E-10	 	8806.96263	30.97482	 
720.0	1.0	0.0	7.8612	7.17397	-7.94194	15.38914	20.7887	1.17045	0.85437	167.96318	165.92128	63.08323	0.33128	 	1.01503E10	 	4.77556E-10	 	8652.30851	30.93082	 
715.0	1.0	0.0	7.86332	7.17203	-7.96675	15.36625	20.71807	1.16853	0.85578	168.31905	166.12017	63.22425	0.33113	 	1.1964299999999998E10	 	4.03109E-10	 	8497.87304	30.88709	 
710.0	1.0	0.0	7.86544	7.1701	-7.99151	15.34336	20.64743	1.16659	0.8572	168.67431	166.31816	63.36507	0.33097	 	1.4126099999999998E10	 	3.3969E-10	 	8343.65483	30.84364	 
705.0	1.0	0.0	7.86755	7.16818	-8.0162	15.32047	20.57677	1.16465	0.85863	169.02896	166.51524	63.5057	0.33082	 	1.6706999999999998E10	 	2.85756E-10	 	8189.65245	30.80048	 
700.0	1.0	0.0	7.86966	7.16626	-8.04084	15.29757	20.50608	1.16269	0.86008	169.383	166.71142	63.64612	0.33066	 	1.97934E10	 	2.39964E-10	 	8035.86439	30.75761	 
695.0	1.0	0.0	7.87176	7.16434	-8.06541	15.27467	20.43538	1.16072	0.86154	169.73644	166.9067	63.78634	0.33051	 	2.3491099999999996E10	 	2.01153E-10	 	7882.28908	30.71506	 
690.0	1.0	0.0	7.87386	7.16243	-8.08992	15.25176	20.36466	1.15873	0.86301	170.08926	167.10109	63.92637	0.33035	 	2.7929199999999996E10	 	1.68315E-10	 	7728.92486	30.67284	 
685.0	1.0	0.0	7.87595	7.16053	-8.11437	15.22885	20.29392	1.15673	0.8645	170.44148	167.29459	64.06619	0.3302	 	3.3265799999999996E10	 	1.40579E-10	 	7575.76999	30.63097	 
680.0	1.0	0.0	7.87805	7.15863	-8.13877	15.20593	20.22316	1.15472	0.86601	170.79309	167.4872	64.20582	0.33004	 	3.96949E10	 	1.17196E-10	 	7422.82268	30.58946	 
675.0	1.0	0.0	7.88013	7.15673	-8.1631	15.18302	20.15237	1.1527	0.86753	171.1441	167.67892	64.34525	0.32989	 	4.745489999999999E10	 	9.75175E-11	 	7270.08099	30.54834	 
670.0	1.0	0.0	7.88222	7.15484	-8.18737	15.16009	20.08157	1.15067	0.86906	171.4945	167.86976	64.48448	0.32973	 	5.683939999999999E10	 	8.09876E-11	 	7117.54292	30.50761	 
665.0	1.0	0.0	7.88429	7.15295	-8.21158	15.13717	20.01075	1.14862	0.87061	171.84429	168.05973	64.62352	0.32958	 	6.821069999999999E10	 	6.71284E-11	 	6965.20635	30.46731	 
660.0	1.0	0.0	7.88637	7.15107	-8.23573	15.11424	19.9399	1.14655	0.87218	172.19347	168.24881	64.76235	0.32943	 	8.20172E10	 	5.55307E-11	 	6813.07432	30.42641	 
655.0	1.0	0.0	7.88844	7.14919	-8.25981	15.0913	19.86903	1.14448	0.87376	172.54205	168.43702	64.90099	0.32927	 	9.881419999999998E10	 	4.58443E-11	 	6661.17595	30.37967	 
650.0	1.0	0.0	7.89051	7.14732	-8.28384	15.06836	19.79814	1.14239	0.87536	172.89003	168.62436	65.03942	0.32912	 	1.19292E11	 	3.77701E-11	 	6509.54998	30.32519	 
645.0	1.0	0.0	7.89257	7.14545	-8.30781	15.04542	19.72722	1.14029	0.87697	173.23739	168.81083	65.17766	0.32896	 	1.44309E11	 	3.10533E-11	 	6358.19552	30.27089	 
640.0	1.0	0.0	7.89463	7.14359	-8.33171	15.02247	19.65628	1.13817	0.8786	173.58416	168.99643	65.3157	0.32881	 	1.74936E11	 	2.5477E-11	 	6207.11174	30.21675	 
635.0	1.0	0.0	7.89668	7.14173	-8.35556	14.99952	19.58532	1.13604	0.88025	173.93031	169.18117	65.45354	0.32865	 	2.12514E11	 	2.08572E-11	 	6056.29781	30.16279	 
630.0	1.0	0.0	7.89873	7.13988	-8.37934	14.97656	19.51433	1.13389	0.88192	174.27587	169.36505	65.59118	0.3285	 	2.58721E11	 	1.70378E-11	 	5905.75285	30.10899	 
625.0	1.0	0.0	7.90078	7.13803	-8.40307	14.9536	19.44332	1.13173	0.8836	174.62081	169.54807	65.72862	0.32835	 	3.15665E11	 	1.3887E-11	 	5755.4758	30.05541	 
620.0	1.0	0.0	7.90282	7.13619	-8.42673	14.93064	19.37229	1.12956	0.8853	174.96516	169.73024	65.86587	0.32819	 	3.86002E11	 	1.12933E-11	 	5605.4652	30.00212	 
615.0	1.0	0.0	7.90486	7.13435	-8.45033	14.90767	19.30123	1.12737	0.88702	175.3089	169.91155	66.00291	0.32804	 	4.7308E11	 	9.16301E-12	 	5455.72054	29.94893	 
610.0	1.0	0.0	7.90689	7.13251	-8.47388	14.8847	19.23014	1.12517	0.88875	175.65203	170.09201	66.13976	0.32789	 	5.81141E11	 	7.4172E-12	 	5306.24097	29.89591	 
605.0	1.0	0.0	7.90892	7.13068	-8.49736	14.86173	19.15902	1.12295	0.89051	175.99456	170.27163	66.27641	0.32773	 	7.15558E11	 	5.98978E-12	 	5157.02568	29.84306	 
600.0	1.0	0.0	7.91094	7.12886	-8.52078	14.83875	19.08788	1.12072	0.89228	176.33649	170.4504	66.41286	0.32758	 	8.83168E11	 	4.82539E-12	 	5008.07386	29.79037	 
595.0	1.0	0.0	7.91296	7.12704	-8.54414	14.81576	19.01671	1.11847	0.89408	176.67781	170.62833	66.54911	0.32742	 	1.09268E12	 	3.87781E-12	 	4859.38467	29.73784	 
590.0	1.0	0.0	7.91498	7.12522	-8.56743	14.79278	18.94552	1.11621	0.89589	177.01853	170.80543	66.68516	0.32727	 	1.35524E12	 	3.10853E-12	 	4710.9573	29.68547	 
585.0	1.0	0.0	7.91699	7.12341	-8.59067	14.76978	18.87429	1.11393	0.89772	177.35865	170.98168	66.82102	0.32712	 	1.68512E12	 	2.48554E-12	 	4562.79094	29.63327	 
580.0	1.0	0.0	7.919	7.1216	-8.61385	14.74679	18.80304	1.11164	0.89957	177.69816	171.1571	66.95667	0.32696	 	2.10064E12	 	1.98226E-12	 	4414.88476	29.58124	 
575.0	1.0	0.0	7.921	7.1198	-8.63696	14.72379	18.73176	1.10933	0.90145	178.03708	171.33169	67.09213	0.32681	 	2.62543E12	 	1.57673E-12	 	4267.23797	29.52936	 
570.0	1.0	0.0	7.923	7.11801	-8.66002	14.70078	18.66045	1.107	0.90334	178.37539	171.50545	67.22738	0.32666	 	3.29003E12	 	1.25081E-12	 	4119.84976	29.47764	 
565.0	1.0	0.0	7.925	7.11622	-8.68301	14.67778	18.5891	1.10466	0.90525	178.71309	171.67839	67.36244	0.3265	 	4.13397E12	 	9.89558E-13	 	3972.71932	29.42609	 
560.0	1.0	0.0	7.92699	7.11443	-8.70594	14.65476	18.51773	1.1023	0.90719	179.0502	171.8505	67.4973	0.32635	 	5.20865E12	 	7.80701E-13	 	3825.84585	29.37469	 
555.0	1.0	0.0	7.92898	7.11265	-8.72881	14.63175	18.44632	1.09993	0.90915	179.3867	172.02179	67.63196	0.3262	 	6.58105E12	 	6.14187E-13	 	3679.22856	29.32346	 
550.0	1.0	0.0	7.93096	7.11087	-8.75162	14.60873	18.37489	1.09754	0.91113	179.7226	172.19226	67.76642	0.32604	 	8.33871E12	 	4.818E-13	 	3532.86665	29.27238	 
545.0	1.0	0.0	7.93294	7.1091	-8.77437	14.5857	18.30341	1.09513	0.91313	180.0579	172.36191	67.90069	0.32589	 	1.05964E13	 	3.76843E-13	 	3386.75934	29.22146	 
540.0	1.0	0.0	7.93491	7.10733	-8.79706	14.56267	18.23191	1.09271	0.91516	180.3926	172.53075	68.03475	0.32574	 	1.35051E13	 	2.93872E-13	 	3240.90582	29.1707	 
535.0	1.0	0.0	7.93688	7.10556	-8.81969	14.53964	18.16037	1.09027	0.91721	180.7267	172.69878	68.16862	0.32559	 	1.72641E13	 	2.28474E-13	 	3095.30532	29.1201	 
530.0	1.0	0.0	7.93884	7.10381	-8.84226	14.51661	18.0888	1.08781	0.91928	181.0602	172.866	68.30228	0.32543	 	2.21368E13	 	1.7708E-13	 	2949.95707	29.06965	 
525.0	1.0	0.0	7.9408	7.10205	-8.86476	14.49356	18.01719	1.08533	0.92138	181.3931	173.03242	68.43575	0.32528	 	2.84733E13	 	1.36815E-13	 	2804.86027	29.01936	 
520.0	1.0	0.0	7.94276	7.1003	-8.8872	14.47052	17.94555	1.08284	0.9235	181.72539	173.19803	68.56902	0.32513	 	3.67401E13	 	1.05366E-13	 	2660.01417	28.96922	 
515.0	1.0	0.0	7.94471	7.09856	-8.90959	14.44747	17.87387	1.08033	0.92564	182.05709	173.36284	68.70209	0.32497	 	4.75606E13	 	8.08813E-14	 	2515.41798	28.91924	 
510.0	1.0	0.0	7.94666	7.09682	-8.93191	14.42442	17.80215	1.0778	0.92781	182.38818	173.52685	68.83496	0.32482	 	6.17712E13	 	6.18793E-14	 	2371.07095	28.86941	 
505.0	1.0	0.0	7.9486	7.09508	-8.95417	14.40136	17.73039	1.07525	0.93001	182.71868	173.69007	68.96763	0.32467	 	8.04978E13	 	4.71809E-14	 	2226.97231	28.81973	 
500.0	1.0	0.0	7.95054	7.09335	-8.97637	14.3783	17.65859	1.07269	0.93224	183.04857	173.85249	69.1001	0.32452	 	1.05261E14	 	3.58494E-14	 	2083.12131	28.7702	 
495.0	1.0	0.0	7.95247	7.09163	-8.99851	14.35524	17.58676	1.0701	0.93449	183.37787	174.01412	69.23238	0.32436	 	1.3812399999999998E14	 	2.71433E-14	 	1939.51721	28.72082	 
490.0	1.0	0.0	7.9544	7.08991	-9.02058	14.33217	17.51488	1.0675	0.93677	183.70657	174.17496	69.36445	0.32421	 	1.81894E14	 	2.04776E-14	 	1796.15924	28.67159	 
485.0	1.0	0.0	7.95633	7.08819	-9.0426	14.30909	17.44296	1.06488	0.93907	184.03466	174.33501	69.49633	0.32406	 	2.40404E14	 	1.53922E-14	 	1653.04666	28.62252	 
480.0	1.0	0.0	7.95825	7.08648	-9.06455	14.28602	17.37101	1.06224	0.94141	184.36216	174.49428	69.628	0.32391	 	3.18915E14	 	1.15264E-14	 	1510.17875	28.57358	 
475.0	1.0	0.0	7.96017	7.08478	-9.08645	14.26294	17.299	1.05958	0.94377	184.68906	174.65276	69.75948	0.32376	 	4.24667E14	 	8.59858E-15	 	1367.55476	28.5248	 
470.0	1.0	0.0	7.96208	7.08307	-9.10828	14.23985	17.22696	1.0569	0.94616	185.01536	174.81047	69.89076	0.3236	 	5.67669E14	 	6.38951E-15	 	1225.17396	28.47616	 
465.0	1.0	0.0	7.96399	7.08138	-9.13005	14.21676	17.15486	1.0542	0.94859	185.34106	174.9674	70.02184	0.32345	 	7.61816E14	 	4.72913E-15	 	1083.03565	28.42766	 
460.0	1.0	0.0	7.96589	7.07969	-9.15176	14.19367	17.08273	1.05148	0.95104	185.66616	175.12355	70.15272	0.3233	 	1.02647E15	 	3.48604E-15	 	941.13909	28.37931	 
455.0	1.0	0.0	7.96779	7.078	-9.17341	14.17057	17.01054	1.04874	0.95352	185.99067	175.27893	70.2834	0.32315	 	1.38874E15	 	2.55909E-15	 	799.48358	28.3311	 
450.0	1.0	0.0	7.96968	7.07632	-9.19499	14.14747	16.93831	1.04598	0.95604	186.31458	175.43354	70.41388	0.323	 	1.88674E15	 	1.87069E-15	 	658.06841	28.28303	 
445.0	1.0	0.0	7.97157	7.07464	-9.21652	14.12436	16.86603	1.0432	0.95859	186.63789	175.58738	70.54416	0.32284	 	2.57429E15	 	1.36159E-15	 	516.89289	28.2351	 
440.0	1.0	0.0	7.97346	7.07297	-9.23798	14.10125	16.7937	1.0404	0.96117	186.9606	175.74046	70.67425	0.32269	 	3.52771E15	 	9.86676E-16	 	375.95632	28.18731	 
435.0	1.0	0.0	7.97534	7.0713	-9.25938	14.07814	16.72132	1.03758	0.96378	187.28271	175.89277	70.80413	0.32254	 	4.85581E15	 	7.11787E-16	 	235.25801	28.13966	 
430.0	1.0	0.0	7.97721	7.06964	-9.28073	14.05502	16.64888	1.03473	0.96643	187.60423	176.04432	70.93382	0.32239	 	6.71435E15	 	5.11129E-16	 	94.79729	28.09214	 
425.0	1.0	0.0	7.97908	7.06798	-9.30201	14.0319	16.5764	1.03187	0.96912	187.92514	176.19511	71.0633	0.32224	 	9.32743E15	 	3.6532E-16	 	-45.42645	28.04475	 
420.0	1.0	0.0	7.98095	7.06632	-9.32322	14.00878	16.50386	1.02898	0.97183	188.24547	176.34514	71.19259	0.32209	 	1.30191E16	 	2.59857E-16	 	-185.41398	27.99751	 
415.0	1.0	0.0	7.98281	7.06468	-9.34438	13.98565	16.43126	1.02607	0.97459	188.56519	176.49442	71.32167	0.32193	 	1.826E16	 	1.83937E-16	 	-325.16565	27.95033	 
410.0	1.0	0.0	7.98467	7.06303	-9.36548	13.96251	16.35861	1.02314	0.97738	188.88432	176.64295	71.45056	0.32178	 	2.5738E16	 	1.29547E-16	 	-464.68168	27.90321	 
405.0	1.0	0.0	7.98653	7.06139	-9.38651	13.93937	16.2859	1.02019	0.98021	189.20285	176.79072	71.57925	0.32163	 	3.64624E16	 	9.07753E-17	 	-603.96227	27.85612	 
400.0	1.0	0.0	7.98837	7.05976	-9.40748	13.91623	16.21313	1.01721	0.98308	189.52078	176.93775	71.70774	0.32148	 	5.19234E16	 	6.32755E-17	 	-743.00763	27.80907	 
395.0	1.0	0.0	7.99022	7.05813	-9.42839	13.89309	16.1403	1.01421	0.98599	189.83812	177.08403	71.83602	0.32133	 	7.43325E16	 	4.38715E-17	 	-881.81795	27.76206	 
390.0	1.0	0.0	7.99206	7.0565	-9.44924	13.86994	16.0674	1.01119	0.98894	190.15486	177.22957	71.96411	0.32118	 	1.0699E17	 	3.0252E-17	 	-1020.39341	27.71509	 
385.0	1.0	0.0	7.99389	7.05488	-9.47003	13.84678	15.99445	1.00814	0.99192	190.47101	177.37436	72.092	0.32103	 	1.5485E17	 	2.07443E-17	 	-1158.73418	27.66815	 
380.0	1.0	0.0	7.99572	7.05327	-9.49076	13.82362	15.92143	1.00507	0.99495	190.78656	177.51842	72.21969	0.32088	 	2.25393E17	 	1.41436E-17	 	-1296.84042	27.62125	 
375.0	1.0	0.0	7.99755	7.05166	-9.51142	13.80046	15.84834	1.00198	0.99803	191.10151	177.66174	72.34718	0.32073	 	3.29975E17	 	9.58695E-18	 	-1434.71229	27.57437	 
370.0	1.0	0.0	7.99937	7.05005	-9.53202	13.77729	15.77519	0.99886	1.00114	191.41587	177.80432	72.47447	0.32057	 	4.85957E17	 	6.45953E-18	 	-1572.34993	27.52753	 
365.0	1.0	0.0	8.00119	7.04845	-9.55256	13.75412	15.70196	0.99571	1.0043	191.72963	177.94617	72.60156	0.32042	 	7.20026E17	 	4.32575E-18	 	-1709.75347	27.48071	 
360.0	1.0	0.0	8.003	7.04686	-9.57304	13.73095	15.62866	0.99255	1.00751	192.0428	178.08729	72.72845	0.32027	 	1.07348E18	 	2.87871E-18	 	-1846.92305	27.43392	 
355.0	1.0	0.0	8.00481	7.04526	-9.59346	13.70777	15.55529	0.98935	1.01076	192.35537	178.22768	72.85514	0.32012	 	1.61066E18	 	1.90347E-18	 	-1983.85875	27.38714	 
350.0	1.0	0.0	8.00661	7.04368	-9.61382	13.68459	15.48185	0.98613	1.01406	192.66734	178.36735	72.98164	0.31997	 	2.43243E18	 	1.25037E-18	 	-2120.56068	27.34039	 
345.0	1.0	0.0	8.00841	7.0421	-9.63411	13.6614	15.40833	0.98289	1.01741	192.97872	178.50628	73.10793	0.31982	 	3.69805E18	 	8.15844E-19	 	-2257.02894	27.29365	 
340.0	1.0	0.0	8.0102	7.04052	-9.65435	13.63821	15.33473	0.97962	1.02081	193.28951	178.6445	73.23402	0.31967	 	5.66074E18	 	5.28665E-19	 	-2393.26358	27.24693	 
335.0	1.0	0.0	8.01199	7.03895	-9.67452	13.61502	15.26105	0.97632	1.02425	193.5997	178.782	73.35991	0.31952	 	8.72596E18	 	3.40161E-19	 	-2529.26467	27.20022	 
330.0	1.0	0.0	8.01378	7.03738	-9.69463	13.59182	15.18729	0.973	1.02775	193.9093	178.91877	73.4856	0.31937	 	1.35478E19	 	2.17291E-19	 	-2665.03225	27.15352	 
325.0	1.0	0.0	8.01555	7.03582	-9.71467	13.56861	15.11344	0.96965	1.03131	194.2183	179.05483	73.61109	0.31922	 	2.11895E19	 	1.37777E-19	 	-2800.56635	27.10682	 
320.0	1.0	0.0	8.01733	7.03426	-9.73466	13.54541	15.03951	0.96627	1.03491	194.52671	179.19018	73.73639	0.31907	 	3.33922E19	 	8.66974E-20	 	-2935.86699	27.06013	 
315.0	1.0	0.0	8.0191	7.03271	-9.75458	13.5222	14.96549	0.96286	1.03857	194.83452	179.32481	73.86148	0.31892	 	5.30308E19	 	5.4131E-20	 	-3070.93416	27.01343	 
310.0	1.0	0.0	8.02087	7.03116	-9.77445	13.49898	14.89137	0.95943	1.04229	195.14174	179.45873	73.98637	0.31877	 	8.48901E19	 	3.35282E-20	 	-3205.76785	26.96674	 
305.0	1.0	0.0	8.02263	7.02962	-9.79425	13.47576	14.81717	0.95596	1.04606	195.44837	179.59195	74.11106	0.31862	 	1.3699999999999998E20	 	2.05972E-20	 	-3340.36802	26.92003	 
300.0	1.0	0.0	8.02438	7.02808	-9.81399	13.45254	14.74286	0.95247	1.0499	195.7544	179.72446	74.23555	0.31847	 	2.2295099999999997E20	 	1.25472E-20	 	-3474.73461	26.87332	 
295.0	1.0	0.0	8.02613	7.02655	-9.83366	13.42931	14.66846	0.94895	1.05379	196.05984	179.85626	74.35984	0.31832	 	3.6594899999999997E20	 	7.57756E-21	 	-3608.86757	26.82659	 
290.0	1.0	0.0	8.02788	7.02502	-9.85328	13.40608	14.59396	0.9454	1.05775	196.36468	179.98736	74.48393	0.31817	 	6.059739999999999E20	 	4.53583E-21	 	-3742.76679	26.77984	 
285.0	1.0	0.0	8.02962	7.02349	-9.87283	13.38285	14.51935	0.94182	1.06177	196.66894	180.11776	74.60782	0.31802	 	1.01254E21	 	2.69046E-21	 	-3876.43216	26.73307	 
280.0	1.0	0.0	8.03136	7.02198	-9.89232	13.35961	14.44463	0.93822	1.06585	196.97259	180.24746	74.73151	0.31787	 	1.70765E21	 	1.58099E-21	 	-4009.86355	26.68628	 
275.0	1.0	0.0	8.03309	7.02046	-9.91175	13.33636	14.36981	0.93458	1.07	197.27566	180.37647	74.855	0.31772	 	2.9075600000000003E21	 	9.20148E-22	 	-4143.0608	26.63945	 
270.0	1.0	0.0	8.03482	7.01895	-9.93112	13.31312	14.29487	0.93091	1.07422	197.57813	180.50478	74.97829	0.31757	 	4.99935E21	 	5.30265E-22	 	-4276.02373	26.59259	 
265.0	1.0	0.0	8.03654	7.01745	-9.95042	13.28986	14.21982	0.9272	1.07851	197.88001	180.6324	75.10138	0.31742	 	8.68304E21	 	3.02495E-22	 	-4408.75215	26.54568	 
260.0	1.0	0.0	8.03826	7.01595	-9.96967	13.26661	14.14464	0.92347	1.08287	198.18129	180.75932	75.22427	0.31727	 	1.5237999999999998E22	 	1.70769E-22	 	-4541.24581	26.49873	 
255.0	1.0	0.0	8.03997	7.01445	-9.98885	13.24335	14.06935	0.91971	1.0873	198.48199	180.88556	75.34696	0.31712	 	2.7027599999999997E22	 	9.53754E-23	 	-4673.50446	26.45173	 
250.0	1.0	0.0	8.04168	7.01296	-10.00797	13.22008	13.99392	0.91591	1.09181	198.78209	181.01111	75.46944	0.31697	 	4.846689999999999E22	 	5.26827E-23	 	-4805.52782	26.40467	 
245.0	1.0	0.0	8.04338	7.01148	-10.02703	13.19682	13.91837	0.91208	1.09639	199.08159	181.13598	75.59173	0.31682	 	8.789769999999999E22	 	2.87716E-23	 	-4937.31558	26.35755	 
240.0	1.0	0.0	8.04508	7.01	-10.04602	13.17355	13.84268	0.90822	1.10106	199.38051	181.26016	75.71382	0.31667	 	1.6126799999999998E23	 	1.55304E-23	 	-5068.86738	26.31036	 
235.0	1.0	0.0	8.04677	7.00852	-10.06495	13.15027	13.76685	0.90432	1.1058	199.67883	181.38366	75.8357	0.31652	 	2.99437E23	 	8.28271E-24	 	-5200.18286	26.2631	 
230.0	1.0	0.0	8.04846	7.00705	-10.08383	13.12699	13.69089	0.90039	1.11063	199.97656	181.50649	75.95739	0.31637	 	5.6286599999999994E23	 	4.36294E-24	 	-5331.2616	26.21575	 
225.0	1.0	0.0	8.05015	7.00559	-10.10263	13.10371	13.61477	0.89643	1.11554	200.2737	181.62863	76.07887	0.31622	 	1.07154E24	 	2.26903E-24	 	-5462.10316	26.16831	 
220.0	1.0	0.0	8.05183	7.00412	-10.12138	13.08042	13.5385	0.89243	1.12054	200.57025	181.7501	76.20016	0.31608	 	2.0667E24	 	1.16463E-24	 	-5592.70705	26.12078	 
215.0	1.0	0.0	8.0535	7.00267	-10.14007	13.05713	13.46208	0.8884	1.12562	200.8662	181.8709	76.32124	0.31593	 	4.04011E24	 	5.89721E-25	 	-5723.07274	26.07314	 
210.0	1.0	0.0	8.05517	7.00122	-10.15869	13.03383	13.3855	0.88433	1.1308	201.16157	181.99102	76.44212	0.31578	 	8.00818E24	 	2.94466E-25	 	-5853.19969	26.02539	 
205.0	1.0	0.0	8.05683	6.99977	-10.17725	13.01053	13.30875	0.88022	1.13607	201.45634	182.11047	76.5628	0.31563	 	1.61023E25	 	1.44931E-25	 	-5983.08728	25.97752	 
200.0	1.0	0.0	8.05849	6.99833	-10.19575	12.98722	13.23183	0.87608	1.14144	201.75052	182.22926	76.68328	0.31548	 	3.2859000000000004E25	 	7.02798E-26	 	-6112.73483	25.92951	 
195.0	1.0	0.0	8.06015	6.99689	-10.21419	12.96392	13.15473	0.87191	1.14691	202.04411	182.34738	76.80356	0.31533	 	6.808290000000001E25	 	3.35609E-26	 	-6242.14168	25.88137	 
190.0	1.0	0.0	8.0618	6.99546	-10.23256	12.9406	13.07745	0.86769	1.15248	202.3371	182.46483	76.92363	0.31518	 	1.4330200000000001E26	 	1.57745E-26	 	-6371.30706	25.83308	 
185.0	1.0	0.0	8.06344	6.99403	-10.25087	12.91729	12.99998	0.86344	1.15816	202.62951	182.58162	77.04351	0.31503	 	3.0656400000000003E26	 	7.29413E-27	 	-6500.23016	25.78462	 
180.0	1.0	0.0	8.06508	6.99261	-10.26912	12.89397	12.92231	0.85915	1.16394	202.92133	182.69775	77.16319	0.31488	 	6.66927E26	 	3.31627E-27	 	-6628.91012	25.73599	 
175.0	1.0	0.0	8.06672	6.99119	-10.28731	12.87064	12.84444	0.85482	1.16984	203.21255	182.81322	77.28266	0.31474	 	1.47628E27	 	1.48164E-27	 	-6757.34603	25.68718	 
170.0	1.0	0.0	8.06835	6.98978	-10.30543	12.84731	12.76637	0.85045	1.17585	203.50318	182.92804	77.40193	0.31459	 	3.3269399999999996E27	 	6.50119E-28	 	-6885.53689	25.63817	 
165.0	1.0	0.0	8.06997	6.98837	-10.3235	12.82398	12.68807	0.84604	1.18197	203.79322	183.0422	77.521	0.31444	 	7.63792E27	 	2.79985E-28	 	-7013.48165	25.58895	 
160.0	1.0	0.0	8.07159	6.98697	-10.3415	12.80064	12.60956	0.8416	1.18822	204.08268	183.1557	77.63987	0.31429	 	1.7874700000000002E28	 	1.18273E-28	 	-7141.17921	25.53951	 
155.0	1.0	0.0	8.07321	6.98557	-10.35944	12.7773	12.53081	0.83711	1.19459	204.37154	183.26855	77.75854	0.31414	 	4.2670300000000005E28	 	4.8973E-29	 	-7268.62835	25.48983	 
150.0	1.0	0.0	8.07482	6.98418	-10.37731	12.75396	12.45182	0.83258	1.20108	204.65981	183.38075	77.87701	0.31399	 	1.03979E29	 	1.98626E-29	 	-7395.82781	25.43989	 
145.0	1.0	0.0	8.07642	6.98279	-10.39513	12.73061	12.37258	0.82801	1.20771	204.94749	183.49231	77.99528	0.31385	 	2.58829E29	 	7.88508E-30	 	-7522.77623	25.38968	 
140.0	1.0	0.0	8.07802	6.98141	-10.41288	12.70726	12.29308	0.8234	1.21447	205.23458	183.60321	78.11334	0.3137	 	6.586710000000001E29	 	3.06144E-30	 	-7649.47216	25.33919	 
135.0	1.0	0.0	8.07962	6.98003	-10.43057	12.6839	12.21332	0.81875	1.22137	205.52108	183.71347	78.2312	0.31355	 	1.71499E30	 	1.16157E-30	 	-7775.91407	25.28838	 
130.0	1.0	0.0	8.08121	6.97866	-10.44819	12.66054	12.13328	0.81406	1.22842	205.80699	183.82309	78.34886	0.3134	 	4.57263E30	 	4.30316E-31	 	-7902.10031	25.23725	 
125.0	1.0	0.0	8.0828	6.97729	-10.46576	12.63717	12.05294	0.80932	1.23561	206.09231	183.93207	78.46632	0.31325	 	1.24958E31	 	1.55513E-31	 	-8028.02915	25.18577	 
120.0	1.0	0.0	8.08438	6.97592	-10.48326	12.6138	11.97231	0.80454	1.24295	206.37704	184.0404	78.58358	0.31311	 	3.50325E31	 	5.4774E-32	 	-8153.69873	25.13392	 
115.0	1.0	0.0	8.08595	6.97456	-10.5007	12.59043	11.89137	0.79971	1.25045	206.66117	184.1481	78.70064	0.31296	 	1.00858E32	 	1.87835E-32	 	-8279.10706	25.08167	 
110.0	1.0	0.0	8.08752	6.97321	-10.51808	12.56705	11.81009	0.79484	1.25811	206.94472	184.25516	78.81749	0.31281	 	2.98494E32	 	6.26498E-33	 	-8404.25205	25.029	 
105.0	1.0	0.0	8.08909	6.97186	-10.53539	12.54367	11.72849	0.78993	1.26594	207.22768	184.36158	78.93414	0.31266	 	9.09123E32	 	2.03015E-33	 	-8529.13146	24.97588	 
100.0	1.0	0.0	8.09065	6.97052	-10.55264	12.52029	11.64653	0.78497	1.27393	207.51006	184.46738	79.05059	0.31251	 	2.8528E33	 	6.38408E-34	 	-8653.7429	24.92229	 
95.0	1.0	0.0	8.0922	6.96918	-10.56983	12.4969	11.5642	0.77997	1.28211	207.79184	184.57254	79.16684	0.31237	 	9.23445E33	 	1.94581E-34	 	-8778.08384	24.86819	 
90.0	1.0	0.0	8.09375	6.96784	-10.58696	12.4735	11.48149	0.77491	1.29046	208.07303	184.67707	79.28289	0.31222	 	3.08744E34	 	5.74083E-35	 	-8902.15158	24.81355	 
85.0	1.0	0.0	8.0953	6.96651	-10.60402	12.4501	11.39838	0.76982	1.29901	208.35363	184.78097	79.39873	0.31207	 	1.06763E35	 	1.63731E-35	 	-9025.94323	24.75833	 
80.0	1.0	0.0	8.09684	6.96519	-10.62103	12.4267	11.31485	0.76467	1.30775	208.63364	184.88425	79.51437	0.31192	 	3.82386E35	 	4.50759E-36	 	-9149.45572	24.7025	 
75.0	1.0	0.0	8.09837	6.96387	-10.63797	12.4033	11.23089	0.75948	1.31668	208.91307	184.9869	79.62981	0.31178	 	1.4206799999999998E36	 	1.19607E-36	 	-9272.68578	24.64601	 
70.0	1.0	0.0	8.0999	6.96255	-10.65484	12.37989	11.14647	0.75425	1.32583	209.1919	185.08893	79.74505	0.31163	 	5.48408E36	 	3.05399E-37	 	-9395.62991	24.58883	 
65.0	1.0	0.0	8.10143	6.96124	-10.67166	12.35647	11.06158	0.74896	1.33519	209.47015	185.19033	79.86009	0.31148	 	2.20322E37	 	7.49098E-38	 	-9518.28441	24.5309	 
60.0	1.0	0.0	8.10295	6.95994	-10.68841	12.33306	10.97619	0.74363	1.34476	209.74781	185.29112	79.97492	0.31133	 	9.22868E37	 	1.76192E-38	 	-9640.64529	24.47218	 
55.0	1.0	0.0	8.10446	6.95864	-10.7051	12.30963	10.89028	0.73824	1.35457	210.02488	185.39128	80.08955	0.31119	 	4.03812E38	 	3.96625E-39	 	-9762.70831	24.4126	 
50.0	1.0	0.0	8.10597	6.95734	-10.72172	12.28621	10.80382	0.73281	1.36461	210.30136	185.49084	80.20398	0.31104	 	1.84951E39	 	8.52775E-40	 	-9884.46891	24.35212	 
45.0	1.0	0.0	8.10747	6.95605	-10.73829	12.26278	10.71679	0.72733	1.37489	210.57725	185.58977	80.31821	0.31089	 	8.885990000000001E39	 	1.74748E-40	 	-10005.92228	24.29067	 
40.0	1.0	0.0	8.10897	6.95476	-10.75479	12.23934	10.62916	0.7218	1.38542	210.85255	185.68809	80.43223	0.31075	 	4.48872E40	 	3.405E-41	 	-10127.06321	24.22818	 
35.0	1.0	0.0	8.11047	6.95348	-10.77123	12.2159	10.5409	0.71623	1.39621	211.12726	185.7858	80.54605	0.3106	 	2.38983E41	 	6.29336E-42	 	-10247.88613	24.16458	 
30.0	1.0	0.0	8.11196	6.95221	-10.7876	12.19246	10.45197	0.7106	1.40726	211.40139	185.8829	80.65967	0.31045	 	1.34452E42	 	1.10047E-42	 	-10368.3851	24.09979	 
25.0	1.0	0.0	8.11344	6.95094	-10.80391	 	10.36234	0.70493	1.41859	211.67493	185.97939	80.77308	0.31031	 	8.015479999999999E42	 	1.81548E-43	 	-10488.55374	 	 
