T (C)	Fraction solid (wt)-TOTAL	Fraction liquid (wt)-LIQUID	Density (g/(cm)^3)-TOTAL	Molar volume (cm^3)-TOTAL	Volume change (%)-  	Average expansion coeff. (10e-6 1/K)-  	Thermal conductivity (W/(m*K))-TOTAL	Electrical resistivity (10e-6 Ohm*m)-TOTAL	Electrical conductivity (10e6 1/(Ohm*m))-TOTAL	Young's modulus (GPa)-TOTAL	Bulk modulus (GPa)-TOTAL	Shear modulus(GPa)-TOTAL	Poisson's ratio-TOTAL	Liquid viscosity (mPa s)-  	Total viscosity (mPa s)-  	Liquid diffusivity (10e-9 (m^2)/s)-  	Total diffusivity (10e-9 (m^2)/s)-  	Surface Tension (mN/m)-  	Enthalpy (J/mole)-TOTAL	Specific heat (J/(mole K))-TOTAL	Latent heat (J/mole)-TOTAL
1400.0	0.0	1.0	7.25905	7.91149	0.0	31.92639	29.34849	1.39674	0.71595	0.0	121.62475	0.0	0.5	6.64572	6.64572	1.22879	1.22879	1748.50488	48033.518	 	0.0
1395.0	0.0	1.0	7.26304	7.90714	-0.0550092	31.89144	29.2651	1.39653	0.71606	0.0	121.77035	0.0	0.5	6.71577	6.71577	1.21234	1.21234	1750.87167	47830.897	40.5242	0.0
1390.0	0.0	1.0	7.26703	7.9028	-0.10986	31.85667	29.18172	1.39633	0.71617	0.0	121.91595	0.0	0.5	6.78699	6.78699	1.19603	1.19603	1753.26594	47628.731	40.4332	0.0
1385.0	0.0	1.0	7.27101	7.89847	-0.16456	31.82208	29.09834	1.39612	0.71627	0.0	122.06154	0.0	0.5	6.8594	6.8594	1.17984	1.17984	1755.68813	47427.017	40.3428	0.0
1380.0	0.0	1.0	7.27499	7.89416	-0.21909	31.78767	29.01496	1.39591	0.71638	0.0	122.20714	0.0	0.5	6.93302	6.93302	1.16379	1.16379	1758.13866	47225.753	40.2528	0.0
1375.0	0.0	1.0	7.27895	7.88986	-0.27347	31.75345	28.93157	1.3957	0.71649	0.0	122.35274	0.0	0.5	7.00789	7.00789	1.14788	1.14788	1760.61795	47024.936	40.1634	0.0
1370.0	0.0	1.0	7.28291	7.88557	-0.3277	31.71941	28.84819	1.39548	0.7166	0.0	122.49834	0.0	0.5	7.08403	7.08403	1.1321	1.1321	1763.12638	46824.564	40.0744	0.0
1365.0	0.0	1.0	7.28687	7.88129	-0.38176	31.68556	28.76481	1.39527	0.71671	0.0	122.64394	0.0	0.5	7.16147	7.16147	1.11645	1.11645	1765.66435	46624.636	39.9856	0.0
1360.0	0.0	1.0	7.29081	7.87702	-0.43567	31.65191	28.68143	1.39506	0.71682	0.0	122.78954	0.0	0.5	7.24024	7.24024	1.10093	1.10093	1768.23224	46425.147	39.8978	0.0
1355.0	0.0	1.0	7.29475	7.87277	-0.48942	31.61844	28.59804	1.39484	0.71693	0.0	122.93514	0.0	0.5	7.32037	7.32037	1.08555	1.08555	1770.8304	46226.098	39.8098	0.0
1350.0	0.0	1.0	7.29868	7.86853	-0.54301	31.58517	28.51466	1.39462	0.71704	0.0	123.08074	0.0	0.5	7.40188	7.40188	1.07029	1.07029	1773.45921	46027.484	39.7228	0.0
1345.0	0.0	1.0	7.3026	7.8643	-0.59645	31.5521	28.43128	1.3944	0.71715	0.0	123.22633	0.0	0.5	7.48482	7.48482	1.05517	1.05517	1776.11899	45829.304	39.636	0.0
1340.0	0.0	1.0	7.30652	7.86009	-0.64973	31.51923	28.3479	1.39418	0.71727	0.0	123.37193	0.0	0.5	7.56921	7.56921	1.04019	1.04019	1778.81006	45631.555	39.5498	0.0
1335.0	0.0	1.0	7.31043	7.85588	-0.70285	31.48656	28.26451	1.39396	0.71738	0.0	123.51753	0.0	0.5	7.65508	7.65508	1.02533	1.02533	1781.53275	45434.236	39.4638	0.0
1330.0	0.0	1.0	7.31433	7.85169	-0.75582	31.4541	28.18113	1.39374	0.71749	0.0	123.66313	0.0	0.5	7.74247	7.74247	1.0106	1.0106	1784.28733	45237.345	39.3782	0.0
1328.88	0.0	1.0	7.3152	7.85076	-0.76767	31.44685	28.16244	1.39369	0.71752	0.0	123.69577	0.0	0.5	7.76228	7.76228	1.00732	1.00732	1784.90927	45193.262	39.32717	0.0
1325.0	0.0791309	0.92087	7.33805	7.82624	-1.07755	30.64147	28.40359	1.37851	0.72542	0.00380833	124.52854	0.00127838	0.48952	7.84656	9.86788	0.99409	0.79046	1784.73509	43847.082	347.03679	1193.794
1320.0	0.16871	0.83129	7.36433	7.79839	-1.42954	29.73445	28.67444	1.36122	0.73464	0.0800856	125.52167	0.0271008	0.47755	7.95764	35.12848	0.97715	0.22135	1784.59067	42307.561	307.9042	2537.271
1315.0	0.24595	0.75405	7.38738	7.77406	-1.73713	28.95022	28.90419	1.34616	0.74285	0.36732	126.43096	0.12518	0.46713	8.0714	131.71831	0.96035	0.0588481	1784.52897	40961.449	269.2224	3687.761
1310.0	0.31305	0.68695	7.40778	7.75261	-2.0082	28.26708	29.10017	1.33288	0.75025	0.97744	127.27248	0.3352	0.45799	8.1879	347.93014	0.9437	0.0222084	1784.54289	39774.278	237.4342	4679.726
1305.0	0.37173	0.62827	7.42596	7.73359	-2.24858	27.66907	29.26769	1.32107	0.75696	1.9679	128.05817	0.67862	0.44993	8.30737	721.59397	0.9272	0.0106744	1784.62567	38718.831	211.0894	5540.385
1300.0	0.42337	0.57663	7.44229	7.7166	-2.46338	27.14205	29.411	1.31047	0.76309	3.34945	128.79721	1.16076	0.44279	8.42976	1279.80787	0.91084	0.00599946	1784.77144	37773.402	189.0858	6291.439
1295.0	0.46909	0.53091	7.45703	7.70132	-2.65656	26.6751	29.53325	1.3009	0.7687	5.10111	129.49699	1.77564	0.43642	8.55523	2041.44198	0.89463	0.00374919	1784.97476	36920.526	170.5752	6950.353
1290.0	0.50976	0.49024	7.47043	7.68745	-2.83188	26.25774	29.63698	1.29221	0.77387	7.18326	130.16298	2.5104	0.4307	8.68389	3019.67811	0.87856	0.00252654	1785.23118	36146.035	154.8982	7531.294
1285.0	0.54613	0.45387	7.48267	7.67481	-2.99159	25.88378	29.72449	1.28428	0.77864	9.54942	130.80057	3.34936	0.42556	8.8158	4225.33598	0.86265	0.00179984	1785.53589	35438.342	141.5386	8045.842
1280.0	0.57879	0.42121	7.49392	7.66317	-3.13868	25.54475	29.79742	1.27703	0.78307	12.15026	131.41215	4.27554	0.4209	8.95111	5667.33968	0.84688	0.00133758	1785.88551	34787.907	130.087	8503.54
1275.0	0.60824	0.39176	7.5043	7.65249	-3.27369	25.23949	29.85752	1.27036	0.78718	14.93769	132.00298	5.27208	0.41668	9.08989	7354.63826	0.83127	0.0010274	1786.27534	34186.819	120.2176	8912.294
1270.0	0.63491	0.36509	7.51392	7.64259	-3.39885	24.96162	29.90603	1.2642	0.79101	17.86868	132.57451	6.32373	0.41283	9.23225	9297.04726	0.81581	8.10121E-4	1786.70265	33628.477	111.6684	9278.704
1265.0	0.65914	0.34086	7.52288	7.63334	-3.51574	24.70669	29.94409	1.2585	0.7946	20.90494	133.12848	7.41678	0.4093	9.37831	11505.67921	0.8005	6.52489E-4	1787.16474	33107.341	104.2272	9608.307
1260.0	0.68122	0.31878	7.53126	7.62475	-3.62439	24.47484	29.97289	1.25321	0.79795	24.01305	133.66848	8.5391	0.40607	9.52822	13993.90165	0.78534	5.34728E-4	1787.65764	32618.738	97.7206	9905.775
1255.0	0.70141	0.29859	7.53911	7.61667	-3.7265	24.26117	29.99321	1.24827	0.80111	27.16713	134.19486	9.68122	0.40308	9.68209	16777.98965	0.77034	4.44542E-4	1788.17954	32158.701	92.0074	10175.074
1250.0	0.71994	0.28006	7.5465	7.60904	-3.82291	24.06331	30.00595	1.24366	0.80408	30.34229	134.70887	10.83399	0.40033	9.84	19874.83375	0.7555	3.74047E-4	1788.72833	31723.847	86.9708	10419.582
1245.0	0.73698	0.26302	7.55349	7.60185	-3.91379	23.88089	30.01176	1.23934	0.80688	33.52026	135.21234	11.99057	0.39778	10.00222	23305.99167	0.74081	3.17932E-4	1789.30103	31311.282	82.513	10642.194
1240.0	0.75268	0.24732	7.56011	7.59504	-3.99993	23.71175	30.01133	1.23527	0.80954	36.68297	135.70585	13.1442	0.3954	10.16868	27093.08556	0.72628	2.7259E-4	1789.89601	30918.513	78.5538	10845.399
1235.0	0.76721	0.23279	7.5664	7.58853	-4.08215	23.5534	30.00522	1.23144	0.81206	39.82177	136.19007	14.29154	0.39319	10.33966	31265.06732	0.71191	2.35435E-4	1790.51189	30543.389	75.0248	11031.347
1230.0	0.78067	0.21933	7.57239	7.58235	-4.1603	23.40647	29.99396	1.22782	0.81445	42.92535	136.6665	15.42824	0.39113	10.51533	35851.66064	0.6977	2.04635E-4	1791.14594	30184.043	71.8692	11201.904
1226.09	0.79049	0.20951	7.57689	7.57771	-4.21896	23.2985	29.98157	1.22513	0.81624	45.31439	137.03361	16.30469	0.38961	10.65606	39743.53259	0.68669	1.84116E-4	1791.65437	29913.231	 	11325.223
1225.0	0.79391	0.20609	7.57837	7.57616	-4.23849	23.25821	29.97477	1.22452	0.81665	45.92309	137.16205	16.5298	0.3891	10.70277	41037.72022	0.6832	1.7818E-4	1791.92775	29821.833	72.442	11375.707
1220.0	0.80881	0.19119	7.58494	7.56935	-4.32457	23.08379	29.9413	1.2218	0.81847	48.65093	137.73806	17.53998	0.38686	10.92055	47322.32507	0.66734	1.54001E-4	1793.19886	29413.972	81.5722	11595.543
1215.0	0.82218	0.17782	7.59104	7.56302	-4.40463	22.92697	29.90369	1.21924	0.82019	51.23001	138.2891	18.49692	0.38483	11.14327	54118.88237	0.65181	1.3421E-4	1794.49405	29030.526	76.6892	11791.344
1210.0	0.83418	0.16582	7.59675	7.55708	-4.47969	22.78477	29.8623	1.21682	0.82181	53.67183	138.81789	19.40451	0.38297	11.37129	61464.27738	0.63659	1.17774E-4	1795.8137	28668.125	72.4802	11966.48
1205.0	0.84505	0.15495	7.60211	7.55148	-4.55045	22.65511	29.81768	1.21454	0.82336	55.99258	139.32745	20.26841	0.38128	11.60456	69405.1169	0.62169	1.03947E-4	1797.15765	28323.964	68.8322	12123.75
1204.01	0.84705	0.15295	7.60313	7.55042	-4.56388	22.6312	29.80841	1.2141	0.82366	56.43666	139.42635	20.43384	0.38096	11.65149	71049.61974	0.61877	1.01473E-4	1797.42719	28258.019	 	12152.645
1200.0	0.85631	0.14369	7.60725	7.54601	-4.61961	22.52947	29.77607	1.21212	0.825	58.60221	139.85702	21.24044	0.3795	11.85488	78525.58647	0.60651	9.15635E-5	1799.00889	27972.935	70.2058	12288.261
1195.0	0.86682	0.13318	7.61211	7.54081	-4.68536	22.41375	29.73252	1.20978	0.8266	61.18916	140.37396	22.20512	0.37782	12.11393	88518.24386	0.59152	8.09514E-5	1800.98577	27633.775	67.832	12441.275
1190.0	0.87627	0.12373	7.61669	7.53587	-4.7478	22.30777	29.68579	1.20755	0.82812	63.66784	140.87083	23.13038	0.37628	12.37907	99305.60323	0.57688	7.19121E-5	1802.96611	27311.36	64.483	12577.915
1185.0	0.88481	0.11519	7.62102	7.53118	-4.80705	22.21126	29.63616	1.20544	0.82957	66.05446	141.35012	24.02197	0.37488	12.65052	110953.4644	0.56258	6.41428E-5	1804.94862	27003.455	61.581	12700.413
1180.0	0.89254	0.10746	7.62514	7.5267	-4.86373	22.12229	29.58403	1.20343	0.83096	68.37372	141.81409	24.88886	0.37358	12.92838	123551.0249	0.5486	5.74051E-5	1806.93373	26708.187	59.0536	12810.641
1175.0	0.89957	0.10043	7.62907	7.52239	-4.91812	22.04005	29.52962	1.20149	0.8323	70.64041	142.26454	25.7364	0.37238	13.21308	137185.7558	0.53493	5.15218E-5	1808.92093	26423.979	56.8416	12910.171
1170.0	0.90598	0.0940186	7.63284	7.51824	-4.97058	21.96346	29.4732	1.19964	0.83358	72.87265	142.70307	26.57119	0.37127	13.50472	151963.009	0.52157	4.63511E-5	1810.90999	26149.499	54.896	13000.338
1165.0	0.91186	0.0881425	7.63387	7.51348	-5.03077	21.86061	29.22508	1.20563	0.82944	75.25237	143.31681	27.46164	0.37014	13.80363	167996.7077	0.50851	4.17821E-5	1813.38208	25691.73067	91.55367	13082.274
1160.0	0.91726	0.082739	7.64179	7.50587	-5.12694	21.6373	28.95987	1.21244	0.82478	77.84648	143.95627	28.4379	0.36871	14.11002	188757.1106	0.49574	3.70574E-5	1815.86796	25229.80403	92.38533	13156.949
1155.0	0.92224	0.0777627	7.64936	7.49845	-5.22077	21.4198	28.70647	1.21888	0.82043	80.4252	144.58137	29.40855	0.36738	14.42421	211733.6667	0.48325	3.29208E-5	1818.36842	24782.69041	89.42272	13225.199
1150.0	0.92862	0.071383	7.65725	7.49034	-5.32325	21.17135	28.46544	1.22489	0.8164	83.85197	145.2809	30.69593	0.36585	14.79788	239098.3052	0.46939	2.9051E-5	1820.86274	24295.1038	97.51732	13342.0
1145.0	0.93758	0.0624165	7.66556	7.48123	-5.43843	20.87792	28.25113	1.22985	0.81311	88.98778	146.08835	32.62129	0.36395	15.25284	273077.9241	0.45379	2.53467E-5	1823.32049	23735.78467	111.86383	13538.323
1140.0	0.94484	0.0551621	7.67303	7.47295	-5.54303	20.61765	28.03994	1.23474	0.80988	93.93284	146.8278	34.47472	0.36234	15.71509	309542.332	0.43889	2.2282E-5	1825.79904	23222.46828	102.66328	13696.16
1135.0	0.95081	0.0491896	7.67982	7.46536	-5.63904	20.38423	27.83348	1.2395	0.80678	98.58092	147.5142	36.21756	0.36095	16.185	348945.8601	0.42464	1.9696E-5	1828.29707	22745.14791	95.46407	13825.253
1130.0	0.9558	0.0441971	7.68606	7.45831	-5.72817	20.17221	27.63249	1.24409	0.8038	102.85746	148.15769	37.82254	0.35974	16.66272	391742.6103	0.411	1.7482E-5	1830.81657	22296.78608	89.67237	13932.387
1125.0	0.96567	0.0343273	7.694	7.44969	-5.83715	19.89016	27.4177	1.24936	0.80041	110.49397	148.92419	40.68736	0.35784	17.05145	447419.7352	0.4002	1.52519E-5	1833.37728	21782.05261	102.94669	14112.646
1120.0	0.97481	0.0251897	7.70141	7.44152	-5.9404	19.6253	27.20976	1.25441	0.79719	117.7492	149.6585	43.41534	0.35608	17.45296	509371.0742	0.3896	1.3349E-5	1835.95169	21292.00315	98.00989	14274.733
1115.0	0.9826	0.0173952	7.70814	7.43401	-6.03527	19.38699	27.00971	1.25916	0.79418	123.81281	150.34455	45.70307	0.35453	17.86701	576833.1086	0.3792	1.17455E-5	1838.53883	20835.62685	91.27526	14409.423
1110.0	0.98898	0.0110238	7.71422	7.42717	-6.12169	19.17587	26.81778	1.26361	0.79138	128.60341	150.98862	47.51757	0.35322	18.28651	649711.6713	0.36917	1.03905E-5	1841.14252	20412.73008	84.57935	14516.679
1105.0	0.99409	0.0059131	7.71977	7.42094	-6.20053	18.98927	26.6334	1.26776	0.78879	132.24043	151.58174	48.90162	0.35211	18.70429	728405.0545	0.35962	9.23443E-6	1843.76281	20019.17456	78.7111	14600.411
1100.0	0.99816	0.00183819	7.72491	7.41521	-6.27297	18.82339	26.45597	1.27163	0.78639	135.16423	152.13746	50.01779	0.35116	19.11484	813601.2876	0.35062	8.23746E-6	1846.4018	19650.05931	73.82305	14665.292
1095.0	1.0	0.0	7.72963	7.41026	-6.33553	18.69079	26.29027	1.27498	0.78432	136.86503	152.60285	50.67118	0.35052	 	904567.3282	 	7.38209E-6	 	19561.79463	17.65294	 
1090.0	1.0	0.0	7.73388	7.40619	-6.38698	18.5963	26.1346	1.27789	0.78254	137.5529	153.00109	50.93943	0.35016	 	999862.384	 	6.65411E-6	 	19301.12293	52.13434	 
1085.0	1.0	0.0	7.73805	7.40219	-6.43747	18.50433	25.9847	1.28055	0.78092	138.22699	153.39198	51.20236	0.34981	 	1105986.269	 	5.99356E-6	 	19044.80847	51.26289	 
1080.0	1.0	0.0	7.74215	7.39827	-6.48704	18.41477	25.84018	1.28297	0.77944	138.88809	153.77597	51.46026	0.34947	 	1224243.338	 	5.39467E-6	 	18792.66383	50.42893	 
1075.0	1.0	0.0	7.74619	7.39442	-6.53573	18.32753	25.70071	1.28517	0.77811	139.53694	154.15352	51.71343	0.34914	 	1356104.409	 	4.85212E-6	 	18544.5061	49.63155	 
1070.0	1.0	0.0	7.75015	7.39063	-6.58358	18.24248	25.56595	1.28715	0.77691	140.17424	154.52502	51.96212	0.34881	 	1503229.06	 	4.361E-6	 	18300.15744	48.86973	 
1065.0	1.0	0.0	7.75406	7.38691	-6.63063	18.15952	25.43561	1.28893	0.77584	140.80069	154.89087	52.20661	0.34849	 	1667492.042	 	3.91677E-6	 	18059.44533	48.14242	 
1060.0	1.0	0.0	7.75791	7.38325	-6.67692	18.07856	25.30937	1.29052	0.77488	141.4169	155.25141	52.44714	0.34819	 	1851012.213	 	3.51525E-6	 	17822.20316	47.44843	 
1055.0	1.0	0.0	7.76169	7.37964	-6.72247	17.99949	25.18699	1.29192	0.77404	142.02348	155.60697	52.68393	0.34788	 	2056186.611	 	3.15262E-6	 	17588.27045	46.78654	 
1052.37	1.0	0.0	7.76366	7.37777	-6.74611	17.9587	25.12414	1.29259	0.77364	142.33852	155.7919	52.80693	0.34773	 	2173571.773	 	2.97646E-6	 	17466.63002	 	 
1050.0	1.0	0.0	7.76542	7.3761	-6.76728	17.92239	25.06821	1.29316	0.7733	142.62108	155.95802	52.91725	0.34759	 	2285750.313	 	2.82532E-6	 	17357.47204	46.15968	 
1045.0	1.0	0.0	7.7691	7.37261	-6.81138	17.84712	24.95281	1.29423	0.77266	143.21024	156.30484	53.14728	0.3473	 	2542781.804	 	2.53013E-6	 	17129.66072	45.56226	 
1040.0	1.0	0.0	7.77273	7.36917	-6.85486	17.77346	24.84053	1.29515	0.77211	143.79137	156.64749	53.37421	0.34701	 	2830753.56	 	2.26412E-6	 	16904.71766	44.98861	 
1035.0	1.0	0.0	7.77631	7.36578	-6.89772	17.70134	24.73118	1.29592	0.77165	144.36494	156.98622	53.59821	0.34673	 	3153625.514	 	2.02458E-6	 	16682.50837	44.44186	 
1030.0	1.0	0.0	7.77984	7.36243	-6.94002	17.63066	24.62456	1.29656	0.77127	144.93137	157.32123	53.81944	0.34646	 	3515895.901	 	1.80903E-6	 	16462.90492	43.92069	 
1025.0	1.0	0.0	7.78333	7.35913	-6.98176	17.56136	24.52048	1.29707	0.77097	145.49108	157.65274	54.03808	0.34619	 	3922678.893	 	1.61521E-6	 	16245.7859	43.4238	 
1020.0	1.0	0.0	7.78678	7.35587	-7.02297	17.49335	24.4188	1.29745	0.77074	146.04445	157.98092	54.25426	0.34593	 	4379793.846	 	1.44106E-6	 	16031.03624	42.94993	 
1015.0	1.0	0.0	7.79019	7.35265	-7.06368	17.42658	24.31934	1.29772	0.77058	146.59183	158.30593	54.46813	0.34567	 	4893868.479	 	1.2847E-6	 	15818.54678	42.49789	 
1010.0	1.0	0.0	7.79356	7.34947	-7.10391	17.36097	24.22197	1.29788	0.77049	147.13356	158.62794	54.67981	0.34541	 	5472457.578	 	1.14441E-6	 	15608.21436	42.06648	 
1005.0	1.0	0.0	7.7969	7.34632	-7.14368	17.29647	24.12657	1.29793	0.77046	147.66994	158.94708	54.88943	0.34516	 	6124180.273	 	1.01864E-6	 	15399.94149	41.65457	 
1000.0	1.0	0.0	7.80021	7.34321	-7.18301	17.233	24.03299	1.29789	0.77048	148.20125	159.26349	55.0971	0.34491	 	6858878.997	 	9.05969E-7	 	15193.63611	41.26107	 
995.0	1.0	0.0	7.80348	7.34013	-7.22191	17.17053	23.94114	1.29775	0.77056	148.72776	159.57727	55.30291	0.34466	 	7687803.002	 	8.0511E-7	 	14989.21133	40.88496	 
990.0	1.0	0.0	7.80672	7.33708	-7.26041	17.10898	23.85091	1.29753	0.7707	149.24971	159.88855	55.50697	0.34442	 	8623821.504	 	7.14894E-7	 	14786.58511	40.52524	 
985.0	1.0	0.0	7.80993	7.33407	-7.29853	17.04832	23.76219	1.29722	0.77088	149.76734	160.19741	55.70937	0.34418	 	9681669.934	 	6.34262E-7	 	14585.68011	40.181	 
980.0	1.0	0.0	7.81311	7.33108	-7.33627	16.9885	23.6749	1.29682	0.77111	150.28086	160.50396	55.91018	0.34395	 	1.087823761E7	 	5.62252E-7	 	14386.42335	39.85135	 
975.0	1.0	0.0	7.81626	7.32813	-7.37365	16.92947	23.58896	1.29636	0.77139	150.79047	160.80827	56.1095	0.34372	 	1.223289953E7	 	4.97994E-7	 	14188.746	39.53547	 
970.0	1.0	0.0	7.81939	7.32519	-7.41069	16.87119	23.50428	1.29581	0.77172	151.29634	161.11043	56.30738	0.34349	 	1.376790362E7	 	4.40699E-7	 	13992.58317	39.23257	 
965.0	1.0	0.0	7.82249	7.32229	-7.4474	16.81362	23.4208	1.2952	0.77208	151.79865	161.41051	56.5039	0.34326	 	1.550882346E7	 	3.89656E-7	 	13797.87357	38.94192	 
960.0	1.0	0.0	7.82557	7.31941	-7.48379	16.75672	23.33844	1.29452	0.77248	152.29755	161.70856	56.69912	0.34303	 	1.748508037E7	 	3.44219E-7	 	13604.55946	38.66282	 
955.0	1.0	0.0	7.82862	7.31656	-7.51987	16.70046	23.25715	1.29378	0.77293	152.7932	162.00466	56.89309	0.34281	 	1.973055981E7	 	3.03808E-7	 	13412.58626	38.39464	 
950.0	1.0	0.0	7.83165	7.31373	-7.55565	16.6448	23.17685	1.29298	0.77341	153.28574	162.29886	57.08588	0.34259	 	2.228432508E7	 	2.67896E-7	 	13221.90249	38.13675	 
945.0	1.0	0.0	7.83466	7.31092	-7.59115	16.58971	23.09751	1.29212	0.77392	153.77528	162.5912	57.27752	0.34237	 	2.519145554E7	 	2.36012E-7	 	13032.45951	37.8886	 
940.0	1.0	0.0	7.83764	7.30813	-7.62637	16.53517	23.01907	1.2912	0.77447	154.26195	162.88175	57.46808	0.34215	 	2.850402601E7	 	2.07728E-7	 	12844.21138	37.64963	 
935.0	1.0	0.0	7.84061	7.30537	-7.66132	16.48113	22.94148	1.29023	0.77506	154.74586	163.17053	57.65758	0.34194	 	3.228225249E7	 	1.8266E-7	 	12657.11463	37.41935	 
930.0	1.0	0.0	7.84356	7.30262	-7.69601	16.42758	22.86469	1.2892	0.77567	155.2271	163.45759	57.84608	0.34173	 	3.659584326E7	 	1.60463E-7	 	12471.12821	37.19728	 
925.0	1.0	0.0	7.84649	7.2999	-7.73045	16.37449	22.78867	1.28813	0.77632	155.70579	163.74297	58.0336	0.34151	 	4.152557238E7	 	1.40826E-7	 	12286.21322	36.983	 
920.0	1.0	0.0	7.84939	7.29719	-7.76465	16.32184	22.71337	1.287	0.777	156.182	164.02671	58.2202	0.3413	 	4.716514631E7	 	1.2347E-7	 	12102.33287	36.77607	 
915.0	1.0	0.0	7.85229	7.2945	-7.79861	16.26959	22.63877	1.28583	0.77771	156.65582	164.30883	58.40588	0.3411	 	5.362338205E7	 	1.08144E-7	 	11919.45231	36.57611	 
910.0	1.0	0.0	7.85516	7.29184	-7.83233	16.21774	22.56482	1.28462	0.77844	157.12732	164.58937	58.5907	0.34089	 	6.102679117E7	 	9.4625E-8	 	11737.53851	36.38276	 
905.0	1.0	0.0	7.85802	7.28919	-7.86584	16.16626	22.49149	1.28336	0.7792	157.59659	164.86835	58.77468	0.34068	 	6.952261215E7	 	8.27106E-8	 	11556.56015	36.19567	 
900.0	1.0	0.0	7.86086	7.28655	-7.89913	16.11513	22.41876	1.28206	0.78	158.06368	165.14579	58.95784	0.34048	 	7.928240309E7	 	7.2221E-8	 	11376.4875	36.01453	 
895.0	1.0	0.0	7.86368	7.28394	-7.9322	16.06433	22.34659	1.28072	0.78081	158.52866	165.42174	59.1402	0.34028	 	9.050628355E7	 	6.29951E-8	 	11197.29239	35.83902	 
890.0	1.0	0.0	7.86649	7.28133	-7.96507	16.01384	22.27497	1.27934	0.78166	158.99159	165.69619	59.3218	0.34008	 	1.034279516E8	 	5.48889E-8	 	11018.94802	35.66887	 
885.0	1.0	0.0	7.86928	7.27875	-7.99774	15.96365	22.20385	1.27792	0.78252	159.45252	165.96919	59.50266	0.33988	 	1.18320646E8	 	4.77739E-8	 	10841.42893	35.50382	 
880.0	1.0	0.0	7.87206	7.27618	-8.03021	15.91374	22.13322	1.27646	0.78342	159.91151	166.24074	59.68278	0.33968	 	1.355041952E8	 	4.15355E-8	 	10664.71066	35.34365	 
875.0	1.0	0.0	7.87482	7.27363	-8.06249	15.86409	22.06307	1.27497	0.78433	160.36861	166.51087	59.8622	0.33948	 	1.55353411E8	 	3.60715E-8	 	10488.77005	35.18812	 
870.0	1.0	0.0	7.87757	7.27109	-8.09458	15.8147	21.99336	1.27344	0.78528	160.82386	166.77959	60.04094	0.33929	 	1.783080749E8	 	3.1291E-8	 	10313.58579	35.03685	 
865.0	1.0	0.0	7.88031	7.26856	-8.12649	15.76554	21.92407	1.27187	0.78624	161.27729	167.04691	60.219	0.33909	 	2.048848031E8	 	2.71129E-8	 	10139.13707	34.88975	 
860.0	1.0	0.0	7.88303	7.26605	-8.15822	15.71661	21.85519	1.27028	0.78723	161.72896	167.31287	60.3964	0.3389	 	2.356912254E8	 	2.34655E-8	 	9965.40404	34.74661	 
855.0	1.0	0.0	7.88574	7.26356	-8.18977	15.66789	21.78671	1.26865	0.78824	162.1789	167.57746	60.57316	0.3387	 	2.714429147E8	 	2.0285E-8	 	9792.3678	34.60725	 
850.0	1.0	0.0	7.88844	7.26108	-8.22115	15.61936	21.71808	1.26702	0.78926	162.62714	167.84071	60.7493	0.33851	 	3.129835969E8	 	1.75147E-8	 	9620.01032	34.4715	 
845.0	1.0	0.0	7.89067	7.25902	-8.24716	15.59492	21.65247	1.2652	0.79039	163.01531	168.08332	60.90121	0.33836	 	3.563026206E8	 	1.53168E-8	 	9476.22582	28.7569	 
840.0	1.0	0.0	7.89291	7.25696	-8.27311	15.57048	21.58686	1.26337	0.79153	163.40275	168.32477	61.05288	0.33821	 	4.060899155E8	 	1.33788E-8	 	9329.71872	29.30142	 
835.0	1.0	0.0	7.89513	7.25492	-8.299	15.54604	21.52124	1.26153	0.79269	163.78947	168.56506	61.2043	0.33806	 	4.633807494E8	 	1.16721E-8	 	9183.42492	29.25876	 
830.0	1.0	0.0	7.89736	7.25287	-8.32482	15.5216	21.45561	1.25968	0.79385	164.17546	168.8042	61.35549	0.3379	 	5.293870767E8	 	1.01706E-8	 	9037.34378	29.21623	 
825.0	1.0	0.0	7.89958	7.25084	-8.35058	15.49715	21.38997	1.25782	0.79503	164.56072	169.04218	61.50644	0.33775	 	6.055295538E8	 	8.85142E-9	 	8891.47467	29.17382	 
820.0	1.0	0.0	7.90179	7.2488	-8.37627	15.47269	21.32433	1.25594	0.79621	164.94525	169.27902	61.65716	0.3376	 	6.934756912E8	 	7.6937E-9	 	8745.81694	29.13155	 
815.0	1.0	0.0	7.904	7.24678	-8.4019	15.44824	21.25868	1.25406	0.79741	165.32906	169.51471	61.80763	0.33745	 	7.951853819E8	 	6.67893E-9	 	8600.36989	29.08941	 
810.0	1.0	0.0	7.90621	7.24475	-8.42747	15.42378	21.19302	1.25217	0.79862	165.71214	169.74926	61.95786	0.3373	 	9.129653117E8	 	5.79057E-9	 	8455.13285	29.04741	 
805.0	1.0	0.0	7.90841	7.24274	-8.45297	15.39932	21.12736	1.25026	0.79983	166.09449	169.98267	62.10785	0.33715	 	1.049534076E9	 	5.01383E-9	 	8310.1051	29.00555	 
800.0	1.0	0.0	7.91061	7.24072	-8.47841	15.37486	21.06168	1.24834	0.80106	166.47612	170.21495	62.25761	0.33699	 	1.208100226E9	 	4.33555E-9	 	8165.28594	28.96383	 
795.0	1.0	0.0	7.9128	7.23872	-8.50378	15.35039	20.996	1.24641	0.8023	166.85702	170.4461	62.40712	0.33684	 	1.392455947E9	 	3.74401E-9	 	8020.6746	28.92227	 
790.0	1.0	0.0	7.91499	7.23671	-8.52909	15.32592	20.93031	1.24447	0.80355	167.2372	170.67612	62.5564	0.33669	 	1.607089679E9	 	3.2288E-9	 	7876.27033	28.88085	 
785.0	1.0	0.0	7.91718	7.23472	-8.55433	15.30145	20.86461	1.24252	0.80482	167.61665	170.90502	62.70543	0.33654	 	1.857321697E9	 	2.78065E-9	 	7732.07234	28.8396	 
780.0	1.0	0.0	7.91936	7.23272	-8.57951	15.27698	20.7989	1.24055	0.80609	167.99538	171.1328	62.85423	0.33639	 	2.149467609E9	 	2.39137E-9	 	7588.07983	28.7985	 
775.0	1.0	0.0	7.92154	7.23074	-8.60463	15.2525	20.73319	1.23858	0.80738	168.37338	171.35946	63.00278	0.33624	 	2.49103581E9	 	2.05367E-9	 	7444.29198	28.75757	 
770.0	1.0	0.0	7.92371	7.22875	-8.62968	15.22802	20.66746	1.23659	0.80868	168.75066	171.58501	63.1511	0.33609	 	2.890966328E9	 	1.76113E-9	 	7300.7079	28.71682	 
765.0	1.0	0.0	7.92587	7.22678	-8.65466	15.20353	20.60172	1.23459	0.80999	169.12721	171.80945	63.29918	0.33594	 	3.359920209E9	 	1.50806E-9	 	7157.32673	28.67623	 
760.0	1.0	0.0	7.92804	7.22481	-8.67959	15.17905	20.53598	1.23258	0.81131	169.50303	172.03278	63.44701	0.33578	 	3.910630707E9	 	1.28945E-9	 	7014.14755	28.63584	 
755.0	1.0	0.0	7.9302	7.22284	-8.70444	15.15456	20.47023	1.23055	0.81264	169.87814	172.25501	63.59461	0.33563	 	4.558330169E9	 	1.10087E-9	 	6871.16941	28.59563	 
750.0	1.0	0.0	7.93235	7.22088	-8.72924	15.13006	20.40446	1.22851	0.81399	170.25251	172.47614	63.74197	0.33548	 	5.321269829E9	 	9.38449E-10	 	6728.39134	28.55562	 
745.0	1.0	0.0	7.9345	7.21892	-8.75397	15.10557	20.33869	1.22646	0.81535	170.62617	172.69617	63.88909	0.33533	 	6.221353777E9	 	7.98755E-10	 	6585.81232	28.5158	 
740.0	1.0	0.0	7.93665	7.21697	-8.77863	15.08107	20.27291	1.2244	0.81673	170.9991	172.91511	64.03597	0.33518	 	7.284913543E9	 	6.78791E-10	 	6443.4313	28.4762	 
735.0	1.0	0.0	7.93879	7.21502	-8.80323	15.05657	20.20711	1.22233	0.81811	171.37131	173.13297	64.18261	0.33503	 	8.543656124E9	 	5.75928E-10	 	6301.24718	28.43682	 
730.0	1.0	0.0	7.94092	7.21308	-8.82777	15.03206	20.14131	1.22024	0.81951	171.74279	173.34973	64.329	0.33488	 	1.00358E10	 	4.87865E-10	 	6159.25883	28.39767	 
725.0	1.0	0.0	7.94306	7.21115	-8.85224	15.00756	20.0755	1.21814	0.82093	172.11355	173.56541	64.47516	0.33473	 	1.1807599999999998E10	 	4.12591E-10	 	6017.46507	28.35875	 
720.0	1.0	0.0	7.94518	7.20922	-8.87665	14.98305	20.00967	1.21602	0.82235	172.48358	173.78002	64.62108	0.33458	 	1.3914999999999998E10	 	3.48352E-10	 	5875.86467	28.32008	 
715.0	1.0	0.0	7.94731	7.20729	-8.90099	14.95853	19.94384	1.21389	0.8238	172.8529	173.99354	64.76676	0.33443	 	1.6425799999999998E10	 	2.93619E-10	 	5734.45633	28.28167	 
710.0	1.0	0.0	7.94942	7.20537	-8.92527	14.93402	19.87799	1.21175	0.82525	173.22148	174.206	64.9122	0.33428	 	1.94223E10	 	2.47062E-10	 	5593.23873	28.24352	 
705.0	1.0	0.0	7.95154	7.20345	-8.94948	14.9095	19.81213	1.2096	0.82672	173.58935	174.41738	65.0574	0.33412	 	2.30049E10	 	2.07526E-10	 	5452.21045	28.20566	 
700.0	1.0	0.0	7.95365	7.20154	-8.97363	14.88498	19.74627	1.20743	0.82821	173.95649	174.6277	65.20236	0.33397	 	2.7295799999999996E10	 	1.74009E-10	 	5311.37004	28.16808	 
695.0	1.0	0.0	7.95575	7.19964	-8.99772	14.86045	19.68039	1.20524	0.82971	174.32292	174.83695	65.34708	0.33382	 	3.2444199999999996E10	 	1.45644E-10	 	5170.71596	28.13082	 
690.0	1.0	0.0	7.95785	7.19774	-9.02174	14.83593	19.61449	1.20305	0.83122	174.68861	175.04515	65.49156	0.33367	 	3.8633E10	 	1.21681E-10	 	5030.24661	28.09387	 
685.0	1.0	0.0	7.95995	7.19584	-9.04569	14.8114	19.54859	1.20084	0.83275	175.05359	175.25228	65.63579	0.33352	 	4.60862E10	 	1.01473E-10	 	4889.96029	28.05726	 
680.0	1.0	0.0	7.96204	7.19395	-9.06959	14.78686	19.48267	1.19861	0.8343	175.41784	175.45836	65.77979	0.33337	 	5.507909999999999E10	 	8.44619E-11	 	4749.85525	28.02101	 
675.0	1.0	0.0	7.96413	7.19207	-9.09341	14.76233	19.41675	1.19637	0.83586	175.78137	175.6634	65.92355	0.33322	 	6.595069999999999E10	 	7.01688E-11	 	4609.92962	27.98513	 
670.0	1.0	0.0	7.96621	7.19019	-9.11717	14.73779	19.35081	1.19412	0.83744	176.14418	175.86738	66.06707	0.33307	 	7.91192E10	 	5.81816E-11	 	4470.18144	27.94964	 
665.0	1.0	0.0	7.96829	7.18831	-9.14087	14.71325	19.28485	1.19185	0.83903	176.50627	176.07032	66.21034	0.33292	 	9.510139999999998E10	 	4.81473E-11	 	4330.60865	27.91456	 
660.0	1.0	0.0	7.97036	7.18644	-9.16451	14.6887	19.21889	1.18957	0.84064	176.86764	176.27222	66.35338	0.33277	 	1.14538E11	 	3.9764E-11	 	4191.2142	27.87889	 
655.0	1.0	0.0	7.97243	7.18458	-9.18807	14.66415	19.15291	1.18727	0.84227	177.22828	176.47308	66.49618	0.33262	 	1.38223E11	 	3.27737E-11	 	4052.0264	27.83756	 
650.0	1.0	0.0	7.97449	7.18272	-9.21158	14.6396	19.08692	1.18496	0.84391	177.61741	176.70196	66.64969	0.33247	 	1.67146E11	 	2.69565E-11	 	3913.08287	27.78871	 
645.0	1.0	0.0	7.97655	7.18086	-9.23502	14.61505	19.02091	1.18263	0.84557	177.97649	176.90061	66.79196	0.33232	 	2.02539E11	 	2.21254E-11	 	3774.38278	27.74002	 
640.0	1.0	0.0	7.97861	7.17901	-9.25839	14.59049	18.95489	1.18028	0.84725	178.33485	177.09822	66.93399	0.33217	 	2.45944E11	 	1.81214E-11	 	3635.92529	27.6915	 
635.0	1.0	0.0	7.98066	7.17717	-9.2817	14.56593	18.88886	1.17793	0.84895	178.69248	177.29481	67.07578	0.33202	 	2.99291E11	 	1.48099E-11	 	3497.70959	27.64314	 
630.0	1.0	0.0	7.9827	7.17533	-9.30495	14.54137	18.82281	1.17555	0.85066	179.04939	177.49038	67.21732	0.33187	 	3.65001E11	 	1.20768E-11	 	3359.73484	27.59495	 
625.0	1.0	0.0	7.98474	7.1735	-9.32813	14.51681	18.75675	1.17316	0.8524	179.40558	177.68492	67.35863	0.33172	 	4.46122E11	 	9.82611E-12	 	3221.99986	27.547	 
620.0	1.0	0.0	7.98678	7.17167	-9.35125	14.49224	18.69067	1.17075	0.85415	179.76105	177.87845	67.49969	0.33157	 	5.46499E11	 	7.97667E-12	 	3084.50284	27.4994	 
615.0	1.0	0.0	7.98881	7.16984	-9.3743	14.46767	18.62458	1.16833	0.85592	180.1158	178.07096	67.64052	0.33142	 	6.70993E11	 	6.46033E-12	 	2947.24348	27.45187	 
610.0	1.0	0.0	7.99084	7.16803	-9.39728	14.44309	18.55848	1.16589	0.85771	180.46983	178.26246	67.7811	0.33127	 	8.25763E11	 	5.21994E-12	 	2810.22099	27.4045	 
605.0	1.0	0.0	7.99286	7.16621	-9.42021	14.41852	18.49235	1.16344	0.85952	180.82313	178.45295	67.92144	0.33112	 	1.01864E12	 	4.20761E-12	 	2673.43456	27.35728	 
600.0	1.0	0.0	7.99488	7.1644	-9.44306	14.39394	18.42622	1.16096	0.86135	181.17572	178.64244	68.06154	0.33097	 	1.25959E12	 	3.38336E-12	 	2536.88341	27.31023	 
595.0	1.0	0.0	7.99689	7.1626	-9.46586	14.36935	18.36006	1.15848	0.8632	181.52758	178.83092	68.2014	0.33082	 	1.56134E12	 	2.71384E-12	 	2400.56673	27.26334	 
590.0	1.0	0.0	7.9989	7.1608	-9.48858	14.34477	18.29389	1.15597	0.86507	181.87872	179.01841	68.34101	0.33067	 	1.94021E12	 	2.17132E-12	 	2264.48375	27.2166	 
585.0	1.0	0.0	8.0009	7.15901	-9.51125	14.32018	18.22771	1.15345	0.86697	182.22914	179.2049	68.48039	0.33052	 	2.41712E12	 	1.73281E-12	 	2128.63367	27.17001	 
580.0	1.0	0.0	8.0029	7.15722	-9.53385	14.29559	18.1615	1.15091	0.86888	182.57884	179.39039	68.61952	0.33037	 	3.01903E12	 	1.37925E-12	 	1993.01572	27.12359	 
575.0	1.0	0.0	8.0049	7.15544	-9.55638	14.27099	18.09528	1.14835	0.87082	182.92782	179.57489	68.75841	0.33022	 	3.78073E12	 	1.09492E-12	 	1857.62911	27.07732	 
570.0	1.0	0.0	8.00688	7.15366	-9.57885	14.2464	18.02904	1.14577	0.87277	183.27608	179.7584	68.89706	0.33007	 	4.74725E12	 	8.66861E-13	 	1722.47307	27.03121	 
565.0	1.0	0.0	8.00887	7.15189	-9.60125	14.2218	17.96279	1.14318	0.87475	183.62362	179.94093	69.03547	0.32992	 	5.97706E12	 	6.84417E-13	 	1587.54683	26.98525	 
560.0	1.0	0.0	8.01085	7.15012	-9.62359	14.19719	17.89652	1.14057	0.87676	183.97044	180.12248	69.17363	0.32977	 	7.54631E12	 	5.38859E-13	 	1452.8496	26.93945	 
555.0	1.0	0.0	8.01282	7.14836	-9.64587	14.17259	17.83022	1.13794	0.87878	184.31654	180.30304	69.31156	0.32962	 	9.55442E12	 	4.2305E-13	 	1318.38063	26.89379	 
550.0	1.0	0.0	8.01479	7.1466	-9.66808	14.14798	17.76391	1.13529	0.88083	184.66191	180.48263	69.44924	0.32947	 	1.21316E13	 	3.31167E-13	 	1184.13916	26.84829	 
545.0	1.0	0.0	8.01676	7.14485	-9.69022	14.12337	17.69758	1.13262	0.88291	185.00657	180.66124	69.58668	0.32932	 	1.5449E13	 	2.58475E-13	 	1050.12441	26.80295	 
540.0	1.0	0.0	8.01872	7.1431	-9.7123	14.09875	17.63124	1.12994	0.88501	185.35051	180.83888	69.72388	0.32918	 	1.97321E13	 	2.01133E-13	 	916.33564	26.75775	 
535.0	1.0	0.0	8.02067	7.14136	-9.73432	14.07413	17.56487	1.12723	0.88713	185.69373	181.01556	69.86083	0.32903	 	2.52791E13	 	1.56033E-13	 	782.7721	26.71271	 
530.0	1.0	0.0	8.02263	7.13962	-9.75627	14.04951	17.49848	1.12451	0.88928	186.03622	181.19127	69.99755	0.32888	 	3.24855E13	 	1.20669E-13	 	649.43302	26.66782	 
525.0	1.0	0.0	8.02457	7.13789	-9.77815	14.02489	17.43207	1.12176	0.89145	186.378	181.36601	70.13402	0.32873	 	4.18776E13	 	9.30229E-14	 	516.31768	26.62307	 
520.0	1.0	0.0	8.02651	7.13617	-9.79997	14.00026	17.36564	1.119	0.89365	186.71906	181.53979	70.27025	0.32858	 	5.41582E13	 	7.14789E-14	 	383.42532	26.57847	 
515.0	1.0	0.0	8.02845	7.13445	-9.82173	13.97563	17.29919	1.11622	0.89588	187.0594	181.71262	70.40623	0.32843	 	7.0269E13	 	5.47434E-14	 	250.75521	26.53402	 
510.0	1.0	0.0	8.03038	7.13273	-9.84342	13.951	17.23272	1.11342	0.89814	187.39902	181.88449	70.54198	0.32828	 	9.14762E13	 	4.17853E-14	 	118.30662	26.48972	 
505.0	1.0	0.0	8.03231	7.13102	-9.86505	13.92637	17.16623	1.11059	0.90042	187.73792	182.05541	70.67748	0.32813	 	1.19488E14	 	3.17853E-14	 	-13.92119	26.44556	 
500.0	1.0	0.0	8.03423	7.12931	-9.88661	13.90173	17.09971	1.10775	0.90273	188.0761	182.22538	70.81274	0.32798	 	1.56618E14	 	2.4094E-14	 	-145.92893	26.40155	 
495.0	1.0	0.0	8.03615	7.12761	-9.9081	13.87709	17.03318	1.10488	0.90507	188.41356	182.3944	70.94775	0.32783	 	2.0601E14	 	1.81989E-14	 	-277.71733	26.35768	 
490.0	1.0	0.0	8.03806	7.12592	-9.92954	13.85245	16.96661	1.102	0.90744	188.75031	182.56248	71.08253	0.32768	 	2.7195299999999997E14	 	1.36963E-14	 	-409.28709	26.31395	 
485.0	1.0	0.0	8.03997	7.12423	-9.9509	13.8278	16.90003	1.09909	0.90984	189.08633	182.72962	71.21706	0.32754	 	3.60322E14	 	1.02695E-14	 	-540.63893	26.27037	 
480.0	1.0	0.0	8.04187	7.12254	-9.9722	13.80315	16.83342	1.09616	0.91227	189.42163	182.89581	71.35134	0.32739	 	4.79193E14	 	7.6711E-15	 	-671.77354	26.22692	 
475.0	1.0	0.0	8.04377	7.12086	-9.99344	13.7785	16.76679	1.09321	0.91473	189.75622	183.06107	71.48539	0.32724	 	6.39714E14	 	5.70808E-15	 	-802.69164	26.18362	 
470.0	1.0	0.0	8.04566	7.11919	-10.01461	13.75384	16.70013	1.09024	0.91723	190.09009	183.2254	71.61919	0.32709	 	8.57331E14	 	4.23072E-15	 	-933.39391	26.14045	 
465.0	1.0	0.0	8.04755	7.11752	-10.03572	13.72918	16.63345	1.08725	0.91975	190.42323	183.3888	71.75275	0.32694	 	1.15355E15	 	3.12318E-15	 	-1063.88104	26.09743	 
460.0	1.0	0.0	8.04943	7.11585	-10.05676	13.70452	16.56674	1.08423	0.92231	190.75566	183.55126	71.88606	0.32679	 	1.5584E15	 	2.29615E-15	 	-1194.1537	26.05453	 
455.0	1.0	0.0	8.05131	7.11419	-10.07773	13.67986	16.50001	1.08119	0.92491	191.08737	183.7128	72.01914	0.32664	 	2.11406E15	 	1.68109E-15	 	-1324.21258	26.01178	 
450.0	1.0	0.0	8.05318	7.11254	-10.09864	13.65519	16.43325	1.07813	0.92753	191.41836	183.87342	72.15197	0.32649	 	2.87996E15	 	1.22554E-15	 	-1454.05834	25.96915	 
445.0	1.0	0.0	8.05505	7.11089	-10.11949	13.63052	16.36646	1.07504	0.93019	191.74864	184.03312	72.28455	0.32635	 	3.94026E15	 	8.89563E-16	 	-1583.69164	25.92666	 
440.0	1.0	0.0	8.05691	7.10924	-10.14027	13.60585	16.29964	1.07194	0.93289	192.07819	184.1919	72.41689	0.3262	 	5.41468E15	 	6.42827E-16	 	-1713.11314	25.8843	 
435.0	1.0	0.0	8.05877	7.10761	-10.16099	13.58117	16.2328	1.0688	0.93563	192.40703	184.34976	72.54899	0.32605	 	7.4743E15	 	4.62425E-16	 	-1842.32349	25.84207	 
430.0	1.0	0.0	8.06062	7.10597	-10.18164	13.55649	16.16593	1.06565	0.9384	192.73515	184.50671	72.68085	0.3259	 	1.03648E16	 	3.31112E-16	 	-1971.32333	25.79997	 
425.0	1.0	0.0	8.06247	7.10434	-10.20222	13.53181	16.09902	1.06247	0.94121	193.06255	184.66275	72.81246	0.32575	 	1.44405E16	 	2.35968E-16	 	-2100.1132	25.75797	 
420.0	1.0	0.0	8.06431	7.10272	-10.22274	13.50713	16.03209	1.05926	0.94405	193.38923	184.81788	72.94383	0.3256	 	2.02154E16	 	1.67353E-16	 	-2228.69386	25.71613	 
415.0	1.0	0.0	8.06615	7.1011	-10.2432	13.48244	15.96513	1.05603	0.94694	193.71519	184.9721	73.07495	0.32546	 	2.84384E16	 	1.18104E-16	 	-2357.06563	25.67435	 
410.0	1.0	0.0	8.06798	7.09949	-10.26359	13.45775	15.89814	1.05278	0.94987	194.04044	185.12543	73.20583	0.32531	 	4.02066E16	 	8.29287E-17	 	-2485.22867	25.63261	 
405.0	1.0	0.0	8.06981	7.09788	-10.28391	13.43306	15.83111	1.0495	0.95284	194.36497	185.27785	73.33647	0.32516	 	5.71358E16	 	5.79301E-17	 	-2613.18318	25.5909	 
400.0	1.0	0.0	8.07163	7.09628	-10.30417	13.40836	15.76405	1.04619	0.95585	194.68878	185.42937	73.46686	0.32501	 	8.1618E16	 	4.02543E-17	 	-2740.92931	25.54923	 
395.0	1.0	0.0	8.07345	7.09468	-10.32437	13.38366	15.69696	1.04286	0.9589	195.01187	185.58	73.59701	0.32486	 	1.17215E17	 	2.78214E-17	 	-2868.46725	25.50759	 
390.0	1.0	0.0	8.07526	7.09309	-10.3445	13.35896	15.62984	1.0395	0.962	195.33425	185.72973	73.72692	0.32471	 	1.69257E17	 	1.91228E-17	 	-2995.79711	25.46597	 
385.0	1.0	0.0	8.07707	7.0915	-10.36456	13.33426	15.56268	1.03611	0.96515	195.6559	185.87857	73.85658	0.32457	 	2.45775E17	 	1.30699E-17	 	-3122.91905	25.42439	 
380.0	1.0	0.0	8.07887	7.08992	-10.38456	13.30955	15.49548	1.0327	0.96834	195.97684	186.02653	73.98599	0.32442	 	3.58929E17	 	8.88159E-18	 	-3249.83321	25.38283	 
375.0	1.0	0.0	8.08067	7.08834	-10.40449	13.28484	15.42825	1.02926	0.97157	196.29706	186.17359	74.11516	0.32427	 	5.27251E17	 	5.99991E-18	 	-3376.53968	25.34129	 
370.0	1.0	0.0	8.08246	7.08677	-10.42436	13.26012	15.36099	1.02579	0.97486	196.61657	186.31978	74.24409	0.32412	 	7.79152E17	 	4.02881E-18	 	-3503.03858	25.29978	 
365.0	1.0	0.0	8.08425	7.0852	-10.44416	13.23541	15.29368	1.0223	0.97819	196.93535	186.46508	74.37277	0.32397	 	1.15847E18	 	2.68859E-18	 	-3629.33001	25.25829	 
360.0	1.0	0.0	8.08603	7.08364	-10.4639	13.21069	15.22634	1.01877	0.98157	197.25342	186.6095	74.50121	0.32383	 	1.73328E18	 	1.78289E-18	 	-3755.41405	25.21681	 
355.0	1.0	0.0	8.08781	7.08208	-10.48358	13.18597	15.15896	1.01522	0.98501	197.57077	186.75305	74.62941	0.32368	 	2.60998E18	 	1.17466E-18	 	-3881.29076	25.17534	 
350.0	1.0	0.0	8.08958	7.08053	-10.50318	13.16124	15.09154	1.01164	0.9885	197.88741	186.89572	74.75736	0.32353	 	3.95603E18	 	7.68811E-19	 	-4006.9602	25.13389	 
345.0	1.0	0.0	8.09135	7.07899	-10.52273	13.13651	15.02408	1.00803	0.99204	198.20333	187.03753	74.88506	0.32338	 	6.03676E18	 	4.99778E-19	 	-4132.42242	25.09244	 
340.0	1.0	0.0	8.09311	7.07745	-10.5422	13.11178	14.95657	1.00439	0.99563	198.51853	187.17846	75.01252	0.32324	 	9.27558E18	 	3.22636E-19	 	-4257.67743	25.051	 
335.0	1.0	0.0	8.09487	7.07591	-10.56161	13.08705	14.88903	1.00072	0.99929	198.83301	187.31852	75.13973	0.32309	 	1.43531E19	 	2.06801E-19	 	-4382.72526	25.00957	 
330.0	1.0	0.0	8.09662	7.07438	-10.58096	13.06231	14.82144	0.99701	1.003	199.14677	187.45772	75.2667	0.32294	 	2.23714E19	 	1.31589E-19	 	-4507.5659	24.96813	 
325.0	1.0	0.0	8.09836	7.07285	-10.60024	13.03757	14.7538	0.99328	1.00676	199.45982	187.59606	75.39343	0.32279	 	3.51289E19	 	8.3106E-20	 	-4632.19934	24.92669	 
320.0	1.0	0.0	8.1001	7.07133	-10.61946	13.01283	14.68613	0.98952	1.01059	199.77216	187.73354	75.51991	0.32265	 	5.55826E19	 	5.20849E-20	 	-4756.62553	24.88524	 
315.0	1.0	0.0	8.10184	7.06982	-10.63861	12.98808	14.6184	0.98572	1.01449	200.08377	187.87016	75.64614	0.3225	 	8.86343E19	 	3.23872E-20	 	-4880.84442	24.84378	 
310.0	1.0	0.0	8.10357	7.06831	-10.65769	12.96334	14.55063	0.98189	1.01844	200.39467	188.00592	75.77213	0.32235	 	1.4247499999999998E20	 	1.99769E-20	 	-5004.85594	24.8023	 
305.0	1.0	0.0	8.1053	7.0668	-10.67671	12.93858	14.4828	0.97803	1.02246	200.70485	188.14083	75.89787	0.3222	 	2.3090999999999997E20	 	1.22204E-20	 	-5128.66	24.76081	 
300.0	1.0	0.0	8.10702	7.0653	-10.69566	12.91383	14.41493	0.97414	1.02655	201.01431	188.27489	76.02337	0.32206	 	3.7740299999999997E20	 	7.41224E-21	 	-5252.25649	24.7193	 
295.0	1.0	0.0	8.10873	7.06381	-10.71455	12.88907	14.34701	0.97021	1.0307	201.32306	188.4081	76.14863	0.32191	 	6.221899999999999E20	 	4.45683E-21	 	-5375.64527	24.67776	 
290.0	1.0	0.0	8.11044	7.06232	-10.73338	12.86431	14.27903	0.96625	1.03492	201.63109	188.54046	76.27363	0.32176	 	1.0349E21	 	2.65592E-21	 	-5498.82619	24.63618	 
285.0	1.0	0.0	8.11215	7.06084	-10.75213	12.83955	14.21101	0.96226	1.03922	201.93841	188.67198	76.39839	0.32161	 	1.73711E21	 	1.56823E-21	 	-5621.79907	24.59458	 
280.0	1.0	0.0	8.11385	7.05936	-10.77083	12.81478	14.14292	0.95823	1.04359	202.24501	188.80266	76.52291	0.32147	 	2.94325E21	 	9.17281E-22	 	-5744.56373	24.55293	 
275.0	1.0	0.0	8.11554	7.05788	-10.78945	12.79002	14.07478	0.95417	1.04804	202.55089	188.9325	76.64718	0.32132	 	5.03504E21	 	5.31353E-22	 	-5867.11991	24.51124	 
270.0	1.0	0.0	8.11723	7.05642	-10.80801	12.76524	14.00658	0.95007	1.05256	202.85605	189.0615	76.7712	0.32117	 	8.69906E21	 	3.04743E-22	 	-5989.46737	24.46949	 
265.0	1.0	0.0	8.11891	7.05495	-10.82651	12.74047	13.93833	0.94593	1.05716	203.1605	189.18966	76.89498	0.32103	 	1.5182899999999999E22	 	1.72996E-22	 	-6111.60584	24.42769	 
260.0	1.0	0.0	8.12059	7.05349	-10.84494	12.71569	13.87001	0.94176	1.06185	203.46423	189.317	77.01852	0.32088	 	2.67777E22	 	9.71769E-23	 	-6233.53501	24.38583	 
255.0	1.0	0.0	8.12226	7.05204	-10.8633	12.69091	13.80163	0.93755	1.06661	203.76725	189.4435	77.1418	0.32073	 	4.773729999999999E22	 	5.39991E-23	 	-6355.25454	24.34391	 
250.0	1.0	0.0	8.12393	7.05059	-10.8816	12.66613	13.73319	0.9333	1.07147	204.06955	189.56917	77.26484	0.32058	 	8.60481E22	 	2.96737E-23	 	-6476.76406	24.3019	 
245.0	1.0	0.0	8.12559	7.04915	-10.89984	12.64134	13.66468	0.92901	1.07641	204.37113	189.69401	77.38763	0.32044	 	1.56879E23	 	1.61205E-23	 	-6598.06317	24.25982	 
240.0	1.0	0.0	8.12725	7.04771	-10.91801	12.61655	13.59611	0.92469	1.08144	204.672	189.81803	77.51018	0.32029	 	2.8937999999999998E23	 	8.65491E-24	 	-6719.15142	24.21765	 
235.0	1.0	0.0	8.1289	7.04628	-10.93611	12.59176	13.52747	0.92033	1.08657	204.97215	189.94123	77.63248	0.32014	 	5.402649999999999E23	 	4.59063E-24	 	-6840.02836	24.17539	 
230.0	1.0	0.0	8.13055	7.04485	-10.95415	12.56697	13.45875	0.91592	1.0918	205.27159	190.06361	77.75454	0.32	 	1.0212500000000001E24	 	2.40464E-24	 	-6960.69346	24.13302	 
225.0	1.0	0.0	8.13219	7.04343	-10.97212	12.54217	13.38997	0.91148	1.09712	205.5703	190.18517	77.87635	0.31985	 	1.95529E24	 	1.24347E-24	 	-7081.14617	24.09054	 
220.0	1.0	0.0	8.13383	7.04202	-10.99002	12.51737	13.3211	0.90699	1.10254	205.86831	190.30591	77.99791	0.3197	 	3.79323E24	 	6.34537E-25	 	-7201.38591	24.04795	 
215.0	1.0	0.0	8.13546	7.0406	-11.00786	12.49256	13.25217	0.90247	1.10807	206.1656	190.42584	78.11922	0.31956	 	7.45937E24	 	3.19402E-25	 	-7321.41204	24.00523	 
210.0	1.0	0.0	8.13708	7.0392	-11.02564	12.46776	13.18315	0.8979	1.11371	206.46217	190.54496	78.24029	0.31941	 	1.48756E25	 	1.58524E-25	 	-7441.22388	23.96237	 
205.0	1.0	0.0	8.1387	7.0378	-11.04335	12.44295	13.11405	0.89329	1.11946	206.75802	190.66327	78.36111	0.31926	 	3.0096500000000003E25	 	7.75417E-26	 	-7560.82069	23.91936	 
200.0	1.0	0.0	8.14032	7.0364	-11.06099	12.41814	13.04487	0.88864	1.12532	207.05316	190.78077	78.48168	0.31912	 	6.18052E25	 	3.73646E-26	 	-7680.20168	23.8762	 
195.0	1.0	0.0	8.14193	7.03501	-11.07857	12.39332	12.97561	0.88394	1.1313	207.34759	190.89747	78.60201	0.31897	 	1.28887E26	 	1.77281E-26	 	-7799.36603	23.83287	 
190.0	1.0	0.0	8.14353	7.03363	-11.09608	12.3685	12.90625	0.8792	1.1374	207.64129	191.01336	78.72209	0.31882	 	2.7307800000000002E26	 	8.27792E-27	 	-7918.31284	23.78936	 
185.0	1.0	0.0	8.14513	7.03225	-11.11353	12.34368	12.83681	0.87441	1.14362	207.93429	191.12845	78.84192	0.31868	 	5.88141E26	 	3.80201E-27	 	-8037.04115	23.74566	 
180.0	1.0	0.0	8.14672	7.03087	-11.13091	12.31886	12.76727	0.86958	1.14998	208.22656	191.24274	78.96151	0.31853	 	1.2883299999999998E27	 	1.71673E-27	 	-8155.54995	23.70176	 
175.0	1.0	0.0	8.14831	7.0295	-11.14822	12.29403	12.69763	0.8647	1.15647	208.51813	191.35624	79.08085	0.31839	 	2.8719299999999997E27	 	7.61617E-28	 	-8273.83816	23.65764	 
170.0	1.0	0.0	8.14989	7.02814	-11.16547	12.2692	12.6279	0.85978	1.16309	208.80897	191.46894	79.19994	0.31824	 	6.51892E27	 	3.31789E-28	 	-8391.9046	23.61329	 
165.0	1.0	0.0	8.15147	7.02678	-11.18266	12.24437	12.55806	0.8548	1.16986	209.0991	191.58085	79.31878	0.31809	 	1.50766E28	 	1.41843E-28	 	-8509.74807	23.56869	 
160.0	1.0	0.0	8.15304	7.02542	-11.19977	12.21953	12.48812	0.84978	1.17677	209.38852	191.69196	79.43738	0.31795	 	3.55497E28	 	5.94688E-29	 	-8627.36725	23.52384	 
155.0	1.0	0.0	8.1546	7.02407	-11.21683	12.19469	12.41807	0.84471	1.18384	209.67722	191.80229	79.55573	0.3178	 	8.55206E28	 	2.4435E-29	 	-8744.76076	23.4787	 
150.0	1.0	0.0	8.15617	7.02273	-11.23381	12.16985	12.34791	0.83959	1.19106	209.9652	191.91183	79.67383	0.31765	 	2.1004600000000003E29	 	9.83256E-30	 	-8861.92709	23.43327	 
145.0	1.0	0.0	8.15772	7.02139	-11.25073	12.14501	12.27763	0.83442	1.19844	210.25247	192.02059	79.79168	0.31751	 	5.27098E29	 	3.87193E-30	 	-8978.86468	23.38752	 
140.0	1.0	0.0	8.15927	7.02006	-11.26759	12.12016	12.20723	0.8292	1.20599	210.53903	192.12856	79.90929	0.31736	 	1.3525099999999999E30	 	1.49092E-30	 	-9095.57186	23.34144	 
135.0	1.0	0.0	8.16081	7.01873	-11.28438	12.09531	12.1367	0.82392	1.21371	210.82487	192.23575	80.02664	0.31722	 	3.5515199999999997E30	 	5.60909E-31	 	-9212.04686	23.295	 
130.0	1.0	0.0	8.16235	7.01741	-11.3011	12.07046	12.06605	0.81859	1.22161	211.10999	192.34217	80.14375	0.31707	 	9.55188E30	 	2.05999E-31	 	-9328.28777	23.24818	 
125.0	1.0	0.0	8.16389	7.01609	-11.31776	12.0456	11.99526	0.81321	1.22969	211.3944	192.4478	80.26061	0.31692	 	2.6336399999999998E31	 	7.37866E-32	 	-9444.29258	23.20096	 
120.0	1.0	0.0	8.16541	7.01477	-11.33435	12.02074	11.92434	0.80777	1.23797	211.67809	192.55267	80.37723	0.31678	 	7.4512E31	 	2.57525E-32	 	-9560.05914	23.15331	 
115.0	1.0	0.0	8.16694	7.01347	-11.35088	11.99588	11.85327	0.80228	1.24644	211.96107	192.65675	80.49359	0.31663	 	2.16537E32	 	8.7489E-33	 	-9675.58522	23.10522	 
110.0	1.0	0.0	8.16845	7.01217	-11.36734	11.97102	11.78206	0.79673	1.25512	212.24334	192.76007	80.60971	0.31649	 	6.4704E32	 	2.89017E-33	 	-9790.86837	23.05663	 
105.0	1.0	0.0	8.16996	7.01087	-11.38373	11.94615	11.71069	0.79113	1.26402	212.52489	192.86262	80.72558	0.31634	 	1.99022E33	 	9.27361E-34	 	-9905.90602	23.00753	 
100.0	1.0	0.0	8.17147	7.00958	-11.40006	11.92128	11.63917	0.78547	1.27313	212.80572	192.9644	80.8412	0.3162	 	6.30884E33	 	2.88683E-34	 	-10020.69546	22.95789	 
95.0	1.0	0.0	8.17297	7.00829	-11.41632	11.89641	11.56748	0.77974	1.28247	213.08585	193.06542	80.95657	0.31605	 	2.0635100000000002E34	 	8.70772E-35	 	-10135.23376	22.90766	 
90.0	1.0	0.0	8.17446	7.00701	-11.43252	11.87153	11.49562	0.77396	1.29205	213.36525	193.16568	81.07169	0.3159	 	6.97327E34	 	2.54177E-35	 	-10249.51783	22.85681	 
85.0	1.0	0.0	8.17595	7.00573	-11.44865	11.84665	11.42358	0.76812	1.30188	213.64394	193.26517	81.18657	0.31576	 	2.43799E35	 	7.17002E-36	 	-10363.54438	22.80531	 
80.0	1.0	0.0	8.17744	7.00446	-11.46471	11.82177	11.35135	0.76222	1.31197	213.92192	193.3639	81.30119	0.31561	 	8.831189999999999E35	 	1.95176E-36	 	-10477.30991	22.75311	 
75.0	1.0	0.0	8.17891	7.0032	-11.48071	11.79688	11.27894	0.75625	1.32232	214.19919	193.46188	81.41557	0.31547	 	3.31942E36	 	5.11906E-37	 	-10590.81067	22.70015	 
70.0	1.0	0.0	8.18039	7.00193	-11.49665	11.77199	11.20632	0.75022	1.33295	214.47574	193.5591	81.5297	0.31532	 	1.29677E37	 	1.29154E-37	 	-10704.04269	22.6464	 
65.0	1.0	0.0	8.18185	7.00068	-11.51251	11.7471	11.1335	0.74412	1.34387	214.75157	193.65557	81.64358	0.31518	 	5.27433E37	 	3.12917E-38	 	-10817.00172	22.59181	 
60.0	1.0	0.0	8.18332	6.99943	-11.52831	11.72221	11.06045	0.73796	1.35509	215.02669	193.75129	81.75721	0.31503	 	2.2374799999999997E38	 	7.26721E-39	 	-10929.68323	22.5363	 
55.0	1.0	0.0	8.18477	6.99818	-11.54405	11.69731	10.98718	0.73173	1.36662	215.3011	193.84626	81.87059	0.31489	 	9.919179999999999E38	 	1.61467E-39	 	-11042.08239	22.47983	 
50.0	1.0	0.0	8.18622	6.99694	-11.55972	11.67241	10.91368	0.72544	1.37848	215.57479	193.94048	81.98372	0.31474	 	4.6047400000000004E39	 	3.4252E-40	 	-11154.19404	22.42233	 
45.0	1.0	0.0	8.18767	6.99571	-11.57532	11.64751	10.83993	0.71907	1.39068	215.84778	194.03395	82.09661	0.3146	 	2.24332E40	 	6.92192E-41	 	-11266.01265	22.36372	 
40.0	1.0	0.0	8.1891	6.99448	-11.59086	11.62261	10.76591	0.71264	1.40324	216.12004	194.12669	82.20924	0.31445	 	1.14958E41	 	1.32954E-41	 	-11377.53233	22.30394	 
35.0	1.0	0.0	8.19054	6.99326	-11.60633	11.5977	10.69163	0.70613	1.41617	216.3916	194.21868	82.32163	0.31431	 	6.2117500000000005E41	 	2.42122E-42	 	-11488.74678	22.24289	 
30.0	1.0	0.0	8.19197	6.99204	-11.62174	11.57279	10.61707	0.69955	1.42949	216.66244	194.30993	82.43376	0.31416	 	3.54862E42	 	4.16951E-43	 	-11599.64922	22.18049	 
25.0	1.0	0.0	8.19339	6.99082	-11.63707	 	10.54221	0.6929	1.44321	216.93256	194.40044	82.54565	0.31402	 	2.14926E43	 	6.7707E-44	 	-11710.23242	 	 
