T (C)	Fraction solid (wt)-TOTAL	Fraction liquid (wt)-LIQUID	Density (g/(cm)^3)-TOTAL	Molar volume (cm^3)-TOTAL	Volume change (%)-  	Average expansion coeff. (10e-6 1/K)-  	Thermal conductivity (W/(m*K))-TOTAL	Electrical resistivity (10e-6 Ohm*m)-TOTAL	Electrical conductivity (10e6 1/(Ohm*m))-TOTAL	Young's modulus (GPa)-TOTAL	Bulk modulus (GPa)-TOTAL	Shear modulus(GPa)-TOTAL	Poisson's ratio-TOTAL	Liquid viscosity (mPa s)-  	Total viscosity (mPa s)-  	Liquid diffusivity (10e-9 (m^2)/s)-  	Total diffusivity (10e-9 (m^2)/s)-  	Surface Tension (mN/m)-  	Enthalpy (J/mole)-TOTAL	Specific heat (J/(mole K))-TOTAL	Latent heat (J/mole)-TOTAL
1400.0	0.0	1.0	7.55438	8.17107	0.0	35.32153	30.44184	1.34657	0.74263	0.0	123.39264	0.0	0.5	7.63052	7.63052	1.07021	1.07021	1858.44493	39991.395	 	0.0
1395.0	0.0	1.0	7.55867	8.16643	-0.0567345	35.29228	30.35796	1.34626	0.7428	0.0	123.53159	0.0	0.5	7.71454	7.71454	1.05539	1.05539	1862.63472	39795.1	39.259	0.0
1390.0	0.0	1.0	7.56295	8.16181	-0.11331	35.26327	30.27408	1.34594	0.74297	0.0	123.67055	0.0	0.5	7.8	7.8	1.0407	1.0407	1866.8505	39599.218	39.1764	0.0
1385.0	0.0	1.0	7.56723	8.1572	-0.16973	35.23449	30.1902	1.34562	0.74315	0.0	123.8095	0.0	0.5	7.88693	7.88693	1.02613	1.02613	1871.09201	39403.747	39.0942	0.0
1380.0	0.0	1.0	7.57149	8.1526	-0.22599	35.20594	30.10632	1.3453	0.74333	0.0	123.94846	0.0	0.5	7.97536	7.97536	1.01169	1.01169	1875.35883	39208.685	39.0124	0.0
1375.0	0.0	1.0	7.57575	8.14802	-0.28209	35.17762	30.02244	1.34498	0.7435	0.0	124.08741	0.0	0.5	8.06533	8.06533	0.99738	0.99738	1879.65056	39014.028	38.9314	0.0
1370.0	0.0	1.0	7.58001	8.14344	-0.33804	35.14955	29.93856	1.34466	0.74368	0.0	124.22637	0.0	0.5	8.15688	8.15688	0.9832	0.9832	1883.96678	38819.773	38.851	0.0
1365.0	0.0	1.0	7.58425	8.13889	-0.39382	35.12171	29.85468	1.34433	0.74386	0.0	124.36532	0.0	0.5	8.25003	8.25003	0.96914	0.96914	1888.30708	38625.919	38.7708	0.0
1360.0	0.0	1.0	7.58849	8.13434	-0.44945	35.09412	29.7708	1.34401	0.74404	0.0	124.50428	0.0	0.5	8.34482	8.34482	0.9552	0.9552	1892.67103	38432.463	38.6912	0.0
1355.0	0.0	1.0	7.59272	8.12981	-0.50492	35.06678	29.68692	1.34368	0.74423	0.0	124.64323	0.0	0.5	8.4413	8.4413	0.94139	0.94139	1897.05821	38239.401	38.6124	0.0
1350.0	0.0	1.0	7.59694	8.12529	-0.56023	35.03968	29.60304	1.34335	0.74441	0.0	124.78219	0.0	0.5	8.5395	8.5395	0.92771	0.92771	1901.46817	38046.732	38.5338	0.0
1345.0	0.0	1.0	7.60116	8.12078	-0.61538	35.01284	29.51916	1.34302	0.74459	0.0	124.92114	0.0	0.5	8.63945	8.63945	0.91415	0.91415	1905.90049	37854.452	38.456	0.0
1340.0	0.0	1.0	7.60537	8.11629	-0.67038	34.98625	29.43528	1.34268	0.74478	0.0	125.0601	0.0	0.5	8.74121	8.74121	0.90072	0.90072	1910.35472	37662.56	38.3784	0.0
1335.0	0.0	1.0	7.60957	8.11181	-0.72521	34.95992	29.3514	1.34234	0.74497	0.0	125.19905	0.0	0.5	8.84481	8.84481	0.88741	0.88741	1914.83041	37471.053	38.3014	0.0
1330.0	0.0	1.0	7.61376	8.10734	-0.77989	34.93386	29.26752	1.34201	0.74515	0.0	125.33801	0.0	0.5	8.95029	8.95029	0.87423	0.87423	1919.32714	37279.928	38.225	0.0
1325.0	0.0	1.0	7.61795	8.10289	-0.83441	34.90805	29.18364	1.34167	0.74534	0.0	125.47696	0.0	0.5	9.05771	9.05771	0.86116	0.86116	1923.84445	37089.184	38.1488	0.0
1320.0	0.0	1.0	7.62213	8.09844	-0.88878	34.88251	29.09976	1.34132	0.74553	0.0	125.61591	0.0	0.5	9.1671	9.1671	0.84823	0.84823	1928.3837	36898.816	38.0736	0.0
1315.0	0.0	1.0	7.6263	8.09401	-0.94298	34.85725	29.01588	1.34098	0.74572	0.0	125.75487	0.0	0.5	9.27851	9.27851	0.83541	0.83541	1932.94079	36708.824	37.9984	0.0
1311.61	0.0	1.0	7.62912	8.09101	-0.97969	34.84025	28.95893	1.34074	0.74585	0.0	125.8492	0.0	0.5	9.35532	9.35532	0.82678	0.82678	1936.04547	36580.062	37.93421	0.0
1310.0	0.03144	0.96856	7.64085	8.07862	-1.13141	34.43287	29.04446	1.33544	0.74882	1.01888E-4	126.86927	3.40511E-5	0.4961	9.39748	9.82007	0.82224	0.78685	1936.51346	36066.478	319.86049	452.726
1305.0	0.12315	0.87685	7.67526	8.0424	-1.57471	33.24475	29.29489	1.31984	0.75767	0.02447	129.84311	0.00824117	0.48462	9.53107	15.55172	0.80815	0.49529	1937.91089	34563.736	300.5484	1766.22
1300.0	0.20325	0.79675	7.70586	8.01042	-1.96604	32.20296	29.51103	1.30603	0.76568	0.18482	132.46125	0.0626749	0.47446	9.66794	46.3505	0.79419	0.16565	1939.24578	33235.741	265.599	2905.333
1295.0	0.27357	0.72643	7.73313	7.9822	-2.31138	31.29128	29.69803	1.29368	0.77299	0.61622	134.77974	0.21025	0.46544	9.80811	130.37299	0.78035	0.0587066	1940.51644	32054.852	236.1778	3897.708
1290.0	0.33561	0.66439	7.75758	7.95695	-2.62047	30.48183	29.85958	1.28258	0.77968	1.41535	136.84012	0.48557	0.4574	9.95176	292.70639	0.76663	0.0260648	1941.73166	30998.453	211.2798	4765.956
1285.0	0.3906	0.6094	7.77964	7.93437	-2.89673	29.76546	29.99915	1.27253	0.78584	2.62935	138.68396	0.90655	0.4502	10.09886	552.59218	0.75305	0.0137623	1942.88897	30047.934	190.1038	5528.685
1280.0	0.43955	0.56045	7.79958	7.91403	-3.14568	29.12647	30.11907	1.26339	0.79152	4.26438	140.34051	1.47686	0.44373	10.24951	923.85909	0.7396	0.0082053	1943.99313	29187.894	172.008	6201.295
1275.0	0.48328	0.51672	7.81769	7.89562	-3.37099	28.55461	30.22152	1.25506	0.79678	6.2963	141.83548	2.18941	0.4379	10.40371	1415.88507	0.72629	0.00533669	1945.04635	28405.523	156.4742	6796.592
1270.0	0.52252	0.47748	7.8342	7.87888	-3.57586	28.04085	30.30821	1.24742	0.80165	8.68398	143.19089	3.0308	0.43262	10.56167	2035.29538	0.71312	0.00370056	1946.05108	27690.113	143.082	7325.283
1265.0	0.55783	0.44217	7.84932	7.86361	-3.76278	27.57824	30.38072	1.24041	0.80618	11.37618	144.42508	3.98373	0.42783	10.7234	2786.79577	0.70009	0.00269389	1947.00875	27032.67	131.4886	7796.36
1260.0	0.58971	0.41029	7.86322	7.84952	-3.93512	27.15695	30.44033	1.23396	0.8104	14.32128	145.5526	5.03044	0.42346	10.889	3674.62014	0.6872	0.00203638	1947.9268	26425.605	121.413	8217.41
1255.0	0.61859	0.38141	7.87604	7.83657	-4.0936	26.77529	30.4883	1.228	0.81433	17.46599	146.58798	6.15228	0.41947	11.05868	4702.47593	0.67445	0.00158608	1948.80241	25862.486	112.6238	8594.861
1250.0	0.64482	0.35518	7.88791	7.82464	-4.23967	26.4292	30.52573	1.22248	0.81801	20.76211	147.54203	7.33218	0.41582	11.23245	5874.67745	0.66184	0.00126545	1949.63586	25337.842	104.9288	8934.184
1249.27	0.64837	0.35163	7.88955	7.82297	-4.26008	26.38123	30.52999	1.22173	0.81851	21.2425	147.67278	7.50447	0.41532	11.25809	6055.29862	0.66002	0.00122712	1949.75869	25265.329	 	8979.765
1245.0	0.67021	0.32979	7.89963	7.81287	-4.38365	26.08681	30.56287	1.21699	0.8217	24.31459	148.4575	8.60821	0.41229	11.35916	7234.43884	0.65231	0.00102423	1947.62779	24814.237	104.721	9272.813
1240.0	0.69356	0.30644	7.91063	7.80186	-4.51841	25.77061	30.59171	1.21184	0.82519	27.97982	149.30406	9.92881	0.40902	11.48264	8762.20772	0.64317	8.42859E-4	1945.14503	24319.277	98.992	9583.138
1235.92	0.71091	0.28909	7.91902	7.7935	-4.62075	25.53469	30.60764	1.20794	0.82786	30.97974	149.94275	11.0125	0.40657	11.58764	10125.65803	0.63562	7.27399E-4	1943.1232	23940.313	 	9811.64
1235.0	0.71518	0.28482	7.92102	7.7915	-4.6452	25.47689	30.61135	1.20706	0.82846	31.75503	150.10034	11.29296	0.40597	11.60965	10478.95914	0.63403	7.02446E-4	1943.16922	23847.727	94.31	9870.394
1230.0	0.73736	0.26264	7.93159	7.78091	-4.7748	25.17189	30.62754	1.20242	0.83166	36.03252	150.91767	12.84309	0.4028	11.73449	12530.24335	0.62521	5.85504E-4	1943.47723	23361.048	97.3358	10173.116
1225.0	0.75717	0.24283	7.94129	7.77121	-4.8936	24.89869	30.6341	1.19816	0.83461	40.2346	151.6603	14.3701	0.39994	11.86529	14765.44253	0.61626	4.95217E-4	1943.78881	22910.314	90.1468	10440.23
1220.0	0.77493	0.22507	7.95026	7.76221	-5.00369	24.65102	30.63216	1.19424	0.83735	44.33608	152.33962	15.86435	0.39735	12.00228	17192.20308	0.60719	4.23895E-4	1944.10663	22490.199	84.023	10677.059
1215.0	0.79092	0.20908	7.95859	7.75384	-5.10617	24.42571	30.62279	1.19061	0.83991	48.32174	152.96522	17.31979	0.39499	12.14532	19823.24002	0.59803	3.66403E-4	1944.42588	22096.328	78.7742	10887.977
1210.14	0.805	0.195	7.96615	7.74622	-5.19934	24.22563	30.60727	1.18732	0.84223	52.06733	153.52801	18.69048	0.39288	12.29006	22585.45417	0.58906	3.20542E-4	1944.73438	21735.428	 	11071.423
1210.0	0.80556	0.19444	7.96646	7.74589	-5.20339	24.21548	30.6081	1.18718	0.84234	52.22286	153.55163	18.74745	0.3928	12.29668	22687.87811	0.58869	3.19064E-4	1944.70277	21722.424	74.7808	11079.258
1205.0	0.82399	0.17601	7.97672	7.73535	-5.33243	23.90046	30.65532	1.18135	0.84649	57.61801	154.34557	20.726	0.38999	12.52911	26473.69409	0.57582	2.72515E-4	1943.64302	21279.512	88.5824	11339.875
1200.0	0.83989	0.16011	7.98379	7.7239	-5.47255	23.54674	30.57581	1.18042	0.84716	62.67651	154.8396	22.58998	0.38726	12.76712	30500.66753	0.56317	2.35735E-4	1947.83922	20777.92913	100.31657	11562.215
1195.0	0.85372	0.14628	8.00189	7.71378	-5.59641	23.24306	30.2845	1.18773	0.84195	67.7422	155.07159	24.47267	0.38404	13.01086	35606.91349	0.55075	2.01244E-4	1952.03519	20224.12086	110.76165	11753.52
1190.0	0.86585	0.13415	8.01863	7.70417	-5.71397	22.95746	29.98994	1.19531	0.83661	68.74566	155.25043	24.88801	0.3811	13.26049	41238.88804	0.53854	1.73168E-4	1956.2284	19702.15109	104.39395	11919.382
1185.0	0.87562	0.12438	8.03425	7.69487	-5.82779	22.68167	29.67092	1.20403	0.83054	72.12822	155.36346	26.16222	0.37848	13.50877	47292.55987	0.52683	1.50486E-4	1960.44142	19195.2778	101.37466	12076.257
1180.0	0.8842	0.1158	8.0487	7.68593	-5.93726	22.41791	29.35691	1.21274	0.82458	75.25884	155.4454	27.34541	0.37608	13.76197	53955.40443	0.51537	1.3145E-4	1964.65427	18706.29907	97.79575	12221.001
1175.0	0.89191	0.10809	8.06199	7.67734	-6.04236	22.16636	29.05667	1.22105	0.81897	78.20165	155.50781	28.4606	0.37386	14.02275	61327.52867	0.50404	1.15251E-4	1968.867	18237.46726	93.76636	12351.481
1170.0	0.8989	0.1011	8.07423	7.66911	-6.14313	21.92704	28.77248	1.22885	0.81377	80.96942	155.55591	29.51197	0.37181	14.29121	69483.3991	0.49287	1.01372E-4	1973.0734	17786.64192	90.16507	12469.656
1165.0	0.90524	0.0947596	8.08551	7.66117	-6.2402	21.69803	28.50278	1.23618	0.80894	83.58716	155.594	30.50846	0.3699	14.56753	78514.56444	0.48184	8.94006E-5	1977.27525	17352.02437	86.92351	12577.147
1160.0	0.91104	0.0889577	8.09591	7.65352	-6.33389	21.47838	28.24653	1.24306	0.80447	86.07306	155.62518	31.45651	0.36813	14.8521	88519.08398	0.47097	7.90208E-5	1981.47172	16932.08572	83.98773	12675.308
1155.0	0.91635	0.0836465	8.10552	7.64611	-6.42456	21.26699	28.00273	1.24951	0.80031	88.44318	155.65209	32.36184	0.36647	15.14521	99605.55248	0.46024	6.99805E-5	1985.66424	16525.51483	81.31418	12765.282
1150.0	0.92125	0.078755	8.1144	7.63894	-6.51229	21.06367	27.77048	1.25555	0.79646	90.71096	155.67684	33.22924	0.36493	15.44719	111894.9827	0.44966	6.20764E-5	1989.84833	16131.17645	78.86768	12848.037
1145.0	0.92577	0.0742347	8.12262	7.63198	-6.59747	20.86724	27.54888	1.2612	0.79289	92.8921	155.70076	34.06443	0.36348	15.7581	125522.4222	0.43924	5.51426E-5	1994.02716	15748.07912	76.61947	12924.402
1140.0	0.92996	0.0700435	8.13024	7.62522	-6.68026	20.67729	27.33711	1.26649	0.78958	94.99852	155.72528	34.87171	0.36211	16.07866	140637.4026	0.42897	4.90427E-5	1998.19946	15375.35023	74.54578	12995.093
1135.0	0.93386	0.066144	8.1373	7.61865	-6.76068	20.49373	27.13444	1.27144	0.78651	93.96901	155.70019	34.52628	0.36083	16.40858	157406.7736	0.41886	4.36629E-5	2002.36067	15012.21298	72.62745	13060.732
1130.0	0.9375	0.0625046	8.14387	7.61224	-6.83911	20.31539	26.94015	1.27606	0.78366	96.52603	155.72847	35.49733	0.35962	16.74856	176015.3559	0.4089	3.89081E-5	2006.51729	14657.97239	70.84812	13121.861
1125.0	0.9409	0.0590986	8.14997	7.606	-6.9155	20.14252	26.75363	1.28037	0.78102	98.93637	155.76006	36.41432	0.35848	17.09863	196671.8098	0.3991	3.46975E-5	2010.66217	14312.00423	69.19363	13178.961
1120.0	0.94491	0.055092	8.15589	7.59945	-6.9956	19.95513	26.57451	1.2844	0.77858	101.73059	155.83176	37.47637	0.35726	17.47563	220368.644	0.38909	3.08557E-5	2014.71891	13956.56105	71.08864	13249.633
1115.0	0.95019	0.0498078	8.16179	7.59222	-7.08405	19.73677	26.4035	1.28807	0.77635	105.40496	155.97608	38.87033	0.35585	17.89758	248305.4509	0.37855	2.72858E-5	2018.59496	13576.98609	75.91499	13348.397
1110.0	0.95478	0.0452229	8.16707	7.58541	-7.16749	19.53405	26.23912	1.29148	0.77431	108.77868	156.10315	40.15207	0.35458	18.32931	278999.7541	0.36831	2.41965E-5	2022.46946	13215.00427	72.39636	13433.391
1105.0	0.95879	0.0412071	8.17186	7.57891	-7.24693	19.34355	26.08012	1.29465	0.77241	111.91702	156.21723	41.34571	0.35343	18.77204	312793.961	0.35832	2.15043E-5	2026.35256	12867.89212	69.42243	13507.205
1100.0	0.96234	0.0376611	8.1762	7.57272	-7.32275	19.16417	25.92609	1.29762	0.77064	114.86227	156.32216	42.46688	0.35237	19.22533	350066.612	0.3486	1.91449E-5	2030.23055	12533.53178	66.87207	13571.831
1095.0	0.96549	0.0345073	8.18017	7.56677	-7.39557	18.99382	25.77669	1.30039	0.769	117.64141	156.4203	43.52563	0.3514	19.69006	391230.0929	0.33914	1.70682E-5	2034.11086	12210.24689	64.65698	13628.819
1090.0	0.96832	0.0316839	8.18381	7.56104	-7.46566	18.83166	25.63165	1.30297	0.76748	120.27084	156.51388	44.52806	0.35051	20.16605	436744.5615	0.32992	1.52336E-5	2037.98557	11896.68963	62.71145	13679.396
1085.0	0.97086	0.0291422	8.18717	7.5555	-7.53345	18.67623	25.49065	1.30537	0.76607	122.75958	156.60438	45.47757	0.34967	20.6544	487116.3658	0.32094	1.36082E-5	2041.86188	11591.75959	60.98601	13724.545
1080.0	0.97316	0.026842	8.19029	7.55013	-7.59917	18.52686	25.35349	1.3076	0.76476	125.11323	156.69306	46.37626	0.34889	21.15562	542912.6148	0.31218	1.21647E-5	2045.73699	11294.5468	59.44256	13765.059
1075.0	0.97525	0.0247497	8.19318	7.54492	-7.66296	18.38306	25.21718	1.30981	0.76347	127.33335	156.78095	47.22473	0.34816	21.66941	604760.4887	0.30365	1.08803E-5	2049.6069	11004.29168	58.05102	13801.589
1070.0	0.97716	0.0228391	8.19589	7.53984	-7.72507	18.24402	25.08687	1.31173	0.76235	129.42382	156.86876	48.02446	0.34748	22.19695	673366.2865	0.29534	9.73554E-6	2053.47459	10720.34995	56.78835	13834.67
1065.0	0.97891	0.0210864	8.19842	7.5349	-7.78564	18.10932	24.95145	1.31394	0.76107	131.38699	156.95705	48.77632	0.34683	22.73822	749515.0722	0.28723	8.71387E-6	2057.33814	10442.17166	55.63566	13864.749
1060.0	0.98053	0.0194684	8.20081	7.53006	-7.84478	17.97861	24.82672	1.31561	0.76011	133.22925	157.04663	49.48272	0.34622	23.29118	834093.9439	0.27937	7.80101E-6	2061.19665	10169.20512	54.59331	13892.275
1055.0	0.98206	0.0179358	8.20311	7.52533	-7.90275	17.85094	24.70493	1.31713	0.75922	134.98051	157.13932	50.15495	0.34564	23.84628	928179.5469	0.27184	6.98396E-6	2065.05701	9900.50386	53.74025	13918.097
1050.0	0.98348	0.0165163	8.20528	7.52069	-7.95949	17.72662	24.58586	1.31853	0.75842	136.61528	157.23351	50.78335	0.34508	24.41656	1032787.959	0.26449	6.25295E-6	2068.91124	9636.3766	52.82545	13941.812
1045.0	0.9848	0.0151989	8.20735	7.51615	-8.01509	17.60532	24.46934	1.3198	0.75769	138.14085	157.32945	51.37066	0.34455	25.00278	1149163.466	0.25731	5.59847E-6	2072.75892	9376.49421	51.97648	13963.658
1040.0	0.98603	0.0139716	8.20933	7.51169	-8.06965	17.48678	24.35526	1.32095	0.75703	139.56528	157.42734	51.91988	0.34404	25.60518	1278702.398	0.25031	5.01224E-6	2076.60124	9120.56269	51.1863	13983.838
1035.0	0.98717	0.0128257	8.21122	7.50731	-8.1232	17.37085	24.24346	1.32199	0.75643	140.89467	157.52724	52.43328	0.34356	26.22455	1422964.514	0.24346	4.48694E-6	2080.43661	8868.32005	50.44853	14002.531
1030.0	0.98825	0.0117535	8.21304	7.50301	-8.17582	17.25733	24.13385	1.32292	0.7559	142.13863	157.62936	52.91445	0.3431	26.86129	1583723.33	0.23679	4.01607E-6	2084.26213	8619.53134	49.75774	14019.888
1025.0	0.98925	0.0107474	8.2148	7.49878	-8.22758	17.14592	24.02629	1.32374	0.75543	143.30467	157.73368	53.36621	0.34265	27.51605	1762963.395	0.23026	3.59392E-6	2088.08206	8373.98453	49.10936	14036.044
1020.0	0.9902	0.00980176	8.2165	7.49462	-8.27851	17.0366	23.92093	1.32445	0.75503	144.39964	157.84031	53.79111	0.34223	28.1898	1962918.326	0.22389	3.21539E-6	2091.8922	8131.48461	48.49998	14051.114
1015.0	0.99109	0.00891121	8.21814	7.49053	-8.32866	16.92919	23.81707	1.32509	0.75467	145.43082	157.94921	54.19188	0.34181	28.88317	2186111.853	0.21767	2.87595E-6	2095.69498	7891.85629	47.92566	14065.203
1010.0	0.99193	0.00807024	8.21975	7.48649	-8.37809	16.82349	23.71494	1.32563	0.75436	146.40537	158.06044	54.57119	0.34142	29.59626	2435398.435	0.21161	2.57154E-6	2099.48996	7654.93809	47.38364	14078.401
1005.0	0.99273	0.00727445	8.22131	7.4825	-8.42683	16.71939	23.61448	1.32608	0.7541	147.3295	158.174	54.93139	0.34103	30.33029	2713998.294	0.20568	2.29858E-6	2103.27572	7420.58026	46.87157	14090.788
1000.0	0.99348	0.00652167	8.22284	7.47858	-8.4749	16.61685	23.5156	1.32645	0.75389	148.20829	158.28982	55.27438	0.34066	31.08656	3025544.591	0.19989	2.05382E-6	2107.05001	7188.64569	46.38691	14102.437
995.0	0.99419	0.00580748	8.22434	7.4747	-8.52234	16.51572	23.41822	1.32673	0.75373	149.04691	158.40796	55.60209	0.3403	31.86454	3374151.149	0.19424	1.83439E-6	2110.81562	6959.00984	45.92717	14113.411
990.0	0.99487	0.00512859	8.22582	7.47087	-8.5692	16.41585	23.32227	1.32694	0.75362	149.85009	158.52833	55.91631	0.33995	32.66604	3764480.483	0.18873	1.63771E-6	2114.57427	6731.55367	45.49123	14123.768
985.0	0.99552	0.00448169	8.22727	7.46709	-8.61547	16.31728	23.22771	1.32706	0.75354	150.62148	158.65095	56.2184	0.33961	33.49183	4201803.89	0.18335	1.46145E-6	2118.31835	6506.16756	45.07722	14133.559
980.0	0.99613	0.0038657	8.22871	7.46335	-8.66122	16.21975	23.13448	1.32712	0.75351	151.36623	158.77576	56.51033	0.33928	34.34226	4692142.088	0.1781	1.30352E-6	2122.05738	6282.75224	44.68306	14142.829
975.0	0.99672	0.00327842	8.23012	7.45966	-8.70645	16.12331	23.04249	1.3271	0.75352	152.08599	158.90275	56.79269	0.33896	35.21868	5242254.221	0.17297	1.16208E-6	2125.78296	6061.2107	44.30831	14151.622
970.0	0.99728	0.00271653	8.23153	7.456	-8.75117	16.02788	22.95173	1.32701	0.75357	152.78377	159.0318	57.06662	0.33864	36.12203	5859859.602	0.16797	1.03544E-6	2129.49962	5841.45513	43.95111	14159.974
965.0	0.9979	0.00209579	8.23291	7.4524	-8.79519	15.93427	22.86283	1.32681	0.75369	153.46236	159.16299	57.33364	0.33833	37.05964	6555329.434	0.16306	9.21861E-7	2133.22163	5622.17182	43.85666	14169.15
960.0	0.99899	0.00101368	8.23422	7.44896	-8.83739	15.84711	22.77931	1.3263	0.75398	154.21653	159.29672	57.63127	0.33796	38.06263	7347556.735	0.15813	8.19143E-7	2137.05646	5397.42912	44.94854	14185.035
955.0	1.0	0.0	8.23552	7.44555	-8.8791	15.76104	22.69598	1.32577	0.75428	155.34728	159.43203	58.06926	0.3376	 	8239051.174	 	7.27547E-7	 	5174.98327	44.48917	14199.829
950.0	1.0	0.0	8.23864	7.44273	-8.91358	15.70388	22.61117	1.32533	0.75453	155.67414	159.52191	58.20232	0.33735	 	9319276.699	 	6.40596E-7	 	5598.328	-84.66895	 
945.0	1.0	0.0	8.24174	7.43993	-8.94781	15.64716	22.52752	1.32481	0.75483	156.00008	159.61441	58.33491	0.33711	 	1.055239256E7	 	5.63426E-7	 	5422.15169	35.23526	 
940.0	1.0	0.0	8.24482	7.43716	-8.98178	15.59088	22.44497	1.32422	0.75516	156.32521	159.70946	58.46709	0.33687	 	1.196158961E7	 	4.95008E-7	 	5246.87391	35.05556	 
935.0	1.0	0.0	8.24787	7.4344	-9.01551	15.53499	22.36348	1.32357	0.75553	156.64961	159.80699	58.59888	0.33663	 	1.357380716E7	 	4.34416E-7	 	5072.46262	34.88226	 
930.0	1.0	0.0	8.25091	7.43167	-9.049	15.47948	22.28301	1.32285	0.75594	156.97336	159.90693	58.73033	0.33639	 	1.542037729E7	 	3.80813E-7	 	4898.88717	34.71509	 
925.0	1.0	0.0	8.25393	7.42895	-9.08226	15.42433	22.20352	1.32207	0.75639	157.29655	160.00922	58.86147	0.33616	 	1.75377847E7	 	3.33444E-7	 	4726.11817	34.5538	 
920.0	1.0	0.0	8.25693	7.42625	-9.1153	15.36951	22.12498	1.32123	0.75687	157.61924	160.1138	58.99233	0.33593	 	1.996856418E7	 	2.91632E-7	 	4554.12754	34.39813	 
915.0	1.0	0.0	8.25991	7.42357	-9.14813	15.315	22.04734	1.32033	0.75739	157.9415	160.22059	59.12294	0.3357	 	2.276236654E7	 	2.54765E-7	 	4382.8883	34.24785	 
910.0	1.0	0.0	8.26288	7.4209	-9.18075	15.26077	21.97059	1.31936	0.75794	158.2634	160.32955	59.25333	0.33548	 	2.597721955E7	 	2.22297E-7	 	4212.37467	34.10273	 
905.0	1.0	0.0	8.26583	7.41825	-9.21316	15.20682	21.89468	1.31834	0.75853	158.58499	160.44062	59.38352	0.33526	 	2.968102719E7	 	1.93735E-7	 	4042.56191	33.96255	 
900.0	1.0	0.0	8.26876	7.41562	-9.24537	15.15312	21.81959	1.31726	0.75915	158.90632	160.55373	59.51354	0.33504	 	3.39533476E7	 	1.68639E-7	 	3873.42635	33.82711	 
895.0	1.0	0.0	8.27168	7.413	-9.27739	15.09964	21.74529	1.31613	0.7598	159.22744	160.66884	59.64341	0.33483	 	3.888752018E7	 	1.46614E-7	 	3704.94529	33.69621	 
890.0	1.0	0.0	8.27458	7.4104	-9.30923	15.04638	21.67175	1.31495	0.76049	159.54841	160.78589	59.77315	0.33462	 	4.459318636E7	 	1.27307E-7	 	3537.09694	33.56967	 
885.0	1.0	0.0	8.27747	7.40782	-9.34088	14.99332	21.59896	1.31371	0.76121	159.86926	160.90483	59.90278	0.33441	 	5.1199312E7	 	1.10405E-7	 	3369.86047	33.44729	 
880.0	1.0	0.0	8.28035	7.40525	-9.37235	14.94043	21.52688	1.31241	0.76195	160.19004	161.02561	60.03233	0.3342	 	5.885778834E7	 	9.56244E-8	 	3203.21577	33.32894	 
875.0	1.0	0.0	8.28321	7.40269	-9.40364	14.8877	21.4555	1.31107	0.76274	160.51078	161.14819	60.1618	0.33399	 	6.774775574E7	 	8.27162E-8	 	3037.14364	33.21443	 
870.0	1.0	0.0	8.28605	7.40014	-9.43477	14.83512	21.3848	1.30968	0.76355	160.83151	161.27252	60.29121	0.33379	 	7.808076395E7	 	7.14572E-8	 	2871.62579	33.10357	 
865.0	1.0	0.0	8.28889	7.39761	-9.46573	14.78267	21.31476	1.30823	0.76439	161.15227	161.39855	60.42058	0.33359	 	9.010699265E7	 	6.16492E-8	 	2706.64458	32.99624	 
860.0	1.0	0.0	8.29171	7.3951	-9.49652	14.73034	21.24535	1.30674	0.76526	161.47309	161.52624	60.54992	0.33339	 	1.041227081E8	 	5.31164E-8	 	2542.18305	32.89231	 
855.0	1.0	0.0	8.29452	7.3926	-9.52716	14.67811	21.17657	1.3052	0.76617	161.79398	161.65554	60.67924	0.33319	 	1.204792337E8	 	4.57026E-8	 	2378.22493	32.79162	 
850.0	1.0	0.0	8.29731	7.3901	-9.55764	14.62597	21.10839	1.30361	0.7671	162.11499	161.78643	60.80856	0.33299	 	1.395937938E8	 	3.92698E-8	 	2214.75461	32.69407	 
845.0	1.0	0.0	8.29954	7.38812	-9.58188	14.60226	21.04963	1.30143	0.76838	162.42977	161.97309	60.93264	0.33286	 	1.583381887E8	 	3.44668E-8	 	2077.61419	27.42808	 
840.0	1.0	0.0	8.30176	7.38615	-9.60606	14.57855	20.99085	1.29924	0.76968	162.74409	162.15906	61.05657	0.33273	 	1.798029483E8	 	3.02165E-8	 	1937.84422	27.95399	 
835.0	1.0	0.0	8.30397	7.38418	-9.63017	14.55484	20.93205	1.29704	0.77099	163.05793	162.34433	61.18034	0.3326	 	2.044118991E8	 	2.64593E-8	 	1798.24451	27.91994	 
830.0	1.0	0.0	8.30618	7.38221	-9.65423	14.53114	20.87324	1.29482	0.77231	163.3713	162.5289	61.30395	0.33247	 	2.326593658E8	 	2.3142E-8	 	1658.81436	27.88603	 
825.0	1.0	0.0	8.30839	7.38025	-9.67822	14.50743	20.81441	1.2926	0.77364	163.68419	162.71278	61.42741	0.33234	 	2.651226349E8	 	2.02163E-8	 	1519.55301	27.85227	 
820.0	1.0	0.0	8.31059	7.3783	-9.70215	14.48372	20.75555	1.29036	0.77498	163.99662	162.89596	61.55072	0.33221	 	3.02476751E8	 	1.7639E-8	 	1380.45971	27.81866	 
815.0	1.0	0.0	8.31279	7.37635	-9.72601	14.46001	20.69668	1.28811	0.77633	164.30857	163.07846	61.67386	0.33208	 	3.45512107E8	 	1.53714E-8	 	1241.53364	27.78521	 
810.0	1.0	0.0	8.31498	7.3744	-9.74982	14.4363	20.63779	1.28585	0.77769	164.62005	163.26026	61.79686	0.33195	 	3.951553843E8	 	1.33785E-8	 	1102.77401	27.75193	 
805.0	1.0	0.0	8.31717	7.37246	-9.77356	14.4126	20.57888	1.28358	0.77907	164.93105	163.44138	61.91969	0.33181	 	4.524945178E8	 	1.16293E-8	 	964.17991	27.71882	 
800.0	1.0	0.0	8.31935	7.37053	-9.79724	14.38889	20.51995	1.2813	0.78046	165.24159	163.62181	62.04237	0.33168	 	5.188084999E8	 	1.00958E-8	 	825.75046	27.68589	 
795.0	1.0	0.0	8.32153	7.3686	-9.82086	14.36518	20.461	1.279	0.78186	165.55165	163.80155	62.16489	0.33155	 	5.956030142E8	 	8.7531E-9	 	687.48471	27.65315	 
790.0	1.0	0.0	8.3237	7.36667	-9.84442	14.34147	20.40203	1.2767	0.78327	165.86124	163.98062	62.28726	0.33142	 	6.84653101E8	 	7.57898E-9	 	549.38168	27.62061	 
785.0	1.0	0.0	8.32587	7.36475	-9.86791	14.31776	20.34303	1.27438	0.7847	166.17036	164.159	62.40947	0.33129	 	7.880543201E8	 	6.55357E-9	 	411.44033	27.58827	 
780.0	1.0	0.0	8.32804	7.36284	-9.89134	14.29406	20.28402	1.27204	0.78614	166.479	164.33671	62.53152	0.33116	 	9.082841929E8	 	5.6592E-9	 	273.6596	27.55615	 
775.0	1.0	0.0	8.3302	7.36093	-9.91471	14.27035	20.22499	1.2697	0.78759	166.78718	164.51374	62.65342	0.33103	 	1.048276104E9	 	4.88016E-9	 	136.03836	27.52425	 
770.0	1.0	0.0	8.33236	7.35902	-9.93802	14.24664	20.16593	1.26734	0.78905	167.09488	164.69009	62.77516	0.3309	 	1.211508328E9	 	4.20249E-9	 	-1.42458	27.49259	 
765.0	1.0	0.0	8.33451	7.35712	-9.96127	14.22293	20.10685	1.26498	0.79053	167.4021	164.86577	62.89674	0.33077	 	1.402111439E9	 	3.6138E-9	 	-138.73045	27.46117	 
760.0	1.0	0.0	8.33665	7.35523	-9.98445	14.19923	20.04775	1.26259	0.79202	167.70886	165.04078	63.01817	0.33064	 	1.624998115E9	 	3.10311E-9	 	-275.88055	27.43002	 
755.0	1.0	0.0	8.3388	7.35334	-10.00757	14.17552	19.98863	1.2602	0.79352	168.01514	165.21512	63.13944	0.33051	 	1.886020253E9	 	2.66071E-9	 	-412.87624	27.39914	 
750.0	1.0	0.0	8.34093	7.35146	-10.03063	14.15181	19.92949	1.25779	0.79504	168.32095	165.38879	63.26055	0.33038	 	2.192159449E9	 	2.278E-9	 	-549.71895	27.36854	 
745.0	1.0	0.0	8.34307	7.34958	-10.05363	14.1281	19.87032	1.25537	0.79658	168.62629	165.5618	63.38151	0.33025	 	2.551758323E9	 	1.94742E-9	 	-686.4102	27.33825	 
740.0	1.0	0.0	8.34519	7.3477	-10.07657	14.10439	19.81113	1.25294	0.79812	168.93116	165.73414	63.50231	0.33012	 	2.974801914E9	 	1.66227E-9	 	-822.95156	27.30827	 
735.0	1.0	0.0	8.34732	7.34583	-10.09944	14.08069	19.75192	1.25049	0.79968	169.23555	165.90582	63.62295	0.32999	 	3.473260553E9	 	1.41669E-9	 	-959.34468	27.27863	 
730.0	1.0	0.0	8.34944	7.34397	-10.12225	14.05698	19.69269	1.24804	0.80126	169.53948	166.07683	63.74343	0.32986	 	4.061508404E9	 	1.20549E-9	 	-1095.59136	27.24933	 
725.0	1.0	0.0	8.35155	7.34211	-10.145	14.03327	19.63343	1.24556	0.80285	169.84292	166.24719	63.86376	0.32973	 	4.756835224E9	 	1.02415E-9	 	-1231.69341	27.22041	 
720.0	1.0	0.0	8.35366	7.34026	-10.16769	14.00956	19.57414	1.24308	0.80446	170.1459	166.41689	63.98393	0.3296	 	5.580073256E9	 	8.68684E-10	 	-1367.6528	27.19188	 
715.0	1.0	0.0	8.35576	7.33841	-10.19032	13.98586	19.51483	1.24058	0.80608	170.44841	166.58594	64.10394	0.32947	 	6.556366525E9	 	7.35608E-10	 	-1503.47159	27.16376	 
710.0	1.0	0.0	8.35786	7.33656	-10.21288	13.96215	19.4555	1.23807	0.80771	170.75044	166.75433	64.2238	0.32934	 	7.716116612E9	 	6.21882E-10	 	-1639.15194	27.13607	 
705.0	1.0	0.0	8.35996	7.33473	-10.23538	13.93844	19.39614	1.23554	0.80936	171.052	166.92206	64.34349	0.32921	 	9.096147563E9	 	5.24849E-10	 	-1774.69618	27.10885	 
700.0	1.0	0.0	8.36205	7.33289	-10.25782	13.91473	19.33676	1.233	0.81103	171.35308	167.08915	64.46303	0.32908	 	1.07411E10	 	4.42197E-10	 	-1910.10672	27.08211	 
695.0	1.0	0.0	8.36413	7.33106	-10.2802	13.89102	19.27735	1.23044	0.81272	171.6537	167.25559	64.58242	0.32895	 	1.2705399999999998E10	 	3.71912E-10	 	-2045.38614	27.05588	 
690.0	1.0	0.0	8.36621	7.32924	-10.30251	13.86732	19.21791	1.22787	0.81442	171.95384	167.42138	64.70164	0.32882	 	1.5055199999999998E10	 	3.12245E-10	 	-2180.53715	27.0302	 
685.0	1.0	0.0	8.36829	7.32742	-10.32476	13.84361	19.15845	1.22529	0.81613	172.25351	167.58652	64.82071	0.32869	 	1.78711E10	 	2.6168E-10	 	-2315.56265	27.0051	 
680.0	1.0	0.0	8.37036	7.32561	-10.34695	13.8199	19.09897	1.22269	0.81787	172.55271	167.75102	64.93962	0.32856	 	2.12518E10	 	2.18903E-10	 	-2450.46569	26.98061	 
675.0	1.0	0.0	8.37243	7.3238	-10.36908	13.79619	19.03945	1.22008	0.81962	172.85143	167.91487	65.05837	0.32843	 	2.5318399999999996E10	 	1.82779E-10	 	-2585.24951	26.95676	 
670.0	1.0	0.0	8.37449	7.322	-10.39115	13.77249	18.97991	1.21745	0.82139	173.14968	168.07809	65.17696	0.3283	 	3.0219199999999996E10	 	1.5233E-10	 	-2719.91755	26.93361	 
665.0	1.0	0.0	8.37655	7.3202	-10.41315	13.74878	18.92034	1.21481	0.82317	173.44746	168.24066	65.2954	0.32818	 	3.61367E10	 	1.2671E-10	 	-2854.47348	26.91118	 
660.0	1.0	0.0	8.3786	7.31841	-10.4351	13.72507	18.86074	1.21216	0.82498	173.74477	168.4026	65.41368	0.32805	 	4.32958E10	 	1.05194E-10	 	-2988.91076	26.88746	 
655.0	1.0	0.0	8.38065	7.31662	-10.45698	13.70136	18.80111	1.20949	0.8268	174.0416	168.5639	65.53179	0.32792	 	5.197439999999999E10	 	8.71596E-11	 	-3123.17151	26.85215	 
650.0	1.0	0.0	8.38269	7.31484	-10.47879	13.67766	18.74146	1.2068	0.82864	174.33797	168.72457	65.64975	0.32779	 	6.251619999999999E10	 	7.2072E-11	 	-3257.17899	26.8015	 
645.0	1.0	0.0	8.38473	7.31306	-10.50055	13.65395	18.68177	1.2041	0.8305	174.63386	168.8846	65.76756	0.32766	 	7.53475E10	 	5.94746E-11	 	-3390.93436	26.75107	 
640.0	1.0	0.0	8.38676	7.31129	-10.52225	13.63024	18.62206	1.20138	0.83238	174.92927	169.04401	65.8852	0.32753	 	9.09982E10	 	4.89774E-11	 	-3524.43878	26.70088	 
635.0	1.0	0.0	8.38879	7.30952	-10.54388	13.60653	18.56231	1.19865	0.83427	175.22422	169.20278	66.00269	0.3274	 	1.10129E11	 	4.0248E-11	 	-3657.6934	26.65092	 
630.0	1.0	0.0	8.39081	7.30776	-10.56545	13.58283	18.50254	1.1959	0.83619	175.51869	169.36092	66.12001	0.32727	 	1.33562E11	 	3.30037E-11	 	-3790.69938	26.6012	 
625.0	1.0	0.0	8.39283	7.306	-10.58695	13.55912	18.44273	1.19314	0.83813	175.81269	169.51844	66.23718	0.32714	 	1.62331E11	 	2.70044E-11	 	-3923.458	26.55172	 
620.0	1.0	0.0	8.39484	7.30425	-10.6084	13.53541	18.38289	1.19036	0.84009	176.10621	169.67533	66.35419	0.32702	 	1.97728E11	 	2.20467E-11	 	-4055.97065	26.50253	 
615.0	1.0	0.0	8.39685	7.3025	-10.62978	13.5117	18.32302	1.18756	0.84206	176.39927	169.8316	66.47104	0.32689	 	2.41378E11	 	1.79587E-11	 	-4188.23834	26.45354	 
610.0	1.0	0.0	8.39886	7.30076	-10.65111	13.488	18.26312	1.18475	0.84406	176.69185	169.98725	66.58774	0.32676	 	2.95331E11	 	1.45953E-11	 	-4320.26223	26.40478	 
605.0	1.0	0.0	8.40085	7.29902	-10.67237	13.46429	18.20318	1.18192	0.84608	176.98396	170.14227	66.70427	0.32663	 	3.62174E11	 	1.18342E-11	 	-4452.04348	26.35625	 
600.0	1.0	0.0	8.40285	7.29729	-10.69356	13.44058	18.14322	1.17907	0.84812	177.27559	170.29668	66.82064	0.3265	 	4.45186E11	 	9.5727E-12	 	-4583.58322	26.30795	 
595.0	1.0	0.0	8.40484	7.29556	-10.7147	13.41687	18.08321	1.17621	0.85019	177.56676	170.45047	66.93686	0.32638	 	5.48526E11	 	7.72475E-12	 	-4714.88259	26.25987	 
590.0	1.0	0.0	8.40682	7.29384	-10.73577	13.39317	18.02318	1.17333	0.85227	177.85745	170.60364	67.05292	0.32625	 	6.77491E11	 	6.21827E-12	 	-4845.94274	26.21203	 
585.0	1.0	0.0	8.4088	7.29212	-10.75678	13.36946	17.96311	1.17044	0.85438	178.14766	170.7562	67.16881	0.32612	 	8.38839E11	 	4.99311E-12	 	-4976.76481	26.16441	 
580.0	1.0	0.0	8.41078	7.29041	-10.77773	13.34575	17.903	1.16752	0.85651	178.43741	170.90815	67.28455	0.32599	 	1.04122E12	 	3.99918E-12	 	-5107.34993	26.11702	 
575.0	1.0	0.0	8.41274	7.2887	-10.79862	13.32204	17.84286	1.16459	0.85867	178.72668	171.05948	67.40013	0.32586	 	1.29572E12	 	3.19484E-12	 	-5237.69923	26.06986	 
570.0	1.0	0.0	8.41471	7.287	-10.81944	13.29834	17.78268	1.16165	0.86085	179.01548	171.21021	67.51555	0.32574	 	1.61661E12	 	2.54558E-12	 	-5367.81386	26.02293	 
565.0	1.0	0.0	8.41667	7.28531	-10.84021	13.27463	17.72246	1.15868	0.86305	179.30381	171.36033	67.63081	0.32561	 	2.02231E12	 	2.02284E-12	 	-5497.69494	25.97622	 
560.0	1.0	0.0	8.41862	7.28361	-10.86091	13.25092	17.66221	1.1557	0.86528	179.59166	171.50984	67.74591	0.32548	 	2.53663E12	 	1.60307E-12	 	-5627.3436	25.92973	 
555.0	1.0	0.0	8.42057	7.28193	-10.88155	13.22721	17.60192	1.1527	0.86753	179.87904	171.65874	67.86085	0.32535	 	3.19047E12	 	1.2669E-12	 	-5756.76095	25.88347	 
550.0	1.0	0.0	8.42252	7.28025	-10.90212	13.20351	17.54159	1.14968	0.86981	180.16595	171.80704	67.97563	0.32522	 	4.02403E12	 	9.98399E-13	 	-5885.94813	25.83744	 
545.0	1.0	0.0	8.42446	7.27857	-10.92264	13.1798	17.48122	1.14664	0.87211	180.45239	171.95474	68.09025	0.3251	 	5.08981E12	 	7.84546E-13	 	-6014.90626	25.79162	 
540.0	1.0	0.0	8.42639	7.2769	-10.94309	13.15609	17.42081	1.14359	0.87444	180.73835	172.10183	68.20472	0.32497	 	6.45648E12	 	6.14698E-13	 	-6143.63644	25.74604	 
535.0	1.0	0.0	8.42832	7.27523	-10.96348	13.13239	17.36036	1.14051	0.8768	181.02384	172.24833	68.31902	0.32484	 	8.21426E12	 	4.80187E-13	 	-6272.13979	25.70067	 
530.0	1.0	0.0	8.43025	7.27357	-10.98381	13.10868	17.29986	1.13742	0.87918	181.30885	172.39423	68.43316	0.32471	 	1.0482E13	 	3.73973E-13	 	-6400.41744	25.65553	 
525.0	1.0	0.0	8.43217	7.27192	-11.00408	13.08497	17.23933	1.13431	0.8816	181.5934	172.53953	68.54714	0.32459	 	1.34166E13	 	2.90354E-13	 	-6528.47048	25.61061	 
520.0	1.0	0.0	8.43408	7.27026	-11.02428	13.06126	17.17875	1.13117	0.88404	181.87747	172.68424	68.66096	0.32446	 	1.72265E13	 	2.24722E-13	 	-6656.30001	25.56591	 
515.0	1.0	0.0	8.43599	7.26862	-11.04442	13.03756	17.11813	1.12802	0.88651	182.16106	172.82835	68.77463	0.32433	 	2.21884E13	 	1.73368E-13	 	-6783.90714	25.52143	 
510.0	1.0	0.0	8.4379	7.26698	-11.0645	13.01385	17.05747	1.12485	0.889	182.44419	172.97187	68.88813	0.32421	 	2.86722E13	 	1.33313E-13	 	-6911.29297	25.47717	 
505.0	1.0	0.0	8.43979	7.26534	-11.08452	12.99014	16.99676	1.12167	0.89153	182.72684	173.1148	69.00147	0.32408	 	3.71728E13	 	1.0217E-13	 	-7038.4586	25.43313	 
500.0	1.0	0.0	8.44169	7.26371	-11.10448	12.96643	16.936	1.11846	0.89409	183.00902	173.25714	69.11465	0.32395	 	4.83557E13	 	7.80374E-14	 	-7165.40511	25.3893	 
495.0	1.0	0.0	8.44358	7.26209	-11.12437	12.94273	16.8752	1.11523	0.89668	183.29072	173.39889	69.22767	0.32383	 	6.31186E13	 	5.93985E-14	 	-7292.13359	25.3457	 
490.0	1.0	0.0	8.44546	7.26047	-11.1442	12.91902	16.81435	1.11198	0.8993	183.57195	173.54006	69.34053	0.3237	 	8.26768E13	 	4.50519E-14	 	-7418.64513	25.30231	 
485.0	1.0	0.0	8.44734	7.25885	-11.16397	12.89531	16.75346	1.10871	0.90195	183.85271	173.68064	69.45323	0.32357	 	1.08682E14	 	3.40475E-14	 	-7544.94082	25.25914	 
480.0	1.0	0.0	8.44922	7.25724	-11.18368	12.87161	16.69251	1.10542	0.90464	184.133	173.82063	69.56577	0.32345	 	1.43386E14	 	2.56367E-14	 	-7671.02172	25.21618	 
475.0	1.0	0.0	8.45109	7.25563	-11.20332	12.8479	16.63152	1.1021	0.90735	184.41281	173.96005	69.67815	0.32332	 	1.89873E14	 	1.92314E-14	 	-7796.88891	25.17344	 
470.0	1.0	0.0	8.45295	7.25403	-11.22291	12.82419	16.57047	1.09877	0.91011	184.69215	174.09888	69.79037	0.32319	 	2.5238399999999997E14	 	1.43715E-14	 	-7922.54346	25.13091	 
465.0	1.0	0.0	8.45481	7.25244	-11.24243	12.80048	16.50937	1.09542	0.91289	184.97102	174.23713	69.90242	0.32307	 	3.36772E14	 	1.06978E-14	 	-8047.98643	25.0886	 
460.0	1.0	0.0	8.45666	7.25085	-11.26189	12.77678	16.44822	1.09204	0.91571	185.24941	174.3748	70.01432	0.32294	 	4.51147E14	 	7.93161E-15	 	-8173.21889	25.04649	 
455.0	1.0	0.0	8.45851	7.24926	-11.28129	12.75307	16.38702	1.08865	0.91857	185.52733	174.5119	70.12605	0.32281	 	6.06799E14	 	5.85684E-15	 	-8298.24189	25.0046	 
450.0	1.0	0.0	8.46036	7.24768	-11.30062	12.72936	16.32576	1.08523	0.92146	185.80477	174.64842	70.23763	0.32269	 	8.19503E14	 	4.3069E-15	 	-8423.05648	24.96292	 
445.0	1.0	0.0	8.4622	7.24611	-11.31989	12.70566	16.26444	1.08179	0.9244	186.08175	174.78437	70.34904	0.32256	 	1.11141E15	 	3.15375E-15	 	-8547.6637	24.92144	 
440.0	1.0	0.0	8.46403	7.24454	-11.3391	12.68195	16.20307	1.07832	0.92736	186.35825	174.91974	70.46029	0.32243	 	1.51375E15	 	2.2994E-15	 	-8672.06461	24.88018	 
435.0	1.0	0.0	8.46586	7.24298	-11.35825	12.65824	16.14164	1.07484	0.93037	186.63427	175.05454	70.57138	0.32231	 	2.07075E15	 	1.66911E-15	 	-8796.26023	24.83912	 
430.0	1.0	0.0	8.46768	7.24142	-11.37734	12.63454	16.08015	1.07133	0.93342	186.90983	175.18877	70.68231	0.32218	 	2.84535E15	 	1.20614E-15	 	-8920.25159	24.79827	 
425.0	1.0	0.0	8.4695	7.23986	-11.39636	12.61083	16.01861	1.0678	0.9365	187.1849	175.32244	70.79308	0.32206	 	3.92755E15	 	8.67589E-16	 	-9044.03958	24.7576	 
420.0	1.0	0.0	8.47131	7.23831	-11.41533	12.58712	15.957	1.06425	0.93963	187.45951	175.45553	70.90369	0.32193	 	5.44662E15	 	6.21137E-16	 	-9167.62545	24.71717	 
415.0	1.0	0.0	8.47312	7.23677	-11.43423	12.56341	15.89532	1.06067	0.9428	187.73364	175.58806	71.01413	0.3218	 	7.58919E15	 	4.42562E-16	 	-9291.00959	24.67683	 
410.0	1.0	0.0	8.47492	7.23523	-11.45307	12.53971	15.83359	1.05707	0.94601	188.0073	175.72002	71.12441	0.32168	 	1.06261E16	 	3.13783E-16	 	-9414.19215	24.63651	 
405.0	1.0	0.0	8.47672	7.23369	-11.47184	12.516	15.77179	1.05344	0.94927	188.28049	175.85142	71.23453	0.32155	 	1.49523E16	 	2.21363E-16	 	-9537.17329	24.59623	 
400.0	1.0	0.0	8.47851	7.23216	-11.49056	12.49229	15.70992	1.04979	0.95257	188.5532	175.98226	71.34449	0.32143	 	2.11467E16	 	1.55366E-16	 	-9659.95314	24.55597	 
395.0	1.0	0.0	8.4803	7.23064	-11.50921	12.46859	15.64799	1.04612	0.95591	188.82543	176.11254	71.45429	0.3213	 	3.00631E16	 	1.08474E-16	 	-9782.53183	24.51574	 
390.0	1.0	0.0	8.48208	7.22912	-11.5278	12.44488	15.58599	1.04242	0.9593	189.0972	176.24225	71.56393	0.32118	 	4.29662E16	 	7.53306E-17	 	-9904.90951	24.47554	 
385.0	1.0	0.0	8.48386	7.22761	-11.54633	12.42117	15.52391	1.0387	0.96274	189.36849	176.37141	71.6734	0.32105	 	6.17416E16	 	5.20276E-17	 	-10027.08627	24.43535	 
380.0	1.0	0.0	8.48563	7.2261	-11.56479	12.39747	15.46177	1.03495	0.96623	189.63931	176.50001	71.78271	0.32093	 	8.92152E16	 	3.57323E-17	 	-10149.06222	24.39519	 
375.0	1.0	0.0	8.4874	7.2246	-11.5832	12.37376	15.39955	1.03118	0.96976	189.90965	176.62806	71.89186	0.3208	 	1.29648E17	 	2.44003E-17	 	-10270.83749	24.35505	 
370.0	1.0	0.0	8.48916	7.2231	-11.60154	12.35005	15.33725	1.02738	0.97335	190.17952	176.75555	72.00085	0.32068	 	1.89504E17	 	1.65646E-17	 	-10392.41216	24.31493	 
365.0	1.0	0.0	8.49091	7.2216	-11.61982	12.32635	15.27488	1.02355	0.97699	190.44891	176.88248	72.10967	0.32055	 	2.78646E17	 	1.11778E-17	 	-10513.7863	24.27483	 
360.0	1.0	0.0	8.49266	7.22011	-11.63804	12.30264	15.21243	1.0197	0.98068	190.71784	177.00887	72.21833	0.32043	 	4.12222E17	 	7.49656E-18	 	-10634.96002	24.23474	 
355.0	1.0	0.0	8.49441	7.21863	-11.65619	12.27893	15.1499	1.01583	0.98442	190.98628	177.1347	72.32683	0.3203	 	6.13646E17	 	4.99611E-18	 	-10755.93337	24.19467	 
350.0	1.0	0.0	8.49615	7.21715	-11.67429	12.25522	15.08729	1.01192	0.98822	191.25426	177.25999	72.43517	0.32018	 	9.19343E17	 	3.30827E-18	 	-10876.70641	24.15461	 
345.0	1.0	0.0	8.49788	7.21568	-11.69232	12.23152	15.0246	1.00799	0.99207	191.52176	177.38472	72.54334	0.32005	 	1.38636E18	 	2.17622E-18	 	-10997.2792	24.11456	 
340.0	1.0	0.0	8.49961	7.21421	-11.71029	12.20781	14.96182	1.00403	0.99598	191.78878	177.50891	72.65136	0.31993	 	2.10468E18	 	1.42189E-18	 	-11117.65176	24.07451	 
335.0	1.0	0.0	8.50134	7.21275	-11.72819	12.1841	14.89895	1.00005	0.99995	192.05533	177.63255	72.75921	0.3198	 	3.21719E18	 	9.22615E-19	 	-11237.82413	24.03447	 
330.0	1.0	0.0	8.50306	7.21129	-11.74604	12.1604	14.83599	0.99604	1.00398	192.32141	177.75565	72.86689	0.31968	 	4.95248E18	 	5.94414E-19	 	-11357.79634	23.99444	 
325.0	1.0	0.0	8.50477	7.20984	-11.76382	12.13669	14.77294	0.99199	1.00807	192.58702	177.87821	72.97442	0.31955	 	7.67894E18	 	3.80186E-19	 	-11477.56838	23.95441	 
320.0	1.0	0.0	8.50648	7.20839	-11.78154	12.11298	14.7098	0.98792	1.01222	192.85215	178.00022	73.08178	0.31943	 	1.19947E19	 	2.41357E-19	 	-11597.14024	23.91437	 
315.0	1.0	0.0	8.50818	7.20695	-11.7992	12.08928	14.64656	0.98383	1.01644	193.1168	178.12169	73.18897	0.3193	 	1.88787E19	 	1.52055E-19	 	-11716.51192	23.87434	 
310.0	1.0	0.0	8.50988	7.20551	-11.8168	12.06557	14.58322	0.9797	1.02072	193.38098	178.24262	73.29601	0.31918	 	2.99456E19	 	9.50459E-20	 	-11835.68337	23.83429	 
305.0	1.0	0.0	8.51157	7.20407	-11.83433	12.04186	14.51978	0.97554	1.02507	193.64469	178.36302	73.40288	0.31905	 	4.78806E19	 	5.89342E-20	 	-11954.65455	23.79424	 
300.0	1.0	0.0	8.51326	7.20265	-11.85181	12.01816	14.45624	0.97136	1.02949	193.90792	178.48287	73.50959	0.31893	 	7.71866E19	 	3.62421E-20	 	-12073.42542	23.75417	 
295.0	1.0	0.0	8.51494	7.20122	-11.86922	11.99445	14.39259	0.96714	1.03397	194.17068	178.60219	73.61613	0.31881	 	1.2547999999999998E20	 	2.20991E-20	 	-12191.99588	23.71409	 
290.0	1.0	0.0	8.51662	7.19981	-11.88657	11.97074	14.32884	0.9629	1.03853	194.43297	178.72098	73.72251	0.31868	 	2.05757E20	 	1.33585E-20	 	-12310.36584	23.67399	 
285.0	1.0	0.0	8.51829	7.19839	-11.90385	11.94704	14.26497	0.95862	1.04317	194.69478	178.83923	73.82873	0.31856	 	3.40394E20	 	8.00305E-21	 	-12428.53522	23.63388	 
280.0	1.0	0.0	8.51995	7.19699	-11.92108	11.92333	14.20099	0.95431	1.04788	194.95611	178.95695	73.93479	0.31843	 	5.6827999999999993E20	 	4.75081E-21	 	-12546.50388	23.59373	 
275.0	1.0	0.0	8.52162	7.19558	-11.93824	11.89962	14.13689	0.94997	1.05266	195.21698	179.07414	74.04068	0.31831	 	9.57641E20	 	2.79372E-21	 	-12664.27168	23.55356	 
270.0	1.0	0.0	8.52327	7.19419	-11.95534	11.87592	14.07267	0.9456	1.05752	195.47736	179.1908	74.1464	0.31819	 	1.62936E21	 	1.62701E-21	 	-12781.83847	23.51336	 
265.0	1.0	0.0	8.52492	7.19279	-11.97238	11.85221	14.00832	0.9412	1.06247	195.73728	179.30692	74.25197	0.31806	 	2.79975E21	 	9.38147E-22	 	-12899.20406	23.47312	 
260.0	1.0	0.0	8.52656	7.19141	-11.98936	11.8285	13.94385	0.93677	1.0675	195.99671	179.42252	74.35736	0.31794	 	4.85994E21	 	5.35433E-22	 	-13016.36827	23.43284	 
255.0	1.0	0.0	8.5282	7.19003	-12.00627	11.8048	13.87925	0.9323	1.07261	196.25568	179.5376	74.4626	0.31781	 	8.52469E21	 	3.02389E-22	 	-13133.33086	23.39252	 
250.0	1.0	0.0	8.52984	7.18865	-12.02312	11.78109	13.81452	0.9278	1.07781	196.51417	179.65215	74.56767	0.31769	 	1.5114399999999999E22	 	1.68936E-22	 	-13250.09162	23.35215	 
245.0	1.0	0.0	8.53147	7.18728	-12.03991	11.75738	13.74965	0.92327	1.0831	196.77218	179.76617	74.67258	0.31757	 	2.70958E22	 	9.33339E-23	 	-13366.65026	23.31173	 
240.0	1.0	0.0	8.53309	7.18591	-12.05664	11.73368	13.68463	0.91871	1.08849	197.02972	179.87967	74.77732	0.31744	 	4.9130899999999996E22	 	5.09772E-23	 	-13483.00649	23.27125	 
235.0	1.0	0.0	8.53471	7.18455	-12.07331	11.70997	13.61947	0.91411	1.09396	197.28679	179.99265	74.8819	0.31732	 	9.0135E22	 	2.7516E-23	 	-13599.16002	23.23071	 
230.0	1.0	0.0	8.53632	7.18319	-12.08991	11.68626	13.55416	0.90948	1.09954	197.54338	180.10511	74.98631	0.3172	 	1.67367E23	 	1.46728E-23	 	-13715.11049	23.19009	 
225.0	1.0	0.0	8.53792	7.18184	-12.10645	11.66256	13.4887	0.90481	1.10521	197.79949	180.21705	75.09056	0.31707	 	3.1465999999999997E23	 	7.7269E-24	 	-13830.85754	23.14941	 
220.0	1.0	0.0	8.53952	7.18049	-12.12293	11.63885	13.42308	0.9001	1.11098	198.05513	180.32847	75.19465	0.31695	 	5.99202E23	 	4.01691E-24	 	-13946.40078	23.10865	 
215.0	1.0	0.0	8.54112	7.17915	-12.13935	11.61514	13.35729	0.89537	1.11686	198.3103	180.43937	75.29857	0.31683	 	1.1562100000000001E24	 	2.06065E-24	 	-14061.73978	23.0678	 
210.0	1.0	0.0	8.54271	7.17782	-12.1557	11.59144	13.29134	0.89059	1.12285	198.56499	180.54976	75.40233	0.3167	 	2.26155E24	 	1.04271E-24	 	-14176.87407	23.02686	 
205.0	1.0	0.0	8.5443	7.17648	-12.172	11.56773	13.22521	0.88578	1.12894	198.81921	180.65963	75.50592	0.31658	 	4.4861000000000004E24	 	5.20214E-25	 	-14291.80317	22.98582	 
200.0	1.0	0.0	8.54587	7.17516	-12.18823	11.54403	13.15891	0.88094	1.13515	199.07295	180.76899	75.60934	0.31646	 	9.02859E24	 	2.55779E-25	 	-14406.52653	22.94467	 
195.0	1.0	0.0	8.54745	7.17384	-12.2044	11.52032	13.09242	0.87605	1.14148	199.32621	180.87783	75.71261	0.31633	 	1.8444200000000001E25	 	1.23883E-25	 	-14521.04361	22.90341	 
190.0	1.0	0.0	8.54902	7.17252	-12.2205	11.49661	13.02574	0.87114	1.14793	199.57901	180.98616	75.8157	0.31621	 	3.82646E25	 	5.90761E-26	 	-14635.35377	22.86203	 
185.0	1.0	0.0	8.55058	7.17121	-12.23655	11.47291	12.95886	0.86618	1.1545	199.83132	181.09398	75.91863	0.31609	 	8.065890000000001E25	 	2.77231E-26	 	-14749.45638	22.82052	 
180.0	1.0	0.0	8.55214	7.1699	-12.25253	11.4492	12.89178	0.86118	1.16119	200.08316	181.2013	76.0214	0.31597	 	1.7284400000000003E26	 	1.2796E-26	 	-14863.35075	22.77887	 
175.0	1.0	0.0	8.55369	7.1686	-12.26845	11.42549	12.82449	0.85615	1.16802	200.33453	181.3081	76.124	0.31584	 	3.7674E26	 	5.80588E-27	 	-14977.03614	22.73708	 
170.0	1.0	0.0	8.55524	7.16731	-12.28431	11.40179	12.75698	0.85108	1.17498	200.58542	181.4144	76.22644	0.31572	 	8.35731E26	 	2.58804E-27	 	-15090.51174	22.69512	 
165.0	1.0	0.0	8.55678	7.16602	-12.30011	11.37808	12.68925	0.84597	1.18208	200.83584	181.52018	76.32871	0.3156	 	1.8879399999999998E27	 	1.13272E-27	 	-15203.77673	22.653	 
160.0	1.0	0.0	8.55831	7.16473	-12.31584	11.35437	12.62129	0.84082	1.18932	201.08578	181.62547	76.43082	0.31548	 	4.3458999999999996E27	 	4.86458E-28	 	-15316.8302	22.61069	 
155.0	1.0	0.0	8.55984	7.16345	-12.33152	11.33067	12.55309	0.83563	1.19671	201.33524	181.73025	76.53276	0.31535	 	1.02007E28	 	2.04858E-28	 	-15429.6712	22.5682	 
150.0	1.0	0.0	8.56137	7.16217	-12.34713	11.30696	12.48463	0.83039	1.20425	201.58423	181.83453	76.63453	0.31523	 	2.4430700000000002E28	 	8.45367E-29	 	-15542.29872	22.5255	 
145.0	1.0	0.0	8.56289	7.1609	-12.36267	11.28325	12.41593	0.82512	1.21194	201.83275	181.9383	76.73614	0.31511	 	5.974660000000001E28	 	3.4159E-29	 	-15654.71166	22.48259	 
140.0	1.0	0.0	8.5644	7.15964	-12.37816	11.25955	12.34695	0.81981	1.21979	202.08079	182.04157	76.83758	0.31499	 	1.49311E29	 	1.35053E-29	 	-15766.90889	22.43945	 
135.0	1.0	0.0	8.56591	7.15838	-12.39359	11.23584	12.2777	0.81446	1.22781	202.32835	182.14435	76.93886	0.31486	 	3.81606E29	 	5.22025E-30	 	-15878.88917	22.39606	 
130.0	1.0	0.0	8.56741	7.15712	-12.40895	11.21214	12.20816	0.80906	1.236	202.57544	182.24662	77.03997	0.31474	 	9.98268E29	 	1.97109E-30	 	-15990.6512	22.35241	 
125.0	1.0	0.0	8.56891	7.15587	-12.42425	11.18843	12.13832	0.80363	1.24436	202.82205	182.3484	77.14092	0.31462	 	2.67528E30	 	7.26382E-31	 	-16102.1936	22.30848	 
120.0	1.0	0.0	8.5704	7.15463	-12.43949	11.16472	12.06818	0.79815	1.2529	203.06819	182.44968	77.2417	0.3145	 	7.351559999999999E30	 	2.61015E-31	 	-16213.51488	22.26426	 
115.0	1.0	0.0	8.57188	7.15339	-12.45466	11.14102	11.99771	0.79262	1.26163	203.31385	182.55047	77.34231	0.31438	 	2.0734899999999997E31	 	9.13661E-32	 	-16324.61348	22.21972	 
110.0	1.0	0.0	8.57336	7.15215	-12.46978	11.11731	11.92691	0.78706	1.27055	203.55904	182.65076	77.44276	0.31425	 	6.00863E31	 	3.11229E-32	 	-16435.48774	22.17485	 
105.0	1.0	0.0	8.57484	7.15092	-12.48483	11.0936	11.85576	0.78145	1.27967	203.80375	182.75055	77.54304	0.31413	 	1.79089E32	 	1.03058E-32	 	-16546.13587	22.12963	 
100.0	1.0	0.0	8.57631	7.1497	-12.49982	11.0699	11.78424	0.7758	1.289	204.04798	182.84986	77.64316	0.31401	 	5.49634E32	 	3.31357E-33	 	-16656.556	22.08402	 
95.0	1.0	0.0	8.57777	7.14848	-12.51474	11.04619	11.71235	0.7701	1.29853	204.29174	182.94867	77.74311	0.31389	 	1.73903E33	 	1.03325E-33	 	-16766.74609	22.03802	 
90.0	1.0	0.0	8.57923	7.14726	-12.52961	11.02249	11.64007	0.76436	1.30829	204.53502	183.04699	77.84289	0.31377	 	5.67956E33	 	3.12075E-34	 	-16876.70403	21.99159	 
85.0	1.0	0.0	8.58068	7.14605	-12.54441	10.99878	11.56737	0.75857	1.31827	204.77783	183.14482	77.9425	0.31365	 	1.91723E34	 	9.11755E-35	 	-16986.42751	21.9447	 
80.0	1.0	0.0	8.58213	7.14485	-12.55916	10.97507	11.49425	0.75274	1.32848	205.02016	183.24217	78.04195	0.31353	 	6.69876E34	 	2.57307E-35	 	-17095.91414	21.89733	 
75.0	1.0	0.0	8.58357	7.14365	-12.57383	10.95137	11.42068	0.74686	1.33893	205.26202	183.33902	78.14124	0.3134	 	2.4261699999999997E35	 	7.00377E-36	 	-17205.1613	21.84943	 
70.0	1.0	0.0	8.585	7.14246	-12.58845	10.92766	11.34664	0.74094	1.34964	205.5034	183.43539	78.24035	0.31328	 	9.12296E35	 	1.83584E-36	 	-17314.16624	21.80099	 
65.0	1.0	0.0	8.58643	7.14127	-12.60301	10.90395	11.27211	0.73497	1.3606	205.7443	183.53128	78.3393	0.31316	 	3.5674799999999996E36	 	4.62631E-37	 	-17422.92604	21.75196	 
60.0	1.0	0.0	8.58786	7.14008	-12.6175	10.88025	11.19707	0.72896	1.37182	205.98473	183.62668	78.43808	0.31304	 	1.4533299999999999E37	 	1.11883E-37	 	-17531.43753	21.7023	 
55.0	1.0	0.0	8.58928	7.1389	-12.63193	10.85654	11.12149	0.7229	1.38333	206.22468	183.7216	78.5367	0.31292	 	6.1795199999999995E37	 	2.59182E-38	 	-17639.69737	21.65197	 
50.0	1.0	0.0	8.59069	7.13773	-12.6463	10.83284	11.04534	0.71679	1.39511	206.46415	183.81603	78.63514	0.3128	 	2.7478799999999997E38	 	5.73976E-39	 	-17747.70199	21.60092	 
45.0	1.0	0.0	8.5921	7.13656	-12.66061	10.80913	10.9686	0.71064	1.40719	206.70315	183.90998	78.73342	0.31268	 	1.28059E39	 	1.21258E-39	 	-17855.44755	21.54911	 
40.0	1.0	0.0	8.5935	7.1354	-12.67485	10.78542	10.89124	0.70444	1.41958	206.94167	184.00346	78.83154	0.31256	 	6.26854E39	 	2.43822E-40	 	-17962.92995	21.49648	 
35.0	1.0	0.0	8.59489	7.13424	-12.68904	10.76172	10.81323	0.69819	1.43228	207.17972	184.09645	78.92948	0.31244	 	3.23078E40	 	4.65523E-41	 	-18070.14484	21.44298	 
30.0	1.0	0.0	8.59628	7.13308	-12.70316	10.73801	10.73452	0.6919	1.4453	207.41729	184.18896	79.02726	0.31231	 	1.75768E41	 	8.41792E-42	 	-18177.08749	21.38853	 
25.0	1.0	0.0	8.59767	7.13193	-12.71721	 	10.65509	0.68556	1.45867	207.65438	184.281	79.12487	0.31219	 	1.0121499999999999E42	 	1.43773E-42	 	-18283.75289	 	 
