T (C)	Fraction solid (wt)-TOTAL	Fraction liquid (wt)-LIQUID	Density (g/(cm)^3)-TOTAL	Molar volume (cm^3)-TOTAL	Volume change (%)-  	Average expansion coeff. (10e-6 1/K)-  	Thermal conductivity (W/(m*K))-TOTAL	Electrical resistivity (10e-6 Ohm*m)-TOTAL	Electrical conductivity (10e6 1/(Ohm*m))-TOTAL	Young's modulus (GPa)-TOTAL	Bulk modulus (GPa)-TOTAL	Shear modulus(GPa)-TOTAL	Poisson's ratio-TOTAL	Liquid viscosity (mPa s)-  	Total viscosity (mPa s)-  	Liquid diffusivity (10e-9 (m^2)/s)-  	Total diffusivity (10e-9 (m^2)/s)-  	Surface Tension (mN/m)-  	Enthalpy (J/mole)-TOTAL	Specific heat (J/(mole K))-TOTAL	Latent heat (J/mole)-TOTAL
1400.0	0.0	1.0	7.05358	7.91612	0.0	33.42068	29.5201	1.38862	0.72014	0.0	121.99621	0.0	0.5	6.38387	6.38387	1.2792	1.2792	1751.20446	45442.669	 	0.0
1395.0	0.0	1.0	7.05758	7.91163	-0.0567217	33.38562	29.43851	1.38831	0.7203	0.0	122.14129	0.0	0.5	6.45106	6.45106	1.26209	1.26209	1753.5004	45240.406	40.4526	0.0
1390.0	0.0	1.0	7.06158	7.90715	-0.11328	33.35075	29.35691	1.38799	0.72047	0.0	122.28637	0.0	0.5	6.51938	6.51938	1.24512	1.24512	1755.81277	45038.596	40.362	0.0
1385.0	0.0	1.0	7.06557	7.90269	-0.16968	33.31607	29.27532	1.38768	0.72063	0.0	122.43145	0.0	0.5	6.58883	6.58883	1.22829	1.22829	1758.14153	44837.236	40.272	0.0
1380.0	0.0	1.0	7.06955	7.89823	-0.22592	33.2816	29.19373	1.38736	0.72079	0.0	122.57652	0.0	0.5	6.65945	6.65945	1.2116	1.2116	1760.48656	44636.324	40.1824	0.0
1375.0	0.0	1.0	7.07353	7.8938	-0.28199	33.24731	29.11214	1.38704	0.72096	0.0	122.7216	0.0	0.5	6.73127	6.73127	1.19505	1.19505	1762.84773	44435.857	40.0934	0.0
1370.0	0.0	1.0	7.0775	7.88937	-0.33791	33.21323	29.03054	1.38672	0.72113	0.0	122.86668	0.0	0.5	6.8043	6.8043	1.17864	1.17864	1765.22491	44235.834	40.0046	0.0
1365.0	0.0	1.0	7.08146	7.88496	-0.39366	33.17936	28.94895	1.38639	0.7213	0.0	123.01176	0.0	0.5	6.87858	6.87858	1.16236	1.16236	1767.61795	44036.25	39.9168	0.0
1360.0	0.0	1.0	7.08541	7.88055	-0.44925	33.14568	28.86736	1.38607	0.72146	0.0	123.15684	0.0	0.5	6.95414	6.95414	1.14622	1.14622	1770.02666	43837.104	39.8292	0.0
1355.0	0.0	1.0	7.08936	7.87617	-0.50468	33.11222	28.78576	1.38574	0.72163	0.0	123.30192	0.0	0.5	7.03099	7.03099	1.13022	1.13022	1772.45087	43638.394	39.742	0.0
1350.0	0.0	1.0	7.0933	7.87179	-0.55995	33.07897	28.70417	1.38541	0.72181	0.0	123.447	0.0	0.5	7.10917	7.10917	1.11436	1.11436	1774.89037	43440.116	39.6556	0.0
1345.0	0.0	1.0	7.09723	7.86743	-0.61505	33.04592	28.62258	1.38508	0.72198	0.0	123.59208	0.0	0.5	7.18872	7.18872	1.09864	1.09864	1777.34494	43242.269	39.5694	0.0
1344.22	0.0	1.0	7.09785	7.86675	-0.62364	33.04078	28.60984	1.38503	0.722	0.0	123.61473	0.0	0.5	7.20126	7.20126	1.09619	1.09619	1777.72956	43211.414	39.5207	0.0010
1340.0	0.12285	0.87715	7.1354	7.82541	-1.1459	31.64044	28.99082	1.36327	0.73353	0.0205912	124.41056	0.00693663	0.48424	7.28697	13.03646	1.08047	0.60395	1776.97806	41274.814	458.98935	1770.035
1335.0	0.24307	0.75693	7.17283	7.78452	-1.66239	30.26582	29.36537	1.34171	0.74532	0.32361	125.26127	0.11018	0.46859	7.39066	82.26702	1.06201	0.0954086	1776.20106	39359.301	383.1026	3488.554
1330.0	0.34095	0.65905	7.20393	7.75092	-2.0868	29.14826	29.67045	1.32378	0.75541	1.2791	126.03388	0.43935	0.45568	7.49671	306.21761	1.04373	0.0255523	1775.54077	37776.921	316.476	4874.364
1325.0	0.4216	0.5784	7.23007	7.72282	-2.44189	28.22436	29.92021	1.30864	0.76415	3.04408	126.74463	1.05338	0.44491	7.60523	740.36952	1.02563	0.0105355	1774.99326	36451.168	265.1506	6003.967
1320.0	0.4888	0.5112	7.25231	7.69907	-2.74191	27.45463	30.12525	1.29566	0.77181	5.58351	127.40826	1.94433	0.43585	7.71617	1402.88958	1.00772	0.00554268	1774.55363	35325.563	225.121	6933.841
1315.0	0.5453	0.4547	7.27142	7.67874	-2.99872	26.80596	30.29262	1.28446	0.77854	8.76397	128.03379	3.0683	0.42815	7.82977	2290.04371	0.98999	0.00338481	1774.2154	34357.837	193.5452	7706.252
1310.0	0.59322	0.40678	7.28799	7.66111	-3.22135	26.25313	30.4284	1.2747	0.7845	12.42167	128.62836	4.36905	0.42155	7.94593	3388.46055	0.97244	0.00228038	1773.97444	33515.965	168.3744	8353.223
1305.0	0.6342	0.3658	7.3025	7.64573	-3.41568	25.77985	30.53713	1.26615	0.78979	16.398	129.19793	5.79081	0.41586	8.06487	4682.29791	0.95507	0.00164504	1773.82506	32775.395	148.114	8899.304
1300.0	0.66948	0.33052	7.3153	7.63208	-3.58807	25.36814	30.62279	1.25861	0.79453	20.55926	129.74529	7.28578	0.41092	8.18656	6157.48981	0.9379	0.00124696	1773.76356	32117.106	131.6578	9363.513
1295.0	0.70003	0.29997	7.3267	7.61996	-3.74125	25.01052	30.68874	1.25191	0.79878	24.79618	130.27543	8.81427	0.40659	8.31111	7803.01708	0.92091	9.80871E-4	1773.78405	31526.215	118.1782	9760.731
1290.0	0.72667	0.27333	7.33691	7.60906	-3.87891	24.69663	30.7377	1.24593	0.80261	29.02825	130.7905	10.34665	0.40278	8.43854	9612.07306	0.90411	7.93725E-4	1773.88269	30990.968	107.0494	10102.71
1285.0	0.75	0.25	7.34612	7.59921	-4.00329	24.42024	30.77191	1.24057	0.80608	33.19548	131.29285	11.86048	0.39942	8.56903	11581.37878	0.88749	6.56653E-4	1774.0548	30502.0	97.7936	10398.813
1280.0	0.77057	0.22943	7.35449	7.59022	-4.1169	24.17417	30.79343	1.23572	0.80924	37.25603	131.78351	13.33987	0.39642	8.70255	13710.83533	0.87107	5.52887E-4	1774.29729	30051.793	90.0414	10656.555
1275.0	0.78876	0.21124	7.36214	7.58197	-4.2211	23.95469	30.8039	1.23133	0.81213	41.18481	132.2645	14.77501	0.39373	8.83926	16004.81222	0.85484	4.72116E-4	1774.60586	29634.261	83.5064	10882.02
1270.0	0.80493	0.19507	7.36918	7.57434	-4.31745	23.75737	30.80478	1.22732	0.81479	44.96366	132.73648	16.15866	0.39132	8.97913	18468.98946	0.8388	4.07804E-4	1774.97755	29244.446	77.963	11080.165
1265.0	0.81937	0.18063	7.37569	7.56726	-4.40697	23.57933	30.79722	1.22364	0.81723	48.58419	133.20055	17.48719	0.38914	9.12229	21112.37483	0.82297	3.55589E-4	1775.40897	28878.279	73.2334	11255.056
1260.0	0.83232	0.16768	7.38173	7.56065	-4.49045	23.41842	30.78226	1.22025	0.8195	52.04081	133.6576	18.75805	0.38716	9.26883	23945.33584	0.80732	3.125E-4	1775.89685	28532.401	69.1756	11410.049
1255.0	0.84395	0.15605	7.38738	7.55444	-4.56891	23.27168	30.76081	1.21712	0.82161	55.33784	134.10808	19.97243	0.38536	9.41885	26982.52791	0.79187	2.7642E-4	1776.43897	28204.022	65.6758	11547.933
1250.0	0.85446	0.14554	7.39268	7.54857	-4.64302	23.13721	30.73362	1.21421	0.82358	58.47735	134.55247	21.13071	0.38371	9.57237	30238.77822	0.77662	2.45847E-4	1777.03303	27890.811	62.6422	11671.038
1245.0	0.86398	0.13602	7.39767	7.54302	-4.71315	23.01402	30.70138	1.2115	0.82542	61.46725	134.99162	22.23548	0.38219	9.72953	33733.24601	0.76157	2.19656E-4	1777.67585	27590.809	60.0004	11781.317
1240.0	0.87261	0.12739	7.40239	7.53774	-4.77988	22.9004	30.66463	1.20896	0.82716	64.31202	135.42567	23.28813	0.38079	9.89041	37484.60298	0.74671	1.97022E-4	1778.36586	27302.365	57.6888	11880.423
1235.0	0.8805	0.1195	7.40688	7.53269	-4.84366	22.79511	30.62385	1.20657	0.8288	67.01865	135.8548	24.29099	0.3795	10.05503	41514.66861	0.73206	1.77309E-4	1779.10124	27024.077	55.6576	11969.754
1230.0	0.88769	0.11231	7.41115	7.52785	-4.90484	22.69713	30.57951	1.20431	0.83035	69.59922	136.27964	25.24834	0.37829	10.22359	45850.56924	0.71761	1.60009E-4	1779.8799	26754.75	53.8654	12050.503
1225.0	0.89429	0.10571	7.41523	7.5232	-4.96352	22.60622	30.53195	1.20217	0.83183	72.05628	136.70034	26.16094	0.37717	10.39614	50516.56257	0.70335	1.44747E-4	1780.69956	26493.362	52.2776	12123.691
1220.0	0.90034	0.0996587	7.41915	7.51873	-5.02002	22.52147	30.48144	1.20015	0.83323	74.39593	137.11702	27.03089	0.37613	10.57277	55541.00645	0.68929	1.31213E-4	1781.55898	26239.035	50.8654	12190.193
1215.0	0.90592	0.0940827	7.42291	7.5144	-5.07473	22.44174	30.42841	1.19821	0.83458	76.63465	137.53011	27.86418	0.37515	10.75363	60962.5907	0.67543	1.19143E-4	1782.45675	25991.009	49.6052	12250.767
1212.5	0.90854	0.0914649	7.42474	7.5123	-5.10125	22.40425	30.40088	1.19728	0.83522	77.7066	137.73513	28.26348	0.37468	10.84561	63824.46444	0.66857	1.1361E-4	1782.91796	25869.324	 	12278.893
1210.0	0.91148	0.0885207	7.42654	7.51014	-5.12847	22.3644	30.37471	1.1963	0.83591	78.91962	137.95018	28.71554	0.37416	10.94285	66931.59143	0.66152	1.08154E-4	1783.75768	25742.376	49.7266	12312.319
1205.0	0.91701	0.0829945	7.43004	7.50593	-5.18173	22.28799	30.32045	1.1944	0.83724	81.25695	138.37551	29.58731	0.37317	11.14012	73509.61848	0.64761	9.81434E-5	1785.44885	25493.399	49.7954	12374.584
1200.0	0.92207	0.0779319	7.4334	7.50185	-5.23324	22.21654	30.26372	1.19259	0.83851	83.47094	138.7954	30.41391	0.37225	11.34138	80602.00157	0.63397	8.92047E-5	1787.14944	25250.744	48.531	12430.894
1195.0	0.92671	0.0732933	7.43665	7.49788	-5.28331	22.14917	30.20474	1.19086	0.83973	85.57283	139.21009	31.19943	0.37138	11.54686	88257.80662	0.62057	8.11903E-5	1788.86001	25013.693	47.4102	12481.967
1192.56	0.92882	0.0711819	7.43819	7.496	-5.30718	22.11789	30.17519	1.19005	0.8403	86.55518	139.41047	31.5668	0.37098	11.64864	92205.39822	0.61413	7.75853E-5	1789.69557	24900.107	 	12505.029
1192.31	0.92905	0.070947	7.43837	7.49577	-5.31002	22.11349	30.17127	1.19	0.84034	86.66734	139.43424	31.60876	0.37094	11.66195	92638.12894	0.61332	7.72094E-5	1789.80309	24887.351	 	12508.282
1192.31	0.92905	0.070947	7.43837	7.49577	-5.31002	22.11349	30.17126	1.19	0.84034	86.66735	139.43425	31.60876	0.37094	11.66195	92638.23584	0.61332	7.72093E-5	1789.80311	24887.346	 	12508.284
1190.0	0.93139	0.068608	7.44008	7.49364	-5.33699	22.06947	30.13437	1.18958	0.84063	87.76795	139.6543	32.02054	0.37049	11.7794	96719.65894	0.60625	7.38347E-5	1790.8988	24767.156	49.3074	12542.888
1185.0	0.93616	0.0638397	7.44367	7.48912	-5.39408	21.97794	30.05392	1.18869	0.84127	90.06772	140.12276	32.88165	0.36957	12.03861	106091.5891	0.59117	6.70823E-5	1793.26308	24511.549	51.1214	12613.239
1180.0	0.94052	0.0594833	7.44709	7.48476	-5.44914	21.89226	29.9733	1.1878	0.8419	92.24278	140.57999	33.69686	0.36871	12.30401	116220.8919	0.57644	6.10257E-5	1795.60249	24262.771	49.7556	12677.121
1175.0	0.94451	0.0554868	7.45037	7.48054	-5.50247	21.81156	29.89277	1.1869	0.84253	94.30482	141.02712	34.47046	0.36791	12.57576	127181.5844	0.56204	5.55746E-5	1797.91898	24020.005	48.5532	12735.348
1170.0	0.94819	0.0518063	7.45352	7.47645	-5.5541	21.73578	29.81228	1.18599	0.84317	96.26526	141.46533	35.20659	0.36715	12.85405	139056.2989	0.54797	5.06533E-5	1800.2124	23782.556	47.4898	12788.614
1165.0	0.95159	0.0484057	7.45656	7.47246	-5.60444	21.66364	29.73178	1.18508	0.84382	98.13444	141.89516	35.90908	0.36643	13.13894	151934.8827	0.53423	4.61991E-5	1802.48595	23549.844	46.5424	12837.497
1160.0	0.95475	0.0452549	7.45949	7.46858	-5.65344	21.5953	29.65126	1.18417	0.84447	99.92001	142.31771	36.58069	0.36575	13.4307	165915.8789	0.52081	4.2159E-5	1804.73886	23321.361	45.6966	12882.502
1158.4	0.9557	0.0443011	7.46041	7.46737	-5.66884	21.57426	29.62553	1.18388	0.84468	100.47251	142.45129	36.78861	0.36554	13.5255	170633.9804	0.51658	4.09476E-5	1805.45261	23249.229	 	12896.024
1158.4	0.9557	0.0443011	7.46041	7.46737	-5.66884	21.57426	29.62553	1.18388	0.84468	100.47251	142.45129	36.78861	0.36554	13.5255	170633.9804	0.51658	4.09476E-5	1805.45261	23249.229	 	12896.024
1155.0	0.96071	0.0392919	7.46322	7.46317	-5.72191	21.46106	29.56865	1.18334	0.84507	103.04187	142.88595	37.75459	0.36463	13.69956	183253.25	0.50881	3.80372E-5	1806.93049	23029.037	58.4648	12991.697
1150.0	0.96682	0.0331788	7.46547	7.45687	-5.80137	21.28854	29.41299	1.18543	0.84357	106.48506	143.58506	39.052	0.36338	13.9624	202571.2766	0.49748	3.42894E-5	1809.10469	22655.39913	74.72757	13107.457
1145.0	0.97179	0.0282085	7.47287	7.44906	-5.90014	21.04911	29.16592	1.19128	0.83944	109.90634	144.40116	40.35043	0.3619	14.23354	226176.334	0.48629	3.06028E-5	1811.29266	22224.73906	86.13201	13200.608
1140.0	0.97591	0.0240893	7.47955	7.44174	-5.9925	20.8293	28.9294	1.19678	0.83557	112.93979	145.15758	41.50417	0.36058	14.51286	251723.188	0.47525	2.74001E-5	1813.49388	21817.22705	81.5024	13276.978
1135.0	0.97938	0.0206202	7.48561	7.43485	-6.07963	20.62541	28.70246	1.20198	0.83196	115.66386	145.8661	42.54226	0.3594	14.80034	279492.148	0.46437	2.45904E-5	1815.70848	21428.56158	77.73309	13340.575
1130.0	0.98234	0.0176586	7.49115	7.4283	-6.16236	20.43476	28.48436	1.20688	0.82858	118.13596	146.53455	43.486	0.35832	15.09602	309773.9914	0.45366	2.21078E-5	1817.93572	21055.6318	74.58596	13394.24
1125.0	0.9849	0.0150996	7.49624	7.42204	-6.24138	20.25519	28.27447	1.21151	0.82542	120.39965	147.16865	44.35157	0.35733	15.39996	342876.7624	0.44312	1.99023E-5	1820.17644	20696.10434	71.90549	13440.041
1120.0	0.98713	0.0128658	7.50094	7.41604	-6.31716	20.08519	28.07222	1.21587	0.82246	122.4881	147.7729	45.15133	0.35642	15.71229	379131.5372	0.43276	1.79347E-5	1822.43041	20348.19946	69.58098	13479.519
1115.0	0.9891	0.0108981	7.50529	7.41027	-6.39011	19.92347	27.87712	1.21999	0.81968	124.42831	148.35094	45.89532	0.35557	16.03308	418901.4519	0.42258	1.61738E-5	1824.69706	20010.5148	67.53693	13513.839
1110.0	0.99085	0.0091515	7.50933	7.40469	-6.46055	19.76904	27.68869	1.22386	0.81708	126.24086	148.90558	46.59123	0.35477	16.36267	462580.9032	0.41257	1.45938E-5	1826.97671	19681.9369	65.71558	13543.905
1105.0	0.99241	0.00758992	7.51311	7.39929	-6.52875	19.62106	27.50657	1.22751	0.81466	127.94273	149.43924	47.2454	0.35402	16.70084	510605.7021	0.40276	1.31734E-5	1829.26936	19361.54794	64.07779	13570.424
1100.0	0.99382	0.00618478	7.51664	7.39406	-6.59492	19.47885	27.33016	1.23095	0.81238	129.54758	149.95388	47.86294	0.35332	17.048	563456.4055	0.39313	1.18945E-5	1831.57555	19048.59018	62.59155	13593.955
1095.0	0.99509	0.00491194	7.51996	7.38896	-6.65934	19.34152	27.15915	1.23419	0.81024	131.0676	150.45137	48.44843	0.35265	17.40442	621670.129	0.38367	1.07414E-5	1833.89444	18742.14237	61.28956	13614.949
1090.0	0.99625	0.00375492	7.52309	7.38399	-6.72206	19.20895	26.99327	1.23724	0.80825	132.51158	150.93301	49.00514	0.35202	17.77023	685835.6175	0.3744	9.70086E-6	1836.2256	18441.96276	60.03592	13633.772
1085.0	0.9973	0.0026961	7.52605	7.37915	-6.78323	19.08072	26.83221	1.2401	0.80639	133.88721	151.40001	49.53597	0.35141	18.14563	756609.4134	0.36531	8.76118E-6	1838.56992	18147.58929	58.87469	13650.725
1080.0	0.99828	0.0017245	7.52885	7.37442	-6.84295	18.95642	26.67573	1.24278	0.80464	135.20194	151.85354	50.04371	0.35084	18.5311	834727.0729	0.35639	7.91203E-6	1840.92741	17858.61192	57.79547	13666.056
1075.0	0.99917	8.29107E-4	7.53151	7.3698	-6.90135	18.83574	26.52386	1.24528	0.80303	136.46201	152.2946	50.53072	0.35029	18.9269	921008.9523	0.34765	7.14432E-6	1843.29614	17574.66637	56.78911	13679.972
1070.0	1.0	0.0	7.53405	7.36527	-6.95852	18.71838	26.37623	1.24761	0.80153	137.67198	152.72399	50.99871	0.34976	 	1016364.835	 	6.45003E-6	 	17295.4317	55.84693	13692.647
1065.0	1.0	0.0	7.5379	7.36151	-7.00608	18.6349	26.2344	1.24968	0.8002	138.40094	153.11237	51.28441	0.34935	 	1122468.083	 	5.81859E-6	 	17136.17279	31.85178	 
1060.0	1.0	0.0	7.54171	7.35779	-7.053	18.55299	26.09624	1.2516	0.79897	139.11586	153.49251	51.56473	0.34894	 	1240653.248	 	5.24464E-6	 	16892.01141	48.83228	 
1055.0	1.0	0.0	7.54547	7.35413	-7.09929	18.4726	25.96154	1.25338	0.79784	139.81739	153.86482	51.83992	0.34855	 	1372402.407	 	4.72337E-6	 	16650.70067	48.26215	 
1050.0	1.0	0.0	7.54918	7.35051	-7.14498	18.39365	25.83014	1.25501	0.7968	140.50611	154.22969	52.11019	0.34816	 	1519392.162	 	4.25036E-6	 	16412.12585	47.71496	 
1045.0	1.0	0.0	7.55285	7.34694	-7.19009	18.31607	25.70185	1.25651	0.79585	141.18261	154.58747	52.37576	0.34779	 	1683520.731	 	3.82149E-6	 	16176.17747	47.18968	 
1040.0	1.0	0.0	7.55648	7.34342	-7.23464	18.23981	25.57651	1.25788	0.79499	141.8474	154.9385	52.63685	0.34742	 	1866939.342	 	3.43298E-6	 	15942.75097	46.6853	 
1035.0	1.0	0.0	7.56006	7.33993	-7.27866	18.16481	25.45397	1.25912	0.7942	142.50102	155.28308	52.89364	0.34705	 	2072088.132	 	3.08131E-6	 	15711.74651	46.20089	 
1030.0	1.0	0.0	7.56361	7.33649	-7.32216	18.091	25.33408	1.26025	0.7935	143.14393	155.62152	53.14632	0.3467	 	2301737.367	 	2.76328E-6	 	15483.06871	45.73556	 
1025.0	1.0	0.0	7.56712	7.33308	-7.36517	18.01833	25.2167	1.26125	0.79286	143.77661	155.95409	53.39507	0.34635	 	2559034.893	 	2.47591E-6	 	15256.62646	45.28845	 
1020.0	1.0	0.0	7.5706	7.32972	-7.4077	17.94675	25.10171	1.26215	0.7923	144.3995	156.28104	53.64005	0.346	 	2847561.249	 	2.21647E-6	 	15032.33271	44.85875	 
1015.0	1.0	0.0	7.57404	7.32639	-7.44977	17.8762	24.98898	1.26294	0.7918	145.013	156.60263	53.88143	0.34567	 	3171392.783	 	1.98245E-6	 	14810.10426	44.44569	 
1010.0	1.0	0.0	7.57745	7.32309	-7.4914	17.80665	24.8784	1.26363	0.79137	145.61751	156.91908	54.11935	0.34534	 	3535174.722	 	1.77155E-6	 	14589.86166	44.04852	 
1005.0	1.0	0.0	7.58083	7.31983	-7.5326	17.73803	24.76986	1.26422	0.791	146.21342	157.23061	54.35396	0.34501	 	3944205.703	 	1.58164E-6	 	14371.52893	43.66655	 
1000.0	1.0	0.0	7.58417	7.3166	-7.57339	17.67031	24.66326	1.26472	0.79069	146.80107	157.53743	54.5854	0.34469	 	4404535.714	 	1.4108E-6	 	14155.03347	43.29909	 
995.0	1.0	0.0	7.58749	7.3134	-7.61379	17.60345	24.5585	1.26513	0.79043	147.38081	157.83972	54.81379	0.34438	 	4923079.268	 	1.25725E-6	 	13940.3059	42.94551	 
990.0	1.0	0.0	7.59077	7.31023	-7.6538	17.5374	24.45549	1.26545	0.79023	147.95297	158.13768	55.03927	0.34407	 	5507746.754	 	1.11935E-6	 	13727.27992	42.6052	 
985.0	1.0	0.0	7.59403	7.3071	-7.69344	17.47212	24.35416	1.26568	0.79009	148.51784	158.43147	55.26195	0.34376	 	6167597.553	 	9.95642E-7	 	13515.89214	42.27756	 
980.0	1.0	0.0	7.59727	7.30399	-7.73273	17.40757	24.25441	1.26584	0.78999	149.07571	158.72126	55.48194	0.34346	 	6913016.955	 	8.84753E-7	 	13306.08197	41.96203	 
975.0	1.0	0.0	7.60048	7.3009	-7.77167	17.34372	24.15617	1.26592	0.78994	149.62688	159.0072	55.69935	0.34317	 	7755923.133	 	7.85453E-7	 	13097.79153	41.65809	 
970.0	1.0	0.0	7.60366	7.29785	-7.81027	17.28053	24.05937	1.26592	0.78994	150.1716	159.28943	55.91428	0.34287	 	8710006.696	 	6.96613E-7	 	12890.96546	41.36521	 
965.0	1.0	0.0	7.60682	7.29482	-7.84856	17.21798	23.96395	1.26585	0.78999	150.71012	159.56811	56.12683	0.34259	 	9791012.297	 	6.17209E-7	 	12685.55084	41.08292	 
960.0	1.0	0.0	7.60995	7.29181	-7.88653	17.15601	23.86984	1.26571	0.79007	151.24268	159.84335	56.33709	0.3423	 	1.101706514E7	 	5.46307E-7	 	12481.49709	40.81075	 
955.0	1.0	0.0	7.61307	7.28883	-7.9242	17.09461	23.77698	1.2655	0.7902	151.76951	160.11528	56.54515	0.34202	 	1.240905457E7	 	4.83058E-7	 	12278.75586	40.54825	 
950.0	1.0	0.0	7.61616	7.28587	-7.96158	17.03375	23.68532	1.26522	0.79038	152.29083	160.38403	56.75109	0.34174	 	1.399108124E7	 	4.26693E-7	 	12077.28091	40.29499	 
945.0	1.0	0.0	7.61923	7.28293	-7.99867	16.97339	23.5948	1.26488	0.79059	152.80684	160.6497	56.955	0.34147	 	1.579098156E7	 	3.76512E-7	 	11877.02804	40.05057	 
940.0	1.0	0.0	7.62228	7.28002	-8.0355	16.91351	23.50538	1.26448	0.79084	153.31774	160.91241	57.15694	0.3412	 	1.784094306E7	 	3.31882E-7	 	11677.95498	39.81461	 
935.0	1.0	0.0	7.62531	7.27713	-8.07205	16.85408	23.417	1.26402	0.79112	153.82371	161.17225	57.357	0.34093	 	2.017822862E7	 	2.9223E-7	 	11480.02132	39.58673	 
930.0	1.0	0.0	7.62832	7.27425	-8.10835	16.79508	23.32963	1.26351	0.79145	154.32494	161.42933	57.55523	0.34067	 	2.284602206E7	 	2.57037E-7	 	11283.1884	39.36658	 
925.0	1.0	0.0	7.63132	7.2714	-8.14439	16.73648	23.24323	1.26293	0.79181	154.82159	161.68374	57.75171	0.34041	 	2.589443276E7	 	2.25835E-7	 	11087.41927	39.15383	 
920.0	1.0	0.0	7.63429	7.26856	-8.1802	16.67825	23.15774	1.26231	0.7922	155.31383	161.93556	57.9465	0.34015	 	2.938167028E7	 	1.98201E-7	 	10892.67858	38.94814	 
915.0	1.0	0.0	7.63725	7.26575	-8.21576	16.62039	23.07314	1.26163	0.79263	155.80181	162.18489	58.13966	0.33989	 	3.337543426E7	 	1.73752E-7	 	10698.9325	38.74921	 
910.0	1.0	0.0	7.64019	7.26295	-8.2511	16.56285	22.9894	1.26089	0.79309	156.28568	162.4318	58.33124	0.33964	 	3.795456245E7	 	1.52147E-7	 	10506.14871	38.55676	 
905.0	1.0	0.0	7.64312	7.26017	-8.28621	16.50562	22.90647	1.26011	0.79358	156.76558	162.67638	58.5213	0.33939	 	4.321096565E7	 	1.33074E-7	 	10314.29625	38.37049	 
900.0	1.0	0.0	7.64603	7.25741	-8.3211	16.44869	22.82434	1.25928	0.79411	157.24165	162.91871	58.70989	0.33914	 	4.925193671E7	 	1.16256E-7	 	10123.34556	38.19014	 
895.0	1.0	0.0	7.64892	7.25466	-8.35578	16.39203	22.74296	1.2584	0.79466	157.71401	163.15884	58.89707	0.3389	 	5.620287046E7	 	1.01444E-7	 	9933.26829	38.01545	 
890.0	1.0	0.0	7.6518	7.25194	-8.39025	16.33562	22.66231	1.25747	0.79525	158.18279	163.39686	59.08287	0.33865	 	6.421051646E7	 	8.8413E-8	 	9744.03738	37.84618	 
885.0	1.0	0.0	7.65466	7.24922	-8.42452	16.27945	22.58237	1.2565	0.79586	158.6481	163.63284	59.26736	0.33841	 	7.344682166E7	 	7.69624E-8	 	9555.62692	37.68209	 
880.0	1.0	0.0	7.65751	7.24653	-8.4586	16.2235	22.50312	1.25548	0.79651	159.11007	163.86684	59.45056	0.33817	 	8.411351701E7	 	6.69124E-8	 	9368.01188	37.52301	 
875.0	1.0	0.0	7.66034	7.24384	-8.49248	16.16775	22.42452	1.25442	0.79718	159.56879	164.09891	59.63252	0.33793	 	9.644760201E7	 	5.81024E-8	 	9181.16846	37.36869	 
870.0	1.0	0.0	7.66317	7.24118	-8.52617	16.11218	22.34656	1.25331	0.79789	160.02438	164.32914	59.81328	0.3377	 	1.107278539E8	 	5.03887E-8	 	8995.07443	37.21881	 
865.0	1.0	0.0	7.66597	7.23852	-8.55968	16.05678	22.26921	1.25216	0.79862	160.47693	164.55757	59.99289	0.33747	 	1.272826461E8	 	4.36432E-8	 	8809.70813	37.07326	 
860.0	1.0	0.0	7.66877	7.23589	-8.59301	16.00154	22.19246	1.25097	0.79938	160.92653	164.78426	60.17137	0.33724	 	1.464992781E8	 	3.77519E-8	 	8625.04884	36.93186	 
855.0	1.0	0.0	7.67155	7.23326	-8.62616	15.94644	22.11629	1.24974	0.80016	161.37329	165.00927	60.34876	0.33701	 	1.688351894E8	 	3.2613E-8	 	8441.07673	36.79442	 
850.0	1.0	0.0	7.67432	7.23065	-8.65914	15.89147	22.04068	1.24847	0.80098	161.81729	165.23265	60.5251	0.33678	 	1.948313968E8	 	2.81362E-8	 	8257.77283	36.66078	 
845.0	1.0	0.0	7.67654	7.22856	-8.68559	15.86605	21.9746	1.24665	0.80215	162.20315	165.47682	60.67614	0.33663	 	2.213224431E8	 	2.46582E-8	 	8105.4547	30.46363	 
840.0	1.0	0.0	7.67876	7.22647	-8.71196	15.84063	21.90851	1.24482	0.80333	162.58834	165.71992	60.82695	0.33648	 	2.51703557E8	 	2.15849E-8	 	7950.2444	31.04206	 
835.0	1.0	0.0	7.68098	7.22439	-8.73827	15.81521	21.84241	1.24298	0.80452	162.97286	165.96196	60.97754	0.33634	 	2.865875823E8	 	1.88724E-8	 	7795.25198	30.99848	 
830.0	1.0	0.0	7.68319	7.22231	-8.76452	15.78979	21.77629	1.24113	0.80572	163.3567	166.20294	61.12791	0.33619	 	3.266903889E8	 	1.64811E-8	 	7640.47671	30.95505	 
825.0	1.0	0.0	7.68539	7.22024	-8.79069	15.76437	21.71017	1.23927	0.80693	163.73987	166.44286	61.27806	0.33604	 	3.728492723E8	 	1.43752E-8	 	7485.91784	30.91177	 
820.0	1.0	0.0	7.68759	7.21817	-8.8168	15.73895	21.64403	1.23739	0.80815	164.12237	166.68174	61.42799	0.33589	 	4.260448322E8	 	1.25231E-8	 	7331.57461	30.86865	 
815.0	1.0	0.0	7.68979	7.21611	-8.84285	15.71352	21.57788	1.23551	0.80938	164.5042	166.91956	61.57769	0.33575	 	4.874270219E8	 	1.0896E-8	 	7177.44624	30.82567	 
810.0	1.0	0.0	7.69198	7.21405	-8.86882	15.6881	21.51171	1.23362	0.81063	164.88535	167.15634	61.72718	0.3356	 	5.583462084E8	 	9.46829E-9	 	7023.53191	30.78287	 
805.0	1.0	0.0	7.69417	7.212	-8.89474	15.66267	21.44553	1.23171	0.81188	165.26584	167.39208	61.87644	0.33545	 	6.403902609E8	 	8.21715E-9	 	6869.8308	30.74022	 
800.0	1.0	0.0	7.69635	7.20995	-8.92058	15.63724	21.37934	1.22979	0.81314	165.64565	167.62679	62.02549	0.3353	 	7.354288991E8	 	7.12207E-9	 	6716.34205	30.69775	 
795.0	1.0	0.0	7.69853	7.20791	-8.94635	15.61181	21.31314	1.22787	0.81442	166.02479	167.86045	62.17431	0.33516	 	8.456668025E8	 	6.16481E-9	 	6563.06475	30.65546	 
790.0	1.0	0.0	7.7007	7.20588	-8.97206	15.58638	21.24692	1.22593	0.81571	166.40327	168.09309	62.32291	0.33501	 	9.737073048E8	 	5.32909E-9	 	6409.998	30.61335	 
785.0	1.0	0.0	7.70287	7.20385	-8.99771	15.56095	21.18069	1.22398	0.81701	166.78107	168.3247	62.47129	0.33486	 	1.122628898E9	 	4.60042E-9	 	6257.14082	30.57143	 
780.0	1.0	0.0	7.70504	7.20182	-9.02328	15.53551	21.11444	1.22202	0.81832	167.1582	168.55529	62.61945	0.33471	 	1.296077262E9	 	3.96594E-9	 	6104.49226	30.52971	 
775.0	1.0	0.0	7.7072	7.1998	-9.04879	15.51008	21.04818	1.22004	0.81964	167.53467	168.78485	62.76739	0.33457	 	1.498376143E9	 	3.4142E-9	 	5952.05128	30.4882	 
770.0	1.0	0.0	7.70936	7.19779	-9.07424	15.48464	20.98191	1.21806	0.82098	167.91046	169.01339	62.9151	0.33442	 	1.734661147E9	 	2.93507E-9	 	5799.8168	30.4469	 
765.0	1.0	0.0	7.71151	7.19578	-9.09961	15.4592	20.91562	1.21606	0.82233	168.28559	169.24093	63.0626	0.33427	 	2.011041448E9	 	2.51957E-9	 	5647.78775	30.40581	 
760.0	1.0	0.0	7.71366	7.19378	-9.12492	15.43377	20.84931	1.21405	0.82369	168.66005	169.46745	63.20987	0.33413	 	2.334795535E9	 	2.15974E-9	 	5495.96296	30.36496	 
755.0	1.0	0.0	7.7158	7.19178	-9.15016	15.40833	20.78299	1.21203	0.82506	169.03384	169.69296	63.35693	0.33398	 	2.714608568E9	 	1.84857E-9	 	5344.34124	30.32434	 
750.0	1.0	0.0	7.71794	7.18979	-9.17534	15.38288	20.71666	1.21	0.82645	169.40696	169.91746	63.50376	0.33383	 	3.160860649E9	 	1.57987E-9	 	5192.92135	30.28398	 
745.0	1.0	0.0	7.72007	7.1878	-9.20045	15.35744	20.65031	1.20796	0.82784	169.77942	170.14097	63.65037	0.33369	 	3.685977522E9	 	1.34817E-9	 	5041.70199	30.24387	 
740.0	1.0	0.0	7.7222	7.18582	-9.22549	15.332	20.58394	1.2059	0.82926	170.1512	170.36347	63.79677	0.33354	 	4.304857947E9	 	1.14869E-9	 	4890.6818	30.20404	 
735.0	1.0	0.0	7.72433	7.18384	-9.25046	15.30655	20.51756	1.20383	0.83068	170.52233	170.58499	63.94294	0.33339	 	5.035395414E9	 	9.77188E-10	 	4739.85937	30.16449	 
730.0	1.0	0.0	7.72645	7.18187	-9.27537	15.2811	20.45116	1.20175	0.83212	170.89278	170.8055	64.08889	0.33325	 	5.899116117E9	 	8.29976E-10	 	4589.23323	30.12523	 
725.0	1.0	0.0	7.72856	7.1799	-9.30021	15.25565	20.38474	1.19966	0.83357	171.26257	171.02503	64.23461	0.3331	 	6.921960515E9	 	7.03807E-10	 	4438.80181	30.08628	 
720.0	1.0	0.0	7.73068	7.17794	-9.32499	15.2302	20.31831	1.19755	0.83504	171.63169	171.24358	64.38012	0.33296	 	8.135242472E9	 	5.95842E-10	 	4288.56349	30.04766	 
715.0	1.0	0.0	7.73278	7.17599	-9.3497	15.20475	20.25186	1.19543	0.83652	172.00015	171.46114	64.52541	0.33281	 	9.576828518E9	 	5.03602E-10	 	4138.51659	30.00938	 
710.0	1.0	0.0	7.73489	7.17403	-9.37434	15.1793	20.18539	1.1933	0.83801	172.36794	171.67772	64.67048	0.33266	 	1.12926E10	 	4.24926E-10	 	3988.6593	29.97146	 
705.0	1.0	0.0	7.73698	7.17209	-9.39891	15.15385	20.1189	1.19115	0.83952	172.73506	171.89332	64.81532	0.33252	 	1.3338199999999998E10	 	3.57927E-10	 	3838.98976	29.93391	 
700.0	1.0	0.0	7.73908	7.17015	-9.42342	15.12839	20.0524	1.18899	0.84105	173.10152	172.10795	64.95995	0.33237	 	1.5781299999999998E10	 	3.0097E-10	 	3689.50598	29.89676	 
695.0	1.0	0.0	7.74117	7.16821	-9.44786	15.10293	19.98587	1.18682	0.84259	173.46731	172.32161	65.10435	0.33223	 	1.87044E10	 	2.5263E-10	 	3540.2059	29.86002	 
690.0	1.0	0.0	7.74325	7.16629	-9.47223	15.07748	19.91933	1.18464	0.84414	173.83244	172.5343	65.24853	0.33208	 	2.22081E10	 	2.11675E-10	 	3391.08734	29.82371	 
685.0	1.0	0.0	7.74533	7.16436	-9.49654	15.05202	19.85277	1.18244	0.84571	174.19691	172.74602	65.39249	0.33193	 	2.6415399999999996E10	 	1.77036E-10	 	3242.14799	29.78787	 
680.0	1.0	0.0	7.7474	7.16244	-9.52078	15.02656	19.78619	1.18023	0.8473	174.56071	172.95679	65.53624	0.33179	 	3.1476999999999996E10	 	1.47793E-10	 	3093.38542	29.75251	 
675.0	1.0	0.0	7.74948	7.16053	-9.54495	15.00109	19.71959	1.178	0.8489	174.92385	173.16659	65.67976	0.33164	 	3.75779E10	 	1.23149E-10	 	2944.79708	29.71767	 
670.0	1.0	0.0	7.75154	7.15862	-9.56905	14.97563	19.65297	1.17576	0.85051	175.28632	173.37544	65.82306	0.3315	 	4.49456E10	 	1.02419E-10	 	2796.38026	29.68336	 
665.0	1.0	0.0	7.7536	7.15672	-9.59309	14.95017	19.58633	1.17351	0.85215	175.64813	173.58334	65.96613	0.33135	 	5.386059999999999E10	 	8.50135E-11	 	2648.13208	29.64963	 
660.0	1.0	0.0	7.75566	7.15482	-9.61706	14.9247	19.51966	1.17124	0.8538	176.00928	173.79028	66.10899	0.33121	 	6.466909999999999E10	 	7.04274E-11	 	2500.05714	29.61499	 
655.0	1.0	0.0	7.75771	7.15293	-9.64097	14.89923	19.45298	1.16896	0.85546	176.36976	173.99628	66.25163	0.33106	 	7.77998E10	 	5.82273E-11	 	2352.19762	29.5719	 
650.0	1.0	0.0	7.75976	7.15104	-9.66481	14.87376	19.38627	1.16666	0.85715	176.72958	174.20134	66.39404	0.33091	 	9.378409999999998E10	 	4.80429E-11	 	2204.60953	29.51762	 
645.0	1.0	0.0	7.7618	7.14916	-9.68858	14.84829	19.31955	1.16435	0.85885	177.08874	174.40545	66.53624	0.33077	 	1.13283E11	 	3.95582E-11	 	2057.29182	29.46354	 
640.0	1.0	0.0	7.76384	7.14728	-9.71228	14.82282	19.2528	1.16202	0.86057	177.44724	174.60862	66.67821	0.33062	 	1.37119E11	 	3.25036E-11	 	1910.24346	29.40967	 
635.0	1.0	0.0	7.76587	7.14541	-9.73592	14.79735	19.18602	1.15968	0.86231	177.80507	174.81086	66.81997	0.33048	 	1.6632E11	 	2.66502E-11	 	1763.46341	29.35601	 
630.0	1.0	0.0	7.7679	7.14355	-9.75949	14.77188	19.11923	1.15733	0.86406	178.16224	175.01216	66.9615	0.33033	 	2.02171E11	 	2.18036E-11	 	1616.95065	29.30255	 
625.0	1.0	0.0	7.76992	7.14168	-9.78299	14.7464	19.05241	1.15495	0.86583	178.51875	175.21254	67.10281	0.33019	 	2.46285E11	 	1.77991E-11	 	1470.70383	29.24936	 
620.0	1.0	0.0	7.77194	7.13983	-9.80643	14.72092	18.98557	1.15257	0.86763	178.8746	175.41198	67.2439	0.33004	 	3.00688E11	 	1.44975E-11	 	1324.72116	29.19653	 
615.0	1.0	0.0	7.77396	7.13798	-9.8298	14.69545	18.9187	1.15017	0.86944	179.22978	175.61051	67.38477	0.3299	 	3.67935E11	 	1.17815E-11	 	1179.00199	29.14383	 
610.0	1.0	0.0	7.77597	7.13614	-9.8531	14.66997	18.85181	1.14775	0.87127	179.58431	175.80811	67.52541	0.32975	 	4.51251E11	 	9.55219E-12	 	1033.54535	29.09133	 
605.0	1.0	0.0	7.77797	7.1343	-9.87634	14.64449	18.78489	1.14532	0.87312	179.93817	176.00479	67.66584	0.32961	 	5.54721E11	 	7.72646E-12	 	888.3502	29.03903	 
600.0	1.0	0.0	7.77997	7.13246	-9.8995	14.619	18.71795	1.14287	0.87499	180.29137	176.20055	67.80605	0.32946	 	6.83531E11	 	6.23473E-12	 	743.41554	28.98693	 
595.0	1.0	0.0	7.78197	7.13063	-9.92261	14.59352	18.65098	1.14041	0.87688	180.64392	176.3954	67.94603	0.32932	 	8.44279E11	 	5.01875E-12	 	598.74037	28.93503	 
590.0	1.0	0.0	7.78396	7.12881	-9.94564	14.56803	18.58398	1.13792	0.87879	180.9958	176.58934	68.08579	0.32917	 	1.04539E12	 	4.02992E-12	 	454.3237	28.88333	 
585.0	1.0	0.0	7.78594	7.12699	-9.96861	14.54255	18.51696	1.13543	0.88072	181.34702	176.78237	68.22534	0.32903	 	1.29762E12	 	3.22776E-12	 	310.16452	28.83184	 
580.0	1.0	0.0	7.78792	7.12518	-9.99151	14.51706	18.44991	1.13292	0.88268	181.69758	176.9745	68.36466	0.32889	 	1.61481E12	 	2.57865E-12	 	166.26183	28.78054	 
575.0	1.0	0.0	7.7899	7.12337	-10.01434	14.49157	18.38283	1.13039	0.88465	182.04748	177.16572	68.50376	0.32874	 	2.01471E12	 	2.05469E-12	 	22.61465	28.72944	 
570.0	1.0	0.0	7.79187	7.12157	-10.03711	14.46608	18.31572	1.12784	0.88665	182.39672	177.35604	68.64263	0.3286	 	2.52025E12	 	1.63285E-12	 	-120.77802	28.67853	 
565.0	1.0	0.0	7.79384	7.11977	-10.05981	14.44059	18.24858	1.12528	0.88867	182.7453	177.54547	68.78129	0.32845	 	3.16108E12	 	1.29411E-12	 	-263.91716	28.62783	 
560.0	1.0	0.0	7.7958	7.11798	-10.08244	14.4151	18.18142	1.12269	0.89071	183.09323	177.734	68.91973	0.32831	 	3.97565E12	 	1.02283E-12	 	-406.80376	28.57732	 
555.0	1.0	0.0	7.79776	7.11619	-10.105	14.3896	18.11422	1.1201	0.89278	183.44049	177.92164	69.05794	0.32816	 	5.01399E12	 	8.06143E-13	 	-549.4388	28.52701	 
550.0	1.0	0.0	7.79971	7.11441	-10.1275	14.36411	18.04699	1.11748	0.89487	183.78709	178.10838	69.19594	0.32802	 	6.34136E12	 	6.33553E-13	 	-691.82325	28.47689	 
545.0	1.0	0.0	7.80165	7.11264	-10.14993	14.33861	17.97973	1.11485	0.89698	184.13304	178.29424	69.33371	0.32788	 	8.0432E12	 	4.96468E-13	 	-833.95809	28.42697	 
540.0	1.0	0.0	7.8036	7.11087	-10.1723	14.31311	17.91244	1.1122	0.89912	184.47832	178.47922	69.47126	0.32773	 	1.02316E13	 	3.87894E-13	 	-975.84429	28.37724	 
535.0	1.0	0.0	7.80553	7.1091	-10.1946	14.28761	17.84512	1.10953	0.90128	184.82295	178.66331	69.60859	0.32759	 	1.30543E13	 	3.02152E-13	 	-1117.48282	28.32771	 
530.0	1.0	0.0	7.80747	7.10734	-10.21683	14.26211	17.77776	1.10684	0.90347	185.16692	178.84653	69.74569	0.32744	 	1.67063E13	 	2.34641E-13	 	-1258.87464	28.27836	 
525.0	1.0	0.0	7.80939	7.10559	-10.23899	14.23661	17.71037	1.10414	0.90568	185.51023	179.02887	69.88258	0.3273	 	2.14461E13	 	1.81645E-13	 	-1400.02071	28.22921	 
520.0	1.0	0.0	7.81132	7.10384	-10.26109	14.21111	17.64294	1.10141	0.90792	185.85288	179.21033	70.01925	0.32716	 	2.76175E13	 	1.40171E-13	 	-1540.92198	28.18025	 
515.0	1.0	0.0	7.81324	7.10209	-10.28311	14.1856	17.57548	1.09867	0.91019	186.19488	179.39092	70.15569	0.32701	 	3.56791E13	 	1.07816E-13	 	-1681.57941	28.13149	 
510.0	1.0	0.0	7.81515	7.10036	-10.30508	14.1601	17.50799	1.09591	0.91248	186.53622	179.57064	70.29191	0.32687	 	4.62449E13	 	8.26547E-14	 	-1821.99395	28.08291	 
505.0	1.0	0.0	7.81706	7.09862	-10.32697	14.13459	17.44046	1.09313	0.9148	186.8769	179.7495	70.42791	0.32672	 	6.01397E13	 	6.31522E-14	 	-1962.16655	28.03452	 
500.0	1.0	0.0	7.81896	7.09689	-10.3488	14.10908	17.37289	1.09033	0.91715	187.21692	179.92749	70.56369	0.32658	 	7.84757E13	 	4.80856E-14	 	-2102.09813	27.98632	 
495.0	1.0	0.0	7.82086	7.09517	-10.37056	14.08357	17.30528	1.08751	0.91953	187.55628	180.10462	70.69925	0.32644	 	1.02757E14	 	3.64855E-14	 	-2241.78964	27.9383	 
490.0	1.0	0.0	7.82275	7.09346	-10.39225	14.05806	17.23763	1.08467	0.92194	187.89499	180.28089	70.83458	0.32629	 	1.3502799999999998E14	 	2.75849E-14	 	-2381.24199	27.89047	 
485.0	1.0	0.0	7.82464	7.09174	-10.41388	14.03254	17.16994	1.08181	0.92437	188.23304	180.4563	70.96969	0.32615	 	1.78074E14	 	2.07797E-14	 	-2520.45614	27.84283	 
480.0	1.0	0.0	7.82652	7.09004	-10.43544	14.00703	17.10222	1.07893	0.92684	188.57043	180.63086	71.10458	0.32601	 	2.35708E14	 	1.55953E-14	 	-2659.43297	27.79537	 
475.0	1.0	0.0	7.8284	7.08834	-10.45693	13.98152	17.03445	1.07604	0.92934	188.90717	180.80457	71.23925	0.32586	 	3.13165E14	 	1.16601E-14	 	-2798.17344	27.74809	 
470.0	1.0	0.0	7.83028	7.08664	-10.47836	13.956	16.96664	1.07312	0.93187	189.24325	180.97742	71.3737	0.32572	 	4.17671E14	 	8.68418E-15	 	-2936.67842	27.701	 
465.0	1.0	0.0	7.83214	7.08495	-10.49971	13.93048	16.89879	1.07018	0.93443	189.57867	181.14943	71.50793	0.32558	 	5.5922799999999994E14	 	6.44232E-15	 	-3074.94883	27.65408	 
460.0	1.0	0.0	7.83401	7.08326	-10.521	13.90496	16.83089	1.06721	0.93702	189.91344	181.3206	71.64193	0.32543	 	7.51748E14	 	4.76E-15	 	-3212.98557	27.60735	 
455.0	1.0	0.0	7.83587	7.08158	-10.54223	13.87944	16.76295	1.06423	0.93964	190.24755	181.49092	71.77571	0.32529	 	1.01466E15	 	3.50257E-15	 	-3350.78955	27.56079	 
450.0	1.0	0.0	7.83772	7.07991	-10.56338	13.85392	16.69496	1.06123	0.9423	190.58101	181.6604	71.90927	0.32515	 	1.37521E15	 	2.56652E-15	 	-3488.36162	27.51442	 
445.0	1.0	0.0	7.83957	7.07824	-10.58447	13.82839	16.62693	1.0582	0.945	190.91381	181.82905	72.04261	0.32501	 	1.87179E15	 	1.8726E-15	 	-3625.7027	27.46821	 
440.0	1.0	0.0	7.84141	7.07657	-10.6055	13.80287	16.55885	1.05516	0.94773	191.24595	181.99685	72.17573	0.32486	 	2.55872E15	 	1.36033E-15	 	-3762.81364	27.42219	 
435.0	1.0	0.0	7.84325	7.07492	-10.62645	13.77734	16.49072	1.05209	0.95049	191.57744	182.16383	72.30862	0.32472	 	3.51322E15	 	9.83799E-16	 	-3899.69531	27.37633	 
430.0	1.0	0.0	7.84508	7.07326	-10.64734	13.75181	16.42254	1.049	0.95329	191.90827	182.32998	72.44129	0.32458	 	4.84558E15	 	7.08253E-16	 	-4036.34858	27.33065	 
425.0	1.0	0.0	7.84691	7.07161	-10.66816	13.72629	16.35431	1.04588	0.95613	192.23845	182.49529	72.57374	0.32444	 	6.71409E15	 	5.07515E-16	 	-4172.77419	27.28512	 
420.0	1.0	0.0	7.84874	7.06997	-10.68891	13.70075	16.28603	1.04274	0.95901	192.56797	182.65978	72.70597	0.32429	 	9.34698E15	 	3.61945E-16	 	-4308.97316	27.2398	 
415.0	1.0	0.0	7.85055	7.06833	-10.7096	13.67522	16.2177	1.03958	0.96192	192.89683	182.82345	72.83797	0.32415	 	1.3075E16	 	2.56878E-16	 	-4444.94588	27.19454	 
410.0	1.0	0.0	7.85237	7.0667	-10.73022	13.64969	16.14931	1.0364	0.96488	193.22505	182.9863	72.96976	0.32401	 	1.83802E16	 	1.81407E-16	 	-4580.69255	27.14933	 
405.0	1.0	0.0	7.85418	7.06507	-10.75077	13.62416	16.08087	1.0332	0.96787	193.5526	183.14832	73.10132	0.32387	 	2.59679E16	 	1.27461E-16	 	-4716.21338	27.10417	 
400.0	1.0	0.0	7.85598	7.06345	-10.77126	13.59862	16.01237	1.02996	0.97091	193.8795	183.30953	73.23266	0.32372	 	3.68768E16	 	8.90934E-17	 	-4851.50854	27.05903	 
395.0	1.0	0.0	7.85778	7.06184	-10.79167	13.57308	15.94381	1.02671	0.97398	194.20575	183.46993	73.36377	0.32358	 	5.2644E16	 	6.19457E-17	 	-4986.57822	27.01394	 
390.0	1.0	0.0	7.85957	7.06023	-10.81203	13.54754	15.8752	1.02343	0.97711	194.53134	183.62951	73.49466	0.32344	 	7.55574E16	 	4.28373E-17	 	-5121.4226	26.96888	 
385.0	1.0	0.0	7.86136	7.05862	-10.83231	13.52201	15.80652	1.02013	0.98027	194.85628	183.78828	73.62533	0.3233	 	1.09041E17	 	2.94593E-17	 	-5256.04182	26.92384	 
380.0	1.0	0.0	7.86314	7.05702	-10.85252	13.49646	15.73778	1.0168	0.98348	195.18057	183.94625	73.75578	0.32315	 	1.58249E17	 	2.01447E-17	 	-5390.43604	26.87884	 
375.0	1.0	0.0	7.86492	7.05542	-10.87267	13.47092	15.66898	1.01345	0.98673	195.5042	184.10341	73.88601	0.32301	 	2.30986E17	 	1.36954E-17	 	-5524.60542	26.83388	 
370.0	1.0	0.0	7.86669	7.05383	-10.89276	13.44538	15.60012	1.01007	0.99003	195.82717	184.25976	74.01601	0.32287	 	3.39146E17	 	9.25576E-18	 	-5658.55006	26.78893	 
365.0	1.0	0.0	7.86846	7.05225	-10.91277	13.41983	15.53119	1.00666	0.99338	196.14949	184.41531	74.14579	0.32273	 	5.00958E17	 	6.21739E-18	 	-5792.27011	26.74401	 
360.0	1.0	0.0	7.87022	7.05067	-10.93272	13.39429	15.46219	1.00323	0.99678	196.47116	184.57007	74.27535	0.32259	 	7.44545E17	 	4.15052E-18	 	-5925.76565	26.69911	 
355.0	1.0	0.0	7.87198	7.0491	-10.9526	13.36874	15.39312	0.99978	1.00022	196.79218	184.72403	74.40468	0.32244	 	1.11358E18	 	2.75315E-18	 	-6059.03679	26.65423	 
350.0	1.0	0.0	7.87373	7.04753	-10.97241	13.34319	15.32398	0.99629	1.00372	197.11254	184.87719	74.53379	0.3223	 	1.67632E18	 	1.81436E-18	 	-6192.08362	26.60936	 
345.0	1.0	0.0	7.87548	7.04597	-10.99216	13.31764	15.25477	0.99278	1.00727	197.43224	185.02956	74.66268	0.32216	 	2.54018E18	 	1.18772E-18	 	-6324.9062	26.56452	 
340.0	1.0	0.0	7.87722	7.04441	-11.01183	13.29209	15.18548	0.98925	1.01087	197.7513	185.18114	74.79134	0.32202	 	3.87541E18	 	7.72211E-19	 	-6457.5046	26.51968	 
335.0	1.0	0.0	7.87895	7.04286	-11.03144	13.26653	15.11612	0.98568	1.01453	198.0697	185.33193	74.91979	0.32188	 	5.9537E18	 	4.98552E-19	 	-6589.87886	26.47485	 
330.0	1.0	0.0	7.88069	7.04131	-11.05099	13.24098	15.04668	0.98209	1.01824	198.38745	185.48194	75.04801	0.32174	 	9.21188E18	 	3.19569E-19	 	-6722.029	26.43003	 
325.0	1.0	0.0	7.88241	7.03977	-11.07046	13.21542	14.97716	0.97847	1.02201	198.70454	185.63116	75.176	0.3216	 	1.43575E19	 	2.03338E-19	 	-6853.95504	26.38521	 
320.0	1.0	0.0	7.88413	7.03823	-11.08987	13.18987	14.90755	0.97482	1.02583	199.02098	185.7796	75.30377	0.32145	 	2.25454E19	 	1.28408E-19	 	-6985.65699	26.34039	 
315.0	1.0	0.0	7.88585	7.0367	-11.10922	13.16431	14.83787	0.97114	1.02972	199.33677	185.92726	75.43132	0.32131	 	3.56754E19	 	8.04648E-20	 	-7117.13482	26.29557	 
310.0	1.0	0.0	7.88756	7.03517	-11.12849	13.13875	14.76809	0.96744	1.03366	199.65191	186.07414	75.55865	0.32117	 	5.68982E19	 	5.00229E-20	 	-7248.38849	26.25073	 
305.0	1.0	0.0	7.88926	7.03365	-11.1477	13.11319	14.69823	0.9637	1.03767	199.96639	186.22025	75.68575	0.32103	 	9.14817E19	 	3.08456E-20	 	-7379.41796	26.20589	 
300.0	1.0	0.0	7.89096	7.03214	-11.16684	13.08762	14.62828	0.95993	1.04174	200.28022	186.36558	75.81263	0.32089	 	1.48309E20	 	1.8862E-20	 	-7510.22316	26.16104	 
295.0	1.0	0.0	7.89266	7.03063	-11.18591	13.06206	14.55823	0.95614	1.04587	200.5934	186.51014	75.93929	0.32075	 	2.4249099999999997E20	 	1.14355E-20	 	-7640.80398	26.11616	 
290.0	1.0	0.0	7.89435	7.02912	-11.20492	13.0365	14.48809	0.95231	1.05008	200.90592	186.65393	76.06572	0.32061	 	3.99958E20	 	6.8722E-21	 	-7771.16034	26.07127	 
285.0	1.0	0.0	7.89603	7.02762	-11.22385	13.01093	14.41785	0.94845	1.05435	201.2178	186.79695	76.19193	0.32047	 	6.656219999999999E20	 	4.0927E-21	 	-7901.2921	26.02635	 
280.0	1.0	0.0	7.89771	7.02613	-11.24273	12.98536	14.3475	0.94457	1.05869	201.52902	186.93921	76.31792	0.32033	 	1.1179900000000001E21	 	2.41485E-21	 	-8031.19908	25.9814	 
275.0	1.0	0.0	7.89938	7.02464	-11.26153	12.95979	14.27706	0.94065	1.0631	201.83959	187.08071	76.44368	0.32018	 	1.8956600000000001E21	 	1.41132E-21	 	-8160.88113	25.93641	 
270.0	1.0	0.0	7.90105	7.02316	-11.28026	12.93422	14.2065	0.9367	1.06758	202.1495	187.22144	76.56922	0.32004	 	3.24565E21	 	8.16779E-22	 	-8290.33804	25.89138	 
265.0	1.0	0.0	7.90271	7.02168	-11.29893	12.90865	14.13584	0.93271	1.07214	202.45877	187.36141	76.69453	0.3199	 	5.61286E21	 	4.67957E-22	 	-8419.56959	25.84631	 
260.0	1.0	0.0	7.90437	7.02021	-11.31754	12.88308	14.06507	0.9287	1.07678	202.76738	187.50063	76.81962	0.31976	 	9.80682E21	 	2.65343E-22	 	-8548.57553	25.80119	 
255.0	1.0	0.0	7.90602	7.01874	-11.33607	12.8575	13.99418	0.92465	1.08149	203.07534	187.63909	76.94449	0.31962	 	1.7316499999999998E22	 	1.48862E-22	 	-8677.35557	25.75601	 
250.0	1.0	0.0	7.90767	7.01728	-11.35454	12.83193	13.92316	0.92056	1.08629	203.38265	187.7768	77.06913	0.31948	 	3.0911E22	 	8.26037E-23	 	-8805.90939	25.71077	 
245.0	1.0	0.0	7.90931	7.01582	-11.37294	12.80635	13.85203	0.91645	1.09117	203.68931	187.91376	77.19355	0.31934	 	5.5798499999999995E22	 	4.53231E-23	 	-8934.23668	25.66546	 
240.0	1.0	0.0	7.91095	7.01437	-11.39127	12.78077	13.78077	0.9123	1.09613	203.99532	188.04996	77.31775	0.3192	 	1.0188999999999999E23	 	2.4581E-23	 	-9062.33705	25.62007	 
235.0	1.0	0.0	7.91258	7.01293	-11.40953	12.75519	13.70938	0.90811	1.10118	204.30067	188.18542	77.44172	0.31906	 	1.8827199999999997E23	 	1.31733E-23	 	-9190.21009	25.57461	 
230.0	1.0	0.0	7.91421	7.01149	-11.42773	12.72961	13.63786	0.90389	1.10632	204.60538	188.32014	77.56546	0.31892	 	3.5215899999999995E23	 	6.9734E-24	 	-9317.85537	25.52906	 
225.0	1.0	0.0	7.91583	7.01005	-11.44586	12.70403	13.56619	0.89964	1.11156	204.90943	188.45411	77.68899	0.31878	 	6.67041E23	 	3.64497E-24	 	-9445.27242	25.48341	 
220.0	1.0	0.0	7.91744	7.00862	-11.46392	12.67844	13.49439	0.89535	1.11688	205.21283	188.58734	77.81228	0.31864	 	1.27995E24	 	1.8805E-24	 	-9572.46072	25.43766	 
215.0	1.0	0.0	7.91905	7.0072	-11.48192	12.65286	13.42244	0.89102	1.12231	205.51558	188.71982	77.93536	0.3185	 	2.48902E24	 	9.5722E-25	 	-9699.41971	25.3918	 
210.0	1.0	0.0	7.92065	7.00578	-11.49985	12.62727	13.35033	0.88666	1.12783	205.81768	188.85158	78.05821	0.31836	 	4.90731E24	 	4.80535E-25	 	-9826.14879	25.34582	 
205.0	1.0	0.0	7.92225	7.00436	-11.51771	12.60168	13.27807	0.88226	1.13346	206.11913	188.98259	78.18083	0.31822	 	9.81351E24	 	2.37808E-25	 	-9952.64733	25.29971	 
200.0	1.0	0.0	7.92385	7.00295	-11.5355	12.57609	13.20565	0.87782	1.13919	206.41993	189.11287	78.30323	0.31808	 	1.9914400000000003E25	 	1.15963E-25	 	-10078.91461	25.25346	 
195.0	1.0	0.0	7.92543	7.00155	-11.55322	12.5505	13.13307	0.87334	1.14503	206.72008	189.24242	78.42541	0.31794	 	4.10273E25	 	5.56927E-26	 	-10204.94993	25.20706	 
190.0	1.0	0.0	7.92702	7.00015	-11.57088	12.52491	13.06031	0.86883	1.15097	207.01957	189.37124	78.54736	0.3178	 	8.58535E25	 	2.633E-26	 	-10330.75246	25.16051	 
185.0	1.0	0.0	7.92859	6.99876	-11.58847	12.49932	12.98737	0.86428	1.15704	207.31842	189.49933	78.66909	0.31766	 	1.82575E26	 	1.22476E-26	 	-10456.32137	25.11378	 
180.0	1.0	0.0	7.93017	6.99737	-11.606	12.47372	12.91425	0.85968	1.16322	207.61661	189.62669	78.79059	0.31752	 	3.94783E26	 	5.60236E-27	 	-10581.65575	25.06688	 
175.0	1.0	0.0	7.93173	6.99599	-11.62345	12.44813	12.84094	0.85505	1.16952	207.91416	189.75333	78.91187	0.31738	 	8.684540000000001E26	 	2.51862E-27	 	-10706.75464	25.01978	 
170.0	1.0	0.0	7.93329	6.99462	-11.64084	12.42253	12.76743	0.85038	1.17594	208.21105	189.87925	79.03292	0.31724	 	1.94474E27	 	1.11218E-27	 	-10831.617	24.97247	 
165.0	1.0	0.0	7.93485	6.99324	-11.65816	12.39693	12.69372	0.84567	1.1825	208.50729	190.00445	79.15375	0.3171	 	4.43576E27	 	4.82105E-28	 	-10956.24171	24.92494	 
160.0	1.0	0.0	7.9364	6.99188	-11.67542	12.37133	12.6198	0.84091	1.18918	208.80289	190.12892	79.27435	0.31696	 	1.0312E28	 	2.05014E-28	 	-11080.62762	24.87718	 
155.0	1.0	0.0	7.93794	6.99052	-11.6926	12.34573	12.54566	0.83612	1.196	209.09783	190.25268	79.39472	0.31682	 	2.44496E28	 	8.54695E-29	 	-11204.77347	24.82917	 
150.0	1.0	0.0	7.93948	6.98916	-11.70972	12.32013	12.4713	0.83128	1.20296	209.39212	190.37572	79.51488	0.31669	 	5.91647E28	 	3.49075E-29	 	-11328.67792	24.78089	 
145.0	1.0	0.0	7.94102	6.98781	-11.72677	12.29452	12.3967	0.8264	1.21006	209.68577	190.49805	79.6348	0.31655	 	1.4622800000000001E29	 	1.39568E-29	 	-11452.33956	24.73233	 
140.0	1.0	0.0	7.94254	6.98647	-11.74376	12.26892	12.32186	0.82148	1.21731	209.97876	190.61967	79.75451	0.31641	 	3.69413E29	 	5.45861E-30	 	-11575.75686	24.68346	 
135.0	1.0	0.0	7.94407	6.98513	-11.76067	12.24331	12.24677	0.81652	1.22472	210.2711	190.74058	79.87398	0.31627	 	9.54672E29	 	2.08666E-30	 	-11698.92823	24.63428	 
130.0	1.0	0.0	7.94558	6.9838	-11.77752	12.2177	12.17142	0.81151	1.23228	210.56279	190.86078	79.99323	0.31613	 	2.52595E30	 	7.78985E-31	 	-11821.85195	24.58474	 
125.0	1.0	0.0	7.9471	6.98247	-11.7943	12.19209	12.09579	0.80645	1.24	210.85384	190.98027	80.11226	0.31599	 	6.848689999999999E30	 	2.83744E-31	 	-11944.52619	24.53485	 
120.0	1.0	0.0	7.9486	6.98114	-11.81102	12.16648	12.01988	0.80135	1.24789	211.14423	191.09906	80.23106	0.31585	 	1.9046199999999999E31	 	1.00748E-31	 	-12066.94903	24.48457	 
115.0	1.0	0.0	7.9501	6.97983	-11.82766	12.14087	11.94368	0.79621	1.25595	211.43397	191.21715	80.34963	0.31571	 	5.43819E31	 	3.48363E-32	 	-12189.11838	24.43387	 
110.0	1.0	0.0	7.9516	6.97851	-11.84424	12.11526	11.86718	0.79102	1.26419	211.72307	191.33453	80.46798	0.31557	 	1.59585E32	 	1.17183E-32	 	-12311.03207	24.38274	 
105.0	1.0	0.0	7.95309	6.97721	-11.86075	12.08964	11.79035	0.78578	1.27261	212.01151	191.45121	80.5861	0.31543	 	4.8182999999999995E32	 	3.83052E-33	 	-12432.68775	24.33113	 
100.0	1.0	0.0	7.95457	6.97591	-11.8772	12.06403	11.7132	0.7805	1.28123	212.29931	191.5672	80.704	0.3153	 	1.4985E33	 	1.21539E-33	 	-12554.08293	24.27904	 
95.0	1.0	0.0	7.95605	6.97461	-11.89357	12.03841	11.6357	0.77517	1.29003	212.58645	191.68249	80.82167	0.31516	 	4.80621E33	 	3.7386E-34	 	-12675.21496	24.22641	 
90.0	1.0	0.0	7.95752	6.97332	-11.90988	12.01279	11.55784	0.7698	1.29905	212.87295	191.79709	80.93912	0.31502	 	1.5918E34	 	1.11349E-34	 	-12796.08103	24.17322	 
85.0	1.0	0.0	7.95899	6.97203	-11.92612	11.98717	11.4796	0.76437	1.30826	213.1588	191.91099	81.05634	0.31488	 	5.4512200000000005E34	 	3.2067E-35	 	-12916.67813	24.11942	 
80.0	1.0	0.0	7.96045	6.97075	-11.9423	11.96155	11.40097	0.7589	1.3177	213.44399	192.02421	81.17333	0.31474	 	1.9330299999999998E35	 	8.91677E-36	 	-13037.00306	24.06499	 
75.0	1.0	0.0	7.96191	6.96948	-11.9584	11.93592	11.32194	0.75338	1.32736	213.72854	192.13673	81.2901	0.3146	 	7.108419999999999E35	 	2.39045E-36	 	-13157.05241	24.00987	 
70.0	1.0	0.0	7.96336	6.96821	-11.97444	11.9103	11.24247	0.7478	1.33725	214.01244	192.24857	81.40664	0.31447	 	2.7151199999999995E36	 	6.16854E-37	 	-13276.82254	23.95403	 
65.0	1.0	0.0	7.9648	6.96694	-11.99041	11.88467	11.16256	0.74218	1.34737	214.29569	192.35972	81.52295	0.31433	 	1.0789899999999999E37	 	1.52961E-37	 	-13396.30957	23.89741	 
60.0	1.0	0.0	7.96624	6.96568	-12.00632	11.85905	11.08217	0.73651	1.35775	214.57829	192.47018	81.63904	0.31419	 	4.4692E37	 	3.63828E-38	 	-13515.50935	23.83996	 
55.0	1.0	0.0	7.96768	6.96443	-12.02215	11.83342	11.0013	0.73079	1.36838	214.86024	192.57997	81.75491	0.31405	 	1.93309E38	 	8.28526E-39	 	-13634.41748	23.78162	 
50.0	1.0	0.0	7.96911	6.96318	-12.03792	11.80779	10.91991	0.72502	1.37927	215.14154	192.68907	81.87054	0.31391	 	8.74899E38	 	1.80274E-39	 	-13753.0292	23.72234	 
45.0	1.0	0.0	7.97053	6.96194	-12.05362	11.78216	10.83798	0.7192	1.39043	215.4222	192.7975	81.98595	0.31378	 	4.15215E39	 	3.73978E-40	 	-13871.33949	23.66206	 
40.0	1.0	0.0	7.97195	6.9607	-12.06926	11.75653	10.75548	0.71333	1.40188	215.7022	192.90524	82.10113	0.31364	 	2.07102E40	 	7.37997E-41	 	-13989.34292	23.60069	 
35.0	1.0	0.0	7.97336	6.95947	-12.08482	11.73089	10.67238	0.7074	1.41362	215.98156	193.01232	82.21609	0.3135	 	1.08829E41	 	1.38199E-41	 	-14107.03371	23.53816	 
30.0	1.0	0.0	7.97476	6.95824	-12.10032	11.70526	10.58865	0.70143	1.42566	216.26026	193.11871	82.33082	0.31336	 	6.04052E41	 	2.44946E-42	 	-14224.40568	23.47439	 
25.0	1.0	0.0	7.97616	6.95702	-12.11575	 	10.50426	0.6954	1.43802	216.53832	193.22444	82.44532	0.31322	 	3.5511499999999995E42	 	4.09782E-43	 	-14341.45215	 	 
