T (C)	Fraction solid (wt)-TOTAL	Fraction liquid (wt)-LIQUID	Density (g/(cm)^3)-TOTAL	Molar volume (cm^3)-TOTAL	Volume change (%)-  	Average expansion coeff. (10e-6 1/K)-  	Thermal conductivity (W/(m*K))-TOTAL	Electrical resistivity (10e-6 Ohm*m)-TOTAL	Electrical conductivity (10e6 1/(Ohm*m))-TOTAL	Young's modulus (GPa)-TOTAL	Bulk modulus (GPa)-TOTAL	Shear modulus(GPa)-TOTAL	Poisson's ratio-TOTAL	Liquid viscosity (mPa s)-  	Total viscosity (mPa s)-  	Liquid diffusivity (10e-9 (m^2)/s)-  	Total diffusivity (10e-9 (m^2)/s)-  	Surface Tension (mN/m)-  	Enthalpy (J/mole)-TOTAL	Specific heat (J/(mole K))-TOTAL	Latent heat (J/mole)-TOTAL
1400.0	0.0	1.0	7.42966	7.83959	0.0	27.40489	31.44319	1.30369	0.76705	0.0	124.65345	0.0	0.5	7.46557	7.46557	1.09385	1.09385	1748.50067	61280.366	 	0.0
1395.0	0.0	1.0	7.43343	7.83562	-0.0507489	27.36747	31.35641	1.30339	0.76723	0.0	124.82193	0.0	0.5	7.54351	7.54351	1.07932	1.07932	1750.56997	61077.861	40.501	0.0
1390.0	0.0	1.0	7.4372	7.83165	-0.10135	27.33019	31.26963	1.30309	0.76741	0.0	124.99041	0.0	0.5	7.62273	7.62273	1.0649	1.0649	1752.65499	60875.804	40.4114	0.0
1385.0	0.0	1.0	7.44095	7.82769	-0.1518	27.29304	31.18285	1.30279	0.76758	0.0	125.15888	0.0	0.5	7.70328	7.70328	1.05059	1.05059	1754.75591	60674.191	40.3226	0.0
1380.0	0.0	1.0	7.4447	7.82375	-0.20209	27.25603	31.09607	1.30249	0.76776	0.0	125.32736	0.0	0.5	7.78516	7.78516	1.03641	1.03641	1756.8729	60473.02	40.2342	0.0
1375.0	0.0	1.0	7.44845	7.81982	-0.25224	27.21916	31.00929	1.30218	0.76794	0.0	125.49584	0.0	0.5	7.86843	7.86843	1.02234	1.02234	1759.00612	60272.29	40.146	0.0
1370.0	0.0	1.0	7.45218	7.8159	-0.30224	27.18243	30.92251	1.30187	0.76812	0.0	125.66431	0.0	0.5	7.9531	7.9531	1.00839	1.00839	1761.15574	60071.998	40.0584	0.0
1365.0	0.0	1.0	7.45591	7.81199	-0.35208	27.14585	30.83573	1.30156	0.76831	0.0	125.83279	0.0	0.5	8.0392	8.0392	0.99455	0.99455	1763.3219	59872.142	39.9712	0.0
1360.0	0.0	1.0	7.45963	7.8081	-0.40178	27.10941	30.74895	1.30125	0.76849	0.0	126.00127	0.0	0.5	8.12677	8.12677	0.98083	0.98083	1765.50476	59672.721	39.8842	0.0
1355.0	0.0	1.0	7.46334	7.80421	-0.45132	27.07311	30.66217	1.30094	0.76867	0.0	126.16974	0.0	0.5	8.21585	8.21585	0.96723	0.96723	1767.70445	59473.731	39.798	0.0
1350.0	0.0	1.0	7.46705	7.80034	-0.50072	27.03696	30.57539	1.30063	0.76886	0.0	126.33822	0.0	0.5	8.30646	8.30646	0.95374	0.95374	1769.92111	59275.172	39.7118	0.0
1345.0	0.0	1.0	7.47075	7.79648	-0.54996	27.00096	30.4886	1.30031	0.76905	0.0	126.5067	0.0	0.5	8.39863	8.39863	0.94037	0.94037	1772.15486	59077.04	39.6264	0.0
1340.0	0.0	1.0	7.47444	7.79263	-0.59906	26.96511	30.40182	1.29999	0.76923	0.0	126.67517	0.0	0.5	8.49241	8.49241	0.92711	0.92711	1774.40583	58879.335	39.541	0.0
1335.0	0.0	1.0	7.47812	7.78879	-0.648	26.92942	30.31504	1.29967	0.76942	0.0	126.84365	0.0	0.5	8.58783	8.58783	0.91397	0.91397	1776.67411	58682.054	39.4562	0.0
1330.0	0.0	1.0	7.48179	7.78497	-0.69679	26.89387	30.22826	1.29935	0.76961	0.0	127.01213	0.0	0.5	8.68493	8.68493	0.90094	0.90094	1778.95981	58485.195	39.3718	0.0
1325.0	0.0	1.0	7.48546	7.78116	-0.74544	26.85849	30.14148	1.29903	0.76981	0.0	127.1806	0.0	0.5	8.78374	8.78374	0.88802	0.88802	1781.26302	58288.756	39.2878	0.0
1320.0	0.0	1.0	7.48912	7.77735	-0.79393	26.82326	30.0547	1.2987	0.77	0.0	127.34908	0.0	0.5	8.88431	8.88431	0.87522	0.87522	1783.58383	58092.735	39.2042	0.0
1317.61	0.0	1.0	7.49086	7.77554	-0.81703	26.80649	30.01326	1.29855	0.77009	0.0	127.42953	0.0	0.5	8.93297	8.93297	0.86915	0.86915	1784.6983	57999.277	39.14258	0.0
1315.0	0.0484801	0.95152	7.50196	7.76409	-0.9631	26.44069	30.18028	1.28924	0.77565	5.61351E-4	127.52528	1.87984E-4	0.49308	9.005	9.92695	0.86078	0.78084	1784.30033	57162.799	320.1989	734.329
1310.0	0.13294	0.86706	7.5215	7.74385	-1.22126	25.79816	30.46808	1.27304	0.78552	0.0321809	127.7238	0.0108651	0.48094	9.14378	30.15802	0.84505	0.25622	1783.63637	55693.996	293.7606	2007.942
1305.0	0.20658	0.79342	7.53888	7.72603	-1.44856	25.2401	30.71414	1.25886	0.79437	0.18997	127.95081	0.0646033	0.47027	9.28405	131.75568	0.82965	0.0584609	1783.09593	54394.767	259.8458	3112.394
1300.0	0.27118	0.72882	7.55442	7.71011	-1.6517	24.74798	30.92486	1.24632	0.80236	0.57049	128.19971	0.19526	0.46085	9.42595	391.78216	0.81458	0.019598	1782.66993	53237.107	231.532	4075.686
1295.0	0.32818	0.67182	7.56844	7.69581	-1.83409	24.31256	31.10575	1.23513	0.80963	1.23651	128.46822	0.42566	0.45247	9.56963	879.88644	0.7998	0.00869857	1782.34951	52198.496	207.7222	4920.338
1290.0	0.37872	0.62128	7.58117	7.68287	-1.99916	23.92452	31.26101	1.22508	0.81627	2.21434	128.75353	0.76621	0.445	9.715	1652.71371	0.78532	0.00461625	1782.12679	51260.669	187.5654	5664.612
1285.0	0.42376	0.57624	7.59278	7.67109	-2.14941	23.57704	31.39394	1.21599	0.82238	3.50254	129.05323	1.2176	0.4383	9.86229	2755.35505	0.77111	0.00276006	1781.99443	50408.698	170.3942	6323.436
1280.0	0.46407	0.53593	7.60345	7.66033	-2.28669	23.26515	31.5074	1.20772	0.82801	5.08079	129.36573	1.77369	0.43226	10.01147	4223.87501	0.75719	0.00179469	1781.94559	49630.291	155.6814	6909.101
1275.0	0.50029	0.49971	7.61329	7.65041	-2.4132	22.98271	31.60346	1.20017	0.83321	6.9184	129.68883	2.42443	0.42681	10.16265	6088.57789	0.74352	0.00124103	1781.97431	48915.259	143.0064	7431.788
1270.0	0.53297	0.46703	7.62243	7.64121	-2.53058	22.7252	31.68403	1.19326	0.83804	8.97954	130.02113	3.15769	0.42185	10.31593	8376.51621	0.73011	8.99148E-4	1782.07504	48255.104	132.031	7899.999
1265.0	0.56256	0.43744	7.63095	7.63264	-2.63992	22.4897	31.75083	1.18689	0.84254	11.22784	130.3613	3.96088	0.41734	10.47133	11114.19618	0.71694	6.75472E-4	1782.24259	47642.692	122.4824	8320.864
1260.0	0.58943	0.41057	7.63892	7.62464	-2.74195	22.27422	31.80523	1.18101	0.84674	13.62666	130.70861	4.82114	0.41322	10.62898	14327.40718	0.70401	5.2228E-4	1782.47213	47072.006	114.1372	8700.399
1255.0	0.61391	0.38609	7.64643	7.61714	-2.83759	22.07627	31.84855	1.17555	0.85066	16.14364	131.06218	5.72695	0.40944	10.78888	18045.09034	0.69132	4.13327E-4	1782.75936	46537.939	106.8134	9043.708
1250.0	0.63628	0.36372	7.65351	7.61	-2.92871	21.89043	31.88166	1.17049	0.85434	18.75075	131.41982	6.66828	0.40597	10.95119	22299.41856	0.67884	3.33377E-4	1783.10086	46036.14	100.3598	9355.142
1245.0	0.65677	0.34323	7.66022	7.60333	-3.0137	21.72166	31.90585	1.16576	0.85781	21.41883	131.78348	7.63449	0.40277	11.11599	27123.53016	0.66658	2.73184E-4	1783.49194	45562.88	94.652	9638.425
1240.0	0.67559	0.32441	7.6666	7.59697	-3.09491	21.56308	31.92166	1.16135	0.86107	24.1265	132.1502	8.61778	0.39981	11.2833	32556.09849	0.65453	2.26849E-4	1783.93015	45114.955	89.585	9896.762
1235.0	0.69292	0.30708	7.67269	7.59088	-3.17248	21.41432	31.92999	1.15721	0.86415	26.85709	132.51997	9.61197	0.39707	11.45326	38644.73915	0.64269	1.90476E-4	1784.41226	44689.594	85.0722	10132.922
1230.0	0.7089	0.2911	7.67851	7.58508	-3.24647	21.27536	31.93147	1.15332	0.86706	29.59156	132.89268	10.60996	0.39452	11.62595	45435.51906	0.63105	1.61471E-4	1784.93531	44284.396	81.0396	10349.303
1225.0	0.72368	0.27632	7.68409	7.57953	-3.31729	21.14507	31.92679	1.14965	0.86983	32.31855	133.26786	11.60744	0.39215	11.80149	52987.15653	0.61959	1.37998E-4	1785.49668	43897.271	77.425	10547.994
1220.0	0.73739	0.26261	7.68946	7.57422	-3.38502	21.02324	31.91649	1.14618	0.87246	35.02486	133.64541	12.59943	0.38994	11.97984	61359.18541	0.60833	1.18771E-4	1786.09383	43526.392	74.1758	10730.819
1215.0	0.7501	0.2499	7.69464	7.56907	-3.45072	20.90673	31.90095	1.1429	0.87497	37.70536	134.02393	13.5839	0.38787	12.16125	70625.93595	0.59725	1.02842E-4	1786.72507	43170.16	71.2464	10899.377
1210.0	0.76193	0.23807	7.69963	7.56411	-3.51403	20.79673	31.88066	1.13979	0.87736	40.34956	134.40387	14.55682	0.38593	12.34575	80861.05791	0.58635	8.95225E-5	1787.388	42827.167	68.5986	11055.074
1205.0	0.77296	0.22704	7.70447	7.55933	-3.57497	20.69324	31.85609	1.13682	0.87965	42.95308	134.78522	15.51642	0.38412	12.53346	92154.36713	0.57562	7.82869E-5	1788.08052	42496.172	66.199	11199.148
1200.0	0.78324	0.21676	7.70917	7.55467	-3.63449	20.59337	31.8275	1.13399	0.88184	45.51465	135.16688	16.46212	0.38241	12.72446	104606.7158	0.56506	6.87344E-5	1788.80151	42176.077	64.019	11332.695
1195.0	0.79286	0.20714	7.71374	7.55016	-3.69197	20.49911	31.79526	1.13129	0.88395	48.0262	135.54946	17.39076	0.3808	12.91883	118318.1394	0.55467	6.05628E-5	1789.54873	41865.909	62.0336	11456.689
1190.0	0.80186	0.19814	7.71818	7.54578	-3.74787	20.40906	31.75967	1.1287	0.88597	50.48897	135.93258	18.30269	0.37928	13.1167	133415.0769	0.54444	5.35267E-5	1790.3209	41564.802	60.2214	11571.991
1185.0	0.8103	0.1897	7.72252	7.54149	-3.80256	20.32211	31.72096	1.12622	0.88793	52.90155	136.31563	19.19729	0.37784	13.31834	150029.9801	0.53437	4.74363E-5	1791.11687	41271.982	58.564	11679.375
1182.9	0.81367	0.18633	7.72429	7.53975	-3.82469	20.28798	31.70367	1.12521	0.88872	53.88746	136.47629	19.56319	0.37727	13.40384	157453.3655	0.53019	4.51349E-5	1791.45692	41151.833	 	11721.923
1180.0	0.81877	0.18123	7.72709	7.53703	-3.85948	20.22724	31.67022	1.12415	0.88956	55.4114	136.7343	20.12906	0.3764	13.49152	168672.3633	0.5257	4.20488E-5	1791.93229	40969.759	60.4446	11796.528
1175.0	0.82707	0.17293	7.73177	7.53248	-3.91742	20.12827	31.61153	1.12236	0.89098	57.97258	137.17605	21.08104	0.37499	13.64501	189463.575	0.518	3.73056E-5	1792.77178	40664.513	61.0492	11917.072
1170.0	0.83476	0.16524	7.73631	7.52809	-3.97354	20.03432	31.55118	1.12063	0.89236	60.4448	137.61361	22.00112	0.37368	13.80217	212236.7744	0.51033	3.31877E-5	1793.63779	40369.187	59.0652	12028.057
1165.0	0.8419	0.1581	7.74073	7.52379	-4.02829	19.944	31.48946	1.11894	0.89371	62.83676	138.04751	22.89241	0.37244	13.9631	237211.4201	0.5027	2.95907E-5	1794.52828	40082.745	57.2884	12130.52
1160.0	0.84855	0.15145	7.74503	7.51964	-4.08122	19.85882	31.42648	1.11728	0.89503	65.1475	138.47829	23.75436	0.37127	14.12783	264596.5844	0.49511	2.64359E-5	1795.44055	39804.29	55.691	12225.355
1155.0	0.85477	0.14523	7.74923	7.5156	-4.13281	19.77732	31.36228	1.11566	0.89633	67.38283	138.9056	24.58907	0.37018	14.29661	294643.3242	0.48756	2.36572E-5	1796.37314	39533.042	54.2496	12313.341
1153.59	0.85644	0.14356	7.7504	7.51447	-4.14718	19.75488	31.34391	1.11521	0.89669	68.00019	139.02582	24.81976	0.36988	14.3452	303656.6032	0.48543	2.29323E-5	1796.64082	39457.64	 	12336.951
1150.0	0.8703	0.1297	7.75631	7.50884	-4.21902	19.58091	31.29439	1.11417	0.89753	70.74662	139.5132	25.86315	0.36771	14.46911	342203.0589	0.48006	2.0298E-5	1797.38067	39040.631	98.4822	12622.846
1145.0	0.88648	0.11352	7.76364	7.5019	-4.30757	19.37499	31.22362	1.11277	0.89866	74.13733	140.1436	27.15364	0.36515	14.64424	398283.8617	0.47265	1.73787E-5	1798.42334	38525.97	102.9322	12954.957
1140.0	0.89973	0.10027	7.77011	7.49584	-4.38487	19.20464	31.15121	1.11142	0.89975	77.18369	140.72853	28.31361	0.36301	14.82228	457385.3258	0.46533	1.50797E-5	1799.48346	38073.713	90.4514	13225.015
1138.92	0.90223	0.0977713	7.77139	7.49464	-4.40012	19.17241	31.13536	1.11114	0.89997	77.80318	140.84904	28.54934	0.36261	14.86099	470465.4149	0.46376	1.46493E-5	1799.71542	37983.767	 	13275.792
1135.0	0.91502	0.0849809	7.77647	7.48979	-4.46209	19.03307	31.08483	1.10986	0.90102	81.39109	141.39785	29.91167	0.36052	14.99003	530057.1803	0.45849	1.29662E-5	1800.75322	37581.59	98.4246	13535.29
1130.0	0.92825	0.0717463	7.78223	7.48431	-4.53188	18.88486	31.01827	1.10829	0.90229	86.0217	142.0337	31.6644	0.35833	15.15463	608684.1458	0.4519	1.12512E-5	1802.05422	37133.764	89.5652	13801.618
1125.0	0.9388	0.0611978	7.78738	7.47945	-4.59396	18.76131	30.94961	1.10679	0.90351	90.84172	142.61489	33.48254	0.35655	15.32052	690991.326	0.44542	9.8757E-6	1803.3403	36742.219	78.309	14012.012
1120.0	0.94736	0.0526387	7.79206	7.47504	-4.65011	18.65672	30.87916	1.10535	0.90469	95.78869	143.15562	35.34437	0.35508	15.48809	778034.6428	0.43902	8.73948E-6	1804.61382	36392.212	70.0014	14181.214
1116.55	0.95232	0.0476817	7.79508	7.47221	-4.68625	18.59282	30.82962	1.10438	0.90548	99.14558	143.50965	36.60664	0.3542	15.60529	841231.9718	0.43465	8.06292E-6	1805.48935	36170.428	 	14278.49
1115.0	0.96436	0.0356402	7.79855	7.46894	-4.72793	18.47743	30.81667	1.10361	0.90611	104.90982	143.76814	38.79057	0.35226	15.62886	906315.4617	0.43351	7.47556E-6	1805.80363	35923.424	93.7576	14469.541
1110.0	1.0	0.0	7.80906	7.4591	-4.85353	18.13308	30.77518	1.10112	0.90817	133.16077	144.56027	49.44788	0.34648	 	1133242.14	 	5.95708E-6	 	35191.473	146.3902	15021.373
1105.0	1.0	0.0	7.8116	7.45668	-4.88436	18.11113	30.69161	1.10013	0.90899	133.64717	144.93655	49.63442	0.34632	 	1233859.758	 	5.45152E-6	 	35016.94031	34.90654	 
1100.0	1.0	0.0	7.81414	7.45426	-4.91522	18.08886	30.60801	1.09913	0.90981	134.13239	145.31033	49.82059	0.34615	 	1344246.052	 	4.9857E-6	 	34859.22677	31.54271	 
1095.0	1.0	0.0	7.81667	7.45185	-4.946	18.06664	30.5244	1.09813	0.91064	134.61673	145.68237	50.00648	0.34599	 	1465425.428	 	4.55677E-6	 	34701.76702	31.49195	 
1090.0	1.0	0.0	7.81919	7.44944	-4.97672	18.04445	30.44079	1.09712	0.91148	135.10017	146.05269	50.19208	0.34583	 	1598540.575	 	4.16204E-6	 	34544.56049	31.44131	 
1085.0	1.0	0.0	7.82172	7.44704	-5.00736	18.02231	30.35717	1.09611	0.91232	135.58273	146.42128	50.37739	0.34567	 	1744864.15	 	3.79903E-6	 	34387.60659	31.39078	 
1080.0	1.0	0.0	7.82423	7.44464	-5.03794	18.00021	30.27355	1.09509	0.91317	136.0644	146.78816	50.56241	0.34551	 	1905814.741	 	3.46539E-6	 	34230.90473	31.34037	 
1075.0	1.0	0.0	7.82675	7.44225	-5.06843	17.97815	30.18992	1.09406	0.91402	136.54518	147.15332	50.74715	0.34535	 	2082974.567	 	3.15894E-6	 	34074.45436	31.29007	 
1070.0	1.0	0.0	7.82926	7.43986	-5.09886	17.95614	30.10629	1.09303	0.91489	137.02506	147.51678	50.9316	0.34519	 	2278109.848	 	2.87764E-6	 	33918.25488	31.2399	 
1065.0	1.0	0.0	7.83176	7.43748	-5.12922	17.93418	30.02265	1.092	0.91575	137.50406	147.87854	51.11577	0.34503	 	2493193.5	 	2.6196E-6	 	33762.30572	31.18983	 
1060.0	1.0	0.0	7.83426	7.43511	-5.1595	17.91225	29.93901	1.09096	0.91663	137.98217	148.2386	51.29965	0.34486	 	2730431.029	 	2.38306E-6	 	33606.6063	31.13988	 
1055.0	1.0	0.0	7.83676	7.43274	-5.18972	17.89038	29.85536	1.08991	0.91751	138.45939	148.59697	51.48324	0.3447	 	2992289.744	 	2.16636E-6	 	33451.15605	31.09005	 
1050.0	1.0	0.0	7.83925	7.43038	-5.21986	17.86855	29.77171	1.08886	0.91839	138.93572	148.95366	51.66654	0.34454	 	3281532.171	 	1.96797E-6	 	33295.95438	31.04033	 
1045.0	1.0	0.0	7.84174	7.42802	-5.24993	17.84676	29.68804	1.0878	0.91929	139.41116	149.30867	51.84955	0.34438	 	3601253.54	 	1.78648E-6	 	33141.00072	30.99073	 
1040.0	1.0	0.0	7.84422	7.42567	-5.27993	17.82502	29.60438	1.08674	0.92019	139.88571	149.66199	52.03228	0.34422	 	3954924.639	 	1.62055E-6	 	32986.2945	30.94124	 
1035.0	1.0	0.0	7.8467	7.42332	-5.30985	17.80333	29.52071	1.08567	0.92109	140.35937	150.01365	52.21472	0.34406	 	4346440.458	 	1.46896E-6	 	32831.83513	30.89187	 
1030.0	1.0	0.0	7.84918	7.42098	-5.33971	17.78169	29.43703	1.08459	0.92201	140.83213	150.36365	52.39687	0.3439	 	4780175.533	 	1.33057E-6	 	32677.62205	30.84262	 
1028.08	1.0	0.0	7.85013	7.42009	-5.35115	17.77339	29.40489	1.08418	0.92236	141.01346	150.49762	52.46675	0.34384	 	4958996.385	 	1.2807E-6	 	32618.46082	 	 
1027.58	1.0	0.0	7.85037	7.41985	-5.35413	17.77128	29.3965	1.08407	0.92245	141.06089	150.53268	52.48503	0.34382	 	5006937.362	 	1.26795E-6	 	32602.98658	 	 
1027.58	1.0	0.0	7.85037	7.41985	-5.35414	17.77126	29.39647	1.08407	0.92245	141.06098	150.53275	52.48506	0.34382	 	5007034.315	 	1.26792E-6	 	32602.94983	 	 
1025.0	1.0	0.0	7.85164	7.41866	-5.3694	17.76044	29.35334	1.08351	0.92293	141.30437	150.71257	52.57886	0.34374	 	5261191.794	 	1.20428E-6	 	32523.48479	30.82745	 
1020.0	1.0	0.0	7.85409	7.41634	-5.39896	17.73945	29.26965	1.08242	0.92385	141.77596	151.06021	52.76065	0.34358	 	5795006.764	 	1.08913E-6	 	32369.48573	30.79981	 
1015.0	1.0	0.0	7.85654	7.41403	-5.42846	17.71848	29.18596	1.08133	0.92479	142.24663	151.40614	52.94214	0.34342	 	6387758.52	 	9.84248E-7	 	32215.74632	30.74788	 
1010.0	1.0	0.0	7.85899	7.41172	-5.4579	17.69754	29.10226	1.08023	0.92573	142.71637	151.75039	53.12332	0.34326	 	7046469.903	 	8.88776E-7	 	32062.26527	30.69621	 
1005.0	1.0	0.0	7.86143	7.40941	-5.48728	17.67663	29.01855	1.07913	0.92668	143.1852	152.09294	53.30421	0.34309	 	7779061.377	 	8.01939E-7	 	31909.04132	30.64479	 
1000.0	1.0	0.0	7.86387	7.40712	-5.51659	17.65574	28.93483	1.07801	0.92763	143.6531	152.43382	53.4848	0.34293	 	8594472.583	 	7.23015E-7	 	31756.07326	30.59361	 
995.0	1.0	0.0	7.86631	7.40482	-5.54583	17.63489	28.85111	1.0769	0.92859	144.12008	152.77302	53.66509	0.34277	 	9502803.537	 	6.51337E-7	 	31603.35988	30.54268	 
990.0	1.0	0.0	7.86874	7.40254	-5.57502	17.61406	28.76739	1.07577	0.92956	144.58615	153.11055	53.84508	0.34261	 	1.051547293E7	 	5.8629E-7	 	31450.90001	30.49197	 
985.0	1.0	0.0	7.87116	7.40025	-5.60413	17.59327	28.68366	1.07464	0.93054	145.0513	153.44642	54.02477	0.34245	 	1.164540509E7	 	5.27308E-7	 	31298.69248	30.44151	 
980.0	1.0	0.0	7.87359	7.39798	-5.63319	17.57252	28.59992	1.07351	0.93153	145.51553	153.78064	54.20416	0.34229	 	1.290723733E7	 	4.73867E-7	 	31146.73617	30.39126	 
975.0	1.0	0.0	7.87601	7.3957	-5.66217	17.5518	28.51618	1.07236	0.93252	145.97884	154.11321	54.38326	0.34213	 	1.431756643E7	 	4.25485E-7	 	30995.02997	30.34124	 
970.0	1.0	0.0	7.87842	7.39344	-5.69109	17.53111	28.43243	1.07121	0.93352	146.44124	154.44414	54.56206	0.34197	 	1.58952251E7	 	3.81719E-7	 	30843.5728	30.29143	 
965.0	1.0	0.0	7.88083	7.39117	-5.71995	17.51047	28.34867	1.07006	0.93453	146.90272	154.77343	54.74056	0.34181	 	1.766160327E7	 	3.4216E-7	 	30692.36357	30.24185	 
960.0	1.0	0.0	7.88324	7.38892	-5.74874	17.48986	28.26491	1.06889	0.93555	147.36329	155.1011	54.91876	0.34165	 	1.964101932E7	 	3.06435E-7	 	30541.40126	30.19246	 
955.0	1.0	0.0	7.88564	7.38666	-5.77747	17.4693	28.18114	1.06772	0.93657	147.82295	155.42714	55.09666	0.34149	 	2.186114709E7	 	2.74199E-7	 	30390.68481	30.14329	 
950.0	1.0	0.0	7.88804	7.38442	-5.80613	17.44878	28.09736	1.06655	0.9376	148.28169	155.75156	55.27426	0.34133	 	2.435350761E7	 	2.45135E-7	 	30240.21324	30.09431	 
945.0	1.0	0.0	7.89044	7.38218	-5.83472	17.4283	28.01358	1.06536	0.93865	148.73951	156.07437	55.45157	0.34117	 	2.715404019E7	 	2.18954E-7	 	30089.98554	30.04554	 
940.0	1.0	0.0	7.89283	7.37994	-5.86324	17.40787	27.92979	1.06417	0.9397	149.19643	156.39558	55.62858	0.34101	 	3.030376095E7	 	1.95391E-7	 	29940.00073	29.99696	 
936.31	1.0	0.0	7.89459	7.3783	-5.88423	17.39283	27.86803	1.06329	0.94047	149.53262	156.6313	55.75885	0.34089	 	3.287589878E7	 	1.79557E-7	 	29829.60981	 	 
935.0	1.0	0.0	7.89551	7.37744	-5.8952	17.37324	27.83678	1.06333	0.94044	149.66015	156.71935	55.80833	0.34084	 	3.385825827E7	 	1.74158E-7	 	29773.42363	33.31542	 
930.0	1.0	0.0	7.89899	7.37418	-5.93669	17.29913	27.71765	1.06348	0.94031	150.14428	157.05301	55.9962	0.34066	 	3.789326531E7	 	1.54969E-7	 	29560.81386	42.52195	 
925.0	1.0	0.0	7.90245	7.37096	-5.97782	17.22569	27.60169	1.06351	0.94028	150.62715	157.38493	56.18363	0.34049	 	4.245106257E7	 	1.37756E-7	 	29349.86779	42.18921	 
920.0	1.0	0.0	7.90588	7.36776	-6.01859	17.1529	27.48698	1.06349	0.9403	151.10888	157.71524	56.37067	0.34031	 	4.760450581E7	 	1.2233E-7	 	29140.55759	41.86204	 
915.0	1.0	0.0	7.90928	7.36459	-6.05901	17.08076	27.37349	1.06343	0.94036	151.58953	158.04401	56.55735	0.34014	 	5.343730144E7	 	1.08521E-7	 	28932.85578	41.54036	 
910.0	1.0	0.0	7.91265	7.36145	-6.09908	17.00927	27.26103	1.06332	0.94045	152.06911	158.37126	56.74366	0.33997	 	6.004571367E7	 	9.61711E-8	 	28726.73522	41.22411	 
905.0	1.0	0.0	7.916	7.35834	-6.13881	16.9384	27.14984	1.06316	0.94059	152.54764	158.697	56.92962	0.33979	 	6.754057896E7	 	8.51378E-8	 	28522.16908	40.91323	 
900.0	1.0	0.0	7.91933	7.35525	-6.17821	16.86816	27.03988	1.06295	0.94077	153.0251	159.02123	57.11521	0.33962	 	7.604964015E7	 	7.5291E-8	 	28319.13089	40.60764	 
895.0	1.0	0.0	7.92262	7.35219	-6.21726	16.79854	26.93112	1.0627	0.941	153.50149	159.34394	57.30044	0.33944	 	8.572029338E7	 	6.65123E-8	 	28117.59451	40.30728	 
890.0	1.0	0.0	7.9259	7.34915	-6.25599	16.72953	26.82351	1.0624	0.94127	153.97677	159.6651	57.48529	0.33927	 	9.672279757E7	 	5.8694E-8	 	27917.53418	40.01207	 
885.0	1.0	0.0	7.92915	7.34614	-6.29439	16.66112	26.71701	1.06205	0.94158	154.45093	159.98471	57.66975	0.3391	 	1.092540354E8	 	5.17385E-8	 	27718.92445	39.72195	 
880.0	1.0	0.0	7.93237	7.34315	-6.33248	16.59331	26.6116	1.06165	0.94193	154.92396	160.30274	57.85383	0.33893	 	1.235419479E8	 	4.55573E-8	 	27521.74039	39.43681	 
875.0	1.0	0.0	7.93557	7.34019	-6.37024	16.52608	26.50724	1.06121	0.94232	155.39583	160.61918	58.03751	0.33875	 	1.398507303E8	 	4.00701E-8	 	27325.95661	39.15676	 
870.0	1.0	0.0	7.93874	7.33726	-6.40769	16.45943	26.40434	1.0607	0.94277	155.86652	160.93401	58.22079	0.33858	 	1.584869467E8	 	3.52044E-8	 	27131.54942	38.88144	 
865.0	1.0	0.0	7.9419	7.33435	-6.44483	16.39335	26.30259	1.06015	0.94326	156.33602	161.24722	58.40365	0.33841	 	1.798067635E8	 	3.08944E-8	 	26938.49484	38.61092	 
860.0	1.0	0.0	7.94502	7.33146	-6.48167	16.32782	26.20107	1.05958	0.94377	156.8043	161.55878	58.5861	0.33824	 	2.042244381E8	 	2.70811E-8	 	26746.76929	38.34511	 
855.0	1.0	0.0	7.94813	7.32859	-6.51821	16.26285	26.10047	1.05897	0.94431	157.27137	161.8687	58.76812	0.33807	 	2.322224082E8	 	2.3711E-8	 	26556.34952	38.08395	 
850.0	1.0	0.0	7.95121	7.32575	-6.55446	16.19842	26.00077	1.05832	0.94489	157.73719	162.17695	58.94972	0.3379	 	2.643631719E8	 	2.07359E-8	 	26367.21266	37.82737	 
845.0	1.0	0.0	7.95353	7.32362	-6.58168	16.174	25.91937	1.05692	0.94615	158.17438	162.46648	59.12016	0.33774	 	3.008447828E8	 	1.81403E-8	 	26224.61856	28.51882	 
840.0	1.0	0.0	7.95584	7.32149	-6.60884	16.14959	25.83796	1.05551	0.94741	158.61068	162.75452	59.29031	0.33758	 	3.427586022E8	 	1.58508E-8	 	26079.33669	29.05637	 
835.0	1.0	0.0	7.95815	7.31936	-6.63593	16.12521	25.75654	1.05409	0.94869	159.04607	163.04109	59.46016	0.33742	 	3.909717849E8	 	1.38337E-8	 	25934.27878	29.01158	 
830.0	1.0	0.0	7.96046	7.31725	-6.66295	16.10084	25.67512	1.05266	0.94997	159.48057	163.32618	59.62971	0.33726	 	4.464991091E8	 	1.20587E-8	 	25789.44429	28.9669	 
825.0	1.0	0.0	7.96275	7.31513	-6.6899	16.07648	25.59369	1.05122	0.95127	159.91416	163.6098	59.79897	0.3371	 	5.105296616E8	 	1.04985E-8	 	25644.83264	28.92233	 
820.0	1.0	0.0	7.96505	7.31303	-6.71678	16.05214	25.51225	1.04978	0.95258	160.34685	163.89196	59.96793	0.33694	 	5.844586253E8	 	9.12878E-9	 	25500.44326	28.87788	 
815.0	1.0	0.0	7.96734	7.31092	-6.74359	16.02782	25.4308	1.04832	0.95391	160.77865	164.17265	60.13659	0.33678	 	6.699251991E8	 	7.92774E-9	 	25356.27558	28.83354	 
810.0	1.0	0.0	7.96962	7.30883	-6.77033	16.00352	25.34934	1.04686	0.95524	161.20954	164.45189	60.30495	0.33662	 	7.688578972E8	 	6.87589E-9	 	25212.32904	28.78931	 
805.0	1.0	0.0	7.9719	7.30674	-6.79701	15.97923	25.26788	1.04539	0.95658	161.63953	164.72967	60.47302	0.33646	 	8.835287421E8	 	5.95587E-9	 	25068.60304	28.7452	 
800.0	1.0	0.0	7.97418	7.30465	-6.82361	15.95496	25.1864	1.0439	0.95794	162.06862	165.006	60.64079	0.3363	 	1.016618192E9	 	5.15216E-9	 	24925.09702	28.7012	 
795.0	1.0	0.0	7.97645	7.30257	-6.85015	15.93071	25.10492	1.04241	0.95931	162.4968	165.28088	60.80826	0.33614	 	1.171293046E9	 	4.45096E-9	 	24781.81041	28.65732	 
790.0	1.0	0.0	7.97872	7.3005	-6.87661	15.90647	25.02343	1.04091	0.9607	162.92408	165.55432	60.97544	0.33598	 	1.351300056E9	 	3.83998E-9	 	24638.74262	28.61356	 
785.0	1.0	0.0	7.98098	7.29843	-6.90301	15.88225	24.94193	1.0394	0.96209	163.35046	165.82632	61.14231	0.33582	 	1.561078592E9	 	3.30833E-9	 	24495.89306	28.56991	 
780.0	1.0	0.0	7.98324	7.29636	-6.92934	15.85805	24.86042	1.03788	0.9635	163.77594	166.09689	61.30889	0.33566	 	1.805896437E9	 	2.84632E-9	 	24353.26117	28.52638	 
775.0	1.0	0.0	7.98549	7.2943	-6.9556	15.83387	24.7789	1.03635	0.96492	164.20051	166.36603	61.47517	0.3355	 	2.092013732E9	 	2.44538E-9	 	24210.84636	28.48296	 
770.0	1.0	0.0	7.98774	7.29225	-6.98179	15.8097	24.69737	1.03481	0.96636	164.62417	166.63374	61.64114	0.33534	 	2.426881198E9	 	2.0979E-9	 	24068.64803	28.43967	 
765.0	1.0	0.0	7.98999	7.2902	-7.00791	15.78555	24.61584	1.03326	0.96781	165.04693	166.90002	61.80682	0.33518	 	2.819380206E9	 	1.79719E-9	 	23926.6656	28.39649	 
760.0	1.0	0.0	7.99222	7.28816	-7.03397	15.76141	24.53429	1.03171	0.96927	165.46879	167.16489	61.9722	0.33502	 	3.280113995E9	 	1.53731E-9	 	23784.89847	28.35342	 
755.0	1.0	0.0	7.99446	7.28612	-7.05995	15.73729	24.45274	1.03014	0.97074	165.88974	167.42834	62.13728	0.33486	 	3.821761517E9	 	1.31304E-9	 	23643.34606	28.31048	 
750.0	1.0	0.0	7.99669	7.28409	-7.08587	15.71319	24.37118	1.02856	0.97223	166.30979	167.69038	62.30205	0.33471	 	4.459508101E9	 	1.1198E-9	 	23502.00776	28.26766	 
745.0	1.0	0.0	7.99891	7.28206	-7.11172	15.68911	24.2896	1.02697	0.97374	166.72892	167.95101	62.46653	0.33455	 	5.211570502E9	 	9.5352E-10	 	23360.88296	28.22496	 
740.0	1.0	0.0	8.00114	7.28004	-7.1375	15.66504	24.20802	1.02537	0.97526	167.14716	168.21023	62.63071	0.33439	 	6.099838116E9	 	8.10666E-10	 	23219.97107	28.18238	 
735.0	1.0	0.0	8.00335	7.27803	-7.16322	15.64099	24.12643	1.02376	0.97679	167.56448	168.46806	62.79458	0.33423	 	7.150657435E9	 	6.88123E-10	 	23079.27147	28.13992	 
730.0	1.0	0.0	8.00556	7.27602	-7.18886	15.61696	24.04482	1.02214	0.97834	167.9809	168.72449	62.95815	0.33407	 	8.395793447E9	 	5.83164E-10	 	22938.78356	28.09758	 
725.0	1.0	0.0	8.00777	7.27401	-7.21444	15.59294	23.96321	1.02051	0.9799	168.3964	168.97952	63.12142	0.33391	 	9.873609979E9	 	4.93408E-10	 	22798.50669	28.05537	 
720.0	1.0	0.0	8.00997	7.27201	-7.23995	15.56894	23.88159	1.01887	0.98148	168.81101	169.23317	63.28439	0.33375	 	1.16305E10	 	4.16776E-10	 	22658.44027	28.01328	 
715.0	1.0	0.0	8.01217	7.27002	-7.26539	15.54496	23.79996	1.01722	0.98308	169.2247	169.48542	63.44706	0.33359	 	1.3722799999999998E10	 	3.51453E-10	 	22518.58364	27.97133	 
710.0	1.0	0.0	8.01436	7.26803	-7.29077	15.52099	23.71831	1.01555	0.98469	169.63748	169.7363	63.60943	0.33343	 	1.6218699999999998E10	 	2.95863E-10	 	22378.93619	27.92949	 
705.0	1.0	0.0	8.01655	7.26604	-7.31607	15.49704	23.63666	1.01388	0.98631	170.04935	169.9858	63.77149	0.33327	 	1.92013E10	 	2.48634E-10	 	22239.49726	27.88779	 
700.0	1.0	0.0	8.01873	7.26407	-7.34131	15.47311	23.555	1.01219	0.98796	170.46032	170.23392	63.93325	0.33311	 	2.2772E10	 	2.08577E-10	 	22100.26621	27.84621	 
695.0	1.0	0.0	8.02091	7.26209	-7.36648	15.4492	23.47332	1.01049	0.98961	170.87037	170.48067	64.0947	0.33295	 	2.7054199999999996E10	 	1.7466E-10	 	21961.24238	27.80477	 
690.0	1.0	0.0	8.02309	7.26012	-7.39159	15.4253	23.39164	1.00879	0.99129	171.27951	170.72605	64.25585	0.33279	 	3.2199299999999996E10	 	1.45994E-10	 	21822.42511	27.76345	 
685.0	1.0	0.0	8.02526	7.25816	-7.41662	15.40142	23.30994	1.00707	0.99298	171.68774	170.97007	64.4167	0.33263	 	3.83925E10	 	1.21808E-10	 	21683.81373	27.72228	 
680.0	1.0	0.0	8.02742	7.2562	-7.44159	15.37755	23.22824	1.00534	0.99469	172.09506	171.21272	64.57725	0.33247	 	4.58615E10	 	1.01438E-10	 	21545.40755	27.68124	 
675.0	1.0	0.0	8.02958	7.25425	-7.46649	15.3537	23.14652	1.00359	0.99642	172.50147	171.45402	64.73749	0.33232	 	5.488629999999999E10	 	8.4314E-11	 	21407.20588	27.64034	 
670.0	1.0	0.0	8.03174	7.25231	-7.49133	15.32987	23.06479	1.00184	0.99817	172.90697	171.69397	64.89742	0.33216	 	6.581229999999999E10	 	6.99456E-11	 	21269.20802	27.59957	 
665.0	1.0	0.0	8.03389	7.25036	-7.51609	15.30606	22.98305	1.00007	0.99993	173.31155	171.93256	65.05705	0.332	 	7.90662E10	 	5.7912E-11	 	21131.41326	27.55895	 
660.0	1.0	0.0	8.03603	7.24843	-7.54079	15.28226	22.9013	0.99829	1.00171	173.71522	172.16981	65.21638	0.33184	 	9.517619999999998E10	 	4.78531E-11	 	20993.82141	27.51837	 
655.0	1.0	0.0	8.03818	7.2465	-7.56543	15.25848	22.81954	0.9965	1.00351	174.11798	172.40571	65.3754	0.33168	 	1.14798E11	 	3.94613E-11	 	20856.43496	27.47729	 
650.0	1.0	0.0	8.04031	7.24457	-7.58999	15.23472	22.73776	0.9947	1.00533	174.51982	172.64028	65.53412	0.33152	 	1.38746E11	 	3.24742E-11	 	20719.25735	27.43552	 
645.0	1.0	0.0	8.04245	7.24265	-7.61449	15.21097	22.65597	0.99288	1.00717	174.92075	172.8735	65.69253	0.33136	 	1.68037E11	 	2.66684E-11	 	20582.28802	27.39386	 
640.0	1.0	0.0	8.04457	7.24073	-7.63893	15.18724	22.57418	0.99105	1.00903	175.32076	173.1054	65.85063	0.3312	 	2.03938E11	 	2.1854E-11	 	20445.52638	27.35233	 
635.0	1.0	0.0	8.0467	7.23882	-7.66329	15.16353	22.49237	0.98921	1.01091	175.71986	173.33597	66.00843	0.33104	 	2.48038E11	 	1.78701E-11	 	20308.97183	27.31091	 
630.0	1.0	0.0	8.04881	7.23692	-7.68759	15.13983	22.41054	0.98736	1.01281	176.11805	173.5652	66.16592	0.33088	 	3.02329E11	 	1.45803E-11	 	20172.62379	27.26961	 
625.0	1.0	0.0	8.05093	7.23502	-7.71182	15.11616	22.32871	0.98549	1.01473	176.51532	173.79312	66.3231	0.33072	 	3.69316E11	 	1.18696E-11	 	20036.48145	27.22847	 
620.0	1.0	0.0	8.05304	7.23312	-7.73599	15.09249	22.24686	0.98361	1.01667	176.91167	174.01972	66.47998	0.33056	 	4.52158E11	 	9.64097E-12	 	19900.54363	27.18756	 
615.0	1.0	0.0	8.05514	7.23124	-7.76009	15.06885	22.165	0.98171	1.01863	177.3071	174.245	66.63654	0.3304	 	5.54846E11	 	7.8127E-12	 	19764.81008	27.14671	 
610.0	1.0	0.0	8.05724	7.22935	-7.78412	15.04522	22.08313	0.97981	1.02061	177.70162	174.46897	66.79281	0.33025	 	6.82433E11	 	6.31628E-12	 	19629.28018	27.10598	 
605.0	1.0	0.0	8.05933	7.22747	-7.80809	15.02161	22.00124	0.97788	1.02262	178.09523	174.69163	66.94876	0.33009	 	8.4134E11	 	5.09429E-12	 	19493.95336	27.06536	 
600.0	1.0	0.0	8.06142	7.2256	-7.83199	14.99801	21.91934	0.97595	1.02464	178.48791	174.91298	67.1044	0.32993	 	1.03974E12	 	4.09875E-12	 	19358.82903	27.02487	 
595.0	1.0	0.0	8.06351	7.22373	-7.85582	14.97444	21.83743	0.974	1.02669	178.87968	175.13303	67.25974	0.32977	 	1.28806E12	 	3.28962E-12	 	19223.90661	26.98448	 
590.0	1.0	0.0	8.06559	7.22187	-7.87959	14.95088	21.75551	0.97204	1.02877	179.27052	175.35179	67.41477	0.32961	 	1.59965E12	 	2.63359E-12	 	19089.1855	26.94422	 
585.0	1.0	0.0	8.06767	7.22001	-7.90329	14.92733	21.67357	0.97006	1.03086	179.66045	175.56924	67.56949	0.32945	 	1.99164E12	 	2.103E-12	 	18954.66512	26.90408	 
580.0	1.0	0.0	8.06974	7.21816	-7.92693	14.9038	21.59162	0.96807	1.03298	180.04946	175.78541	67.7239	0.32929	 	2.48607E12	 	1.67494E-12	 	18820.34488	26.86405	 
575.0	1.0	0.0	8.0718	7.21631	-7.9505	14.88029	21.50965	0.96606	1.03513	180.43755	176.00028	67.878	0.32913	 	3.11136E12	 	1.33048E-12	 	18686.22416	26.82414	 
570.0	1.0	0.0	8.07386	7.21446	-7.97401	14.8568	21.42767	0.96404	1.0373	180.82473	176.21387	68.03179	0.32897	 	3.9043E12	 	1.05402E-12	 	18552.3024	26.78435	 
565.0	1.0	0.0	8.07592	7.21263	-7.99744	14.83332	21.34568	0.96201	1.03949	181.21098	176.42617	68.18527	0.32881	 	4.9126E12	 	8.32716E-13	 	18418.57898	26.74468	 
560.0	1.0	0.0	8.07797	7.2108	-8.02082	14.80986	21.26367	0.95996	1.04171	181.59631	176.6372	68.33844	0.32865	 	6.19838E12	 	6.56042E-13	 	18285.05329	26.70514	 
555.0	1.0	0.0	8.08002	7.20897	-8.04412	14.78642	21.18165	0.95789	1.04396	181.98071	176.84695	68.4913	0.3285	 	7.84267E12	 	5.15385E-13	 	18151.72474	26.66571	 
550.0	1.0	0.0	8.08206	7.20715	-8.06737	14.763	21.09961	0.95581	1.04624	182.3642	177.05543	68.64385	0.32834	 	9.95155E12	 	4.03715E-13	 	18018.59272	26.6264	 
545.0	1.0	0.0	8.0841	7.20533	-8.09054	14.73959	21.01756	0.95371	1.04854	182.74677	177.26263	68.79609	0.32818	 	1.26643E13	 	3.1531E-13	 	17885.6566	26.58722	 
540.0	1.0	0.0	8.08614	7.20352	-8.11365	14.7162	20.93549	0.9516	1.05086	183.12841	177.46858	68.94802	0.32802	 	1.61644E13	 	2.45526E-13	 	17752.91579	26.54816	 
535.0	1.0	0.0	8.08816	7.20171	-8.1367	14.69282	20.85341	0.94947	1.05322	183.50913	177.67325	69.09963	0.32786	 	2.06943E13	 	1.90602E-13	 	17620.36965	26.50923	 
530.0	1.0	0.0	8.09019	7.19991	-8.15968	14.66946	20.77131	0.94732	1.0556	183.88893	177.87667	69.25094	0.3277	 	2.65752E13	 	1.47505E-13	 	17488.01756	26.47042	 
525.0	1.0	0.0	8.09221	7.19811	-8.18259	14.64612	20.6892	0.94516	1.05802	184.26781	178.07883	69.40193	0.32754	 	3.42345E13	 	1.13791E-13	 	17355.85889	26.43173	 
520.0	1.0	0.0	8.09422	7.19632	-8.20544	14.6228	20.60707	0.94299	1.06046	184.64576	178.27973	69.55261	0.32738	 	4.42422E13	 	8.74994E-14	 	17223.89301	26.39318	 
515.0	1.0	0.0	8.09623	7.19453	-8.22823	14.59949	20.52492	0.94079	1.06293	185.02278	178.47939	69.70297	0.32722	 	5.73619E13	 	6.70613E-14	 	17092.11928	26.35475	 
510.0	1.0	0.0	8.09824	7.19275	-8.25095	14.5762	20.44276	0.93858	1.06544	185.39889	178.6778	69.85303	0.32706	 	7.46192E13	 	5.12249E-14	 	16960.53704	26.31645	 
505.0	1.0	0.0	8.10024	7.19098	-8.2736	14.55292	20.36059	0.93635	1.06797	185.77407	178.87496	70.00277	0.32691	 	9.7397E13	 	3.89946E-14	 	16829.14565	26.27828	 
500.0	1.0	0.0	8.10223	7.18921	-8.29619	14.52967	20.27839	0.93411	1.07054	186.14832	179.07088	70.1522	0.32675	 	1.2756699999999998E14	 	2.95811E-14	 	16697.94445	26.24024	 
495.0	1.0	0.0	8.10422	7.18744	-8.31872	14.50643	20.19618	0.93184	1.07314	186.52165	179.26556	70.30131	0.32659	 	1.67669E14	 	2.23604E-14	 	16566.93277	26.20234	 
490.0	1.0	0.0	8.10621	7.18568	-8.34118	14.48321	20.11396	0.92956	1.07578	186.89405	179.45901	70.45011	0.32643	 	2.2117E14	 	1.68411E-14	 	16436.10994	26.16457	 
485.0	1.0	0.0	8.10819	7.18392	-8.36357	14.46	20.03171	0.92726	1.07844	187.26553	179.65123	70.5986	0.32627	 	2.92809E14	 	1.26374E-14	 	16305.47526	26.12694	 
480.0	1.0	0.0	8.11016	7.18217	-8.38591	14.43681	19.94945	0.92495	1.08114	187.63607	179.84221	70.74677	0.32611	 	3.891E14	 	9.44728E-15	 	16175.02806	26.08944	 
475.0	1.0	0.0	8.11214	7.18043	-8.40817	14.41364	19.86717	0.92261	1.08388	188.0057	180.03198	70.89463	0.32595	 	5.1902599999999994E14	 	7.03536E-15	 	16044.76761	26.05209	 
470.0	1.0	0.0	8.1141	7.17869	-8.43037	14.39048	19.78488	0.92026	1.08665	188.37439	180.22051	71.04218	0.32579	 	6.95024E14	 	5.21871E-15	 	15914.69321	26.01488	 
465.0	1.0	0.0	8.11607	7.17695	-8.45251	14.36734	19.70256	0.91788	1.08946	188.74216	180.40783	71.1894	0.32563	 	9.34391E14	 	3.85569E-15	 	15784.80415	25.97781	 
460.0	1.0	0.0	8.11802	7.17522	-8.47458	14.34422	19.62023	0.91549	1.09231	189.109	180.59393	71.33632	0.32547	 	1.26128E15	 	2.83706E-15	 	15655.09967	25.9409	 
455.0	1.0	0.0	8.11998	7.1735	-8.49659	14.32112	19.53788	0.91308	1.09519	189.47491	180.77882	71.48291	0.32532	 	1.70955E15	 	2.07886E-15	 	15525.57904	25.90413	 
450.0	1.0	0.0	8.12192	7.17178	-8.51854	14.29803	19.45551	0.91065	1.09812	189.8399	180.9625	71.6292	0.32516	 	2.32691E15	 	1.51682E-15	 	15396.24147	25.86751	 
445.0	1.0	0.0	8.12387	7.17006	-8.54042	14.27496	19.37312	0.9082	1.10108	190.20395	181.14497	71.77516	0.325	 	3.18084E15	 	1.10195E-15	 	15267.08621	25.83105	 
440.0	1.0	0.0	8.1258	7.16835	-8.56223	14.2519	19.29072	0.90573	1.10408	190.56707	181.32623	71.92081	0.32484	 	4.36725E15	 	7.97003E-16	 	15138.11244	25.79475	 
435.0	1.0	0.0	8.12774	7.16664	-8.58399	14.22886	19.20829	0.90324	1.10713	190.92927	181.5063	72.06614	0.32468	 	6.02306E15	 	5.73845E-16	 	15009.31937	25.75861	 
430.0	1.0	0.0	8.12967	7.16494	-8.60568	14.20584	19.12584	0.90073	1.11021	191.29054	181.68516	72.21116	0.32452	 	8.34474E15	 	4.11265E-16	 	14880.70616	25.72264	 
425.0	1.0	0.0	8.13159	7.16325	-8.6273	14.18284	19.04338	0.8982	1.11334	191.65087	181.86283	72.35586	0.32436	 	1.16155E16	 	2.93359E-16	 	14752.27196	25.68684	 
420.0	1.0	0.0	8.13351	7.16156	-8.64886	14.15985	18.96089	0.89564	1.11652	192.01028	182.0393	72.50024	0.3242	 	1.62454E16	 	2.08249E-16	 	14624.01589	25.65121	 
415.0	1.0	0.0	8.13542	7.15987	-8.67036	14.13688	18.87838	0.89307	1.11974	192.36875	182.21459	72.64431	0.32405	 	2.2832E16	 	1.47104E-16	 	14495.93709	25.61576	 
410.0	1.0	0.0	8.13733	7.15819	-8.69179	14.11393	18.79586	0.89047	1.123	192.72629	182.38869	72.78805	0.32389	 	3.22493E16	 	1.03391E-16	 	14368.03469	25.58048	 
405.0	1.0	0.0	8.13924	7.15652	-8.71316	14.09099	18.71331	0.88785	1.12631	193.0829	182.5616	72.93148	0.32373	 	4.57835E16	 	7.22942E-17	 	14240.30779	25.54538	 
400.0	1.0	0.0	8.14114	7.15485	-8.73447	14.06808	18.63074	0.88521	1.12967	193.43858	182.73334	73.07459	0.32357	 	6.53367E16	 	5.02853E-17	 	14112.75545	25.51047	 
395.0	1.0	0.0	8.14303	7.15318	-8.75571	14.04517	18.54815	0.88255	1.13308	193.79333	182.90389	73.21739	0.32341	 	9.37385E16	 	3.47891E-17	 	13985.37672	25.47575	 
390.0	1.0	0.0	8.14493	7.15152	-8.77689	14.02229	18.46553	0.87986	1.13654	194.14715	183.07328	73.35986	0.32325	 	1.3522E17	 	2.39363E-17	 	13858.17062	25.44122	 
385.0	1.0	0.0	8.14681	7.14987	-8.79801	13.99942	18.3829	0.87716	1.14005	194.50003	183.24148	73.50202	0.32309	 	1.96148E17	 	1.63767E-17	 	13731.1361	25.4069	 
380.0	1.0	0.0	8.14869	7.14822	-8.81906	13.97657	18.30024	0.87442	1.14361	194.85198	183.40852	73.64385	0.32293	 	2.86154E17	 	1.11404E-17	 	13604.27211	25.3728	 
375.0	1.0	0.0	8.15057	7.14657	-8.84005	13.95373	18.21756	0.87167	1.14722	195.20299	183.5744	73.78537	0.32278	 	4.19899E17	 	7.53385E-18	 	13477.57755	25.33891	 
370.0	1.0	0.0	8.15244	7.14493	-8.86098	13.93091	18.13485	0.86889	1.15089	195.55307	183.73911	73.92656	0.32262	 	6.19841E17	 	5.06429E-18	 	13351.05128	25.30525	 
365.0	1.0	0.0	8.15431	7.14329	-8.88184	13.90811	18.05212	0.86609	1.15462	195.90222	183.90266	74.06744	0.32246	 	9.2059E17	 	3.38332E-18	 	13224.6921	25.27184	 
360.0	1.0	0.0	8.15617	7.14166	-8.90264	13.88533	17.96937	0.86326	1.1584	196.25044	184.06505	74.208	0.3223	 	1.37583E18	 	2.2461E-18	 	13098.49878	25.23866	 
355.0	1.0	0.0	8.15803	7.14004	-8.92338	13.86256	17.8866	0.8604	1.16225	196.59772	184.22629	74.34824	0.32214	 	2.06939E18	 	1.48152E-18	 	12972.47003	25.20575	 
350.0	1.0	0.0	8.15988	7.13842	-8.94405	13.83981	17.80379	0.85752	1.16615	196.94406	184.38637	74.48815	0.32198	 	3.13302E18	 	9.70768E-19	 	12846.60448	25.17311	 
345.0	1.0	0.0	8.16173	7.1368	-8.96466	13.81708	17.72097	0.85462	1.17011	197.28947	184.54531	74.62775	0.32182	 	4.77528E18	 	6.31802E-19	 	12720.90073	25.14075	 
340.0	1.0	0.0	8.16357	7.13519	-8.98521	13.79436	17.63812	0.85169	1.17414	197.63395	184.7031	74.76703	0.32167	 	7.32858E18	 	4.08351E-19	 	12595.35731	25.10868	 
335.0	1.0	0.0	8.16541	7.13358	-9.0057	13.77166	17.55524	0.84873	1.17823	197.97749	184.85974	74.90598	0.32151	 	1.13266E19	 	2.62058E-19	 	12469.97267	25.07693	 
330.0	1.0	0.0	8.16724	7.13198	-9.02612	13.74898	17.47234	0.84575	1.18239	198.32009	185.01525	75.04461	0.32135	 	1.76325E19	 	1.66954E-19	 	12344.74518	25.0455	 
325.0	1.0	0.0	8.16907	7.13039	-9.04649	13.72631	17.3894	0.84274	1.18661	198.66176	185.16962	75.18292	0.32119	 	2.7653E19	 	1.05573E-19	 	12219.67314	25.01441	 
320.0	1.0	0.0	8.17089	7.1288	-9.06679	13.70366	17.30645	0.8397	1.19091	199.0025	185.32285	75.32091	0.32103	 	4.36983E19	 	6.62501E-20	 	12094.75475	24.98368	 
315.0	1.0	0.0	8.17271	7.12721	-9.08702	13.68103	17.22346	0.83663	1.19527	199.34229	185.47495	75.45858	0.32087	 	6.95931E19	 	4.12485E-20	 	11969.98813	24.95332	 
310.0	1.0	0.0	8.17452	7.12563	-9.1072	13.65842	17.14045	0.83354	1.19971	199.68115	185.62593	75.59593	0.32071	 	1.1172099999999998E20	 	2.54761E-20	 	11845.37127	24.92337	 
305.0	1.0	0.0	8.17633	7.12405	-9.12731	13.63582	17.05741	0.83041	1.20422	200.01907	185.77577	75.73295	0.32056	 	1.80824E20	 	1.56053E-20	 	11720.90208	24.89384	 
300.0	1.0	0.0	8.17814	7.12248	-9.14736	13.61324	16.97434	0.82726	1.20881	200.35606	185.9245	75.86965	0.3204	 	2.9513999999999997E20	 	9.47824E-21	 	11596.57833	24.86475	 
295.0	1.0	0.0	8.17994	7.12091	-9.16735	13.59067	16.89124	0.82408	1.21348	200.69211	186.0721	76.00603	0.32024	 	4.8589699999999997E20	 	5.70697E-21	 	11472.39766	24.83613	 
290.0	1.0	0.0	8.18173	7.11935	-9.18727	13.56812	16.80811	0.82086	1.21823	201.02722	186.21858	76.14209	0.32008	 	8.070579999999999E20	 	3.4057E-21	 	11348.35759	24.80801	 
285.0	1.0	0.0	8.18352	7.11779	-9.20714	13.54559	16.72495	0.81762	1.22306	201.3614	186.36395	76.27782	0.31992	 	1.3527400000000001E21	 	2.01383E-21	 	11224.45547	24.78042	 
280.0	1.0	0.0	8.18531	7.11624	-9.22694	13.52308	16.64175	0.81435	1.22798	201.69464	186.50821	76.41323	0.31976	 	2.28864E21	 	1.17964E-21	 	11100.68849	24.7534	 
275.0	1.0	0.0	8.18709	7.11469	-9.24668	13.50058	16.55853	0.81104	1.23298	202.02694	186.65136	76.54832	0.3196	 	3.9093900000000003E21	 	6.84348E-22	 	10977.05365	24.72697	 
270.0	1.0	0.0	8.18886	7.11315	-9.26636	13.4781	16.47528	0.80771	1.23807	202.3583	186.7934	76.68308	0.31945	 	6.74404E21	 	3.93085E-22	 	10853.54777	24.70117	 
265.0	1.0	0.0	8.19063	7.11161	-9.28598	13.45564	16.39199	0.80434	1.24326	202.68872	186.93434	76.81752	0.31929	 	1.1752599999999998E22	 	2.2349E-22	 	10730.16749	24.67606	 
260.0	1.0	0.0	8.1924	7.11008	-9.30553	13.43319	16.30867	0.80093	1.24854	203.01821	187.07418	76.95164	0.31913	 	2.06952E22	 	1.25738E-22	 	10606.90915	24.65167	 
255.0	1.0	0.0	8.19416	7.10855	-9.32502	13.41076	16.22531	0.7975	1.25392	203.34676	187.21293	77.08543	0.31897	 	3.68348E22	 	6.9982E-23	 	10483.76891	24.62805	 
250.0	1.0	0.0	8.19592	7.10703	-9.34446	13.38835	16.14192	0.79403	1.2594	203.67437	187.35057	77.2189	0.31881	 	6.62877E22	 	3.85194E-23	 	10360.74263	24.60526	 
245.0	1.0	0.0	8.19767	7.10551	-9.36383	13.36595	16.0585	0.79053	1.26498	204.00104	187.48713	77.35204	0.31865	 	1.2065199999999999E23	 	2.09609E-23	 	10237.82588	24.58335	 
240.0	1.0	0.0	8.19942	7.10399	-9.38314	13.34357	15.97504	0.78699	1.27067	204.32678	187.62259	77.48486	0.31849	 	2.22178E23	 	1.12727E-23	 	10115.0139	24.5624	 
235.0	1.0	0.0	8.20116	7.10249	-9.40239	13.32121	15.89154	0.78342	1.27646	204.65157	187.75697	77.61735	0.31834	 	4.1408399999999994E23	 	5.98949E-24	 	9992.30162	24.54246	 
230.0	1.0	0.0	8.2029	7.10098	-9.42157	13.29887	15.808	0.77981	1.28237	204.97543	187.89027	77.74952	0.31818	 	7.813569999999999E23	 	3.14293E-24	 	9869.68353	24.52362	 
225.0	1.0	0.0	8.20463	7.09948	-9.4407	13.27654	15.72443	0.77616	1.28839	205.29835	188.02248	77.88137	0.31802	 	1.4933E24	 	1.62817E-24	 	9747.15375	24.50596	 
220.0	1.0	0.0	8.20636	7.09799	-9.45976	13.25423	15.64082	0.77248	1.29454	205.62033	188.15362	78.01289	0.31786	 	2.89166E24	 	8.32375E-25	 	9624.70592	24.48957	 
215.0	1.0	0.0	8.20808	7.0965	-9.47877	13.23193	15.55717	0.76876	1.3008	205.94138	188.28368	78.14408	0.3177	 	5.6758E24	 	4.19772E-25	 	9502.33318	24.47455	 
210.0	1.0	0.0	8.2098	7.09501	-9.49771	13.20965	15.47347	0.765	1.30719	206.26148	188.41267	78.27495	0.31754	 	1.12971E25	 	2.08737E-25	 	9380.0281	24.46102	 
205.0	1.0	0.0	8.21151	7.09353	-9.51659	13.18739	15.38974	0.7612	1.31371	206.58065	188.54059	78.4055	0.31739	 	2.2812E25	 	1.02303E-25	 	9257.78267	24.44909	 
200.0	1.0	0.0	8.21322	7.09206	-9.53541	13.16515	15.30596	0.75736	1.32037	206.89888	188.66745	78.53572	0.31723	 	4.675270000000001E25	 	4.93945E-26	 	9135.58816	24.4389	 
195.0	1.0	0.0	8.21492	7.09059	-9.55417	13.14292	15.22214	0.75349	1.32716	207.21618	188.79324	78.66562	0.31707	 	9.72989E25	 	2.34835E-26	 	9013.43514	24.4306	 
190.0	1.0	0.0	8.21662	7.08912	-9.57287	13.12071	15.13828	0.74957	1.3341	207.53253	188.91798	78.79519	0.31691	 	2.05723E26	 	1.09882E-26	 	8891.3133	24.42437	 
185.0	1.0	0.0	8.21831	7.08766	-9.59151	13.09852	15.05437	0.74561	1.34119	207.84795	189.04165	78.92443	0.31675	 	4.4213300000000005E26	 	5.05756E-27	 	8769.21144	24.42037	 
180.0	1.0	0.0	8.22	7.0862	-9.61009	13.07634	14.97041	0.74161	1.34842	208.16244	189.16427	79.05335	0.31659	 	9.664E26	 	2.28861E-27	 	8647.11732	24.41883	 
175.0	1.0	0.0	8.22169	7.08475	-9.62861	13.05418	14.88641	0.73756	1.35582	208.47598	189.28584	79.18194	0.31644	 	2.1495E27	 	1.01759E-27	 	8525.01752	24.41996	 
170.0	1.0	0.0	8.22337	7.0833	-9.64707	13.03204	14.80236	0.73348	1.36337	208.78859	189.40637	79.31021	0.31628	 	4.86804E27	 	4.44307E-28	 	8402.89735	24.42403	 
165.0	1.0	0.0	8.22504	7.08186	-9.66547	13.00991	14.71826	0.72934	1.37109	209.10027	189.52584	79.43816	0.31612	 	1.12324E28	 	1.90387E-28	 	8280.74063	24.43134	 
160.0	1.0	0.0	8.22671	7.08042	-9.6838	12.98781	14.6341	0.72517	1.37899	209.41101	189.64428	79.56578	0.31596	 	2.64225E28	 	8.00111E-29	 	8158.52951	24.44222	 
155.0	1.0	0.0	8.22838	7.07899	-9.70208	12.96571	14.5499	0.72094	1.38707	209.72081	189.76167	79.69307	0.3158	 	6.3409400000000005E28	 	3.29556E-29	 	8036.24427	24.45705	 
150.0	1.0	0.0	8.23004	7.07756	-9.7203	12.94364	14.46564	0.71668	1.39533	210.02968	189.87804	79.82004	0.31565	 	1.55352E29	 	1.32943E-29	 	7913.86299	24.47626	 
145.0	1.0	0.0	8.23169	7.07614	-9.73845	12.92158	14.38133	0.71236	1.40379	210.33761	189.99336	79.94668	0.31549	 	3.88854E29	 	5.24846E-30	 	7791.36128	24.50034	 
140.0	1.0	0.0	8.23334	7.07472	-9.75655	12.89954	14.29696	0.70799	1.41244	210.64462	190.10766	80.073	0.31533	 	9.951790000000001E29	 	2.02625E-30	 	7668.71182	24.52989	 
135.0	1.0	0.0	8.23499	7.07331	-9.77459	12.87751	14.21253	0.70358	1.4213	210.95068	190.22093	80.19899	0.31517	 	2.60624E30	 	7.64348E-31	 	7545.88396	24.56557	 
130.0	1.0	0.0	8.23663	7.0719	-9.79256	12.85551	14.12805	0.69912	1.43037	211.25582	190.33318	80.32466	0.31501	 	6.99037E30	 	2.81484E-31	 	7422.84306	24.60818	 
125.0	1.0	0.0	8.23827	7.07049	-9.81048	12.83352	14.0435	0.6946	1.43967	211.56003	190.44441	80.45	0.31485	 	1.92197E31	 	1.01108E-31	 	7299.5498	24.65865	 
120.0	1.0	0.0	8.2399	7.06909	-9.82834	12.81154	13.95889	0.69004	1.44919	211.8633	190.55463	80.57502	0.3147	 	5.42209E31	 	3.53898E-32	 	7175.9592	24.71812	 
115.0	1.0	0.0	8.24153	7.0677	-9.84614	12.78959	13.87421	0.68542	1.45896	212.16565	190.66383	80.69972	0.31454	 	1.57105E32	 	1.20586E-32	 	7052.0196	24.78792	 
110.0	1.0	0.0	8.24315	7.06631	-9.86388	12.76764	13.78947	0.68075	1.46897	212.46706	190.77202	80.82409	0.31438	 	4.6802799999999996E32	 	3.99561E-33	 	6927.67103	24.86972	 
105.0	1.0	0.0	8.24477	7.06492	-9.88156	12.74572	13.70466	0.67602	1.47924	212.76755	190.87921	80.94813	0.31422	 	1.43513E33	 	1.28605E-33	 	6802.84338	24.96553	 
100.0	1.0	0.0	8.24638	7.06354	-9.89918	12.72382	13.61978	0.67124	1.48977	213.06711	190.98539	81.07186	0.31406	 	4.5347300000000003E33	 	4.01623E-34	 	6677.45389	25.0779	 
95.0	1.0	0.0	8.24798	7.06216	-9.91674	12.70193	13.53483	0.6664	1.50059	213.36575	191.09058	81.19526	0.31391	 	1.47837E34	 	1.21542E-34	 	6551.40384	25.21001	 
90.0	1.0	0.0	8.24959	7.06079	-9.93424	12.68005	13.4498	0.66151	1.51169	213.66346	191.19477	81.31834	0.31375	 	4.97907E34	 	3.55979E-35	 	6424.57411	25.36595	 
85.0	1.0	0.0	8.25119	7.05942	-9.95168	12.6582	13.3647	0.65656	1.5231	213.96025	191.29796	81.44109	0.31359	 	1.73475E35	 	1.00766E-35	 	6296.8192	25.55098	 
80.0	1.0	0.0	8.25278	7.05806	-9.96906	12.63636	13.27951	0.65154	1.53482	214.25612	191.40018	81.56353	0.31343	 	6.26149E35	 	2.75276E-36	 	6167.95902	25.77204	 
75.0	1.0	0.0	8.25437	7.0567	-9.98638	12.61454	13.19425	0.64647	1.54686	214.55107	191.5014	81.68564	0.31327	 	2.3449199999999998E36	 	7.24643E-37	 	6037.76743	26.03832	 
70.0	1.0	0.0	8.25595	7.05535	-10.00365	12.59273	13.10889	0.64133	1.55925	214.8451	191.60165	81.80743	0.31311	 	9.12623E36	 	1.83518E-37	 	5905.95629	26.36223	 
65.0	1.0	0.0	8.25753	7.054	-10.02085	12.57094	13.02345	0.63614	1.57199	215.13821	191.70093	81.9289	0.31296	 	3.69749E37	 	4.46364E-38	 	5772.15262	26.76073	 
60.0	1.0	0.0	8.2591	7.05266	-10.038	12.54917	12.93792	0.63087	1.58511	215.43041	191.79923	82.05005	0.3128	 	1.56229E38	 	1.0408E-38	 	5635.86586	27.25735	 
55.0	1.0	0.0	8.26067	7.05132	-10.05509	12.52742	12.8523	0.62554	1.59861	215.7217	191.89656	82.17089	0.31264	 	6.89742E38	 	2.32206E-39	 	5496.44029	27.88511	 
50.0	1.0	0.0	8.26224	7.04998	-10.07212	12.50568	12.76657	0.62015	1.61252	216.01207	191.99294	82.2914	0.31248	 	3.18838E39	 	4.94676E-40	 	5322.46222	34.79561	 
45.0	1.0	0.0	8.2638	7.04865	-10.08909	12.48396	12.68075	0.61469	1.62685	216.30154	192.08835	82.4116	0.31232	 	1.54651E40	 	1.00408E-40	 	5143.97888	35.69667	 
40.0	1.0	0.0	8.26535	7.04733	-10.106	12.46226	12.59481	0.60915	1.64162	216.59011	192.18282	82.53148	0.31217	 	7.8892E40	 	1.93734E-41	 	4971.30919	34.53394	 
35.0	1.0	0.0	8.2669	7.046	-10.12285	12.44057	12.50877	0.60355	1.65686	216.87777	192.27633	82.65105	0.31201	 	4.24307E41	 	3.54461E-42	 	4803.8751	33.48682	 
30.0	1.0	0.0	8.26845	7.04469	-10.13965	12.4189	12.42262	0.59788	1.67259	217.16453	192.36891	82.7703	0.31185	 	2.41228E42	 	6.13361E-43	 	4641.18034	32.53895	 
25.0	1.0	0.0	8.26999	7.04338	-10.15639	 	12.33634	0.59213	1.68883	217.4504	192.46054	82.88924	0.31169	 	1.4537600000000002E43	 	1.00099E-43	 	4482.79829	 	 
