T (C)	Fraction solid (wt)-TOTAL	Fraction liquid (wt)-LIQUID	Density (g/(cm)^3)-TOTAL	Molar volume (cm^3)-TOTAL	Volume change (%)-  	Average expansion coeff. (10e-6 1/K)-  	Thermal conductivity (W/(m*K))-TOTAL	Electrical resistivity (10e-6 Ohm*m)-TOTAL	Electrical conductivity (10e6 1/(Ohm*m))-TOTAL	Young's modulus (GPa)-TOTAL	Bulk modulus (GPa)-TOTAL	Shear modulus(GPa)-TOTAL	Poisson's ratio-TOTAL	Liquid viscosity (mPa s)-  	Total viscosity (mPa s)-  	Liquid diffusivity (10e-9 (m^2)/s)-  	Total diffusivity (10e-9 (m^2)/s)-  	Surface Tension (mN/m)-  	Enthalpy (J/mole)-TOTAL	Specific heat (J/(mole K))-TOTAL	Latent heat (J/mole)-TOTAL
1400.0	0.0	1.0	7.63394	7.95474	0.0	33.01868	31.67368	1.2942	0.77268	0.0	123.05388	0.0	0.5	7.37385	7.37385	1.10746	1.10746	1816.02628	39492.74	 	0.0
1395.0	0.0	1.0	7.6383	7.9502	-0.057134	32.98124	31.59272	1.29364	0.77301	0.0	123.18995	0.0	0.5	7.45491	7.45491	1.09214	1.09214	1819.35903	39291.879	40.1722	0.0
1390.0	0.0	1.0	7.64266	7.94567	-0.11411	32.94397	31.51175	1.29308	0.77335	0.0	123.32603	0.0	0.5	7.53736	7.53736	1.07696	1.07696	1822.70895	39091.469	40.082	0.0
1385.0	0.0	1.0	7.64701	7.94115	-0.17092	32.90689	31.43078	1.29251	0.77369	0.0	123.46211	0.0	0.5	7.62123	7.62123	1.06191	1.06191	1826.07589	38891.508	39.9922	0.0
1380.0	0.0	1.0	7.65135	7.93664	-0.22756	32.86998	31.34981	1.29194	0.77403	0.0	123.59818	0.0	0.5	7.70654	7.70654	1.04698	1.04698	1829.45967	38691.993	39.903	0.0
1375.0	0.0	1.0	7.65568	7.93215	-0.28405	32.83325	31.26884	1.29137	0.77437	0.0	123.73426	0.0	0.5	7.79334	7.79334	1.03219	1.03219	1832.86014	38492.921	39.8144	0.0
1370.0	0.0	1.0	7.66001	7.92767	-0.34037	32.79671	31.18788	1.2908	0.77472	0.0	123.87034	0.0	0.5	7.88165	7.88165	1.01753	1.01753	1836.27714	38294.29	39.7262	0.0
1365.0	0.0	1.0	7.66433	7.9232	-0.39654	32.76035	31.10691	1.29022	0.77506	0.0	124.00641	0.0	0.5	7.97151	7.97151	1.003	1.003	1839.71051	38096.095	39.639	0.0
1360.0	0.0	1.0	7.66864	7.91875	-0.45254	32.72417	31.02594	1.28964	0.77541	0.0	124.14249	0.0	0.5	8.06295	8.06295	0.9886	0.9886	1843.1601	37898.335	39.552	0.0
1355.0	0.0	1.0	7.67295	7.9143	-0.50837	32.68819	30.94497	1.28905	0.77576	0.0	124.27857	0.0	0.5	8.15602	8.15602	0.97432	0.97432	1846.62575	37701.007	39.4656	0.0
1350.0	0.0	1.0	7.67724	7.90987	-0.56405	32.6524	30.86401	1.28846	0.77612	0.0	124.41464	0.0	0.5	8.25074	8.25074	0.96018	0.96018	1850.10732	37504.108	39.3798	0.0
1345.0	0.0	1.0	7.68153	7.90546	-0.61957	32.6168	30.78304	1.28787	0.77647	0.0	124.55072	0.0	0.5	8.34716	8.34716	0.94617	0.94617	1853.60467	37307.635	39.2946	0.0
1340.0	0.0	1.0	7.68581	7.90106	-0.67492	32.5814	30.70207	1.28728	0.77683	0.0	124.6868	0.0	0.5	8.44531	8.44531	0.93228	0.93228	1857.11765	37111.585	39.21	0.0
1338.53	0.0	1.0	7.68707	7.89976	-0.6912	32.571	30.67821	1.2871	0.77694	0.0	124.7269	0.0	0.5	8.47457	8.47457	0.92821	0.92821	1858.15601	37053.883	39.15504	0.0
1335.0	0.0905316	0.90947	7.71817	7.8679	-1.09169	31.50083	30.89239	1.27538	0.78408	0.00671567	126.35239	0.00225567	0.48862	8.56841	11.14726	0.91604	0.70412	1858.19657	35553.749	425.41063	1362.208
1330.0	0.20319	0.79681	7.75729	7.82829	-1.58969	30.17623	31.15536	1.26069	0.79322	0.17377	128.39073	0.0589342	0.47431	8.70579	50.51435	0.89878	0.1549	1858.25417	33678.274	375.095	3042.472
1325.0	0.29846	0.70154	7.79084	7.79453	-2.01407	29.05594	31.37197	1.24808	0.80123	0.82272	130.14218	0.28135	0.46207	8.84774	204.28832	0.8816	0.0381822	1858.29589	32077.323	320.1902	4448.628
1320.0	0.37968	0.62032	7.81986	7.76554	-2.37851	28.10227	31.55014	1.23715	0.80831	2.18595	131.66645	0.75298	0.45152	8.99448	541.10001	0.8645	0.0143703	1858.32226	30698.082	275.8482	5633.488
1315.0	0.44943	0.55057	7.84508	7.74046	-2.69373	27.28574	31.69642	1.22757	0.81462	4.34519	133.00679	1.50625	0.44239	9.14584	1103.61062	0.84753	0.00702364	1858.33366	29499.396	239.7372	6638.203
1310.0	0.50973	0.49027	7.86715	7.71859	-2.96867	26.58158	31.81544	1.21913	0.82026	7.26788	134.19774	2.53338	0.43442	9.30193	1912.42097	0.83068	0.00404041	1858.33102	28448.9	210.0992	7495.135
1305.0	0.56215	0.43785	7.88661	7.69934	-3.2107	25.96927	31.9108	1.21165	0.82532	10.85559	135.26579	3.80247	0.42744	9.46296	2973.63978	0.81397	0.00259028	1858.31554	27520.92	185.596	8229.957
1300.0	0.60798	0.39202	7.90382	7.68231	-3.42474	25.43532	31.9858	1.20498	0.82989	14.97871	136.23135	5.26941	0.42129	9.62875	4284.75664	0.79742	0.00179197	1858.28744	26694.922	165.1996	8863.2
1295.0	0.64825	0.35175	7.91914	7.66714	-3.61553	24.96648	32.04294	1.19901	0.83402	19.50558	137.11174	6.88831	0.41585	9.79958	5840.24425	0.78103	0.00131052	1858.24793	25954.359	148.1126	9411.409
1290.0	0.68376	0.31624	7.93285	7.65354	-3.78646	24.55342	32.08455	1.19363	0.83778	24.30861	137.91978	8.61388	0.41101	9.9754	7632.61807	0.76482	9.99571E-4	1858.19787	25285.799	133.712	9888.012
1285.0	0.71523	0.28477	7.94517	7.64129	-3.94046	24.18794	32.11262	1.18877	0.8412	29.28136	138.66711	10.40783	0.4067	10.15637	9657.07179	0.74879	7.875E-4	1858.13814	24678.265	121.5068	10303.986
1280.0	0.74319	0.25681	7.95628	7.63018	-4.08018	23.86268	32.12865	1.18437	0.84433	34.33107	139.36218	12.23632	0.40283	10.34255	11909.53561	0.73295	6.3651E-4	1858.07052	24122.728	111.1074	10668.355
1275.0	0.76812	0.23188	7.96639	7.62005	-4.2075	23.57235	32.13416	1.18035	0.8472	39.38109	140.01256	14.07109	0.39936	10.53424	14388.19659	0.71729	5.25162E-4	1857.99624	23611.717	102.2022	10988.588
1270.0	0.79042	0.20958	7.97558	7.61078	-4.32399	23.31267	32.13041	1.17668	0.84985	44.37265	140.62394	15.89015	0.39623	10.73127	17094.51118	0.70185	4.40594E-4	1857.91659	23139.015	94.5404	11270.902
1265.0	0.81041	0.18959	7.98398	7.60228	-4.43083	23.08034	32.11849	1.1733	0.8523	49.26225	141.20187	17.67698	0.3934	10.93385	20033.46699	0.68661	3.74739E-4	1857.83242	22699.418	87.9194	11520.497
1260.0	0.82839	0.17161	7.9917	7.59443	-4.52958	22.87095	32.0993	1.17019	0.85456	54.01316	141.75017	19.41753	0.39083	11.14222	23210.46211	0.67158	3.22394E-4	1857.74677	22288.55	82.1736	11741.746
1255.0	0.84459	0.15541	7.99882	7.58712	-4.62149	22.6809	32.07371	1.1673	0.85668	58.60696	142.27241	21.10446	0.3885	11.35648	26637.06832	0.65676	2.80005E-4	1857.66226	21902.712	77.1676	11938.348
1250.0	0.85923	0.14077	8.00541	7.58031	-4.70701	22.50908	32.04238	1.16462	0.85865	63.01963	142.77143	22.72835	0.38637	11.57663	30322.57239	0.64217	2.45168E-4	1857.58019	21538.761	72.7902	12113.441
1245.0	0.87246	0.12754	8.01153	7.57396	-4.78691	22.35329	32.00604	1.16211	0.8605	67.24912	143.25045	24.28788	0.38442	11.80286	34285.26814	0.62779	2.16119E-4	1857.50247	21194.018	68.9486	12269.704
1240.0	0.88446	0.11554	8.01724	7.56798	-4.862	22.21121	31.96513	1.15977	0.86224	71.2853	143.71104	25.77887	0.38263	12.03553	38540.17617	0.61363	1.91626E-4	1857.43259	20866.186	65.5664	12409.43
1235.0	0.89536	0.10464	8.02409	7.56168	-4.94122	22.05505	31.77423	1.16288	0.85993	75.35806	144.25795	27.28955	0.38071	12.27436	43107.84094	0.5997	1.70756E-4	1860.64775	20471.94246	78.84871	12534.59
1230.0	0.90526	0.0947395	8.03263	7.55426	-5.0345	21.85337	31.36313	1.17422	0.85163	79.65389	144.7968	28.89534	0.37832	12.51998	48808.05631	0.58598	1.50313E-4	1863.8535	20011.94933	91.99863	12646.889
1225.0	0.91413	0.0858653	8.04067	7.54697	-5.12614	21.65521	30.96016	1.18555	0.84349	83.72685	145.32057	30.42211	0.37609	12.77294	55031.02942	0.57247	1.32872E-4	1867.05168	19568.97873	88.59412	12746.772
1220.0	0.92212	0.0778789	8.04832	7.53981	-5.21616	21.4605	30.56415	1.1969	0.83549	87.60481	145.83646	31.87963	0.37399	13.03493	61839.33958	0.55909	1.17849E-4	1870.2411	19139.34578	85.92659	12837.82
1215.0	0.92951	0.0704877	8.05555	7.53279	-5.30448	21.2696	30.18601	1.20783	0.82793	91.34637	146.33586	33.28902	0.37202	13.30273	69325.92335	0.546	1.0477E-4	1873.42081	18723.17355	83.23445	12919.807
1210.0	0.93639	0.0636114	8.06239	7.52589	-5.39112	21.08242	29.8243	1.21837	0.82077	94.96392	146.82161	34.65449	0.37015	13.57671	77564.90873	0.53318	9.33268E-5	1876.58941	18319.17989	80.79873	12993.909
1205.0	0.94269	0.0573096	8.06891	7.51913	-5.47615	20.89883	29.47473	1.22867	0.81389	98.42458	147.2968	35.96351	0.3684	13.85788	86603.74298	0.5206	8.33045E-5	1879.74944	17926.52628	78.53072	13060.866
1200.0	0.94846	0.0515361	8.07515	7.51251	-5.55941	20.71942	29.13668	1.23872	0.80729	101.72976	147.76224	37.21623	0.36674	14.1467	96517.83369	0.50825	7.44948E-5	1882.90047	17544.37137	76.43098	13121.417
1195.0	0.95376	0.0462387	8.08113	7.50604	-5.64074	20.54469	28.80983	1.24852	0.80095	104.88413	148.21857	38.41406	0.36518	14.4434	107393.0604	0.49612	6.67238E-5	1886.04144	17171.95292	74.48369	13176.227
1190.0	0.95862	0.0413768	8.08691	7.49971	-5.72025	20.37439	28.4939	1.25806	0.79487	107.89418	148.66619	39.55914	0.36371	14.74845	119324.9132	0.4842	5.98473E-5	1889.1734	16808.58187	72.67421	13225.885
1185.0	0.96309	0.0369087	8.09249	7.49354	-5.7978	20.20899	28.18867	1.26734	0.78905	110.76463	149.10553	40.65297	0.36232	15.06165	132417.6133	0.47252	5.37456E-5	1892.29515	16453.63951	70.98847	13270.913
1180.0	0.9672	0.0327984	8.09791	7.48752	-5.87352	20.0482	27.89386	1.27634	0.78349	113.50217	149.53695	41.69784	0.36101	15.38318	146787.5003	0.46105	4.83179E-5	1895.4079	16106.56658	69.41459	13311.776
1175.0	0.97099	0.0290146	8.10319	7.48165	-5.94734	19.89226	27.60917	1.28507	0.77817	116.11278	149.96076	42.69578	0.35977	15.71364	162562.6715	0.4498	4.3479E-5	1898.51074	15766.85648	67.94202	13348.887
1170.0	0.97447	0.0255297	8.10835	7.47593	-6.01928	19.74116	27.33434	1.29351	0.77309	118.60151	150.37723	43.64851	0.3586	16.05325	179883.7212	0.43877	3.91567E-5	1901.60371	15434.05043	66.56121	13382.613
1165.0	0.97768	0.0223151	8.1134	7.47035	-6.08937	19.59487	27.06903	1.30166	0.76825	120.97485	150.78674	44.55832	0.35749	16.40207	198908.1193	0.42795	3.52889E-5	1904.68646	15107.72872	65.26434	13413.283
1160.0	0.98065	0.0193497	8.11837	7.46491	-6.1577	19.45321	26.81296	1.30952	0.76364	123.23877	151.18938	45.42732	0.35644	16.75978	219808.517	0.41736	3.18225E-5	1907.75998	14787.51089	64.04357	13441.192
1155.0	0.98339	0.01661	8.12327	7.45962	-6.22424	19.31624	26.56578	1.3171	0.75925	125.39864	151.58554	46.2574	0.35544	17.12811	242776.3223	0.40696	2.87114E-5	1910.82308	14473.04596	62.89299	13466.603
1150.0	0.98592	0.0140778	8.1281	7.45446	-6.28906	19.18388	26.32719	1.32438	0.75507	127.45929	151.97534	47.05028	0.3545	17.50594	268022.2861	0.39678	2.59159E-5	1913.87583	14164.01763	61.80567	13489.753
1145.0	0.98826	0.0117362	8.13288	7.44944	-6.35221	19.05598	26.09685	1.33137	0.7511	129.4271	152.35909	47.80829	0.35361	17.89476	295782.4332	0.3868	2.34011E-5	1916.91787	13860.13231	60.77706	13510.855
1140.0	0.99056	0.00944131	8.13755	7.44449	-6.41447	18.92995	25.87584	1.33801	0.74738	131.38072	152.74238	48.56114	0.35274	18.32649	326480.5654	0.37635	2.1126E-5	1919.9567	13559.30384	60.16569	13531.919
1135.0	0.99295	0.00705111	8.14199	7.43955	-6.47658	18.80331	25.6647	1.34425	0.74391	133.3979	153.12967	49.33834	0.35187	18.82873	360626.6688	0.36502	1.9058E-5	1922.99672	13259.58989	59.94279	13554.815
1130.0	0.99511	0.00488691	8.14637	7.43478	-6.53653	18.68293	25.46051	1.35022	0.74062	135.29279	153.50814	50.06935	0.35105	19.34512	398136.0887	0.35401	1.72012E-5	1926.02604	12965.3155	58.85488	13575.147
1125.0	0.99739	0.00261103	8.15045	7.42997	-6.59703	18.55952	25.26388	1.35588	0.73753	137.2593	153.88865	50.82784	0.35024	19.91283	439890.3162	0.34269	1.5513E-5	1929.03557	12670.20804	59.02149	13599.122
1120.0	1.0	0.0	8.154	7.42496	-6.65993	18.42672	25.07495	1.36121	0.73464	139.41772	154.27753	51.65967	0.34939	 	486771.9187	 	1.39688E-5	 	12371.05923	59.82976	13629.884
1115.0	1.0	0.0	8.15821	7.42113	-6.70811	18.34383	24.88335	1.36676	0.73165	140.14877	154.56625	51.95007	0.34888	 	536443.3537	 	1.26299E-5	 	12062.78371	61.6551	 
1110.0	1.0	0.0	8.16237	7.41735	-6.7557	18.26227	24.69829	1.37205	0.72884	140.86418	154.85111	52.23431	0.34839	 	591644.1944	 	1.14103E-5	 	11804.03428	51.74989	 
1105.0	1.0	0.0	8.16649	7.41361	-6.80269	18.18201	24.5195	1.37705	0.72619	141.56448	155.13229	52.51259	0.34791	 	653037.0959	 	1.03002E-5	 	11547.77086	51.25268	 
1100.0	1.0	0.0	8.17056	7.40991	-6.84912	18.103	24.34674	1.38179	0.7237	142.25017	155.40991	52.7851	0.34745	 	721368.987	 	9.29067E-6	 	11293.94446	50.76528	 
1095.0	1.0	0.0	8.17458	7.40626	-6.89499	18.02524	24.17975	1.38627	0.72136	142.92175	155.68412	53.05203	0.347	 	797482.2729	 	8.37335E-6	 	11042.50866	50.28716	 
1090.0	1.0	0.0	8.17856	7.40266	-6.94031	17.94869	24.01757	1.39053	0.71915	143.57934	155.95468	53.31344	0.34656	 	882327.5888	 	7.54051E-6	 	10793.41938	49.81786	 
1085.0	1.0	0.0	8.1825	7.3991	-6.9851	17.87333	23.86142	1.3945	0.7171	144.22409	156.22246	53.56974	0.34613	 	976978.3303	 	6.78499E-6	 	10546.63441	49.35699	 
1080.0	1.0	0.0	8.1864	7.39558	-7.02936	17.79914	23.71038	1.39821	0.7152	144.8561	156.48721	53.821	0.34572	 	1082647.221	 	6.10022E-6	 	10302.1131	48.90426	 
1075.0	1.0	0.0	8.19025	7.3921	-7.07311	17.72609	23.56424	1.40169	0.71343	145.4758	156.74905	54.06736	0.34532	 	1200705.224	 	5.4801E-6	 	10059.81586	48.45945	 
1070.0	1.0	0.0	8.19407	7.38866	-7.11636	17.65418	23.42279	1.40492	0.71178	146.08362	157.00809	54.30901	0.34493	 	1332703.122	 	4.91901E-6	 	9819.70383	48.02241	 
1065.0	1.0	0.0	8.19784	7.38525	-7.15911	17.58337	23.28584	1.40792	0.71027	146.67999	157.26446	54.5461	0.34455	 	1480396.228	 	4.41178E-6	 	9581.73837	47.59309	 
1060.0	1.0	0.0	8.20157	7.38189	-7.20138	17.51365	23.1532	1.4107	0.70887	147.26531	157.51826	54.77879	0.34418	 	1645772.651	 	3.95363E-6	 	9345.88072	47.17153	 
1055.0	1.0	0.0	8.20527	7.37857	-7.24317	17.44499	23.02468	1.41325	0.70759	147.84	157.76962	55.00725	0.34382	 	1831085.684	 	3.54018E-6	 	9112.09161	46.75782	 
1050.0	1.0	0.0	8.20893	7.37528	-7.2845	17.37738	22.90011	1.41559	0.70642	148.40447	158.01863	55.23163	0.34347	 	2038890.966	 	3.16739E-6	 	8880.331	46.35212	 
1045.0	1.0	0.0	8.21255	7.37203	-7.32537	17.3108	22.7793	1.41772	0.70536	148.95913	158.26542	55.45209	0.34313	 	2272089.15	 	2.83156E-6	 	8650.55779	45.95464	 
1040.0	1.0	0.0	8.21613	7.36881	-7.3658	17.24521	22.66208	1.41965	0.7044	149.50437	158.5101	55.66879	0.3428	 	2533974.924	 	2.52929E-6	 	8422.72971	45.56562	 
1035.0	1.0	0.0	8.21968	7.36563	-7.40579	17.18061	22.54829	1.42138	0.70354	150.0406	158.75278	55.88188	0.34248	 	2828293.453	 	2.25746E-6	 	8196.80314	45.18531	 
1030.0	1.0	0.0	8.22319	7.36248	-7.44537	17.11696	22.43777	1.42292	0.70278	150.56822	158.99357	56.09154	0.34217	 	3159305.299	 	2.01321E-6	 	7972.73321	44.81399	 
1025.0	1.0	0.0	8.22667	7.35937	-7.48452	17.05424	22.33034	1.42428	0.70211	151.08762	159.23259	56.2979	0.34186	 	3531861.417	 	1.79394E-6	 	7750.4744	44.45176	 
1020.0	1.0	0.0	8.23012	7.35629	-7.52328	16.99242	22.22587	1.42546	0.70153	151.59919	159.46993	56.50112	0.34156	 	3951489.135	 	1.59726E-6	 	7529.98053	44.09877	 
1015.0	1.0	0.0	8.23354	7.35323	-7.56164	16.93148	22.1242	1.42648	0.70103	152.10331	159.70571	56.70135	0.34127	 	4424492.423	 	1.42099E-6	 	7311.20185	43.75573	 
1010.0	1.0	0.0	8.23692	7.35021	-7.59963	16.87138	22.02518	1.42733	0.70061	152.60034	159.94004	56.89874	0.34098	 	4958066.78	 	1.26314E-6	 	7094.08933	43.4225	 
1005.0	1.0	0.0	8.24028	7.34722	-7.63724	16.8121	21.92867	1.42802	0.70027	153.09067	160.173	57.09344	0.3407	 	5560432.582	 	1.12191E-6	 	6878.59338	43.09919	 
1000.0	1.0	0.0	8.2436	7.34426	-7.6745	16.7536	21.83456	1.42857	0.7	153.57463	160.4047	57.28558	0.34043	 	6240989.462	 	9.95664E-7	 	6664.66412	42.78585	 
995.0	1.0	0.0	8.2469	7.34132	-7.7114	16.69586	21.74269	1.42897	0.6998	154.05257	160.63523	57.4753	0.34016	 	7010495.028	 	8.82894E-7	 	6452.25162	42.4825	 
990.0	1.0	0.0	8.25017	7.33841	-7.74797	16.63884	21.65296	1.42924	0.69967	154.52482	160.86468	57.66274	0.3399	 	7881272.343	 	7.8225E-7	 	6241.30622	42.18908	 
985.0	1.0	0.0	8.25341	7.33553	-7.78422	16.58251	21.56524	1.42937	0.69961	154.99171	161.09313	57.84802	0.33965	 	8867450.637	 	6.92501E-7	 	6031.77864	41.90552	 
980.0	1.0	0.0	8.25663	7.33267	-7.82014	16.52685	21.47943	1.42938	0.69961	155.45353	161.32066	58.03125	0.33939	 	9985245.132	 	6.12535E-7	 	5823.62032	41.63166	 
975.0	1.0	0.0	8.25982	7.32984	-7.85577	16.47181	21.39543	1.42926	0.69966	155.91057	161.54734	58.21257	0.33915	 	1.125328247E7	 	5.41345E-7	 	5616.78354	41.36736	 
970.0	1.0	0.0	8.26299	7.32703	-7.89109	16.41738	21.31312	1.42903	0.69977	156.36312	161.77325	58.39207	0.33891	 	1.269297964E7	 	4.78021E-7	 	5411.22164	41.11238	 
965.0	1.0	0.0	8.26613	7.32424	-7.92613	16.36352	21.23242	1.4287	0.69994	156.81143	161.99844	58.56987	0.33867	 	1.432898568E7	 	4.2174E-7	 	5206.88914	40.8665	 
960.0	1.0	0.0	8.26925	7.32147	-7.9609	16.31021	21.15324	1.42825	0.70016	157.25576	162.22298	58.74606	0.33844	 	1.61896969E7	 	3.71761E-7	 	5003.74185	40.62946	 
955.0	1.0	0.0	8.27235	7.31873	-7.9954	16.2574	21.0755	1.42771	0.70042	157.69634	162.44692	58.92074	0.33821	 	1.830785867E7	 	3.27417E-7	 	4801.737	40.40097	 
950.0	1.0	0.0	8.27543	7.31601	-8.02964	16.20509	20.99912	1.42707	0.70074	158.13338	162.67032	59.094	0.33798	 	2.072126894E7	 	2.88105E-7	 	4600.83327	40.18075	 
945.0	1.0	0.0	8.27849	7.3133	-8.06363	16.15323	20.92402	1.42634	0.7011	158.56711	162.89321	59.26592	0.33776	 	2.347360183E7	 	2.53284E-7	 	4400.99089	39.96848	 
940.0	1.0	0.0	8.28153	7.31062	-8.09738	16.1018	20.85013	1.42551	0.7015	158.99772	163.11564	59.43658	0.33754	 	2.661537207E7	 	2.22469E-7	 	4202.1716	39.76386	 
935.0	1.0	0.0	8.28455	7.30795	-8.1309	16.05078	20.7774	1.42461	0.70195	159.42538	163.33766	59.60606	0.33733	 	3.020506674E7	 	1.95222E-7	 	4004.33874	39.56657	 
930.0	1.0	0.0	8.28756	7.3053	-8.16419	16.00015	20.70576	1.42362	0.70243	159.85028	163.55928	59.77442	0.33711	 	3.431047368E7	 	1.71151E-7	 	3807.45716	39.37631	 
925.0	1.0	0.0	8.29054	7.30267	-8.19726	15.94987	20.63515	1.42256	0.70296	160.27256	163.78055	59.94173	0.3369	 	3.901024287E7	 	1.49906E-7	 	3611.49329	39.19277	 
920.0	1.0	0.0	8.29351	7.30006	-8.23011	15.89994	20.56553	1.42142	0.70352	160.6924	164.00149	60.10805	0.3367	 	4.439572449E7	 	1.31172E-7	 	3416.41506	39.01565	 
915.0	1.0	0.0	8.29646	7.29746	-8.26277	15.85031	20.49683	1.4202	0.70412	161.10991	164.22213	60.27344	0.33649	 	5.057313323E7	 	1.14667E-7	 	3222.19186	38.84464	 
910.0	1.0	0.0	8.2994	7.29488	-8.29522	15.80099	20.42903	1.41892	0.70476	161.52524	164.44248	60.43794	0.33629	 	5.7666102E7	 	1.0014E-7	 	3028.79457	38.67946	 
905.0	1.0	0.0	8.30232	7.29231	-8.32748	15.75193	20.36206	1.41757	0.70543	161.93851	164.66257	60.60162	0.33609	 	6.581869644E7	 	8.73651E-8	 	2836.19542	38.51983	 
900.0	1.0	0.0	8.30523	7.28976	-8.35954	15.70313	20.29589	1.41616	0.70614	162.34983	164.88242	60.76452	0.33589	 	7.519897899E7	 	7.61427E-8	 	2644.368	38.36548	 
895.0	1.0	0.0	8.30812	7.28723	-8.39143	15.65457	20.23049	1.41468	0.70687	162.7593	165.10204	60.92667	0.3357	 	8.600322738E7	 	6.62934E-8	 	2453.28721	38.21616	 
890.0	1.0	0.0	8.31099	7.2847	-8.42314	15.60623	20.16581	1.41314	0.70764	163.16703	165.32143	61.08813	0.33551	 	9.846093257E7	 	5.76579E-8	 	2262.92916	38.07161	 
885.0	1.0	0.0	8.31386	7.2822	-8.45467	15.55809	20.10182	1.41155	0.70844	163.5731	165.54062	61.24892	0.33531	 	1.128407283E8	 	5.0094E-8	 	2073.27116	37.9316	 
880.0	1.0	0.0	8.31671	7.2797	-8.48604	15.51014	20.0385	1.40989	0.70927	163.9776	165.75961	61.40908	0.33513	 	1.294574354E8	 	4.34756E-8	 	1884.29152	37.79593	 
875.0	1.0	0.0	8.31954	7.27722	-8.51724	15.46236	19.97581	1.40819	0.71013	164.38062	165.97842	61.56864	0.33494	 	1.486804411E8	 	3.76905E-8	 	1695.96972	37.66436	 
870.0	1.0	0.0	8.32237	7.27475	-8.54828	15.41474	19.91373	1.40643	0.71102	164.78221	166.19703	61.72764	0.33475	 	1.709436694E8	 	3.2639E-8	 	1508.28657	37.53663	 
865.0	1.0	0.0	8.32518	7.27229	-8.57916	15.36726	19.85222	1.40461	0.71194	165.18245	166.41547	61.8861	0.33457	 	1.967574766E8	 	2.82329E-8	 	1321.2236	37.41259	 
860.0	1.0	0.0	8.32798	7.26985	-8.60988	15.31991	19.79127	1.40275	0.71289	165.58141	166.63373	62.04405	0.33439	 	2.267228516E8	 	2.43938E-8	 	1134.76328	37.29206	 
855.0	1.0	0.0	8.33076	7.26742	-8.64046	15.27268	19.73085	1.40084	0.71386	165.97913	166.85181	62.20151	0.33421	 	2.615483814E8	 	2.10524E-8	 	948.88894	37.17487	 
850.0	1.0	0.0	8.33354	7.265	-8.67089	15.22555	19.67094	1.39887	0.71486	166.37568	167.06973	62.3585	0.33403	 	3.020705693E8	 	1.81475E-8	 	763.58476	37.06083	 
845.0	1.0	0.0	8.33583	7.263	-8.69604	15.2022	19.61679	1.39649	0.71608	166.70884	167.27423	62.48942	0.3339	 	3.438158301E8	 	1.58731E-8	 	603.90912	31.93513	 
840.0	1.0	0.0	8.33813	7.261	-8.72114	15.17884	19.56264	1.39409	0.71731	167.04152	167.47795	62.62017	0.33377	 	3.917854956E8	 	1.38673E-8	 	441.18669	32.54449	 
835.0	1.0	0.0	8.34041	7.25901	-8.74618	15.15547	19.50849	1.39169	0.71855	167.37372	167.68091	62.75077	0.33364	 	4.46974457E8	 	1.21005E-8	 	278.67761	32.50182	 
830.0	1.0	0.0	8.3427	7.25702	-8.77116	15.13209	19.45433	1.38926	0.71981	167.70543	167.88309	62.88122	0.33351	 	5.105471821E8	 	1.05459E-8	 	116.38114	32.45929	 
825.0	1.0	0.0	8.34498	7.25504	-8.79607	15.1087	19.40016	1.38683	0.72107	168.03665	168.08452	63.0115	0.33338	 	5.838684053E8	 	9.1798E-9	 	-45.70346	32.41692	 
820.0	1.0	0.0	8.34725	7.25306	-8.82093	15.08531	19.34599	1.38438	0.72235	168.36739	168.28517	63.14163	0.33325	 	6.685396911E8	 	7.98067E-9	 	-207.577	32.37471	 
815.0	1.0	0.0	8.34952	7.25109	-8.84573	15.06191	19.29181	1.38192	0.72363	168.69765	168.48507	63.2716	0.33312	 	7.66443061E8	 	6.9294E-9	 	-369.24028	32.33266	 
810.0	1.0	0.0	8.35179	7.24912	-8.87046	15.0385	19.23762	1.37944	0.72493	169.02742	168.6842	63.40141	0.33299	 	8.797931188E8	 	6.0089E-9	 	-530.69413	32.29077	 
805.0	1.0	0.0	8.35405	7.24716	-8.89514	15.01508	19.18343	1.37695	0.72624	169.35671	168.88258	63.53106	0.33287	 	1.011199422E9	 	5.2039E-9	 	-691.93946	32.24907	 
800.0	1.0	0.0	8.35631	7.2452	-8.91976	14.99166	19.12923	1.37445	0.72756	169.68551	169.0802	63.66056	0.33274	 	1.16374122E9	 	4.50081E-9	 	-852.97717	32.20754	 
795.0	1.0	0.0	8.35856	7.24325	-8.94431	14.96822	19.07503	1.37193	0.7289	170.01383	169.27707	63.78989	0.33261	 	1.341057152E9	 	3.88751E-9	 	-1013.80821	32.16621	 
790.0	1.0	0.0	8.36081	7.2413	-8.96881	14.94478	19.02081	1.3694	0.73024	170.34167	169.47319	63.91907	0.33248	 	1.547453046E9	 	3.35323E-9	 	-1174.43359	32.12507	 
785.0	1.0	0.0	8.36306	7.23935	-8.99324	14.92133	18.96659	1.36686	0.7316	170.66903	169.66856	64.04809	0.33235	 	1.788031685E9	 	2.88841E-9	 	-1334.85433	32.08415	 
780.0	1.0	0.0	8.3653	7.23742	-9.01762	14.89788	18.91237	1.3643	0.73298	170.9959	169.86318	64.17696	0.33222	 	2.068849247E9	 	2.48455E-9	 	-1495.07153	32.04344	 
775.0	1.0	0.0	8.36753	7.23548	-9.04193	14.87441	18.85813	1.36173	0.73436	171.3223	170.05706	64.30567	0.33209	 	2.397104206E9	 	2.13414E-9	 	-1655.0863	32.00295	 
770.0	1.0	0.0	8.36976	7.23355	-9.06619	14.85094	18.80389	1.35914	0.73576	171.64821	170.25019	64.43422	0.33196	 	2.781365775E9	 	1.83052E-9	 	-1814.89984	31.96271	 
765.0	1.0	0.0	8.37199	7.23163	-9.09038	14.82745	18.74964	1.35654	0.73717	171.97364	170.44258	64.56261	0.33184	 	3.231850644E9	 	1.56782E-9	 	-1974.51337	31.92271	 
760.0	1.0	0.0	8.37422	7.22971	-9.11451	14.80396	18.69539	1.35393	0.73859	172.29858	170.63424	64.69084	0.33171	 	3.760758724E9	 	1.34083E-9	 	-2133.92821	31.88297	 
755.0	1.0	0.0	8.37643	7.22779	-9.13859	14.78047	18.64113	1.3513	0.74003	172.62305	170.82515	64.81892	0.33158	 	4.382681199E9	 	1.14499E-9	 	-2293.14572	31.8435	 
750.0	1.0	0.0	8.37865	7.22588	-9.1626	14.75696	18.58685	1.34865	0.74148	172.94703	171.01534	64.94684	0.33145	 	5.115097256E9	 	9.76275E-10	 	-2452.1673	31.80432	 
745.0	1.0	0.0	8.38086	7.22398	-9.18655	14.73345	18.53257	1.34599	0.74295	173.27054	171.20479	65.0746	0.33132	 	5.978979805E9	 	8.31135E-10	 	-2610.99447	31.76543	 
740.0	1.0	0.0	8.38306	7.22208	-9.21044	14.70993	18.47829	1.34332	0.74443	173.59356	171.3935	65.2022	0.33119	 	6.999535377E9	 	7.06466E-10	 	-2769.62878	31.72686	 
735.0	1.0	0.0	8.38526	7.22018	-9.23428	14.6864	18.42399	1.34063	0.74592	173.9161	171.58149	65.32965	0.33107	 	8.207109495E9	 	5.99545E-10	 	-2928.07191	31.68863	 
730.0	1.0	0.0	8.38746	7.21829	-9.25805	14.66286	18.36969	1.33792	0.74743	174.23817	171.76875	65.45694	0.33094	 	9.638296494E9	 	5.07987E-10	 	-3086.32557	31.65073	 
725.0	1.0	0.0	8.38965	7.2164	-9.28176	14.63931	18.31538	1.3352	0.74895	174.55975	171.95529	65.58407	0.33081	 	1.13373E10	 	4.29707E-10	 	-3244.39162	31.61321	 
720.0	1.0	0.0	8.39184	7.21452	-9.3054	14.61576	18.26106	1.33246	0.75049	174.88085	172.1411	65.71105	0.33068	 	1.3357599999999998E10	 	3.62888E-10	 	-3402.27196	31.57607	 
715.0	1.0	0.0	8.39402	7.21265	-9.32899	14.5922	18.20673	1.32971	0.75204	175.20148	172.3262	65.83787	0.33055	 	1.5764099999999998E10	 	3.05943E-10	 	-3559.96864	31.53934	 
710.0	1.0	0.0	8.3962	7.21077	-9.35252	14.56863	18.15239	1.32694	0.75361	175.52162	172.51057	65.96453	0.33042	 	1.86355E10	 	2.57493E-10	 	-3717.48379	31.50303	 
705.0	1.0	0.0	8.39838	7.20891	-9.37599	14.54505	18.09804	1.32416	0.7552	175.84129	172.69423	66.09103	0.3303	 	2.20676E10	 	2.1634E-10	 	-3874.81968	31.46718	 
700.0	1.0	0.0	8.40055	7.20705	-9.39939	14.52146	18.04368	1.32136	0.7568	176.16047	172.87717	66.21738	0.33017	 	2.6177299999999996E10	 	1.81443E-10	 	-4031.97869	31.4318	 
695.0	1.0	0.0	8.40271	7.20519	-9.42274	14.49787	17.98932	1.31854	0.75841	176.47918	173.05939	66.34357	0.33004	 	3.1107199999999996E10	 	1.51904E-10	 	-4188.96336	31.39693	 
690.0	1.0	0.0	8.40487	7.20334	-9.44602	14.47426	17.93494	1.31571	0.76005	176.79741	173.24091	66.4696	0.32991	 	3.70317E10	 	1.26942E-10	 	-4345.77634	31.3626	 
685.0	1.0	0.0	8.40703	7.20149	-9.46924	14.45065	17.88056	1.31286	0.7617	177.11516	173.42171	66.59548	0.32978	 	4.41649E10	 	1.05887E-10	 	-4502.42047	31.32883	 
680.0	1.0	0.0	8.40918	7.19965	-9.49241	14.42704	17.82616	1.30999	0.76336	177.43244	173.60181	66.72119	0.32966	 	5.276959999999999E10	 	8.81585E-11	 	-4658.89874	31.29565	 
675.0	1.0	0.0	8.41133	7.19781	-9.51551	14.40341	17.77176	1.30711	0.76505	177.74923	173.7812	66.84675	0.32953	 	6.316919999999999E10	 	7.32586E-11	 	-4815.21432	31.26311	 
670.0	1.0	0.0	8.41347	7.19598	-9.53855	14.37978	17.71734	1.30421	0.76675	178.06555	173.95989	66.97216	0.3294	 	7.57626E10	 	6.07593E-11	 	-4971.37056	31.23125	 
665.0	1.0	0.0	8.41561	7.19415	-9.56153	14.35613	17.66291	1.3013	0.76846	178.38139	174.13788	67.0974	0.32927	 	9.1043E10	 	5.02936E-11	 	-5127.37103	31.20009	 
660.0	1.0	0.0	8.41774	7.19233	-9.58445	14.33248	17.60848	1.29836	0.7702	178.69675	174.31516	67.22249	0.32914	 	1.09621E11	 	4.15475E-11	 	-5283.20952	31.1677	 
655.0	1.0	0.0	8.41987	7.19051	-9.6073	14.30882	17.55403	1.29541	0.77196	179.01163	174.49175	67.34743	0.32902	 	1.32254E11	 	3.42529E-11	 	-5438.83045	31.12419	 
650.0	1.0	0.0	8.42199	7.18869	-9.6301	14.28516	17.49957	1.29244	0.77373	179.32604	174.66764	67.4722	0.32889	 	1.59885E11	 	2.81807E-11	 	-5594.16009	31.06593	 
645.0	1.0	0.0	8.42411	7.18689	-9.65283	14.26148	17.4451	1.28945	0.77552	179.63997	174.84283	67.59682	0.32876	 	1.93688E11	 	2.31365E-11	 	-5749.1996	31.0079	 
640.0	1.0	0.0	8.42623	7.18508	-9.67551	14.2378	17.39062	1.28645	0.77733	179.95343	175.01734	67.72128	0.32863	 	2.35131E11	 	1.89548E-11	 	-5903.95018	30.95011	 
635.0	1.0	0.0	8.42834	7.18328	-9.69812	14.21411	17.33613	1.28343	0.77916	180.2664	175.19115	67.84559	0.32851	 	2.86052E11	 	1.54953E-11	 	-6058.41297	30.89256	 
630.0	1.0	0.0	8.43044	7.18149	-9.72067	14.19041	17.28163	1.28039	0.78101	180.5789	175.36427	67.96973	0.32838	 	3.48757E11	 	1.26393E-11	 	-6212.58917	30.83524	 
625.0	1.0	0.0	8.43254	7.1797	-9.74316	14.16671	17.22711	1.27733	0.78288	180.89093	175.5367	68.09372	0.32825	 	4.26147E11	 	1.02867E-11	 	-6366.4801	30.77819	 
620.0	1.0	0.0	8.43464	7.17792	-9.76559	14.14299	17.17258	1.27425	0.78477	181.20248	175.70845	68.21756	0.32812	 	5.2188E11	 	8.35297E-12	 	-6520.08736	30.72145	 
615.0	1.0	0.0	8.43673	7.17614	-9.78795	14.11927	17.11804	1.27115	0.78669	181.51355	175.87951	68.34123	0.32799	 	6.40578E11	 	6.76707E-12	 	-6673.4119	30.66491	 
610.0	1.0	0.0	8.43882	7.17436	-9.81026	14.09554	17.06349	1.26804	0.78862	181.82415	176.04989	68.46475	0.32787	 	7.881E11	 	5.4694E-12	 	-6826.45488	30.6086	 
605.0	1.0	0.0	8.4409	7.17259	-9.8325	14.0718	17.00892	1.26491	0.79057	182.13427	176.21959	68.58811	0.32774	 	9.71888E11	 	4.41001E-12	 	-6979.21744	30.55251	 
600.0	1.0	0.0	8.44298	7.17083	-9.85469	14.04805	16.95434	1.26175	0.79255	182.44391	176.38861	68.71132	0.32761	 	1.20142E12	 	3.54717E-12	 	-7131.70074	30.49666	 
595.0	1.0	0.0	8.44505	7.16907	-9.87681	14.0243	16.89975	1.25858	0.79455	182.75308	176.55696	68.83437	0.32748	 	1.48878E12	 	2.8461E-12	 	-7283.90594	30.44104	 
590.0	1.0	0.0	8.44712	7.16731	-9.89887	14.00053	16.84514	1.25539	0.79657	183.06178	176.72463	68.95726	0.32736	 	1.84947E12	 	2.27785E-12	 	-7435.83418	30.38565	 
585.0	1.0	0.0	8.44918	7.16556	-9.92087	13.97676	16.79052	1.25218	0.79861	183.37	176.89162	69.07999	0.32723	 	2.30336E12	 	1.81839E-12	 	-7587.4866	30.33049	 
580.0	1.0	0.0	8.45124	7.16382	-9.9428	13.95298	16.73589	1.24894	0.80068	183.67774	177.05795	69.20257	0.3271	 	2.87603E12	 	1.44783E-12	 	-7738.86437	30.27555	 
575.0	1.0	0.0	8.45329	7.16208	-9.96468	13.9292	16.68124	1.24569	0.80277	183.98502	177.2236	69.32499	0.32697	 	3.6005E12	 	1.14973E-12	 	-7889.96863	30.22085	 
570.0	1.0	0.0	8.45534	7.16034	-9.98649	13.9054	16.62658	1.24242	0.80488	184.29181	177.38858	69.44725	0.32685	 	4.51948E12	 	9.10548E-13	 	-8040.80051	30.16638	 
565.0	1.0	0.0	8.45738	7.15861	-10.00824	13.8816	16.5719	1.23913	0.80702	184.59813	177.5529	69.56936	0.32672	 	5.68843E12	 	7.19144E-13	 	-8191.36115	30.11213	 
560.0	1.0	0.0	8.45942	7.15689	-10.02993	13.85779	16.51721	1.23581	0.80918	184.90398	177.71655	69.69131	0.32659	 	7.17952E12	 	5.66388E-13	 	-8341.65169	30.05811	 
555.0	1.0	0.0	8.46145	7.15517	-10.05156	13.83397	16.4625	1.23248	0.81137	185.20935	177.87954	69.8131	0.32647	 	9.08698E12	 	4.44812E-13	 	-8491.67329	30.00432	 
550.0	1.0	0.0	8.46348	7.15345	-10.07313	13.81014	16.40778	1.22912	0.81359	185.51425	178.04187	69.93474	0.32634	 	1.15342E13	 	3.48321E-13	 	-8641.42705	29.95075	 
545.0	1.0	0.0	8.46551	7.15174	-10.09463	13.78631	16.35304	1.22575	0.81583	185.81868	178.20354	70.05622	0.32621	 	1.46831E13	 	2.71957E-13	 	-8790.91411	29.89741	 
540.0	1.0	0.0	8.46753	7.15004	-10.11607	13.76246	16.29828	1.22235	0.8181	186.12263	178.36454	70.17754	0.32608	 	1.87474E13	 	2.11698E-13	 	-8940.13561	29.8443	 
535.0	1.0	0.0	8.46954	7.14833	-10.13745	13.73861	16.24351	1.21893	0.82039	186.42611	178.5249	70.2987	0.32596	 	2.40091E13	 	1.64287E-13	 	-9089.09268	29.79141	 
530.0	1.0	0.0	8.47155	7.14664	-10.15877	13.71475	16.18872	1.21549	0.82272	186.72911	178.68459	70.41971	0.32583	 	3.08425E13	 	1.27097E-13	 	-9237.78642	29.73875	 
525.0	1.0	0.0	8.47356	7.14495	-10.18003	13.69089	16.13391	1.21202	0.82507	187.03164	178.84364	70.54056	0.3257	 	3.97452E13	 	9.80136E-14	 	-9386.21798	29.68631	 
520.0	1.0	0.0	8.47556	7.14326	-10.20123	13.66701	16.07909	1.20854	0.82745	187.3337	179.00203	70.66126	0.32558	 	5.13818E13	 	7.53413E-14	 	-9534.38845	29.63409	 
515.0	1.0	0.0	8.47755	7.14158	-10.22236	13.64313	16.02424	1.20503	0.82986	187.63529	179.15977	70.78179	0.32545	 	6.6642E13	 	5.77228E-14	 	-9682.29896	29.5821	 
510.0	1.0	0.0	8.47954	7.1399	-10.24343	13.61924	15.96938	1.2015	0.83229	187.9364	179.31686	70.90217	0.32532	 	8.6722E13	 	4.4076E-14	 	-9829.95063	29.53033	 
505.0	1.0	0.0	8.48153	7.13823	-10.26444	13.59534	15.9145	1.19794	0.83476	188.23704	179.4733	71.02239	0.32519	 	1.13235E14	 	3.35405E-14	 	-9977.34456	29.47879	 
500.0	1.0	0.0	8.48351	7.13657	-10.28539	13.57143	15.8596	1.19437	0.83726	188.5372	179.6291	71.14246	0.32507	 	1.48365E14	 	2.54343E-14	 	-10124.48186	29.42746	 
495.0	1.0	0.0	8.48548	7.13491	-10.30627	13.54751	15.80469	1.19077	0.8398	188.8369	179.78426	71.26237	0.32494	 	1.95078E14	 	1.92187E-14	 	-10271.36363	29.37635	 
490.0	1.0	0.0	8.48745	7.13325	-10.32709	13.52359	15.74975	1.18714	0.84236	189.13612	179.93877	71.38212	0.32481	 	2.5741999999999997E14	 	1.44695E-14	 	-10417.99098	29.32547	 
485.0	1.0	0.0	8.48942	7.1316	-10.34785	13.49966	15.69479	1.18349	0.84496	189.43487	180.09265	71.50171	0.32469	 	3.40931E14	 	1.08536E-14	 	-10564.36499	29.2748	 
480.0	1.0	0.0	8.49138	7.12995	-10.36855	13.47572	15.63981	1.17982	0.84759	189.73314	180.24588	71.62115	0.32456	 	4.53221E14	 	8.11069E-15	 	-10710.48677	29.22436	 
475.0	1.0	0.0	8.49333	7.12831	-10.38919	13.45177	15.58481	1.17612	0.85025	190.03095	180.39848	71.74043	0.32443	 	6.04793E14	 	6.03766E-15	 	-10856.35741	29.17413	 
470.0	1.0	0.0	8.49529	7.12667	-10.40976	13.42781	15.52979	1.1724	0.85295	190.32828	180.55044	71.85956	0.32431	 	8.10195E14	 	4.47686E-15	 	-11001.97798	29.12411	 
465.0	1.0	0.0	8.49723	7.12504	-10.43027	13.40385	15.47475	1.16866	0.85568	190.62514	180.70176	71.97852	0.32418	 	1.08966E15	 	3.30628E-15	 	-11147.34957	29.07432	 
460.0	1.0	0.0	8.49917	7.12342	-10.45072	13.37988	15.41969	1.16489	0.85845	190.92153	180.85246	72.09733	0.32405	 	1.47147E15	 	2.43181E-15	 	-11292.47327	29.02474	 
455.0	1.0	0.0	8.50111	7.12179	-10.47111	13.3559	15.3646	1.16109	0.86126	191.21744	181.00252	72.21598	0.32393	 	1.99526E15	 	1.78118E-15	 	-11437.35014	28.97537	 
450.0	1.0	0.0	8.50304	7.12018	-10.49143	13.33191	15.30949	1.15727	0.8641	191.51289	181.15195	72.33448	0.3238	 	2.71693E15	 	1.29908E-15	 	-11581.98125	28.92622	 
445.0	1.0	0.0	8.50496	7.11857	-10.51169	13.30792	15.25435	1.15342	0.86699	191.80786	181.30075	72.45282	0.32367	 	3.71556E15	 	9.4336E-16	 	-11726.36767	28.87728	 
440.0	1.0	0.0	8.50688	7.11696	-10.53189	13.28391	15.19919	1.14955	0.86991	192.10237	181.44893	72.571	0.32355	 	5.1036E15	 	6.8201E-16	 	-11870.51046	28.82856	 
435.0	1.0	0.0	8.5088	7.11536	-10.55203	13.2599	15.14401	1.14565	0.87287	192.3964	181.59648	72.68902	0.32342	 	7.04166E15	 	4.90836E-16	 	-12014.41067	28.78004	 
430.0	1.0	0.0	8.51071	7.11376	-10.5721	13.23588	15.0888	1.14172	0.87587	192.68996	181.74341	72.80689	0.32329	 	9.76027E15	 	3.51619E-16	 	-12158.06936	28.73174	 
425.0	1.0	0.0	8.51261	7.11217	-10.59211	13.21185	15.03357	1.13777	0.87892	192.98305	181.88972	72.92459	0.32317	 	1.35919E16	 	2.50701E-16	 	-12301.48744	28.68362	 
420.0	1.0	0.0	8.51451	7.11058	-10.61206	13.18782	14.97831	1.13378	0.882	193.27566	182.0354	73.04215	0.32304	 	1.90183E16	 	1.77886E-16	 	-12444.66615	28.63574	 
415.0	1.0	0.0	8.51641	7.109	-10.63195	13.16377	14.92302	1.12978	0.88513	193.56781	182.18047	73.15954	0.32292	 	2.67414E16	 	1.25599E-16	 	-12587.60595	28.58796	 
410.0	1.0	0.0	8.5183	7.10742	-10.65177	13.13972	14.8677	1.12574	0.8883	193.85949	182.32492	73.27678	0.32279	 	3.77889E16	 	8.82346E-17	 	-12730.30705	28.54022	 
405.0	1.0	0.0	8.52018	7.10585	-10.67153	13.11566	14.81236	1.12168	0.89152	194.15069	182.46875	73.39386	0.32266	 	5.36732E16	 	6.16673E-17	 	-12872.76965	28.49252	 
400.0	1.0	0.0	8.52206	7.10428	-10.69123	13.09159	14.75699	1.11758	0.89479	194.44143	182.61197	73.51078	0.32254	 	7.66329E16	 	4.28729E-17	 	-13014.99394	28.44486	 
395.0	1.0	0.0	8.52393	7.10272	-10.71087	13.06752	14.70159	1.11346	0.8981	194.73169	182.75457	73.62755	0.32241	 	1.09999E17	 	2.96465E-17	 	-13156.98011	28.39724	 
390.0	1.0	0.0	8.5258	7.10116	-10.73044	13.04343	14.64616	1.10931	0.90146	195.02148	182.89656	73.74415	0.32228	 	1.58755E17	 	2.03878E-17	 	-13298.72835	28.34965	 
385.0	1.0	0.0	8.52767	7.09961	-10.74995	13.01934	14.5907	1.10513	0.90487	195.31081	183.03795	73.86061	0.32216	 	2.30403E17	 	1.3942E-17	 	-13440.23884	28.3021	 
380.0	1.0	0.0	8.52952	7.09807	-10.7694	12.99524	14.5352	1.10093	0.90833	195.59966	183.17872	73.9769	0.32203	 	3.36298E17	 	9.47927E-18	 	-13581.51173	28.25458	 
375.0	1.0	0.0	8.53138	7.09652	-10.78878	12.97113	14.47968	1.09669	0.91184	195.88804	183.31889	74.09303	0.32191	 	4.93737E17	 	6.40717E-18	 	-13722.5472	28.20709	 
370.0	1.0	0.0	8.53323	7.09499	-10.8081	12.94701	14.42412	1.09242	0.9154	196.17596	183.45845	74.20901	0.32178	 	7.29222E17	 	4.30466E-18	 	-13863.3454	28.15964	 
365.0	1.0	0.0	8.53507	7.09345	-10.82736	12.92289	14.36853	1.08812	0.91902	196.4634	183.5974	74.32483	0.32165	 	1.08362E18	 	2.8743E-18	 	-14003.90646	28.11221	 
360.0	1.0	0.0	8.53691	7.09193	-10.84656	12.89876	14.3129	1.08379	0.92269	196.75037	183.73575	74.4405	0.32153	 	1.62036E18	 	1.90713E-18	 	-14144.23055	28.06482	 
355.0	1.0	0.0	8.53874	7.09041	-10.86569	12.87462	14.25724	1.07943	0.92642	197.03688	183.87351	74.556	0.3214	 	2.43854E18	 	1.25725E-18	 	-14284.31776	28.01744	 
350.0	1.0	0.0	8.54057	7.08889	-10.88476	12.85047	14.20155	1.07504	0.9302	197.32291	184.01066	74.67135	0.32128	 	3.69398E18	 	8.2335E-19	 	-14424.16825	27.9701	 
345.0	1.0	0.0	8.54239	7.08738	-10.90376	12.82631	14.14581	1.07061	0.93405	197.60847	184.14721	74.78654	0.32115	 	5.63349E18	 	5.35553E-19	 	-14563.78211	27.92277	 
340.0	1.0	0.0	8.5442	7.08587	-10.92271	12.80215	14.09004	1.06616	0.93795	197.89357	184.28316	74.90158	0.32102	 	8.65068E18	 	3.45942E-19	 	-14703.15944	27.87547	 
335.0	1.0	0.0	8.54602	7.08437	-10.94159	12.77797	14.03423	1.06167	0.94192	198.17819	184.41852	75.01646	0.3209	 	1.33778E19	 	2.21877E-19	 	-14842.30033	27.82818	 
330.0	1.0	0.0	8.54782	7.08287	-10.9604	12.75379	13.97838	1.05714	0.94594	198.46235	184.55329	75.13117	0.32077	 	2.08382E19	 	1.41271E-19	 	-14981.20488	27.78091	 
325.0	1.0	0.0	8.54962	7.08138	-10.97916	12.72961	13.92249	1.05259	0.95004	198.74603	184.68746	75.24573	0.32065	 	3.27003E19	 	8.92781E-20	 	-15119.87315	27.73365	 
320.0	1.0	0.0	8.55142	7.07989	-10.99785	12.70541	13.86656	1.048	0.9542	199.02925	184.82103	75.36014	0.32052	 	5.17063E19	 	5.59897E-20	 	-15258.30519	27.68641	 
315.0	1.0	0.0	8.55321	7.07841	-11.01647	12.6812	13.81058	1.04338	0.95842	199.312	184.95402	75.47438	0.3204	 	8.23983E19	 	3.48383E-20	 	-15396.50107	27.63917	 
310.0	1.0	0.0	8.55499	7.07693	-11.03504	12.65699	13.75457	1.03872	0.96272	199.59428	185.08642	75.58847	0.32027	 	1.3236199999999998E20	 	2.15032E-20	 	-15534.4608	27.59195	 
305.0	1.0	0.0	8.55677	7.07546	-11.05354	12.63277	13.6985	1.03403	0.96709	199.87609	185.21823	75.7024	0.32014	 	2.1437199999999997E20	 	1.31631E-20	 	-15672.18441	27.54472	 
300.0	1.0	0.0	8.55855	7.074	-11.07197	12.60854	13.64239	1.0293	0.97153	200.15743	185.34946	75.81618	0.32002	 	3.5012899999999997E20	 	7.98964E-21	 	-15809.67192	27.4975	 
295.0	1.0	0.0	8.56032	7.07253	-11.09035	12.5843	13.58624	1.02454	0.97605	200.4383	185.4801	75.92979	0.31989	 	5.7681599999999993E20	 	4.80742E-21	 	-15946.92332	27.45028	 
290.0	1.0	0.0	8.56208	7.07108	-11.10866	12.56006	13.53003	1.01974	0.98064	200.7187	185.61016	76.04325	0.31977	 	9.587299999999999E20	 	2.86691E-21	 	-16083.93858	27.40305	 
285.0	1.0	0.0	8.56384	7.06963	-11.1269	12.53581	13.47378	1.01491	0.98531	200.99864	185.73963	76.15655	0.31964	 	1.60808E21	 	1.69406E-21	 	-16220.71768	27.35582	 
280.0	1.0	0.0	8.56559	7.06818	-11.14509	12.51155	13.41748	1.01004	0.99006	201.2781	185.86852	76.26969	0.31952	 	2.72259E21	 	9.91625E-22	 	-16357.26055	27.30857	 
275.0	1.0	0.0	8.56734	7.06674	-11.16321	12.48728	13.36112	1.00513	0.9949	201.5571	185.99684	76.38267	0.31939	 	4.65401E21	 	5.74856E-22	 	-16493.56715	27.26132	 
270.0	1.0	0.0	8.56908	7.0653	-11.18126	12.463	13.30471	1.00019	0.99981	201.83563	186.12457	76.4955	0.31926	 	8.0345E21	 	3.2995E-22	 	-16629.63738	27.21405	 
265.0	1.0	0.0	8.57081	7.06387	-11.19926	12.43871	13.24824	0.9952	1.00482	202.11369	186.25173	76.60817	0.31914	 	1.40119E22	 	1.87453E-22	 	-16765.47113	27.16675	 
260.0	1.0	0.0	8.57254	7.06245	-11.21718	12.41442	13.19172	0.99018	1.00992	202.39128	186.37831	76.72068	0.31901	 	2.46925E22	 	1.05383E-22	 	-16901.06828	27.11943	 
255.0	1.0	0.0	8.57427	7.06102	-11.23505	12.39012	13.13514	0.98512	1.01511	202.66841	186.50432	76.83303	0.31889	 	4.39839E22	 	5.86072E-23	 	-17036.4287	27.07208	 
250.0	1.0	0.0	8.57599	7.05961	-11.25285	12.36581	13.07849	0.98002	1.02039	202.94506	186.62976	76.94522	0.31876	 	7.92161E22	 	3.22329E-23	 	-17171.55222	27.02471	 
245.0	1.0	0.0	8.5777	7.0582	-11.27059	12.34149	13.02179	0.97488	1.02577	203.22125	186.75462	77.05726	0.31864	 	1.443E23	 	1.75258E-23	 	-17306.43866	26.97729	 
240.0	1.0	0.0	8.57941	7.05679	-11.28826	12.31717	12.96503	0.9697	1.03125	203.49697	186.87892	77.16914	0.31851	 	2.6594599999999998E23	 	9.41756E-24	 	-17441.08779	26.92983	 
235.0	1.0	0.0	8.58112	7.05539	-11.30587	12.29284	12.90819	0.96448	1.03683	203.77222	187.00264	77.28086	0.31839	 	4.96073E23	 	4.99958E-24	 	-17575.49942	26.88233	 
230.0	1.0	0.0	8.58281	7.05399	-11.32342	12.26849	12.85129	0.95922	1.04252	204.047	187.1258	77.39242	0.31826	 	9.368699999999999E23	 	2.62123E-24	 	-17709.67326	26.83477	 
225.0	1.0	0.0	8.58451	7.0526	-11.3409	12.24414	12.79433	0.95391	1.04831	204.32132	187.24839	77.50382	0.31814	 	1.79207E24	 	1.35672E-24	 	-17843.60903	26.78715	 
220.0	1.0	0.0	8.58619	7.05122	-11.35832	12.21979	12.73729	0.94857	1.05422	204.59516	187.37041	77.61507	0.31801	 	3.47332E24	 	6.9298E-25	 	-17977.30642	26.73948	 
215.0	1.0	0.0	8.58788	7.04984	-11.37568	12.19542	12.68017	0.94318	1.06024	204.86854	187.49188	77.72616	0.31789	 	6.82372E24	 	3.49156E-25	 	-18110.76509	26.69173	 
210.0	1.0	0.0	8.58955	7.04846	-11.39297	12.17105	12.62299	0.93775	1.06638	205.14146	187.61277	77.83709	0.31776	 	1.35946E25	 	1.73461E-25	 	-18243.98468	26.64392	 
205.0	1.0	0.0	8.59122	7.04709	-11.41019	12.14667	12.56572	0.93227	1.07265	205.4139	187.73311	77.94786	0.31764	 	2.74773E25	 	8.49331E-26	 	-18376.96476	26.59602	 
200.0	1.0	0.0	8.59289	7.04573	-11.42736	12.12228	12.50837	0.92675	1.07904	205.68588	187.85289	78.05847	0.31751	 	5.63689E25	 	4.09681E-26	 	-18509.70491	26.54803	 
195.0	1.0	0.0	8.59455	7.04437	-11.44445	12.09788	12.45094	0.92119	1.08555	205.95738	187.97211	78.16892	0.31739	 	1.17428E26	 	1.94581E-26	 	-18642.20466	26.49995	 
190.0	1.0	0.0	8.5962	7.04301	-11.46149	12.07347	12.39343	0.91558	1.0922	206.22843	188.09077	78.27922	0.31726	 	2.48533E26	 	9.09544E-27	 	-18774.46349	26.45177	 
185.0	1.0	0.0	8.59785	7.04166	-11.47846	12.04906	12.33582	0.90993	1.09899	206.499	188.20887	78.38936	0.31714	 	5.3469400000000004E26	 	4.18205E-27	 	-18906.48083	26.40347	 
180.0	1.0	0.0	8.59949	7.04032	-11.49537	12.02464	12.27813	0.90422	1.10592	206.7691	188.32642	78.49934	0.31701	 	1.16995E27	 	1.89043E-27	 	-19038.25612	26.35506	 
175.0	1.0	0.0	8.60113	7.03898	-11.51221	12.00021	12.22034	0.89848	1.113	207.03874	188.44342	78.60916	0.31689	 	2.60507E27	 	8.39635E-28	 	-19169.78869	26.30651	 
170.0	1.0	0.0	8.60276	7.03764	-11.52899	11.97577	12.16245	0.89268	1.12022	207.30792	188.55986	78.71882	0.31676	 	5.9063E27	 	3.66203E-28	 	-19301.07786	26.25783	 
165.0	1.0	0.0	8.60438	7.03631	-11.5457	11.95133	12.10446	0.88684	1.1276	207.57662	188.67575	78.82832	0.31664	 	1.36435E28	 	1.56742E-28	 	-19432.1229	26.20901	 
160.0	1.0	0.0	8.606	7.03499	-11.56235	11.92687	12.04637	0.88094	1.13515	207.84486	188.79109	78.93767	0.31651	 	3.21314E28	 	6.57954E-29	 	-19562.92302	26.16003	 
155.0	1.0	0.0	8.60762	7.03367	-11.57894	11.90241	11.98817	0.875	1.14285	208.11263	188.90589	79.04686	0.31639	 	7.72009E28	 	2.70683E-29	 	-19693.47737	26.11087	 
150.0	1.0	0.0	8.60923	7.03235	-11.59546	11.87794	11.92985	0.86901	1.15073	208.37993	189.02013	79.15589	0.31626	 	1.8937E29	 	1.09061E-29	 	-19823.78505	26.06154	 
145.0	1.0	0.0	8.61083	7.03105	-11.61191	11.85346	11.87142	0.86297	1.15879	208.64676	189.13383	79.26475	0.31614	 	4.7459200000000005E29	 	4.30029E-30	 	-19953.84509	26.01201	 
140.0	1.0	0.0	8.61243	7.02974	-11.62831	11.82898	11.81288	0.85688	1.16703	208.91313	189.24698	79.37347	0.31601	 	1.21615E30	 	1.65809E-30	 	-20083.65647	25.96228	 
135.0	1.0	0.0	8.61402	7.02844	-11.64463	11.80448	11.7542	0.85073	1.17546	209.17903	189.35959	79.48202	0.31589	 	3.18909E30	 	6.24655E-31	 	-20213.21807	25.91232	 
130.0	1.0	0.0	8.6156	7.02715	-11.6609	11.77998	11.6954	0.84453	1.18408	209.44447	189.47166	79.59041	0.31576	 	8.565069999999999E30	 	2.29733E-31	 	-20342.52871	25.86213	 
125.0	1.0	0.0	8.61718	7.02586	-11.6771	11.75547	11.63647	0.83829	1.19291	209.70944	189.58318	79.69865	0.31564	 	2.35815E31	 	8.24065E-32	 	-20471.58715	25.81169	 
120.0	1.0	0.0	8.61876	7.02458	-11.69323	11.73095	11.57739	0.83198	1.20195	209.97394	189.69417	79.80672	0.31552	 	6.66193E31	 	2.88035E-32	 	-20600.39203	25.76098	 
115.0	1.0	0.0	8.62033	7.0233	-11.7093	11.70643	11.51817	0.82562	1.21121	210.23797	189.80461	79.91464	0.31539	 	1.93308E32	 	9.80026E-33	 	-20728.94192	25.70998	 
110.0	1.0	0.0	8.62189	7.02203	-11.72531	11.68189	11.4588	0.81921	1.22069	210.50154	189.91452	80.0224	0.31527	 	5.7672999999999995E32	 	3.24253E-33	 	-20857.23532	25.65868	 
105.0	1.0	0.0	8.62345	7.02076	-11.74125	11.65735	11.39928	0.81274	1.2304	210.76464	190.02389	80.12999	0.31514	 	1.77113E33	 	1.04208E-33	 	-20985.27056	25.60705	 
100.0	1.0	0.0	8.625	7.01949	-11.75712	11.6328	11.33959	0.80622	1.24036	211.02727	190.13272	80.23743	0.31502	 	5.605120000000001E33	 	3.24926E-34	 	-21113.04592	25.55507	 
95.0	1.0	0.0	8.62654	7.01824	-11.77293	11.60824	11.27973	0.79964	1.25057	211.28944	190.24102	80.34472	0.31489	 	1.83025E34	 	9.81749E-35	 	-21240.55955	25.50273	 
90.0	1.0	0.0	8.62808	7.01698	-11.78868	11.58368	11.2197	0.793	1.26104	211.55114	190.34879	80.45184	0.31477	 	6.17432E34	 	2.87067E-35	 	-21367.80947	25.44998	 
85.0	1.0	0.0	8.62962	7.01574	-11.80436	11.5591	11.15949	0.7863	1.27178	211.81238	190.45602	80.5588	0.31464	 	2.1548299999999997E35	 	8.11222E-36	 	-21494.79355	25.39682	 
80.0	1.0	0.0	8.63115	7.01449	-11.81998	11.53452	11.09908	0.77954	1.28281	212.07314	190.56272	80.6656	0.31452	 	7.791219999999999E35	 	2.21228E-36	 	-21621.50955	25.3432	 
75.0	1.0	0.0	8.63267	7.01326	-11.83553	11.50993	11.03847	0.77272	1.29413	212.33344	190.6689	80.77225	0.3144	 	2.92302E36	 	5.81327E-37	 	-21747.95505	25.2891	 
70.0	1.0	0.0	8.63419	7.01203	-11.85102	11.48533	10.97766	0.76584	1.30575	212.59328	190.77454	80.87873	0.31427	 	1.13971E37	 	1.46953E-37	 	-21874.12749	25.23449	 
65.0	1.0	0.0	8.6357	7.0108	-11.86644	11.46072	10.91662	0.7589	1.31769	212.85265	190.87966	80.98506	0.31415	 	4.62626E37	 	3.56752E-38	 	-22000.02413	25.17933	 
60.0	1.0	0.0	8.6372	7.00958	-11.8818	11.43611	10.85536	0.7519	1.32996	213.11155	190.98425	81.09123	0.31402	 	1.95853E38	 	8.30226E-39	 	-22125.64201	25.12358	 
55.0	1.0	0.0	8.6387	7.00836	-11.89709	11.41149	10.79386	0.74484	1.34257	213.36998	191.08831	81.19723	0.3139	 	8.6642E38	 	1.84855E-39	 	-22250.97801	25.0672	 
50.0	1.0	0.0	8.64019	7.00715	-11.91232	11.38686	10.73211	0.73771	1.35555	213.62795	191.19185	81.30308	0.31378	 	4.0133900000000003E39	 	3.92989E-40	 	-22376.02876	25.01015	 
45.0	1.0	0.0	8.64168	7.00594	-11.92748	11.36222	10.6701	0.73052	1.3689	213.88546	191.29487	81.40877	0.31365	 	1.95083E40	 	7.95973E-41	 	-22500.79067	24.95238	 
40.0	1.0	0.0	8.64316	7.00474	-11.94258	11.33757	10.60781	0.72326	1.38263	214.14249	191.39736	81.5143	0.31353	 	9.97375E40	 	1.53243E-41	 	-22625.25989	24.89384	 
35.0	1.0	0.0	8.64464	7.00355	-11.95761	11.31291	10.54523	0.71593	1.39678	214.39906	191.49934	81.61967	0.3134	 	5.3764200000000005E41	 	2.79741E-42	 	-22749.43228	24.83448	 
30.0	1.0	0.0	8.64611	7.00236	-11.97258	11.28825	10.48236	0.70854	1.41135	214.65517	191.60079	81.72488	0.31328	 	3.06382E42	 	4.82927E-43	 	-22873.30343	24.77423	 
25.0	1.0	0.0	8.64757	7.00117	-11.98748	 	10.41916	0.70108	1.42637	214.91081	191.70173	81.82993	0.31316	 	1.85089E43	 	7.86214E-44	 	-22996.86859	 	 
