T (C)	Fraction solid (wt)-TOTAL	Fraction liquid (wt)-LIQUID	Density (g/(cm)^3)-TOTAL	Molar volume (cm^3)-TOTAL	Volume change (%)-  	Average expansion coeff. (10e-6 1/K)-  	Thermal conductivity (W/(m*K))-TOTAL	Electrical resistivity (10e-6 Ohm*m)-TOTAL	Electrical conductivity (10e6 1/(Ohm*m))-TOTAL	Young's modulus (GPa)-TOTAL	Bulk modulus (GPa)-TOTAL	Shear modulus(GPa)-TOTAL	Poisson's ratio-TOTAL	Liquid viscosity (mPa s)-  	Total viscosity (mPa s)-  	Liquid diffusivity (10e-9 (m^2)/s)-  	Total diffusivity (10e-9 (m^2)/s)-  	Surface Tension (mN/m)-  	Enthalpy (J/mole)-TOTAL	Specific heat (J/(mole K))-TOTAL	Latent heat (J/mole)-TOTAL
1400.0	0.0	1.0	7.8152	7.97916	0.0	34.31161	33.18239	1.23536	0.80948	0.0	126.40132	0.0	0.5	7.45833	7.45833	1.09491	1.09491	1879.28812	40551.471	 	0.0
1395.0	0.0	1.0	7.81974	7.97452	-0.0581173	34.27542	33.09316	1.23499	0.80972	0.0	126.53601	0.0	0.5	7.54071	7.54071	1.07972	1.07972	1882.08509	40353.656	39.563	0.0
1390.0	0.0	1.0	7.82428	7.9699	-0.11607	34.23942	33.00394	1.23462	0.80997	0.0	126.6707	0.0	0.5	7.6245	7.6245	1.06465	1.06465	1884.89061	40156.274	39.4764	0.0
1385.0	0.0	1.0	7.82881	7.96529	-0.17386	34.20361	32.91471	1.23424	0.81021	0.0	126.80539	0.0	0.5	7.70973	7.70973	1.04971	1.04971	1887.70483	39959.323	39.3902	0.0
1380.0	0.0	1.0	7.83333	7.96069	-0.23149	34.168	32.82549	1.23386	0.81046	0.0	126.94008	0.0	0.5	7.79644	7.79644	1.03491	1.03491	1890.52791	39762.799	39.3048	0.0
1379.88	0.0	1.0	7.83344	7.96057	-0.2329	34.16713	32.8233	1.23385	0.81047	0.0	126.94338	0.0	0.5	7.79859	7.79859	1.03455	1.03455	1890.59722	39757.997	39.18081	0.0
1375.0	0.11859	0.88141	7.88158	7.91198	-0.84196	32.57385	33.10561	1.21972	0.81986	0.0197902	130.93498	0.00665839	0.48611	7.88882	11.2968	1.0197	0.71208	1893.69176	37747.88	412.12542	1818.816
1370.0	0.22213	0.77787	7.92428	7.86927	-1.37717	31.1808	33.34692	1.20722	0.82835	0.2496	134.45458	0.0846794	0.47378	7.98557	37.47302	1.00429	0.21402	1896.83813	35975.831	354.4098	3395.186
1365.0	0.31054	0.68946	7.9614	7.83263	-1.83635	29.99325	33.54742	1.19636	0.83587	0.97399	137.49445	0.33285	0.46309	8.08659	119.65997	0.98872	0.0668177	1899.95443	34445.515	306.0632	4730.241
1360.0	0.38652	0.61348	7.99381	7.80084	-2.23473	28.97007	33.71336	1.18683	0.84258	2.38164	140.13504	0.81912	0.45378	8.19176	284.87841	0.97305	0.0279804	1903.04012	33114.109	266.2812	5866.801
1355.0	0.45221	0.54779	8.02229	7.77311	-2.58229	28.08461	33.84985	1.17843	0.84859	4.53555	142.44441	1.56871	0.44563	8.30103	549.62169	0.9573	0.0144583	1906.09276	31947.29	233.3638	6839.188
1350.0	0.50932	0.49068	8.04744	7.74872	-2.888	27.31268	33.9608	1.17097	0.85399	7.40377	144.47589	2.5735	0.43846	8.41438	921.64485	0.94151	0.00859571	1909.11129	30917.404	205.9772	7675.05
1345.0	0.55921	0.44079	8.06975	7.72722	-3.15747	26.63935	34.04971	1.16432	0.85887	10.89776	146.27516	3.80474	0.43213	8.53171	1402.88981	0.9257	0.00562966	1912.09244	30002.049	183.071	8396.786
1340.0	0.60301	0.39699	8.08966	7.70807	-3.39745	26.04622	34.11926	1.15835	0.86329	14.90431	147.87753	5.22405	0.42651	8.65302	1992.05524	0.9099	0.00395239	1915.03641	29182.987	163.8124	9022.635
1335.0	0.64163	0.35837	8.10748	7.69098	-3.61168	25.52336	34.1718	1.15299	0.86731	19.30124	149.31242	6.78903	0.4215	8.77829	2685.97217	0.89414	0.00292221	1917.94074	28445.29	147.5394	9567.518
1330.0	0.67581	0.32419	8.1235	7.67562	-3.80413	25.06002	34.20944	1.14814	0.87098	23.97633	150.60488	8.4601	0.41702	8.90748	3481.48972	0.87843	0.00224748	1920.80442	27776.675	133.723	10043.717
1325.0	0.70618	0.29382	8.13798	7.66173	-3.97817	24.64696	34.23393	1.14374	0.87433	28.82978	151.77448	10.20161	0.413	9.04064	4375.87794	0.86279	0.00178254	1923.62671	27166.988	121.9374	10461.382
1320.0	0.73326	0.26674	8.15112	7.64915	-4.13589	24.27869	34.2469	1.13973	0.8774	33.77416	152.83898	11.98192	0.40938	9.17778	5366.87787	0.84724	0.00144884	1926.4064	26607.792	111.8392	10828.948
1315.0	0.75747	0.24253	8.1631	7.63766	-4.2799	23.94802	34.24959	1.13606	0.88023	38.73889	153.81167	13.77525	0.4061	9.3189	6453.35615	0.83179	0.00120114	1929.14166	26092.047	103.149	11153.453
1310.0	0.7792	0.2208	8.17405	7.62713	-4.41186	23.65045	34.24327	1.13269	0.88285	43.66948	154.70533	15.56141	0.40313	9.46404	7635.67707	0.81645	0.00101196	1931.83199	25613.847	95.64	11440.8
1307.61	0.78863	0.21137	8.1789	7.62246	-4.47042	23.52088	34.23667	1.1312	0.88402	45.96105	155.10347	16.39322	0.40183	9.53485	8229.3059	0.80917	9.37536E-4	1933.1007	25399.055	 	11564.314
1305.0	0.80181	0.19819	8.18641	7.61521	-4.56117	23.29896	34.12899	1.1329	0.88269	49.38816	155.61645	17.64091	0.39982	9.6366	9063.65743	0.7993	8.49829E-4	1935.29513	25092.325	104.3044	11771.852
1300.0	0.82442	0.17558	8.19943	7.60261	-4.7192	22.9187	33.93697	1.1357	0.88052	55.74981	156.51958	19.96288	0.39634	9.83562	10739.82212	0.78065	7.14924E-4	1939.48234	24549.409	108.5832	12124.68
1295.0	0.84359	0.15641	8.21071	7.59163	-4.85681	22.59664	33.76374	1.1379	0.87881	61.66229	157.32109	22.12739	0.39335	10.03927	12491.88283	0.76238	6.12698E-4	1943.62865	24064.045	97.0728	12420.336
1290.0	0.86	0.14	8.2206	7.58193	-4.97828	22.32056	33.6057	1.1396	0.8775	67.13098	158.04063	24.13476	0.39075	10.24761	14324.22925	0.7445	5.32618E-4	1947.7343	23624.687	87.8716	12670.361
1285.0	0.87416	0.12584	8.22936	7.57332	-5.08627	22.08303	33.4601	1.1409	0.8765	72.16985	158.69315	25.98868	0.38849	10.46077	16242.3744	0.727	4.68216E-4	1951.79625	23222.554	80.4266	12883.535
1280.0	0.88648	0.11352	8.2372	7.56553	-5.18385	21.87515	33.3247	1.14186	0.87576	76.81497	159.29048	27.70139	0.38648	10.67894	18256.31396	0.70986	4.15228E-4	1955.81814	22850.87	74.3368	13066.632
1275.0	0.89725	0.10275	8.24427	7.55847	-5.27229	21.69344	33.1978	1.14254	0.87525	81.09498	159.8423	29.28246	0.3847	10.90209	20376.01688	0.69309	3.70835E-4	1959.79474	22504.338	69.3064	13224.944
1270.0	0.90673	0.0932694	8.2507	7.552	-5.3534	21.53264	33.07788	1.14297	0.87491	85.04114	160.35511	30.74277	0.38311	11.13056	22611.92906	0.67667	3.33087E-4	1963.72905	22178.776	65.1124	13362.654
1265.0	0.91513	0.0848661	8.2566	7.54603	-5.42821	21.3899	32.9638	1.14321	0.87473	88.68648	160.83518	32.09392	0.38167	11.36428	24977.28421	0.66061	3.00566E-4	1967.61824	21870.838	61.5876	13483.103
1260.0	0.9226	0.0773966	8.26205	7.54047	-5.49798	21.26154	32.85459	1.14329	0.87467	92.06085	161.28715	33.34652	0.38037	11.60365	27485.43033	0.64488	2.72251E-4	1971.46574	21577.83	58.6016	13588.984
1255.0	0.92929	0.0707148	8.26712	7.53526	-5.5632	21.14619	32.74944	1.14322	0.87473	95.19044	161.71484	34.50988	0.37918	11.84876	30150.68831	0.62948	2.47375E-4	1975.26829	21297.558	56.0544	13682.488
1250.0	0.93529	0.0647134	8.27105	7.52972	-5.63264	21.01681	32.5426	1.14672	0.87205	98.20366	161.98845	35.63663	0.37785	12.0995	32988.90456	0.61442	2.25352E-4	1978.10615	20968.73141	65.76532	13765.413
1245.0	0.9407	0.0593013	8.28028	7.52294	-5.71761	20.83796	32.19862	1.15516	0.86568	101.40317	162.30593	36.84221	0.37618	12.35642	36546.92546	0.59967	2.02745E-4	1980.92351	20593.74174	74.99793	13839.242
1240.0	0.9456	0.0544008	8.2889	7.5164	-5.79955	20.66708	31.86955	1.16325	0.85966	104.41145	162.59871	37.97831	0.37462	12.61934	40408.90278	0.58524	1.82764E-4	1983.71771	20230.31392	72.68556	13905.213
1235.0	0.95005	0.049949	8.29697	7.51008	-5.87883	20.50316	31.55404	1.171	0.85397	107.24368	162.87008	39.05026	0.37315	12.88883	44604.44519	0.57111	1.65026E-4	1986.49021	19877.26794	70.6092	13964.358
1230.0	0.95411	0.0458899	8.30454	7.50395	-5.95563	20.34572	31.25101	1.17843	0.84859	109.91509	163.12236	40.06343	0.37176	13.16449	49165.78426	0.55729	1.4922E-4	1989.24073	19533.59426	68.73474	14017.551
1225.0	0.95782	0.0421781	8.31164	7.498	-6.03023	20.19396	30.95958	1.18557	0.84348	112.43847	163.35797	41.02238	0.37045	13.44708	54128.46125	0.54377	1.35088E-4	1991.97099	19198.42337	67.03418	14065.529
1220.0	0.96123	0.0387746	8.31832	7.49221	-6.10279	20.0474	30.67896	1.19242	0.83863	114.82655	163.57875	41.93165	0.36921	13.73669	59531.50899	0.53053	1.22417E-4	1994.68161	18871.00259	65.48416	14108.921
1215.0	0.96436	0.0356431	8.32461	7.48657	-6.17338	19.90589	30.40849	1.199	0.83403	117.08906	163.78627	42.7947	0.36803	14.0332	65417.17114	0.51758	1.1103E-4	1997.37123	18550.67484	64.06555	14148.267
1210.0	0.96725	0.032754	8.33053	7.48108	-6.24225	19.76875	30.14751	1.20531	0.82966	119.23699	163.98199	43.61549	0.36691	14.33697	71833.03917	0.50491	1.00774E-4	2000.04207	18236.86732	62.7615	14184.029
1205.0	0.96992	0.0300839	8.33612	7.47572	-6.30945	19.63581	29.89549	1.21138	0.82551	121.27866	164.16714	44.39702	0.36584	14.64836	78830.09182	0.49251	9.15194E-5	2002.69387	17929.07357	61.55875	14216.607
1200.0	0.97235	0.027655	8.3415	7.47051	-6.37476	19.50787	29.64941	1.2173	0.82149	123.19634	164.34222	45.13259	0.36483	14.954	86448.02216	0.48081	8.31723E-5	2005.33754	17625.8492	60.64487	14247.344
1195.0	0.97458	0.0254187	8.34677	7.46545	-6.43817	19.38501	29.40782	1.22313	0.81757	125.00935	164.50925	45.82939	0.36386	15.24777	94752.39993	0.46995	7.56253E-5	2007.97677	17325.71477	60.02689	14277.625
1190.0	0.97666	0.0233354	8.35177	7.46051	-6.50006	19.26608	29.17425	1.22873	0.81385	126.74127	164.66854	46.49603	0.36293	15.54872	103823.1895	0.45928	6.8783E-5	2010.5973	17030.48053	59.04685	14305.55
1185.0	0.97861	0.0213921	8.35655	7.45568	-6.56056	19.15067	28.94823	1.23409	0.81031	128.3976	164.82085	47.13451	0.36203	15.85754	113735.3414	0.4488	6.25739E-5	2013.20173	16739.83014	58.13008	14331.348
1180.0	0.98042	0.019576	8.3611	7.45096	-6.61967	19.03882	28.7293	1.23923	0.80695	129.98294	164.96693	47.74648	0.36118	16.17401	124571.645	0.43851	5.69348E-5	2015.78695	16453.4784	57.27035	14355.221
1175.0	0.98212	0.0178754	8.36544	7.44635	-6.67754	18.93011	28.51709	1.24415	0.80376	131.50197	165.10731	48.33368	0.36036	16.49907	136422.6805	0.42839	5.181E-5	2018.35719	16171.1663	56.46242	14377.351
1170.0	0.98372	0.0162816	8.3696	7.44182	-6.73421	18.82447	28.3112	1.24888	0.80072	132.95982	165.24273	48.89796	0.35956	16.83237	149390.8607	0.41846	4.71492E-5	2020.9093	15892.65867	55.70153	14397.898
1165.0	0.98521	0.0147862	8.37358	7.43739	-6.78979	18.7215	28.11128	1.2534	0.79783	134.35925	165.37348	49.44036	0.3588	17.17408	163585.6177	0.40871	4.29087E-5	2023.44938	15617.74266	54.9832	14417.004
1160.0	0.98662	0.0133805	8.3774	7.43304	-6.84428	18.6213	27.91704	1.25773	0.79508	135.70525	165.50022	49.96268	0.35807	17.5255	179131.8858	0.39912	3.90486E-5	2025.97205	15346.22139	54.30425	14434.799
1155.0	0.98794	0.0120581	8.38107	7.42878	-6.89775	18.52365	27.72814	1.26188	0.79247	136.99924	165.62316	50.46544	0.35736	17.88597	196163.3304	0.38972	3.55339E-5	2028.48036	15077.9171	53.66086	14451.395
1150.0	0.98919	0.0108125	8.38459	7.42458	-6.95028	18.4283	27.54431	1.26586	0.78998	138.24651	165.74283	50.95062	0.35667	18.25574	214832.9744	0.38049	3.23323E-5	2030.97564	14812.66591	53.05024	14466.895
1145.0	0.99036	0.00963731	8.38798	7.42047	-7.00187	18.33528	27.3653	1.26966	0.78761	139.44833	165.8595	51.41866	0.35601	18.63603	235305.7115	0.37141	2.94155E-5	2033.45579	14550.31573	52.47004	14481.391
1140.0	0.99147	0.00852817	8.39125	7.41642	-7.05262	18.24433	27.19088	1.2733	0.78536	140.60846	165.97345	51.87096	0.35537	19.02595	257767.1425	0.36252	2.67576E-5	2035.92411	14290.72905	51.91734	14494.966
1135.0	0.99252	0.00747972	8.3944	7.41244	-7.1025	18.1555	27.02079	1.27678	0.78322	141.7283	166.08498	52.30803	0.35475	19.42725	282420.6798	0.35377	2.43354E-5	2038.37738	14033.77485	51.39084	14507.695
1130.0	0.99353	0.0064702	8.39748	7.40855	-7.15122	18.06988	26.85235	1.28023	0.78111	142.8342	166.19757	52.73994	0.35414	19.86143	309528.5323	0.34481	2.21253E-5	2040.81404	13780.60539	50.63389	14518.376
1120.0	0.99685	0.00315462	8.40303	7.40024	-7.25541	17.87285	26.53743	1.28619	0.77749	145.12486	166.48136	53.63988	0.35277	20.98198	374057.3106	0.32407	1.8178E-5	2045.65157	13249.47575	53.11296	14569.544
1115.0	1.0	0.0	8.40604	7.39547	-7.31521	17.74609	26.3915	1.28866	0.776	148.10731	166.68877	54.77696	0.35191	 	413565.6864	 	1.63824E-5	 	12960.80215	57.73472	14620.651
1110.0	1.0	0.0	8.40983	7.39214	-7.35695	17.68148	26.24064	1.2914	0.77435	148.62278	166.78025	54.98526	0.35148	 	454117.5611	 	1.48658E-5	 	12974.43271	-2.72611	 
1105.0	1.0	0.0	8.41359	7.38883	-7.39832	17.61757	26.09286	1.29402	0.77279	149.13065	166.87211	55.19053	0.35105	 	499005.0129	 	1.34796E-5	 	12768.07778	41.27099	 
1100.0	1.0	0.0	8.41731	7.38556	-7.43934	17.55434	25.94804	1.29652	0.77129	149.63122	166.96439	55.39289	0.35064	 	548728.4631	 	1.22137E-5	 	12562.96195	41.02317	 
1095.0	1.0	0.0	8.42101	7.38232	-7.48	17.49176	25.80606	1.29891	0.76988	150.12476	167.05711	55.59245	0.35023	 	603850.2191	 	1.10584E-5	 	12359.05231	40.78193	 
1090.0	1.0	0.0	8.42468	7.3791	-7.52032	17.42983	25.66681	1.30118	0.76853	150.61156	167.15029	55.78932	0.34982	 	665002.644	 	1.00048E-5	 	12156.31734	40.54699	 
1085.0	1.0	0.0	8.42833	7.37591	-7.56031	17.3685	25.53019	1.30335	0.76726	151.09186	167.24395	55.9836	0.34943	 	732897.4391	 	9.04464E-6	 	11954.72674	40.31812	 
1080.0	1.0	0.0	8.43195	7.37274	-7.59997	17.30778	25.39608	1.3054	0.76605	151.56592	167.33812	56.17538	0.34904	 	808336.2527	 	8.17035E-6	 	11754.25145	40.09506	 
1075.0	1.0	0.0	8.43554	7.36961	-7.63931	17.24762	25.26441	1.30736	0.7649	152.03397	167.4328	56.36475	0.34866	 	892222.7776	 	7.37482E-6	 	11554.86356	39.87758	 
1070.0	1.0	0.0	8.4391	7.36649	-7.67834	17.18803	25.13508	1.30921	0.76382	152.49624	167.52801	56.55181	0.34829	 	985576.5827	 	6.65152E-6	 	11356.53622	39.66547	 
1065.0	1.0	0.0	8.44265	7.3634	-7.71706	17.12897	25.008	1.31097	0.7628	152.95296	167.62377	56.73664	0.34792	 	1089548.933	 	5.99439E-6	 	11159.24366	39.45851	 
1060.0	1.0	0.0	8.44616	7.36033	-7.75549	17.07044	24.88308	1.31263	0.76183	153.40432	167.72009	56.91933	0.34756	 	1205440.877	 	5.39784E-6	 	10962.96107	39.25652	 
1055.0	1.0	0.0	8.44966	7.35729	-7.79363	17.01241	24.76026	1.31419	0.76093	153.85053	167.81698	57.09994	0.3472	 	1334723.994	 	4.85671E-6	 	10767.66457	39.0593	 
1050.0	1.0	0.0	8.45313	7.35427	-7.83149	16.95487	24.63891	1.31569	0.76006	154.29179	167.91445	57.27855	0.34685	 	1479064.173	 	4.36625E-6	 	10573.33118	38.86668	 
1045.0	1.0	0.0	8.45657	7.35127	-7.86906	16.89781	24.52	1.31707	0.75926	154.72827	168.01251	57.45525	0.34651	 	1640348.895	 	3.92207E-6	 	10379.93876	38.67848	 
1040.0	1.0	0.0	8.46	7.3483	-7.90637	16.8412	24.40297	1.31837	0.75851	155.15028	168.10046	57.62642	0.34617	 	1820718.577	 	3.52013E-6	 	10187.46598	38.49456	 
1035.0	1.0	0.0	8.4634	7.34534	-7.9434	16.78503	24.28775	1.31958	0.75782	155.57784	168.19985	57.79952	0.34584	 	2022602.626	 	3.1567E-6	 	9995.89228	38.31474	 
1030.0	1.0	0.0	8.46679	7.34241	-7.98018	16.7293	24.17427	1.32071	0.75717	156.00114	168.29984	57.97089	0.34551	 	2248760.904	 	2.82838E-6	 	9805.19781	38.13889	 
1025.0	1.0	0.0	8.47015	7.33949	-8.0167	16.67398	24.06249	1.32175	0.75657	156.42033	168.40045	58.1406	0.34519	 	2502331.558	 	2.53202E-6	 	9615.3638	37.9668	 
1020.0	1.0	0.0	8.47349	7.3366	-8.05297	16.61907	23.95233	1.32272	0.75602	156.83557	168.50167	58.30872	0.34487	 	2786885.938	 	2.26473E-6	 	9426.37242	37.79828	 
1015.0	1.0	0.0	8.47681	7.33372	-8.08899	16.56454	23.84375	1.3236	0.75551	157.24699	168.60351	58.47529	0.34456	 	3106492.438	 	2.02387E-6	 	9238.20497	37.63349	 
1010.0	1.0	0.0	8.48011	7.33087	-8.12477	16.5104	23.73669	1.32441	0.75505	157.65475	168.70597	58.64037	0.34425	 	3465789.751	 	1.80702E-6	 	9050.84417	37.47216	 
1005.0	1.0	0.0	8.48339	7.32803	-8.16032	16.45662	23.63111	1.32515	0.75463	158.05896	168.80906	58.80402	0.34395	 	3870071.879	 	1.61194E-6	 	8864.27337	37.31416	 
1000.0	1.0	0.0	8.48666	7.32522	-8.19564	16.40319	23.52695	1.32581	0.75426	158.45977	168.91277	58.96628	0.34365	 	4325386.444	 	1.43662E-6	 	8678.47644	37.15939	 
995.0	1.0	0.0	8.4899	7.32242	-8.23072	16.3501	23.42417	1.32639	0.75392	158.85729	169.0171	59.12721	0.34335	 	4838648.563	 	1.27918E-6	 	8493.43776	37.00774	 
990.0	1.0	0.0	8.49313	7.31963	-8.26559	16.29735	23.32272	1.32691	0.75363	159.25165	169.12207	59.28685	0.34306	 	5417773.052	 	1.13794E-6	 	8309.14226	36.8591	 
985.0	1.0	0.0	8.49634	7.31687	-8.30023	16.24491	23.22256	1.32736	0.75338	159.64296	169.22766	59.44525	0.34277	 	6071827.731	 	1.01135E-6	 	8125.57528	36.7134	 
980.0	1.0	0.0	8.49953	7.31412	-8.33466	16.19279	23.12366	1.32774	0.75316	160.03133	169.33389	59.60246	0.34249	 	6811211.772	 	8.97977E-7	 	7942.72266	36.57052	 
975.0	1.0	0.0	8.5027	7.31139	-8.36887	16.14097	23.02596	1.32805	0.75298	160.41687	169.44074	59.75851	0.34221	 	7647863.072	 	7.96551E-7	 	7760.57069	36.4304	 
970.0	1.0	0.0	8.50586	7.30868	-8.40288	16.08943	22.92944	1.3283	0.75284	160.79969	169.54822	59.91345	0.34193	 	8595499.841	 	7.05893E-7	 	7579.10603	36.29293	 
965.0	1.0	0.0	8.509	7.30598	-8.43668	16.03818	22.83405	1.32848	0.75274	161.17988	169.65634	60.06732	0.34166	 	9669902.324	 	6.24939E-7	 	7398.31579	36.15805	 
960.0	1.0	0.0	8.51212	7.3033	-8.47029	15.9872	22.73977	1.32861	0.75267	161.55754	169.76508	60.22015	0.34139	 	1.088924139E7	 	5.5272E-7	 	7218.18745	36.02567	 
955.0	1.0	0.0	8.51523	7.30063	-8.50369	15.93648	22.64656	1.32866	0.75264	161.93276	169.87445	60.37198	0.34113	 	1.227446273E7	 	4.88355E-7	 	7038.70884	35.89572	 
950.0	1.0	0.0	8.51832	7.29799	-8.5369	15.88601	22.55438	1.32866	0.75264	162.30564	169.98445	60.52286	0.34086	 	1.384973606E7	 	4.31047E-7	 	6859.86816	35.76814	 
945.0	1.0	0.0	8.5214	7.29535	-8.56992	15.83578	22.46321	1.3286	0.75267	162.67626	170.09507	60.67281	0.3406	 	1.564298131E7	 	3.80074E-7	 	6681.65394	35.64284	 
940.0	1.0	0.0	8.52446	7.29273	-8.60275	15.78579	22.37301	1.32848	0.75274	163.0447	170.20633	60.82187	0.34035	 	1.768648532E7	 	3.3478E-7	 	6504.05507	35.51977	 
935.0	1.0	0.0	8.5275	7.29013	-8.63539	15.73603	22.28376	1.32831	0.75284	163.41105	170.31821	60.97007	0.34009	 	2.001762577E7	 	2.94574E-7	 	6327.0607	35.39887	 
930.0	1.0	0.0	8.53054	7.28754	-8.66785	15.68649	22.19543	1.32807	0.75297	163.77538	170.43071	61.11744	0.33984	 	2.267972149E7	 	2.58922E-7	 	6150.66032	35.28008	 
925.0	1.0	0.0	8.53355	7.28496	-8.70013	15.63715	22.10799	1.32779	0.75313	164.13777	170.54384	61.26401	0.33959	 	2.572303339E7	 	2.2734E-7	 	5974.84369	35.16333	 
920.0	1.0	0.0	8.53655	7.2824	-8.73224	15.58802	22.02142	1.32744	0.75333	164.4983	170.65759	61.40981	0.33935	 	2.920594247E7	 	1.99393E-7	 	5799.60086	35.04856	 
915.0	1.0	0.0	8.53954	7.27985	-8.76416	15.53909	21.93569	1.32705	0.75355	164.85703	170.77197	61.55488	0.33911	 	3.319633941E7	 	1.7469E-7	 	5624.92214	34.93574	 
910.0	1.0	0.0	8.54251	7.27732	-8.79592	15.49034	21.85079	1.3266	0.75381	165.21403	170.88696	61.69923	0.33887	 	3.777326509E7	 	1.52877E-7	 	5450.79811	34.82481	 
905.0	1.0	0.0	8.54547	7.2748	-8.82751	15.44178	21.76667	1.32609	0.75409	165.56937	171.00258	61.8429	0.33863	 	4.302884871E7	 	1.33637E-7	 	5277.21958	34.71571	 
900.0	1.0	0.0	8.54842	7.27229	-8.85893	15.39338	21.68333	1.32554	0.75441	165.92312	171.11881	61.98591	0.33839	 	4.907060322E7	 	1.16686E-7	 	5104.1776	34.60839	 
895.0	1.0	0.0	8.55135	7.2698	-8.89018	15.34516	21.60075	1.32494	0.75475	166.27533	171.23566	62.12829	0.33816	 	5.602414315E7	 	1.01768E-7	 	4931.66348	34.50283	 
890.0	1.0	0.0	8.55427	7.26732	-8.92127	15.29709	21.51889	1.32429	0.75512	166.62608	171.35313	62.27005	0.33793	 	6.403641051E7	 	8.86534E-8	 	4759.66871	34.39895	 
885.0	1.0	0.0	8.55718	7.26485	-8.9522	15.24918	21.43775	1.32358	0.75552	166.9754	171.47121	62.41123	0.3377	 	7.327950534E7	 	7.71381E-8	 	4588.18502	34.29674	 
880.0	1.0	0.0	8.56007	7.26239	-8.98297	15.20141	21.3573	1.32283	0.75595	167.32337	171.58991	62.55185	0.33748	 	8.39552436E7	 	6.70386E-8	 	4417.20435	34.19613	 
875.0	1.0	0.0	8.56295	7.25995	-9.01358	15.15378	21.27752	1.32204	0.75641	167.67003	171.70921	62.69192	0.33725	 	9.630058344E7	 	5.81911E-8	 	4246.71881	34.09711	 
870.0	1.0	0.0	8.56582	7.25752	-9.04404	15.10629	21.1984	1.32119	0.75689	168.01544	171.82913	62.83148	0.33703	 	1.105940969E8	 	5.04496E-8	 	4076.72072	33.99962	 
865.0	1.0	0.0	8.56867	7.2551	-9.07435	15.05892	21.11992	1.3203	0.7574	168.35966	171.94967	62.97053	0.33681	 	1.271636981E8	 	4.36841E-8	 	3907.2026	33.90363	 
860.0	1.0	0.0	8.57152	7.25269	-9.10451	15.01167	21.04206	1.31937	0.75794	168.70272	172.07081	63.10911	0.3366	 	1.463958817E8	 	3.77785E-8	 	3738.15711	33.8091	 
855.0	1.0	0.0	8.57435	7.2503	-9.13451	14.96454	20.9648	1.31838	0.7585	169.04469	172.19255	63.24723	0.33638	 	1.68746786E8	 	3.26301E-8	 	3569.5771	33.716	 
850.0	1.0	0.0	8.57716	7.24792	-9.16437	14.91752	20.88814	1.31736	0.75909	169.38559	172.31491	63.38491	0.33617	 	1.947554579E8	 	2.81472E-8	 	3401.4556	33.6243	 
845.0	1.0	0.0	8.57946	7.24598	-9.18869	14.89565	20.82918	1.31521	0.76034	169.70609	172.49266	63.51153	0.33603	 	2.212357922E8	 	2.46679E-8	 	3259.12278	28.46656	 
840.0	1.0	0.0	8.58175	7.24404	-9.21295	14.87377	20.77021	1.31304	0.76159	170.02605	172.66961	63.63798	0.33588	 	2.516045679E8	 	2.15934E-8	 	3114.05938	29.01268	 
835.0	1.0	0.0	8.58404	7.24211	-9.23715	14.85187	20.71122	1.31087	0.76285	170.34546	172.84577	63.76425	0.33574	 	2.864743645E8	 	1.88799E-8	 	2969.17128	28.97762	 
830.0	1.0	0.0	8.58633	7.24018	-9.2613	14.82997	20.65222	1.30868	0.76413	170.66435	173.02115	63.89034	0.3356	 	3.26560742E8	 	1.64876E-8	 	2824.45788	28.94268	 
825.0	1.0	0.0	8.58861	7.23826	-9.28539	14.80806	20.59321	1.30648	0.76541	170.98269	173.19575	64.01626	0.33546	 	3.727006321E8	 	1.4381E-8	 	2679.91853	28.90787	 
820.0	1.0	0.0	8.59088	7.23634	-9.30943	14.78614	20.53418	1.30427	0.76671	171.3005	173.36956	64.142	0.33532	 	4.258742066E8	 	1.25281E-8	 	2535.55254	28.8732	 
815.0	1.0	0.0	8.59316	7.23443	-9.33341	14.76421	20.47514	1.30205	0.76802	171.61777	173.5426	64.26756	0.33518	 	4.872309145E8	 	1.09004E-8	 	2391.35921	28.83867	 
810.0	1.0	0.0	8.59542	7.23252	-9.35734	14.74227	20.41609	1.29982	0.76934	171.93451	173.71486	64.39295	0.33504	 	5.581205288E8	 	9.47212E-9	 	2247.3378	28.80428	 
805.0	1.0	0.0	8.59769	7.23062	-9.38121	14.72032	20.35702	1.29757	0.77067	172.2507	173.88634	64.51815	0.3349	 	6.401302167E8	 	8.22049E-9	 	2103.48751	28.77006	 
800.0	1.0	0.0	8.59995	7.22872	-9.40503	14.69837	20.29793	1.29531	0.77201	172.56636	174.05705	64.64318	0.33476	 	7.35128868E8	 	7.12498E-9	 	1959.80756	28.73599	 
795.0	1.0	0.0	8.60221	7.22682	-9.42879	14.6764	20.23883	1.29304	0.77337	172.88149	174.22699	64.76804	0.33462	 	8.453201796E8	 	6.16734E-9	 	1816.29709	28.70209	 
790.0	1.0	0.0	8.60446	7.22493	-9.45249	14.65442	20.17971	1.29076	0.77474	173.19608	174.39616	64.89271	0.33448	 	9.733063196E8	 	5.33128E-9	 	1672.9552	28.66838	 
785.0	1.0	0.0	8.6067	7.22304	-9.47614	14.63243	20.12058	1.28847	0.77612	173.51013	174.56457	65.01721	0.33434	 	1.122164396E9	 	4.60233E-9	 	1529.78098	28.63485	 
780.0	1.0	0.0	8.60895	7.22116	-9.49973	14.61043	20.06144	1.28616	0.77751	173.82364	174.73221	65.14152	0.3342	 	1.295538442E9	 	3.96759E-9	 	1386.77343	28.60151	 
775.0	1.0	0.0	8.61119	7.21928	-9.52327	14.58842	20.00227	1.28384	0.77891	174.13662	174.89909	65.26567	0.33406	 	1.497750243E9	 	3.41563E-9	 	1243.93153	28.56838	 
770.0	1.0	0.0	8.61342	7.21741	-9.54675	14.56641	19.94309	1.2815	0.78033	174.44906	175.06522	65.38963	0.33392	 	1.733933066E9	 	2.9363E-9	 	1101.2542	28.53547	 
765.0	1.0	0.0	8.61565	7.21554	-9.57017	14.54438	19.8839	1.27916	0.78176	174.76096	175.23058	65.51341	0.33378	 	2.01019329E9	 	2.52063E-9	 	958.7403	28.50278	 
760.0	1.0	0.0	8.61788	7.21367	-9.59354	14.52234	19.82469	1.2768	0.78321	175.07233	175.39519	65.63702	0.33364	 	2.333806058E9	 	2.16065E-9	 	816.38864	28.47033	 
755.0	1.0	0.0	8.6201	7.21181	-9.61685	14.5003	19.76546	1.27443	0.78467	175.38316	175.55904	65.76045	0.3335	 	2.713452522E9	 	1.84936E-9	 	674.19798	28.43813	 
750.0	1.0	0.0	8.62232	7.20996	-9.64011	14.47824	19.70621	1.27204	0.78614	175.69345	175.72215	65.8837	0.33336	 	3.15950797E9	 	1.58054E-9	 	532.16696	28.4062	 
745.0	1.0	0.0	8.62454	7.20811	-9.66331	14.45618	19.64695	1.26965	0.78762	176.00321	175.8845	66.00677	0.33322	 	3.684392359E9	 	1.34875E-9	 	390.29422	28.37455	 
740.0	1.0	0.0	8.62675	7.20626	-9.68645	14.4341	19.58767	1.26723	0.78912	176.31243	176.04611	66.12967	0.33308	 	4.30299748E9	 	1.14918E-9	 	248.57827	28.34319	 
735.0	1.0	0.0	8.62895	7.20442	-9.70954	14.41202	19.52837	1.26481	0.79063	176.62112	176.20698	66.25238	0.33294	 	5.033208409E9	 	9.77613E-10	 	107.01757	28.31214	 
730.0	1.0	0.0	8.63115	7.20258	-9.73257	14.38992	19.46905	1.26237	0.79216	176.92927	176.3671	66.37492	0.3328	 	5.89654118E9	 	8.30339E-10	 	-34.38952	28.28142	 
725.0	1.0	0.0	8.63335	7.20075	-9.75554	14.36782	19.40971	1.25992	0.7937	177.23688	176.52648	66.49728	0.33266	 	6.918923946E9	 	7.04116E-10	 	-175.64473	28.25104	 
720.0	1.0	0.0	8.63555	7.19892	-9.77846	14.3457	19.35036	1.25745	0.79526	177.54396	176.68512	66.61946	0.33252	 	8.131655652E9	 	5.96105E-10	 	-316.74989	28.22103	 
715.0	1.0	0.0	8.63773	7.19709	-9.80133	14.32358	19.29099	1.25497	0.79683	177.85049	176.84302	66.74146	0.33238	 	9.572584697E9	 	5.03826E-10	 	-457.70693	28.19141	 
710.0	1.0	0.0	8.63992	7.19527	-9.82413	14.30144	19.23159	1.25248	0.79842	178.1565	177.00019	66.86329	0.33224	 	1.12876E10	 	4.25115E-10	 	-598.51788	28.16219	 
705.0	1.0	0.0	8.6421	7.19346	-9.84688	14.2793	19.17218	1.24997	0.80002	178.46197	177.15663	66.98493	0.33211	 	1.3332199999999998E10	 	3.58088E-10	 	-739.18493	28.13341	 
700.0	1.0	0.0	8.64427	7.19165	-9.86957	14.25715	19.11275	1.24745	0.80164	178.7669	177.31234	67.1064	0.33197	 	1.5774199999999998E10	 	3.01105E-10	 	-879.71034	28.10508	 
695.0	1.0	0.0	8.64645	7.18984	-9.89221	14.23498	19.05329	1.24491	0.80327	179.07129	177.46731	67.22769	0.33183	 	1.8696E10	 	2.52744E-10	 	-1020.09656	28.07724	 
690.0	1.0	0.0	8.64861	7.18804	-9.91479	14.21281	18.99382	1.24236	0.80492	179.37515	177.62156	67.34879	0.33169	 	2.2198E10	 	2.11771E-10	 	-1160.34614	28.04992	 
685.0	1.0	0.0	8.65078	7.18624	-9.93731	14.19063	18.93432	1.23979	0.80659	179.67847	177.77509	67.46972	0.33155	 	2.6403399999999996E10	 	1.77117E-10	 	-1300.46184	28.02314	 
680.0	1.0	0.0	8.65293	7.18445	-9.95978	14.16844	18.87481	1.23721	0.80827	179.98126	177.92789	67.59047	0.33141	 	3.1462599999999996E10	 	1.47861E-10	 	-1440.44652	27.99694	 
675.0	1.0	0.0	8.65509	7.18266	-9.98219	14.14623	18.81527	1.23462	0.80997	180.28351	178.07998	67.71105	0.33127	 	3.75606E10	 	1.23206E-10	 	-1580.30327	27.97135	 
670.0	1.0	0.0	8.65724	7.18088	-10.00454	14.12402	18.75571	1.23201	0.81168	180.58522	178.23134	67.83144	0.33113	 	4.49248E10	 	1.02466E-10	 	-1720.03536	27.94642	 
665.0	1.0	0.0	8.65938	7.1791	-10.02684	14.1018	18.69613	1.22938	0.81342	180.8864	178.38199	67.95165	0.33099	 	5.383539999999999E10	 	8.50532E-11	 	-1859.64624	27.92218	 
660.0	1.0	0.0	8.66153	7.17733	-10.04908	14.07957	18.63652	1.22674	0.81517	181.18704	178.53192	68.07168	0.33085	 	6.463869999999999E10	 	7.04604E-11	 	-1999.1296	27.89667	 
655.0	1.0	0.0	8.66366	7.17556	-10.07126	14.05733	18.5769	1.22408	0.81694	181.48715	178.68114	68.19154	0.33072	 	7.77631E10	 	5.82548E-11	 	-2138.42969	27.86002	 
650.0	1.0	0.0	8.66579	7.17379	-10.09339	14.03508	18.51724	1.22141	0.81872	181.78671	178.82965	68.31121	0.33058	 	9.373959999999998E10	 	4.80657E-11	 	-2277.47261	27.80858	 
645.0	1.0	0.0	8.66792	7.17203	-10.11546	14.01282	18.45757	1.21872	0.82053	182.08575	178.97745	68.43071	0.33044	 	1.13229E11	 	3.9577E-11	 	-2416.2594	27.75736	 
640.0	1.0	0.0	8.67004	7.17027	-10.13747	13.99055	18.39787	1.21602	0.82235	182.38424	179.12454	68.55003	0.3303	 	1.37053E11	 	3.25192E-11	 	-2554.79115	27.70635	 
635.0	1.0	0.0	8.67216	7.16852	-10.15943	13.96827	18.33815	1.2133	0.8242	182.68221	179.27092	68.66916	0.33016	 	1.6624E11	 	2.6663E-11	 	-2693.06894	27.65556	 
630.0	1.0	0.0	8.67428	7.16677	-10.18133	13.94598	18.2784	1.21056	0.82606	182.97963	179.41661	68.78812	0.33002	 	2.02073E11	 	2.18141E-11	 	-2831.09385	27.60498	 
625.0	1.0	0.0	8.67639	7.16503	-10.20317	13.92368	18.21862	1.20781	0.82794	183.27652	179.56159	68.9069	0.32989	 	2.46165E11	 	1.78078E-11	 	-2968.86694	27.55462	 
620.0	1.0	0.0	8.67849	7.16329	-10.22495	13.90137	18.15882	1.20504	0.82985	183.57287	179.70587	69.02549	0.32975	 	3.00541E11	 	1.45047E-11	 	-3106.38929	27.50447	 
615.0	1.0	0.0	8.68059	7.16156	-10.24668	13.87906	18.099	1.20226	0.83177	183.86869	179.84945	69.14391	0.32961	 	3.67754E11	 	1.17873E-11	 	-3243.66198	27.45454	 
610.0	1.0	0.0	8.68269	7.15983	-10.26835	13.85673	18.03914	1.19946	0.83371	184.16397	179.99234	69.26215	0.32947	 	4.51027E11	 	9.55693E-12	 	-3380.68608	27.40482	 
605.0	1.0	0.0	8.68478	7.15811	-10.28996	13.83439	17.97926	1.19664	0.83567	184.45871	180.13453	69.3802	0.32933	 	5.54444E11	 	7.73032E-12	 	-3517.46265	27.35532	 
600.0	1.0	0.0	8.68687	7.15639	-10.31152	13.81204	17.91935	1.1938	0.83766	184.75292	180.27603	69.49808	0.32919	 	6.83188E11	 	6.23786E-12	 	-3653.99278	27.30602	 
595.0	1.0	0.0	8.68895	7.15467	-10.33302	13.78969	17.85942	1.19095	0.83967	185.04659	180.41684	69.61578	0.32906	 	8.43853E11	 	5.02128E-12	 	-3790.27751	27.25695	 
590.0	1.0	0.0	8.69103	7.15296	-10.35446	13.76732	17.79945	1.18808	0.84169	185.33973	180.55696	69.73329	0.32892	 	1.04486E12	 	4.03197E-12	 	-3926.31794	27.20808	 
585.0	1.0	0.0	8.6931	7.15125	-10.37584	13.74494	17.73946	1.18519	0.84374	185.63233	180.69639	69.85063	0.32878	 	1.29696E12	 	3.22941E-12	 	-4062.11511	27.15943	 
580.0	1.0	0.0	8.69517	7.14955	-10.39717	13.72256	17.67944	1.18229	0.84582	185.9244	180.83514	69.96779	0.32864	 	1.61398E12	 	2.57997E-12	 	-4197.6701	27.111	 
575.0	1.0	0.0	8.69724	7.14785	-10.41844	13.70016	17.61938	1.17936	0.84791	186.21592	180.9732	70.08476	0.32851	 	2.01367E12	 	2.05575E-12	 	-4332.98397	27.06277	 
570.0	1.0	0.0	8.6993	7.14616	-10.43965	13.67775	17.5593	1.17642	0.85003	186.50692	181.11059	70.20156	0.32837	 	2.51894E12	 	1.6337E-12	 	-4468.05779	27.01476	 
565.0	1.0	0.0	8.70135	7.14447	-10.4608	13.65534	17.49918	1.17346	0.85218	186.79737	181.24729	70.31817	0.32823	 	3.15943E12	 	1.29479E-12	 	-4602.89261	26.96697	 
560.0	1.0	0.0	8.7034	7.14279	-10.4819	13.63291	17.43903	1.17049	0.85434	187.08729	181.38331	70.4346	0.32809	 	3.97356E12	 	1.02336E-12	 	-4737.4895	26.91938	 
555.0	1.0	0.0	8.70545	7.14111	-10.50294	13.61048	17.37885	1.16749	0.85654	187.37667	181.51866	70.55086	0.32795	 	5.01134E12	 	8.0657E-13	 	-4871.84953	26.87201	 
550.0	1.0	0.0	8.70749	7.13944	-10.52392	13.58803	17.31864	1.16448	0.85875	187.66552	181.65334	70.66693	0.32782	 	6.33799E12	 	6.3389E-13	 	-5005.97375	26.82484	 
545.0	1.0	0.0	8.70953	7.13777	-10.54484	13.56558	17.25839	1.16144	0.861	187.95383	181.78734	70.78282	0.32768	 	8.03889E12	 	4.96734E-13	 	-5139.8632	26.77789	 
540.0	1.0	0.0	8.71156	7.1361	-10.56571	13.54311	17.19811	1.15839	0.86326	188.24161	181.92067	70.89853	0.32754	 	1.02261E13	 	3.88103E-13	 	-5273.51896	26.73115	 
535.0	1.0	0.0	8.71359	7.13444	-10.58652	13.52064	17.1378	1.15532	0.86556	188.52885	182.05333	71.01406	0.32741	 	1.30472E13	 	3.02316E-13	 	-5406.94209	26.68463	 
530.0	1.0	0.0	8.71561	7.13279	-10.60727	13.49816	17.07745	1.15223	0.86788	188.81555	182.18532	71.12941	0.32727	 	1.66972E13	 	2.34769E-13	 	-5540.13363	26.63831	 
525.0	1.0	0.0	8.71763	7.13114	-10.62796	13.47566	17.01706	1.14912	0.87023	189.10172	182.31665	71.24457	0.32713	 	2.14343E13	 	1.81745E-13	 	-5673.09463	26.5922	 
520.0	1.0	0.0	8.71964	7.12949	-10.64859	13.45316	16.95664	1.14599	0.87261	189.38735	182.44731	71.35956	0.32699	 	2.76022E13	 	1.40248E-13	 	-5805.82615	26.5463	 
515.0	1.0	0.0	8.72165	7.12785	-10.66917	13.43065	16.89618	1.14284	0.87501	189.67244	182.57731	71.47436	0.32686	 	3.56593E13	 	1.07876E-13	 	-5938.32925	26.50062	 
510.0	1.0	0.0	8.72365	7.12621	-10.68969	13.40813	16.83568	1.13967	0.87744	189.957	182.70665	71.58898	0.32672	 	4.6219E13	 	8.2701E-14	 	-6070.60496	26.45514	 
505.0	1.0	0.0	8.72565	7.12458	-10.71015	13.38559	16.77514	1.13648	0.87991	190.24102	182.83533	71.70343	0.32658	 	6.01059E13	 	6.31878E-14	 	-6202.65435	26.40988	 
500.0	1.0	0.0	8.72765	7.12295	-10.73055	13.36305	16.71456	1.13327	0.8824	190.52451	182.96335	71.81768	0.32645	 	7.84312E13	 	4.81129E-14	 	-6334.47844	26.36482	 
495.0	1.0	0.0	8.72964	7.12133	-10.7509	13.3405	16.65394	1.13004	0.88492	190.80746	183.09071	71.93176	0.32631	 	1.02699E14	 	3.65063E-14	 	-6466.0783	26.31997	 
490.0	1.0	0.0	8.73162	7.11971	-10.77118	13.31794	16.59328	1.12679	0.88748	191.08987	183.21742	72.04566	0.32617	 	1.3495099999999998E14	 	2.76008E-14	 	-6597.45496	26.27533	 
485.0	1.0	0.0	8.7336	7.11809	-10.79141	13.29537	16.53258	1.12352	0.89006	191.37175	183.34348	72.15937	0.32604	 	1.77972E14	 	2.07918E-14	 	-6728.60948	26.2309	 
480.0	1.0	0.0	8.73558	7.11648	-10.81158	13.27279	16.47183	1.12023	0.89268	191.65309	183.46889	72.2729	0.3259	 	2.35571E14	 	1.56044E-14	 	-6859.54288	26.18668	 
475.0	1.0	0.0	8.73755	7.11488	-10.8317	13.2502	16.41104	1.11691	0.89533	191.9339	183.59365	72.38625	0.32576	 	3.12982E14	 	1.16669E-14	 	-6990.25622	26.14267	 
470.0	1.0	0.0	8.73951	7.11328	-10.85175	13.2276	16.35021	1.11357	0.89801	192.21416	183.71776	72.49942	0.32563	 	4.17425E14	 	8.6893E-15	 	-7120.75052	26.09886	 
465.0	1.0	0.0	8.74147	7.11168	-10.87175	13.20499	16.28933	1.11022	0.90073	192.4939	183.84123	72.61241	0.32549	 	5.5889599999999994E14	 	6.44615E-15	 	-7251.02683	26.05526	 
460.0	1.0	0.0	8.74343	7.11009	-10.89168	13.18237	16.22841	1.10684	0.90348	192.77309	183.96405	72.72521	0.32535	 	7.51299E14	 	4.76285E-15	 	-7381.08619	26.01187	 
455.0	1.0	0.0	8.74538	7.10851	-10.91156	13.15974	16.16743	1.10343	0.90626	193.05175	184.08623	72.83783	0.32522	 	1.01405E15	 	3.50468E-15	 	-7510.92962	25.96869	 
450.0	1.0	0.0	8.74733	7.10693	-10.93138	13.1371	16.10641	1.10001	0.90908	193.32987	184.20776	72.95027	0.32508	 	1.37438E15	 	2.56808E-15	 	-7640.55818	25.92571	 
445.0	1.0	0.0	8.74927	7.10535	-10.95114	13.11445	16.04534	1.09656	0.91194	193.60746	184.32866	73.06253	0.32494	 	1.87065E15	 	1.87374E-15	 	-7769.97287	25.88294	 
440.0	1.0	0.0	8.7512	7.10378	-10.97085	13.09179	15.98422	1.09309	0.91484	193.88451	184.44892	73.1746	0.32481	 	2.55715E15	 	1.36117E-15	 	-7899.17475	25.84038	 
435.0	1.0	0.0	8.75313	7.10221	-10.99049	13.06913	15.92305	1.08959	0.91777	194.16102	184.56854	73.28649	0.32467	 	3.51105E15	 	9.84408E-16	 	-8028.16483	25.79802	 
430.0	1.0	0.0	8.75506	7.10065	-11.01008	13.04645	15.86182	1.08608	0.92074	194.437	184.68753	73.3982	0.32454	 	4.84256E15	 	7.08695E-16	 	-8156.94414	25.75586	 
425.0	1.0	0.0	8.75698	7.09909	-11.02961	13.02376	15.80055	1.08254	0.92376	194.71244	184.80588	73.50973	0.3244	 	6.70987E15	 	5.07833E-16	 	-8285.51358	25.71389	 
420.0	1.0	0.0	8.7589	7.09753	-11.04908	13.00106	15.73921	1.07897	0.92681	194.98734	184.92361	73.62107	0.32426	 	9.34107E15	 	3.62174E-16	 	-8413.8744	25.67216	 
415.0	1.0	0.0	8.76081	7.09599	-11.06849	12.97836	15.67782	1.07538	0.9299	195.26171	185.0407	73.73223	0.32413	 	1.30667E16	 	2.57041E-16	 	-8542.02702	25.63052	 
410.0	1.0	0.0	8.76272	7.09444	-11.08784	12.95564	15.61638	1.07177	0.93304	195.53554	185.15716	73.84321	0.32399	 	1.83684E16	 	1.81523E-16	 	-8669.97164	25.58892	 
405.0	1.0	0.0	8.76462	7.0929	-11.10714	12.93291	15.55487	1.06813	0.93621	195.80883	185.273	73.954	0.32386	 	2.59511E16	 	1.27543E-16	 	-8797.70846	25.54736	 
400.0	1.0	0.0	8.76652	7.09137	-11.12637	12.91018	15.49331	1.06447	0.93943	196.08159	185.38821	74.06461	0.32372	 	3.68528E16	 	8.91514E-17	 	-8925.23769	25.50585	 
395.0	1.0	0.0	8.76841	7.08984	-11.14555	12.88743	15.43168	1.06078	0.9427	196.35381	185.5028	74.17504	0.32358	 	5.26095E16	 	6.19864E-17	 	-9052.55953	25.46437	 
390.0	1.0	0.0	8.7703	7.08831	-11.16466	12.86468	15.36999	1.05707	0.94601	196.62549	185.61676	74.28528	0.32345	 	7.55075E16	 	4.28656E-17	 	-9179.67416	25.42293	 
385.0	1.0	0.0	8.77218	7.08679	-11.18372	12.84191	15.30824	1.05333	0.94937	196.89664	185.7301	74.39534	0.32331	 	1.08968E17	 	2.9479E-17	 	-9306.58179	25.38153	 
380.0	1.0	0.0	8.77405	7.08527	-11.20272	12.81914	15.24642	1.04957	0.95277	197.16725	185.84283	74.50522	0.32318	 	1.58142E17	 	2.01582E-17	 	-9433.28261	25.34016	 
375.0	1.0	0.0	8.77593	7.08376	-11.22166	12.79635	15.18454	1.04578	0.95622	197.43732	185.95493	74.61491	0.32304	 	2.3083E17	 	1.37047E-17	 	-9559.77681	25.29884	 
370.0	1.0	0.0	8.77779	7.08226	-11.24054	12.77356	15.12258	1.04196	0.95973	197.70686	186.06642	74.72442	0.32291	 	3.38915E17	 	9.26207E-18	 	-9686.06459	25.25756	 
365.0	1.0	0.0	8.77965	7.08076	-11.25936	12.75075	15.06056	1.03812	0.96328	197.97585	186.1773	74.83375	0.32277	 	5.00614E17	 	6.22166E-18	 	-9812.14615	25.21631	 
360.0	1.0	0.0	8.78151	7.07926	-11.27813	12.72794	14.99846	1.03425	0.96688	198.24432	186.28756	74.94289	0.32264	 	7.4403E17	 	4.15339E-18	 	-9938.02168	25.1751	 
355.0	1.0	0.0	8.78336	7.07777	-11.29683	12.70512	14.93629	1.03035	0.97054	198.51224	186.39721	75.05185	0.3225	 	1.1128E18	 	2.75507E-18	 	-10063.69136	25.13394	 
350.0	1.0	0.0	8.78521	7.07628	-11.31548	12.68228	14.87405	1.02643	0.97425	198.77963	186.50625	75.16062	0.32237	 	1.67514E18	 	1.81564E-18	 	-10189.1554	25.09281	 
345.0	1.0	0.0	8.78705	7.07479	-11.33406	12.65944	14.81173	1.02248	0.97802	199.04648	186.61467	75.26921	0.32223	 	2.53838E18	 	1.18857E-18	 	-10314.41397	25.05172	 
340.0	1.0	0.0	8.78889	7.07332	-11.35259	12.63659	14.74933	1.0185	0.98184	199.31279	186.7225	75.37762	0.3221	 	3.87264E18	 	7.72763E-19	 	-10439.4673	25.01067	 
335.0	1.0	0.0	8.79072	7.07184	-11.37106	12.61373	14.68685	1.01449	0.98572	199.57857	186.82971	75.48584	0.32196	 	5.94941E18	 	4.98911E-19	 	-10564.31556	24.96965	 
330.0	1.0	0.0	8.79255	7.07037	-11.38946	12.59085	14.62428	1.01045	0.98965	199.84381	186.93632	75.59387	0.32183	 	9.20518E18	 	3.19801E-19	 	-10688.95895	24.92868	 
325.0	1.0	0.0	8.79437	7.06891	-11.40781	12.56797	14.56163	1.00639	0.99365	200.10851	187.04233	75.70173	0.32169	 	1.4347E19	 	2.03487E-19	 	-10813.39766	24.88774	 
320.0	1.0	0.0	8.79618	7.06745	-11.4261	12.54508	14.4989	1.0023	0.99771	200.37267	187.14773	75.80939	0.32156	 	2.25287E19	 	1.28503E-19	 	-10937.63189	24.84685	 
315.0	1.0	0.0	8.79799	7.066	-11.44433	12.52218	14.43607	0.99817	1.00183	200.6363	187.25254	75.91688	0.32142	 	3.56488E19	 	8.05248E-20	 	-11061.66186	24.80599	 
310.0	1.0	0.0	8.7998	7.06455	-11.4625	12.49927	14.37316	0.99402	1.00602	200.89939	187.35674	76.02418	0.32129	 	5.68554E19	 	5.00605E-20	 	-11185.48776	24.76518	 
305.0	1.0	0.0	8.8016	7.0631	-11.48061	12.47635	14.31014	0.98983	1.01027	201.16194	187.46035	76.13129	0.32115	 	9.14124E19	 	3.0869E-20	 	-11309.10978	24.7244	 
300.0	1.0	0.0	8.80339	7.06166	-11.49867	12.45342	14.24704	0.98562	1.01459	201.42396	187.56336	76.23822	0.32102	 	1.48196E20	 	1.88764E-20	 	-11432.52815	24.68367	 
295.0	1.0	0.0	8.80518	7.06023	-11.51666	12.43048	14.18383	0.98138	1.01898	201.68544	187.66578	76.34496	0.32088	 	2.4230399999999997E20	 	1.14443E-20	 	-11555.74307	24.64298	 
290.0	1.0	0.0	8.80697	7.05879	-11.53459	12.40753	14.12052	0.9771	1.02344	201.94638	187.7676	76.45152	0.32075	 	3.9964699999999997E20	 	6.87755E-21	 	-11678.75477	24.60234	 
285.0	1.0	0.0	8.80875	7.05737	-11.55246	12.38457	14.05711	0.97279	1.02797	202.20678	187.86883	76.55789	0.32061	 	6.650989999999999E20	 	4.09592E-21	 	-11801.56346	24.56174	 
280.0	1.0	0.0	8.81052	7.05595	-11.57027	12.3616	13.99359	0.96846	1.03257	202.46664	187.96948	76.66408	0.32048	 	1.1171100000000001E21	 	2.41677E-21	 	-11924.16936	24.52118	 
275.0	1.0	0.0	8.81229	7.05453	-11.58803	12.33862	13.92996	0.96409	1.03725	202.72597	188.06953	76.77008	0.32034	 	1.8941400000000001E21	 	1.41245E-21	 	-12046.57272	24.48067	 
270.0	1.0	0.0	8.81406	7.05312	-11.60572	12.31563	13.86621	0.95968	1.04201	202.98476	188.16899	76.8759	0.32021	 	3.24303E21	 	8.17438E-22	 	-12168.77378	24.44021	 
265.0	1.0	0.0	8.81581	7.05171	-11.62335	12.29264	13.80235	0.95525	1.04685	203.24301	188.26787	76.98153	0.32008	 	5.60829E21	 	4.68338E-22	 	-12290.77278	24.3998	 
260.0	1.0	0.0	8.81757	7.05031	-11.64093	12.26963	13.73837	0.95078	1.05177	203.50072	188.36616	77.08698	0.31994	 	9.79876E21	 	2.65561E-22	 	-12412.57	24.35944	 
255.0	1.0	0.0	8.81932	7.04891	-11.65844	12.24661	13.67426	0.94628	1.05677	203.7579	188.46387	77.19224	0.31981	 	1.73022E22	 	1.48985E-22	 	-12534.16569	24.31914	 
250.0	1.0	0.0	8.82106	7.04752	-11.6759	12.22358	13.61003	0.94174	1.06186	204.01454	188.56099	77.29732	0.31967	 	3.0885099999999996E22	 	8.2673E-23	 	-12655.56015	24.27889	 
245.0	1.0	0.0	8.8228	7.04613	-11.69329	12.20054	13.54567	0.93718	1.06704	204.27064	188.65754	77.4022	0.31954	 	5.575129999999999E22	 	4.53614E-23	 	-12776.75365	24.2387	 
240.0	1.0	0.0	8.82453	7.04475	-11.71062	12.1775	13.48117	0.93257	1.0723	204.5262	188.7535	77.50691	0.31941	 	1.0180299999999999E23	 	2.4602E-23	 	-12897.74654	24.19858	 
235.0	1.0	0.0	8.82626	7.04337	-11.7279	12.15444	13.41654	0.92794	1.07766	204.78122	188.84889	77.61142	0.31927	 	1.8810899999999998E23	 	1.31846E-23	 	-13018.53912	24.15852	 
230.0	1.0	0.0	8.82798	7.042	-11.74511	12.13138	13.35176	0.92326	1.08312	205.03571	188.9437	77.71576	0.31914	 	3.51853E23	 	6.97948E-24	 	-13139.13175	24.11853	 
225.0	1.0	0.0	8.82969	7.04063	-11.76227	12.1083	13.28683	0.91855	1.08867	205.28966	189.03793	77.8199	0.319	 	6.66455E23	 	3.64818E-24	 	-13259.5248	24.07861	 
220.0	1.0	0.0	8.8314	7.03926	-11.77936	12.08521	13.22175	0.91381	1.09432	205.54307	189.13159	77.92386	0.31887	 	1.27881E24	 	1.88218E-24	 	-13379.71866	24.03877	 
215.0	1.0	0.0	8.83311	7.0379	-11.79639	12.06212	13.15652	0.90903	1.10007	205.79594	189.22467	78.02763	0.31874	 	2.48679E24	 	9.5808E-25	 	-13499.71376	23.99902	 
210.0	1.0	0.0	8.83481	7.03655	-11.81337	12.03901	13.09112	0.90421	1.10593	206.04827	189.31719	78.13122	0.3186	 	4.90286E24	 	4.80972E-25	 	-13619.51055	23.95936	 
205.0	1.0	0.0	8.8365	7.0352	-11.83028	12.0159	13.02556	0.89936	1.1119	206.30006	189.40913	78.23461	0.31847	 	9.80451E24	 	2.38026E-25	 	-13739.10951	23.91979	 
200.0	1.0	0.0	8.83819	7.03386	-11.84713	11.99277	12.95982	0.89447	1.11798	206.55132	189.50051	78.33783	0.31834	 	1.98959E25	 	1.1607E-25	 	-13858.51117	23.88033	 
195.0	1.0	0.0	8.83988	7.03252	-11.86392	11.96964	12.89391	0.88954	1.12417	206.80204	189.59131	78.44085	0.3182	 	4.0988900000000005E25	 	5.57449E-26	 	-13977.71609	23.84099	 
190.0	1.0	0.0	8.84156	7.03118	-11.88066	11.9465	12.82781	0.88458	1.13048	207.05221	189.68155	78.54369	0.31807	 	8.577230000000001E25	 	2.63549E-26	 	-14096.72488	23.80176	 
185.0	1.0	0.0	8.84323	7.02985	-11.89733	11.92334	12.76152	0.87957	1.13692	207.30185	189.77122	78.64634	0.31794	 	1.8240100000000002E26	 	1.22594E-26	 	-14215.53822	23.76267	 
180.0	1.0	0.0	8.8449	7.02853	-11.91394	11.90018	12.69504	0.87453	1.14347	207.55096	189.86033	78.74881	0.3178	 	3.94401E26	 	5.60778E-27	 	-14334.1568	23.72372	 
175.0	1.0	0.0	8.84656	7.02721	-11.93049	11.87701	12.62835	0.86945	1.15016	207.79952	189.94888	78.85108	0.31767	 	8.676050000000001E26	 	2.52109E-27	 	-14452.58145	23.68493	 
170.0	1.0	0.0	8.84822	7.02589	-11.94698	11.85382	12.56145	0.86433	1.15697	208.04754	190.03687	78.95317	0.31754	 	1.9428199999999998E27	 	1.11328E-27	 	-14570.813	23.64631	 
165.0	1.0	0.0	8.84987	7.02458	-11.96341	11.83063	12.49433	0.85916	1.16392	208.29503	190.12429	79.05508	0.3174	 	4.4313199999999996E27	 	4.82588E-28	 	-14688.85241	23.60788	 
160.0	1.0	0.0	8.85151	7.02327	-11.97978	11.80743	12.42699	0.85396	1.17101	208.54197	190.21116	79.15679	0.31727	 	1.03015E28	 	2.05222E-28	 	-14806.7007	23.56966	 
155.0	1.0	0.0	8.85315	7.02197	-11.99609	11.78422	12.35941	0.84872	1.17825	208.78838	190.29746	79.25832	0.31714	 	2.44246E28	 	8.55571E-29	 	-14924.35902	23.53166	 
150.0	1.0	0.0	8.85479	7.02067	-12.01233	11.76099	12.29159	0.84344	1.18563	209.03425	190.38322	79.35966	0.31701	 	5.91034E28	 	3.49437E-29	 	-15041.82862	23.49392	 
145.0	1.0	0.0	8.85642	7.01938	-12.02852	11.73776	12.22351	0.83811	1.19316	209.27958	190.46841	79.46081	0.31687	 	1.46075E29	 	1.39715E-29	 	-15159.11088	23.45645	 
140.0	1.0	0.0	8.85804	7.0181	-12.04465	11.71452	12.15518	0.83275	1.20085	209.52437	190.55305	79.56178	0.31674	 	3.69021E29	 	5.46441E-30	 	-15276.20734	23.41929	 
135.0	1.0	0.0	8.85966	7.01681	-12.06071	11.69127	12.08657	0.82734	1.2087	209.76862	190.63714	79.66255	0.31661	 	9.53647E29	 	2.08891E-30	 	-15393.11969	23.38247	 
130.0	1.0	0.0	8.86127	7.01554	-12.07672	11.66801	12.01768	0.82189	1.21671	210.01233	190.72068	79.76314	0.31647	 	2.5232E30	 	7.79833E-31	 	-15509.84982	23.34603	 
125.0	1.0	0.0	8.86288	7.01427	-12.09266	11.64474	11.9485	0.81639	1.2249	210.2555	190.80367	79.86354	0.31634	 	6.841149999999999E30	 	2.84056E-31	 	-15626.39981	23.31	 
120.0	1.0	0.0	8.86448	7.013	-12.10854	11.62146	11.87901	0.81086	1.23326	210.49813	190.8861	79.96375	0.31621	 	1.9025E31	 	1.0086E-31	 	-15742.77202	23.27444	 
115.0	1.0	0.0	8.86608	7.01174	-12.12436	11.59817	11.8092	0.80528	1.24181	210.74022	190.96799	80.06378	0.31608	 	5.4320499999999995E31	 	3.48757E-32	 	-15858.96904	23.23941	 
110.0	1.0	0.0	8.86767	7.01048	-12.14012	11.57487	11.73906	0.79965	1.25054	210.98178	191.04934	80.16361	0.31594	 	1.59402E32	 	1.17317E-32	 	-15974.99382	23.20496	 
105.0	1.0	0.0	8.86925	7.00923	-12.15582	11.55156	11.66858	0.79398	1.25947	211.22279	191.13013	80.26326	0.31581	 	4.81271E32	 	3.83496E-33	 	-16090.84964	23.17116	 
100.0	1.0	0.0	8.87083	7.00798	-12.17146	11.52824	11.59773	0.78827	1.2686	211.46326	191.21038	80.36272	0.31568	 	1.49674E33	 	1.21682E-33	 	-16206.54022	23.13812	 
95.0	1.0	0.0	8.87241	7.00673	-12.18704	11.50492	11.52651	0.78252	1.27793	211.7032	191.29009	80.46199	0.31555	 	4.80049E33	 	3.74305E-34	 	-16322.06975	23.10591	 
90.0	1.0	0.0	8.87397	7.0055	-12.20256	11.48158	11.4549	0.77671	1.28748	211.94259	191.36926	80.56107	0.31542	 	1.5898800000000002E34	 	1.11483E-34	 	-16437.44298	23.07465	 
85.0	1.0	0.0	8.87554	7.00426	-12.21801	11.45823	11.38288	0.77087	1.29724	212.18145	191.44789	80.65996	0.31528	 	5.444550000000001E34	 	3.21063E-35	 	-16552.66534	23.04447	 
80.0	1.0	0.0	8.87709	7.00304	-12.23341	11.43487	11.31042	0.76497	1.30723	212.41976	191.52597	80.75867	0.31515	 	1.9306299999999998E35	 	8.92785E-36	 	-16667.74304	23.01554	 
75.0	1.0	0.0	8.87864	7.00181	-12.24874	11.4115	11.23752	0.75904	1.31746	212.65754	191.60352	80.85718	0.31502	 	7.09947E35	 	2.39347E-36	 	-16782.68319	22.98803	 
70.0	1.0	0.0	8.88019	7.00059	-12.26401	11.38813	11.16415	0.75305	1.32793	212.89477	191.68053	80.95551	0.31489	 	2.71165E36	 	6.17642E-37	 	-16897.49405	22.96217	 
65.0	1.0	0.0	8.88173	6.99938	-12.27922	11.36474	11.09028	0.74702	1.33865	213.13147	191.757	81.05364	0.31476	 	1.0775899999999999E37	 	1.53159E-37	 	-17012.18521	22.93823	 
60.0	1.0	0.0	8.88326	6.99817	-12.29437	11.34134	11.0159	0.74094	1.34963	213.36762	191.83294	81.15159	0.31462	 	4.463319999999999E37	 	3.64308E-38	 	-17126.76791	22.91654	 
55.0	1.0	0.0	8.88479	6.99697	-12.30946	11.31794	10.94097	0.73482	1.36087	213.60323	191.90835	81.24935	0.31449	 	1.93051E38	 	8.29634E-39	 	-17241.25542	22.8975	 
50.0	1.0	0.0	8.88631	6.99577	-12.32448	11.29452	10.86548	0.72865	1.37239	213.83831	191.98322	81.34692	0.31436	 	8.73712E38	 	1.80519E-39	 	-17355.6636	22.88164	 
45.0	1.0	0.0	8.88783	6.99457	-12.33945	11.2711	10.78938	0.72244	1.3842	214.07284	192.05756	81.4443	0.31423	 	4.1464300000000006E39	 	3.74494E-40	 	-17470.01153	22.86959	 
40.0	1.0	0.0	8.88934	6.99338	-12.35435	11.24766	10.71265	0.71618	1.3963	214.30683	192.13137	81.54148	0.3141	 	2.06812E40	 	7.39031E-41	 	-17584.32247	22.86219	 
35.0	1.0	0.0	8.89085	6.9922	-12.36919	11.22421	10.63525	0.70987	1.4087	214.54028	192.20465	81.63848	0.31397	 	1.08674E41	 	1.38396E-41	 	-17698.62522	22.86055	 
30.0	1.0	0.0	8.89235	6.99102	-12.38397	11.20076	10.55715	0.70352	1.42142	214.7732	192.2774	81.73529	0.31383	 	6.03179E41	 	2.453E-42	 	-17812.95587	22.86613	 
25.0	1.0	0.0	8.89384	6.98985	-12.39869	 	10.47831	0.69712	1.43447	215.00557	192.34963	81.83191	0.3137	 	3.54593E42	 	4.10385E-43	 	-17927.36048	 	 
