T (C)	Fraction solid (wt)-TOTAL	Fraction liquid (wt)-LIQUID	Density (g/(cm)^3)-TOTAL	Molar volume (cm^3)-TOTAL	Volume change (%)-  	Average expansion coeff. (10e-6 1/K)-  	Thermal conductivity (W/(m*K))-TOTAL	Electrical resistivity (10e-6 Ohm*m)-TOTAL	Electrical conductivity (10e6 1/(Ohm*m))-TOTAL	Young's modulus (GPa)-TOTAL	Bulk modulus (GPa)-TOTAL	Shear modulus(GPa)-TOTAL	Poisson's ratio-TOTAL	Liquid viscosity (mPa s)-  	Total viscosity (mPa s)-  	Liquid diffusivity (10e-9 (m^2)/s)-  	Total diffusivity (10e-9 (m^2)/s)-  	Surface Tension (mN/m)-  	Enthalpy (J/mole)-TOTAL	Specific heat (J/(mole K))-TOTAL	Latent heat (J/mole)-TOTAL
1400.0	0.0	1.0	7.57203	7.9863	0.0	34.99898	32.52718	1.26024	0.7935	0.0	124.87754	0.0	0.5	7.20782	7.20782	1.13297	1.13297	1869.28428	40127.66	 	0.0
1395.0	0.0	1.0	7.57648	7.98161	-0.0586776	34.96334	32.44189	1.25978	0.79379	0.0	125.01354	0.0	0.5	7.28682	7.28682	1.11734	1.11734	1872.02153	39929.267	39.6786	0.0
1390.0	0.0	1.0	7.58091	7.97694	-0.11719	34.92789	32.35659	1.25932	0.79408	0.0	125.14953	0.0	0.5	7.36718	7.36718	1.10184	1.10184	1874.76667	39731.308	39.5918	0.0
1385.0	0.0	1.0	7.58535	7.97228	-0.17554	34.89265	32.2713	1.25885	0.79438	0.0	125.28553	0.0	0.5	7.44891	7.44891	1.08647	1.08647	1877.51987	39533.779	39.5058	0.0
1380.0	0.0	1.0	7.58977	7.96763	-0.23372	34.85761	32.186	1.25838	0.79467	0.0	125.42153	0.0	0.5	7.53204	7.53204	1.07124	1.07124	1880.28128	39336.679	39.42	0.0
1375.48	0.0	1.0	7.59376	7.96344	-0.28617	34.82612	32.10891	1.25795	0.79494	0.0	125.54445	0.0	0.5	7.60843	7.60843	1.05758	1.05758	1882.78434	39158.903	39.3382	0.0
1375.0	0.01319	0.98681	7.5989	7.9581	-0.3531	34.64938	32.14042	1.25635	0.79596	2.75634E-6	125.89839	9.19718E-7	0.49847	7.61596	7.75046	1.05623	1.0379	1883.08528	38939.792	455.69328	200.206
1370.0	0.14471	0.85529	7.65005	7.90486	-1.01975	32.88751	32.45671	1.24033	0.80623	0.041323	129.41272	0.0139321	0.48301	7.69777	13.70742	1.04184	0.58507	1886.215	36755.527	436.853	2188.219
1365.0	0.25472	0.74528	7.69377	7.85994	-1.58213	31.40929	32.71752	1.2267	0.81519	0.40765	132.39837	0.13867	0.46985	7.78419	55.21083	1.02713	0.14482	1889.33629	34907.894	369.5266	3840.018
1360.0	0.34738	0.65262	7.73135	7.82172	-2.06078	30.15926	32.9322	1.21499	0.82305	1.44322	134.95326	0.49473	0.45859	7.87511	173.50903	1.01218	0.04594	1892.44588	33332.544	315.07	5219.948
1355.0	0.42595	0.57405	7.76382	7.78901	-2.47038	29.09788	33.10835	1.20482	0.83	3.32853	137.15758	1.14864	0.4489	7.97028	396.57764	0.99703	0.0200379	1895.53917	31978.519	270.805	6378.968
1350.0	0.49298	0.50702	7.79205	7.76073	-2.82437	28.18857	33.25152	1.19595	0.83615	6.0775	139.07391	2.10947	0.44052	8.06971	737.16955	0.98172	0.0107468	1898.61445	30805.325	234.6388	7357.565
1345.0	0.55052	0.44948	7.81676	7.73613	-3.13245	27.40505	33.36651	1.18816	0.84164	9.59792	140.75384	3.34832	0.43324	8.17327	1197.50899	0.96629	0.00659518	1901.66874	29780.651	204.9348	8188.05
1340.0	0.60018	0.39982	7.83847	7.71459	-3.40214	26.72691	33.45708	1.18128	0.84654	13.74391	142.23696	4.81606	0.42688	8.28085	1773.59422	0.95079	0.00443923	1904.69907	28878.602	180.4098	8896.315
1335.0	0.64326	0.35674	7.85769	7.6956	-3.64	26.1363	33.52653	1.17518	0.85093	18.35632	143.55654	6.45757	0.4213	8.39248	2458.75809	0.93524	0.00319225	1907.70369	28078.33	160.0544	9503.204
1330.0	0.68081	0.31919	7.87475	7.67875	-3.85097	25.61977	33.57759	1.16974	0.85489	23.28379	144.73838	8.21945	0.41638	8.50799	3245.80414	0.91967	0.00241067	1910.68007	27362.969	143.0722	10025.582
1325.0	0.71367	0.28633	7.89	7.6637	-4.03935	25.16555	33.6127	1.16488	0.85846	28.39544	145.80404	10.05483	0.41203	8.62736	4128.39961	0.90412	0.00188939	1913.62634	26718.809	128.832	10477.154
1320.0	0.74258	0.25742	7.90369	7.6502	-4.20845	24.76463	33.63391	1.1605	0.8617	33.5816	146.77132	11.92395	0.40816	8.75066	5101.28198	0.88859	0.00152428	1916.54232	26134.649	116.832	10869.119
1315.0	0.76808	0.23192	7.91606	7.63798	-4.36148	24.40809	33.64298	1.15655	0.86464	38.75698	147.65477	13.79548	0.4047	8.87784	6160.93999	0.87311	0.00125815	1919.42414	25601.295	106.6708	11210.669
1310.0	0.79067	0.20933	7.92726	7.6269	-4.50021	24.09125	33.6415	1.15296	0.86734	43.85588	148.46643	15.64494	0.4016	9.00883	7305.57594	0.85771	0.00105768	1922.2697	25111.164	98.0262	11509.384
1305.0	0.81075	0.18925	7.93746	7.61677	-4.62699	23.80752	33.63075	1.14968	0.86981	48.83037	149.21621	17.45426	0.39881	9.14366	8534.75746	0.84239	9.02493E-4	1925.07909	24657.972	90.6384	11771.547
1300.0	0.82867	0.17133	7.94679	7.6075	-4.74308	23.55356	33.61189	1.14668	0.87208	53.64432	149.91243	19.20957	0.39629	9.28234	9849.33106	0.82718	7.79561E-4	1927.84911	24236.485	84.2974	12002.386
1300.0	0.82868	0.17132	7.9468	7.60748	-4.74329	23.55302	33.61183	1.14668	0.87208	53.64761	149.91276	19.21079	0.39629	9.28245	9850.37606	0.82717	7.79476E-4	1927.85244	24236.104	 	12002.585
1295.0	0.84812	0.15188	7.95805	7.59627	-4.8837	23.22392	33.45923	1.14825	0.87089	59.41568	150.65735	21.32237	0.39327	9.45212	11454.09101	0.80974	6.68211E-4	1931.61624	23751.337	97.0296	12297.266
1290.0	0.86473	0.13527	7.96794	7.58636	-5.0078	22.94151	33.31914	1.1494	0.87002	64.75019	151.32947	23.28046	0.39065	9.62597	13127.99853	0.79258	5.81151E-4	1935.34429	23312.708	87.7258	12546.006
1285.0	0.87903	0.12097	7.97671	7.57755	-5.11815	22.69847	33.18935	1.15021	0.86941	69.6676	151.94303	25.08971	0.38837	9.80381	14877.4755	0.77571	5.11172E-4	1939.02777	22911.743	80.193	12757.457
1280.0	0.89142	0.10858	7.98455	7.5696	-5.21768	22.48638	33.06784	1.15073	0.86901	74.19374	152.50792	26.75853	0.38636	9.98577	16709.44586	0.75913	4.53668E-4	1942.66956	22541.526	74.0434	12938.533
1275.0	0.90224	0.0977597	7.99163	7.56238	-5.30805	22.30054	32.95317	1.15102	0.8688	78.36124	153.03283	28.29805	0.38457	10.1719	18633.54368	0.74284	4.05513E-4	1946.26623	22196.66	68.9732	13094.628
1270.0	0.91174	0.0882566	7.99808	7.55576	-5.39093	22.13618	32.84412	1.15111	0.86873	82.20493	153.5243	29.72043	0.38297	10.36226	20660.50781	0.72684	3.64547E-4	1949.81782	21872.883	64.7554	13230.001
1265.0	0.92014	0.0798643	8.004	7.54965	-5.46747	21.98997	32.73969	1.15104	0.86878	85.75131	153.98727	31.0349	0.38153	10.55709	22800.48779	0.71112	3.29262E-4	1953.32412	21566.797	61.2172	13348.05
1260.0	0.92758	0.0724156	8.00947	7.54395	-5.53879	21.85869	32.63909	1.15083	0.86893	89.03177	154.42591	32.25262	0.38023	10.75644	25066.07285	0.69567	2.98528E-4	1956.78597	21275.665	58.2264	13451.508
1255.0	0.93423	0.0657707	8.01456	7.53862	-5.60555	21.74053	32.54166	1.15052	0.86918	92.07218	154.84367	33.3828	0.37904	10.96041	27469.92142	0.6805	2.71516E-4	1960.20172	20997.263	55.6804	13542.597
1250.0	0.94018	0.0598167	8.01929	7.53344	-5.67046	21.62712	32.42258	1.15096	0.86884	94.92858	155.21835	34.44721	0.37788	11.16902	30026.23098	0.6656	2.47587E-4	1963.11096	20715.17366	56.41787	13623.137
1245.0	0.94554	0.0544581	8.02814	7.52679	-5.75366	21.45564	32.0677	1.15988	0.86216	98.06435	155.46115	35.63064	0.37612	11.38247	33175.61095	0.65098	2.23348E-4	1965.99348	20331.47804	76.73912	13694.627
1240.0	0.95038	0.049618	8.03647	7.52035	-5.83437	21.29054	31.72888	1.1684	0.85587	101.01143	155.68462	36.7456	0.37447	11.60088	36586.43555	0.63662	2.01859E-4	1968.84899	19959.6363	74.36835	13758.313
1235.0	0.95477	0.0452291	8.0443	7.51407	-5.91293	21.13083	31.40451	1.17657	0.84993	103.78642	155.89152	37.79791	0.37291	11.82438	40284.37521	0.62252	1.82724E-4	1971.67951	19598.45052	72.23716	13815.238
1230.0	0.95876	0.0412362	8.05169	7.50796	-5.98942	20.97639	31.0933	1.18441	0.8443	106.40324	156.0842	38.79246	0.37144	12.05314	44297.10522	0.60868	1.6562E-4	1974.48294	19246.89598	70.31091	13866.279
1225.0	0.96241	0.0375907	8.05866	7.502	-6.06409	20.82641	30.79426	1.19193	0.83897	108.87526	156.26433	39.734	0.37005	12.28719	48654.99396	0.5951	1.50285E-4	1977.26227	18904.0942	68.56036	13912.177
1220.0	0.96575	0.0342533	8.06523	7.49618	-6.13703	20.68074	30.50653	1.19916	0.83392	111.21445	156.43344	40.62678	0.36873	12.52672	53391.26778	0.58177	1.36496E-4	1980.01634	18569.27962	66.96292	13953.562
1215.0	0.96935	0.0306517	8.0715	7.49018	-6.21214	20.52687	30.23825	1.20575	0.82936	113.71486	156.61642	41.58058	0.3674	12.81009	58670.57009	0.567	1.23798E-4	1982.75953	18234.86621	66.88268	13997.896
1210.0	0.9733	0.0266994	8.07739	7.48396	-6.28995	20.363	29.98879	1.21169	0.82529	116.42496	156.81654	42.61378	0.36605	13.14839	64583.69269	0.55055	1.12085E-4	1985.49446	17899.67705	67.03783	14046.235
1205.0	0.97683	0.023174	8.08284	7.47796	-6.36512	20.20628	29.746	1.21746	0.82138	118.93517	157.00094	43.57304	0.36478	13.49481	70994.60864	0.53461	1.0162E-4	1988.20641	17573.6222	65.21097	14088.555
1200.0	0.97998	0.0200177	8.08787	7.47215	-6.4379	20.056	29.50976	1.22306	0.81762	121.26658	157.1715	44.466	0.36359	13.8496	77952.92681	0.51915	9.22362E-5	1990.89519	17255.7147	63.5815	14125.735
1195.0	0.98282	0.0171791	8.09252	7.46651	-6.50852	19.91145	29.27988	1.22848	0.81402	123.43766	157.32979	45.29941	0.36246	14.21274	85512.84791	0.50417	8.37965E-5	1993.56252	16945.1232	62.1183	14158.501
1190.0	0.98538	0.0146185	8.09683	7.46103	-6.57715	19.77219	29.05623	1.23372	0.81056	125.46495	157.47721	46.07929	0.3614	14.58425	93733.92712	0.48966	7.61866E-5	1996.20751	16641.13904	60.79683	14187.465
1185.0	0.9877	0.0122995	8.10084	7.45569	-6.64395	19.63774	28.83862	1.23878	0.80725	127.36262	157.61504	46.81082	0.3604	14.96443	102681.6252	0.47559	6.931E-5	1998.82958	16343.15514	59.59678	14213.138
1180.0	0.98981	0.0101929	8.10456	7.45049	-6.70913	19.50751	28.6269	1.24366	0.80408	129.14425	157.74437	47.49899	0.35944	15.35391	112428.2648	0.46193	6.30844E-5	2001.43168	16050.65076	58.50088	14235.953
1175.0	0.99171	0.00829147	8.10806	7.44542	-6.77255	19.38194	28.42059	1.24838	0.80104	130.80974	157.86574	48.14367	0.35854	15.74862	123042.8017	0.44881	5.74439E-5	2004.01534	15763.17323	57.49551	14256.276
1170.0	0.9934	0.00659764	8.1115	7.44054	-6.8337	19.26286	28.21799	1.253	0.79808	132.35302	157.98052	48.74252	0.35768	16.12877	134592.2132	0.43671	5.23333E-5	2006.58946	15479.46872	56.7409	14275.279
1165.0	0.99495	0.00504834	8.11475	7.43576	-6.89346	19.14738	28.02101	1.25744	0.79527	133.81096	158.08939	49.30929	0.35685	16.51748	147196.339	0.42496	4.76863E-5	2009.14477	15200.02806	55.88813	14292.394
1160.0	0.99637	0.00362627	8.11782	7.4311	-6.95193	19.03523	27.82905	1.26171	0.79258	135.19187	158.19308	49.84708	0.35607	16.91518	160960.8891	0.41352	4.34568E-5	2011.68008	14924.55555	55.0945	14307.84
1155.0	0.99768	0.00231843	8.12074	7.42652	-7.00918	18.92621	27.64243	1.2658	0.79002	136.50139	158.29211	50.35794	0.35531	17.32201	176000.3522	0.4024	3.96047E-5	2014.19668	14652.7887	54.35337	14321.811
1150.0	0.99889	0.00111293	8.12351	7.42204	-7.0653	18.82003	27.46027	1.26973	0.78757	137.74683	158.38707	50.84461	0.35459	17.7385	192443.8716	0.39158	3.60939E-5	2016.69723	14384.49615	53.65851	14334.47
1145.0	1.0	0.0	8.12615	7.41765	-7.12034	18.71658	27.28158	1.27356	0.7852	138.93244	158.47838	51.30865	0.35389	 	210431.3257	 	3.28926E-5	 	14119.46441	53.00635	14345.962
1140.0	1.0	0.0	8.13023	7.41392	-7.16693	18.64113	27.10198	1.27748	0.78279	139.50579	158.54055	51.54115	0.35334	 	230084.3098	 	2.9977E-5	 	13995.99874	24.69313	 
1135.0	1.0	0.0	8.13427	7.41024	-7.21305	18.56661	26.92673	1.28124	0.78049	140.06764	158.60259	51.76912	0.35281	 	251751.9993	 	2.73E-5	 	13766.95713	45.80832	 
1130.0	1.0	0.0	8.13828	7.4066	-7.25871	18.49299	26.75563	1.28486	0.7783	140.61847	158.66461	51.99273	0.35229	 	275658.2258	 	2.48439E-5	 	13539.62095	45.46724	 
1125.0	1.0	0.0	8.14225	7.40298	-7.30393	18.42024	26.5885	1.28833	0.7762	141.15875	158.7267	52.21217	0.35178	 	302053.5565	 	2.25921E-5	 	13313.94026	45.13614	 
1120.0	1.0	0.0	8.14618	7.39941	-7.34872	18.34832	26.42519	1.29165	0.7742	141.68894	158.78893	52.42761	0.35128	 	331218.6595	 	2.05291E-5	 	13089.86719	44.81461	 
1115.0	1.0	0.0	8.15009	7.39586	-7.39309	18.27721	26.26553	1.29484	0.7723	142.20944	158.8514	52.6392	0.35079	 	363468.2175	 	1.86405E-5	 	12867.35586	44.50227	 
1110.0	1.0	0.0	8.15396	7.39235	-7.43705	18.20689	26.10936	1.29789	0.77048	142.72067	158.91417	52.8471	0.35032	 	399155.2677	 	1.69127E-5	 	12646.36238	44.19869	 
1105.0	1.0	0.0	8.1578	7.38887	-7.48061	18.13731	25.95655	1.30082	0.76875	143.22301	158.97731	53.05147	0.34985	 	438676.2564	 	1.53334E-5	 	12426.84421	43.90363	 
1100.0	1.0	0.0	8.16161	7.38543	-7.52379	18.06846	25.80696	1.30361	0.7671	143.71684	159.04089	53.25244	0.34939	 	482476.6527	 	1.38908E-5	 	12208.76092	43.61666	 
1095.0	1.0	0.0	8.16538	7.38201	-7.56658	18.00032	25.66046	1.30628	0.76553	144.2025	159.10495	53.45014	0.34894	 	531057.4802	 	1.25742E-5	 	11992.07355	43.33747	 
1090.0	1.0	0.0	8.16913	7.37862	-7.60901	17.93285	25.51693	1.30882	0.76404	144.68034	159.16957	53.64472	0.34851	 	584982.6763	 	1.13733E-5	 	11776.74468	43.06578	 
1085.0	1.0	0.0	8.17286	7.37526	-7.65109	17.86604	25.37625	1.31125	0.76263	145.15069	159.23478	53.83629	0.34807	 	644887.5031	 	1.0279E-5	 	11562.73828	42.80128	 
1080.0	1.0	0.0	8.17655	7.37193	-7.69281	17.79986	25.23831	1.31357	0.76129	145.61384	159.30063	54.02498	0.34765	 	711488.1895	 	9.2825E-6	 	11350.01977	42.5437	 
1075.0	1.0	0.0	8.18022	7.36862	-7.73419	17.73429	25.103	1.31577	0.76001	146.07012	159.36717	54.2109	0.34724	 	785592.8997	 	8.37582E-6	 	11138.55582	42.29279	 
1070.0	1.0	0.0	8.18386	7.36534	-7.77523	17.66931	24.97023	1.31786	0.75881	146.51979	159.43444	54.39416	0.34683	 	868114.3244	 	7.55152E-6	 	10928.31439	42.04829	 
1065.0	1.0	0.0	8.18747	7.36209	-7.81595	17.6049	24.83989	1.31984	0.75767	146.96313	159.50248	54.57487	0.34644	 	960084.069	 	6.80271E-6	 	10719.26458	41.80996	 
1060.0	1.0	0.0	8.19106	7.35887	-7.85636	17.54104	24.7119	1.32172	0.75659	147.40042	159.57132	54.75314	0.34605	 	1062669.168	 	6.12305E-6	 	10511.37669	41.57758	 
1055.0	1.0	0.0	8.19463	7.35566	-7.89645	17.47771	24.58618	1.32349	0.75558	147.8319	159.641	54.92905	0.34566	 	1177191.002	 	5.50664E-6	 	10304.62203	41.35093	 
1050.0	1.0	0.0	8.19817	7.35249	-7.93624	17.4149	24.45992	1.32532	0.75454	148.25781	159.71155	55.10272	0.34529	 	1305147.041	 	4.94808E-6	 	10098.97298	41.12981	 
1045.0	1.0	0.0	8.20169	7.34933	-7.97573	17.35258	24.33843	1.3269	0.75364	148.67839	159.78299	55.27421	0.34492	 	1448235.814	 	4.44234E-6	 	9894.40289	40.91402	 
1040.0	1.0	0.0	8.20518	7.3462	-8.01493	17.29073	24.21898	1.32839	0.75279	149.09386	159.85536	55.44364	0.34455	 	1608385.64	 	3.98484E-6	 	9690.88605	40.70337	 
1035.0	1.0	0.0	8.20866	7.34309	-8.05385	17.22935	24.10149	1.32978	0.752	149.50445	159.92869	55.61107	0.3442	 	1787787.697	 	3.57132E-6	 	9488.39812	40.49759	 
1030.0	1.0	0.0	8.21211	7.34001	-8.09249	17.16841	23.98589	1.33108	0.75127	149.91035	160.00298	55.7766	0.34385	 	1988934.201	 	3.19787E-6	 	9286.91419	40.29679	 
1025.0	1.0	0.0	8.21554	7.33694	-8.13085	17.1079	23.87211	1.33229	0.75058	150.31178	160.07828	55.9403	0.3435	 	2214662.315	 	2.86091E-6	 	9086.4119	40.10046	 
1020.0	1.0	0.0	8.21895	7.3339	-8.16895	17.0478	23.76009	1.33342	0.74995	150.69392	160.13866	56.09666	0.34316	 	2468204.913	 	2.55714E-6	 	8886.8694	39.9085	 
1015.0	1.0	0.0	8.22233	7.33088	-8.20679	16.9881	23.64978	1.33446	0.74937	151.08714	160.21625	56.25699	0.34283	 	2753249.358	 	2.28353E-6	 	8688.26438	39.721	 
1010.0	1.0	0.0	8.2257	7.32788	-8.24438	16.92878	23.54111	1.33542	0.74883	151.47643	160.29489	56.4157	0.3425	 	3074005.373	 	2.03732E-6	 	8490.57592	39.53769	 
1005.0	1.0	0.0	8.22905	7.3249	-8.28171	16.86984	23.43404	1.33629	0.74834	151.86196	160.3746	56.57288	0.34218	 	3435283.678	 	1.81596E-6	 	8293.78382	39.35842	 
1000.0	1.0	0.0	8.23238	7.32193	-8.3188	16.81125	23.32851	1.33708	0.7479	152.24391	160.4554	56.72857	0.34186	 	3842587.202	 	1.61712E-6	 	8097.8685	39.18306	 
995.0	1.0	0.0	8.23569	7.31899	-8.35565	16.753	23.22446	1.3378	0.7475	152.62242	160.5373	56.88285	0.34155	 	4302216.874	 	1.43868E-6	 	7902.81104	39.01149	 
990.0	1.0	0.0	8.23898	7.31607	-8.39226	16.69508	23.12186	1.33844	0.74714	152.99764	160.62031	57.03577	0.34124	 	4821394.566	 	1.2787E-6	 	7708.59309	38.84359	 
985.0	1.0	0.0	8.24225	7.31316	-8.42864	16.63748	23.02066	1.339	0.74683	153.36974	160.70445	57.18739	0.34094	 	5408406.112	 	1.1354E-6	 	7515.19689	38.67924	 
980.0	1.0	0.0	8.24551	7.31027	-8.46479	16.58018	22.92082	1.33949	0.74655	153.73884	160.78972	57.33777	0.34064	 	6072767.639	 	1.00717E-6	 	7322.60524	38.51833	 
975.0	1.0	0.0	8.24875	7.3074	-8.50072	16.52318	22.82228	1.3399	0.74632	154.10508	160.87614	57.48696	0.34035	 	6825419.691	 	8.92533E-7	 	7130.80135	38.36078	 
970.0	1.0	0.0	8.25197	7.30455	-8.53643	16.46645	22.72502	1.34025	0.74613	154.4686	160.96372	57.63502	0.34006	 	7678953.348	 	7.90148E-7	 	6939.76927	38.20642	 
965.0	1.0	0.0	8.25517	7.30172	-8.57192	16.41	22.629	1.34052	0.74598	154.82953	161.05247	57.78199	0.33977	 	8647874.752	 	6.98796E-7	 	6749.49321	38.05521	 
960.0	1.0	0.0	8.25836	7.2989	-8.60721	16.3538	22.53418	1.34073	0.74586	155.18797	161.14239	57.92793	0.33949	 	9748913.944	 	6.17371E-7	 	6559.95796	37.90705	 
955.0	1.0	0.0	8.26153	7.2961	-8.64229	16.29785	22.44052	1.34086	0.74579	155.54406	161.2335	58.07287	0.33921	 	1.100138684E7	 	5.44867E-7	 	6371.14874	37.76184	 
950.0	1.0	0.0	8.26468	7.29331	-8.67716	16.24214	22.34799	1.34093	0.74575	155.89791	161.32579	58.21687	0.33894	 	1.242761895E7	 	4.80373E-7	 	6183.05126	37.6195	 
945.0	1.0	0.0	8.26782	7.29054	-8.71183	16.18665	22.25656	1.34094	0.74575	156.24962	161.41928	58.35998	0.33867	 	1.405344284E7	 	4.23063E-7	 	5995.6516	37.47993	 
940.0	1.0	0.0	8.27095	7.28779	-8.74631	16.13137	22.16619	1.34088	0.74578	156.5993	161.51397	58.50222	0.3384	 	1.590878238E7	 	3.7219E-7	 	5808.93624	37.34307	 
935.0	1.0	0.0	8.27405	7.28505	-8.78059	16.0763	22.07687	1.34076	0.74585	156.94706	161.60987	58.64365	0.33814	 	1.802833943E7	 	3.27078E-7	 	5622.89206	37.20884	 
930.0	1.0	0.0	8.27715	7.28233	-8.81468	16.02143	21.98855	1.34057	0.74595	157.293	161.70698	58.7843	0.33788	 	2.045240271E7	 	2.87119E-7	 	5437.5063	37.07715	 
925.0	1.0	0.0	8.28023	7.27962	-8.84858	15.96674	21.90122	1.34032	0.74609	157.6372	161.80531	58.92421	0.33763	 	2.3227801E7	 	2.51762E-7	 	5252.76659	36.94794	 
920.0	1.0	0.0	8.28329	7.27693	-8.8823	15.91223	21.81484	1.34001	0.74626	157.97976	161.90486	59.06342	0.33737	 	2.640902808E7	 	2.20511E-7	 	5068.66086	36.82115	 
915.0	1.0	0.0	8.28634	7.27425	-8.91584	15.85788	21.72939	1.33965	0.74647	158.32078	162.00563	59.20197	0.33712	 	3.005957159E7	 	1.92919E-7	 	4885.17738	36.69669	 
910.0	1.0	0.0	8.28938	7.27159	-8.9492	15.80369	21.64485	1.33922	0.7467	158.66033	162.10764	59.33989	0.33688	 	3.425348545E7	 	1.68586E-7	 	4702.30477	36.57452	 
905.0	1.0	0.0	8.2924	7.26894	-8.98238	15.74966	21.56119	1.33873	0.74697	158.9985	162.21088	59.4772	0.33663	 	3.907725191E7	 	1.47151E-7	 	4520.03193	36.45457	 
900.0	1.0	0.0	8.29541	7.2663	-9.01539	15.69576	21.47839	1.33819	0.74728	159.33537	162.31535	59.61396	0.33639	 	4.46319901E7	 	1.2829E-7	 	4338.34807	36.33677	 
895.0	1.0	0.0	8.2984	7.26368	-9.04822	15.64199	21.39643	1.33759	0.74761	159.67102	162.42106	59.75017	0.33616	 	5.103607824E7	 	1.11714E-7	 	4157.24267	36.22108	 
890.0	1.0	0.0	8.30138	7.26107	-9.08089	15.58834	21.31528	1.33694	0.74798	160.00552	162.52802	59.88589	0.33592	 	5.842827108E7	 	9.71627E-8	 	3976.70549	36.10743	 
885.0	1.0	0.0	8.30435	7.25847	-9.11339	15.53481	21.23494	1.33623	0.74838	160.33895	162.63621	60.02113	0.33569	 	6.69714117E7	 	8.44038E-8	 	3796.72659	35.99578	 
880.0	1.0	0.0	8.30731	7.25589	-9.14573	15.48139	21.15537	1.33546	0.7488	160.67138	162.74566	60.15593	0.33546	 	7.685685459E7	 	7.32301E-8	 	3617.29624	35.88607	 
875.0	1.0	0.0	8.31025	7.25332	-9.1779	15.42806	21.07656	1.33464	0.74926	161.00287	162.85634	60.29031	0.33523	 	8.830974697E7	 	6.34566E-8	 	3438.40497	35.77825	 
870.0	1.0	0.0	8.31318	7.25077	-9.20992	15.37483	20.99849	1.33377	0.74975	161.33349	162.96828	60.42429	0.33501	 	1.015953382E8	 	5.49182E-8	 	3260.04358	35.67228	 
865.0	1.0	0.0	8.3161	7.24822	-9.24178	15.32167	20.92115	1.33285	0.75027	161.66331	163.08147	60.55791	0.33478	 	1.170265326E8	 	4.74681E-8	 	3082.20305	35.56811	 
860.0	1.0	0.0	8.31901	7.24569	-9.27348	15.2686	20.84451	1.33187	0.75082	161.99238	163.19591	60.69119	0.33456	 	1.349729387E8	 	4.09758E-8	 	2904.87462	35.46569	 
855.0	1.0	0.0	8.3219	7.24317	-9.30502	15.21559	20.76856	1.33084	0.7514	162.32076	163.3116	60.82416	0.33434	 	1.558717315E8	 	3.53253E-8	 	2728.04975	35.36497	 
850.0	1.0	0.0	8.32478	7.24066	-9.33642	15.16264	20.69329	1.32976	0.75201	162.64852	163.42854	60.95683	0.33413	 	1.802406996E8	 	3.04139E-8	 	2551.72009	35.26593	 
845.0	1.0	0.0	8.32707	7.23867	-9.36136	15.13908	20.63493	1.32759	0.75325	162.97418	163.62293	61.08504	0.33399	 	2.046766617E8	 	2.66636E-8	 	2402.83175	29.77767	 
840.0	1.0	0.0	8.32936	7.23668	-9.38624	15.11551	20.57657	1.3254	0.75449	163.29935	163.81659	61.2131	0.33386	 	2.326911222E8	 	2.33486E-8	 	2251.08985	30.34838	 
835.0	1.0	0.0	8.33164	7.2347	-9.41106	15.09193	20.51818	1.3232	0.75574	163.62405	164.00951	61.341	0.33373	 	2.648463833E8	 	2.04217E-8	 	2099.53409	30.31115	 
830.0	1.0	0.0	8.33392	7.23272	-9.43582	15.06835	20.45979	1.32099	0.75701	163.94827	164.2017	61.46874	0.33359	 	3.01799043E8	 	1.78404E-8	 	1948.16375	30.27407	 
825.0	1.0	0.0	8.33619	7.23075	-9.46052	15.04476	20.40138	1.31877	0.75828	164.27201	164.39315	61.59633	0.33346	 	3.443167971E8	 	1.55665E-8	 	1796.97808	30.23714	 
820.0	1.0	0.0	8.33846	7.22878	-9.48515	15.02116	20.34296	1.31653	0.75957	164.59528	164.58388	61.72376	0.33332	 	3.932984083E8	 	1.35658E-8	 	1645.97627	30.20036	 
815.0	1.0	0.0	8.34072	7.22682	-9.50973	14.99756	20.28453	1.31429	0.76087	164.91807	164.77387	61.85104	0.33319	 	4.497974755E8	 	1.18075E-8	 	1495.15751	30.16375	 
810.0	1.0	0.0	8.34298	7.22486	-9.53425	14.97395	20.22608	1.31203	0.76218	165.24038	164.96314	61.97816	0.33305	 	5.150507638E8	 	1.02642E-8	 	1344.52094	30.12731	 
805.0	1.0	0.0	8.34524	7.22291	-9.5587	14.95034	20.16762	1.30976	0.7635	165.56221	165.15169	62.10513	0.33292	 	5.905120203E8	 	8.91122E-9	 	1194.06566	30.09106	 
800.0	1.0	0.0	8.34749	7.22096	-9.5831	14.92672	20.10914	1.30747	0.76483	165.88357	165.33952	62.23193	0.33278	 	6.778923947E8	 	7.72656E-9	 	1043.79074	30.05498	 
795.0	1.0	0.0	8.34974	7.21902	-9.60743	14.9031	20.05065	1.30518	0.76618	166.20445	165.52662	62.35859	0.33265	 	7.792088261E8	 	6.6906E-9	 	893.69517	30.01911	 
790.0	1.0	0.0	8.35198	7.21708	-9.63171	14.87946	19.99215	1.30287	0.76754	166.52485	165.71301	62.48508	0.33252	 	8.968420516E8	 	5.78582E-9	 	743.77796	29.98344	 
785.0	1.0	0.0	8.35422	7.21515	-9.65592	14.85583	19.93363	1.30055	0.76891	166.84478	165.89868	62.61142	0.33238	 	1.033606254E9	 	4.99665E-9	 	594.03802	29.94799	 
780.0	1.0	0.0	8.35645	7.21322	-9.68007	14.83218	19.8751	1.29822	0.77029	167.16423	166.08364	62.73761	0.33225	 	1.192832813E9	 	4.30921E-9	 	444.47422	29.91276	 
775.0	1.0	0.0	8.35868	7.21129	-9.70416	14.80853	19.81655	1.29587	0.77168	167.4832	166.26789	62.86364	0.33212	 	1.378471165E9	 	3.71118E-9	 	295.08539	29.87777	 
770.0	1.0	0.0	8.36091	7.20937	-9.72819	14.78487	19.75799	1.29351	0.77309	167.8017	166.45143	62.98951	0.33198	 	1.595210468E9	 	3.19165E-9	 	145.87027	29.84302	 
765.0	1.0	0.0	8.36313	7.20746	-9.75216	14.76121	19.69941	1.29114	0.77451	168.11972	166.63426	63.11522	0.33185	 	1.84862658E9	 	2.74093E-9	 	-3.17242	29.80854	 
760.0	1.0	0.0	8.36535	7.20555	-9.77607	14.73754	19.64081	1.28875	0.77594	168.43726	166.81638	63.24078	0.33171	 	2.145359917E9	 	2.35044E-9	 	-152.04406	29.77433	 
755.0	1.0	0.0	8.36756	7.20365	-9.79992	14.71387	19.5822	1.28636	0.77739	168.75433	166.9978	63.36619	0.33158	 	2.493331018E9	 	2.01263E-9	 	-300.74609	29.74041	 
750.0	1.0	0.0	8.36977	7.20175	-9.82371	14.69019	19.52357	1.28394	0.77885	169.07092	167.17852	63.49143	0.33145	 	2.902002251E9	 	1.72079E-9	 	-449.28002	29.70679	 
745.0	1.0	0.0	8.37197	7.19985	-9.84743	14.6665	19.46493	1.28152	0.78032	169.38704	167.35854	63.61652	0.33131	 	3.382696059E9	 	1.46905E-9	 	-597.64745	29.67349	 
740.0	1.0	0.0	8.37417	7.19796	-9.8711	14.64281	19.40627	1.27908	0.78181	169.70268	167.53786	63.74146	0.33118	 	3.948982621E9	 	1.2522E-9	 	-745.85005	29.64052	 
735.0	1.0	0.0	8.37636	7.19608	-9.8947	14.61911	19.34759	1.27663	0.78331	170.01784	167.71649	63.86624	0.33105	 	4.617152888E9	 	1.06571E-9	 	-893.88959	29.60791	 
730.0	1.0	0.0	8.37855	7.1942	-9.91825	14.5954	19.2889	1.27416	0.78483	170.33253	167.89442	63.99086	0.33091	 	5.40679679E9	 	9.0555E-10	 	-1041.76793	29.57567	 
725.0	1.0	0.0	8.38073	7.19232	-9.94173	14.57169	19.23018	1.27168	0.78636	170.64675	168.07166	64.11532	0.33078	 	6.341511256E9	 	7.68227E-10	 	-1189.48706	29.54383	 
720.0	1.0	0.0	8.38291	7.19045	-9.96515	14.54797	19.17145	1.26919	0.78791	170.96048	168.24821	64.23963	0.33065	 	7.449768748E9	 	6.50667E-10	 	-1337.04905	29.5124	 
715.0	1.0	0.0	8.38509	7.18858	-9.98851	14.52425	19.1127	1.26668	0.78947	171.27375	168.42407	64.36378	0.33051	 	8.765984627E9	 	5.50185E-10	 	-1484.4561	29.48141	 
710.0	1.0	0.0	8.38726	7.18672	-10.01181	14.50052	19.05394	1.26416	0.79104	171.58653	168.59924	64.48778	0.33038	 	1.03318E10	 	4.6444E-10	 	-1631.71052	29.45089	 
705.0	1.0	0.0	8.38943	7.18487	-10.03505	14.47678	18.99515	1.26162	0.79263	171.89885	168.77373	64.61162	0.33025	 	1.2197899999999998E10	 	3.91389E-10	 	-1778.81478	29.42085	 
700.0	1.0	0.0	8.39159	7.18302	-10.05823	14.45304	18.93635	1.25907	0.79424	172.21068	168.94754	64.7353	0.33011	 	1.4425499999999998E10	 	3.29257E-10	 	-1925.77149	29.39134	 
695.0	1.0	0.0	8.39375	7.18117	-10.08134	14.42929	18.87752	1.2565	0.79586	172.52204	169.12066	64.85882	0.32998	 	1.7089499999999998E10	 	2.76502E-10	 	-2072.58338	29.36238	 
690.0	1.0	0.0	8.3959	7.17933	-10.1044	14.40553	18.81868	1.25392	0.7975	172.83293	169.29311	64.98219	0.32985	 	2.02812E10	 	2.31785E-10	 	-2219.2534	29.334	 
685.0	1.0	0.0	8.39805	7.17749	-10.12739	14.38177	18.75982	1.25133	0.79915	173.14334	169.46488	65.1054	0.32972	 	2.4112099999999996E10	 	1.93948E-10	 	-2365.78461	29.30624	 
680.0	1.0	0.0	8.40019	7.17566	-10.15032	14.358	18.70093	1.24872	0.80082	173.45328	169.63597	65.22846	0.32958	 	2.8718599999999996E10	 	1.61989E-10	 	-2512.18031	29.27914	 
675.0	1.0	0.0	8.40233	7.17384	-10.17319	14.33423	18.64203	1.24609	0.80251	173.76274	169.8064	65.35136	0.32945	 	3.4268199999999996E10	 	1.35043E-10	 	-2658.44398	29.25274	 
670.0	1.0	0.0	8.40446	7.17201	-10.196	14.31045	18.58311	1.24345	0.80421	174.07173	169.97614	65.4741	0.32932	 	4.0967E10	 	1.12365E-10	 	-2804.57931	29.22707	 
665.0	1.0	0.0	8.40659	7.1702	-10.21875	14.28667	18.52416	1.24079	0.80594	174.38024	170.14522	65.59668	0.32918	 	4.906859999999999E10	 	9.33158E-11	 	-2950.59023	29.20219	 
660.0	1.0	0.0	8.40872	7.16839	-10.24144	14.26287	18.46519	1.23812	0.80767	174.68828	170.31363	65.71911	0.32905	 	5.888609999999999E10	 	7.73438E-11	 	-3096.46966	29.17588	 
655.0	1.0	0.0	8.41084	7.16658	-10.26406	14.23908	18.4062	1.23544	0.80943	174.99585	170.48138	65.84138	0.32892	 	7.08068E10	 	6.39778E-11	 	-3242.15479	29.13703	 
650.0	1.0	0.0	8.41295	7.16478	-10.28663	14.21527	18.34719	1.23273	0.81121	175.30294	170.64846	65.9635	0.32879	 	8.5311E10	 	5.28146E-11	 	-3387.56238	29.08152	 
645.0	1.0	0.0	8.41506	7.16298	-10.30913	14.19146	18.28816	1.23001	0.813	175.60955	170.81488	66.08545	0.32866	 	1.02995E11	 	4.35095E-11	 	-3532.69366	29.02626	 
640.0	1.0	0.0	8.41717	7.16119	-10.33157	14.16764	18.2291	1.22728	0.81481	175.91569	170.98063	66.20725	0.32852	 	1.24601E11	 	3.57689E-11	 	-3677.54987	28.97124	 
635.0	1.0	0.0	8.41927	7.1594	-10.35395	14.14382	18.17002	1.22453	0.81664	176.22136	171.14573	66.3289	0.32839	 	1.51057E11	 	2.93429E-11	 	-3822.13224	28.91647	 
630.0	1.0	0.0	8.42137	7.15762	-10.37627	14.11999	18.11091	1.22176	0.81849	176.52655	171.31017	66.45038	0.32826	 	1.83521E11	 	2.40194E-11	 	-3966.44198	28.86195	 
625.0	1.0	0.0	8.42346	7.15584	-10.39853	14.09616	18.05179	1.21897	0.82036	176.83127	171.47395	66.57171	0.32813	 	2.23445E11	 	1.96185E-11	 	-4110.48032	28.80767	 
620.0	1.0	0.0	8.42555	7.15407	-10.42072	14.07232	17.99263	1.21617	0.82225	177.13551	171.63708	66.69288	0.32799	 	2.72654E11	 	1.59882E-11	 	-4254.24851	28.75364	 
615.0	1.0	0.0	8.42763	7.1523	-10.44286	14.04847	17.93345	1.21336	0.82416	177.43928	171.79956	66.8139	0.32786	 	3.33447E11	 	1.30001E-11	 	-4397.74775	28.69985	 
610.0	1.0	0.0	8.42971	7.15054	-10.46493	14.02462	17.87425	1.21052	0.82609	177.74258	171.96138	66.93475	0.32773	 	4.08726E11	 	1.0546E-11	 	-4540.97927	28.6463	 
605.0	1.0	0.0	8.43178	7.14878	-10.48694	14.00076	17.81502	1.20767	0.82804	178.0454	172.12256	67.05545	0.3276	 	5.02162E11	 	8.53515E-12	 	-4683.9443	28.59301	 
600.0	1.0	0.0	8.43385	7.14703	-10.50889	13.97689	17.75576	1.2048	0.83001	178.34775	172.28309	67.176	0.32747	 	6.18415E11	 	6.89121E-12	 	-4826.64405	28.53995	 
595.0	1.0	0.0	8.43591	7.14528	-10.53078	13.95302	17.69648	1.20192	0.83201	178.64963	172.44298	67.29638	0.32733	 	7.6341E11	 	5.55039E-12	 	-4969.07974	28.48714	 
590.0	1.0	0.0	8.43797	7.14353	-10.5526	13.92914	17.63717	1.19901	0.83402	178.95103	172.60222	67.41661	0.3272	 	9.44703E11	 	4.45941E-12	 	-5111.25259	28.43457	 
585.0	1.0	0.0	8.44002	7.1418	-10.57437	13.90526	17.57783	1.19609	0.83606	179.25196	172.76082	67.53668	0.32707	 	1.17196E12	 	3.57387E-12	 	-5253.1638	28.38224	 
580.0	1.0	0.0	8.44207	7.14006	-10.59607	13.88137	17.51847	1.19315	0.83812	179.55241	172.91877	67.65659	0.32694	 	1.45755E12	 	2.85685E-12	 	-5394.81459	28.33016	 
575.0	1.0	0.0	8.44412	7.13834	-10.61771	13.85747	17.45907	1.19019	0.8402	179.85239	173.07609	67.77635	0.32681	 	1.81741E12	 	2.27775E-12	 	-5536.20618	28.27832	 
570.0	1.0	0.0	8.44615	7.13661	-10.63929	13.83357	17.39965	1.18722	0.84231	180.1519	173.23277	67.89594	0.32668	 	2.27206E12	 	1.81122E-12	 	-5677.33977	28.22672	 
565.0	1.0	0.0	8.44819	7.13489	-10.66081	13.80966	17.34019	1.18422	0.84443	180.45093	173.38882	68.01538	0.32655	 	2.84802E12	 	1.43637E-12	 	-5818.21658	28.17536	 
560.0	1.0	0.0	8.45022	7.13318	-10.68226	13.78574	17.28071	1.18121	0.84659	180.74949	173.54423	68.13466	0.32641	 	3.57968E12	 	1.13597E-12	 	-5958.83779	28.12424	 
555.0	1.0	0.0	8.45224	7.13147	-10.70366	13.76182	17.22119	1.17818	0.84877	181.04758	173.69901	68.25379	0.32628	 	4.51174E12	 	8.95883E-13	 	-6099.20462	28.07337	 
550.0	1.0	0.0	8.45426	7.12977	-10.72499	13.73789	17.16164	1.17513	0.85097	181.34519	173.85316	68.37275	0.32615	 	5.7025E12	 	7.04531E-13	 	-6239.31827	28.02273	 
545.0	1.0	0.0	8.45628	7.12807	-10.74626	13.71396	17.10206	1.17206	0.8532	181.64233	174.00668	68.49156	0.32602	 	7.22819E12	 	5.52446E-13	 	-6379.17992	27.97233	 
540.0	1.0	0.0	8.45829	7.12638	-10.76746	13.69002	17.04245	1.16897	0.85545	181.939	174.15958	68.61021	0.32589	 	9.18883E12	 	4.31914E-13	 	-6518.79079	27.92217	 
535.0	1.0	0.0	8.46029	7.12469	-10.78861	13.66608	16.9828	1.16587	0.85773	182.23519	174.31184	68.7287	0.32576	 	1.1716E13	 	3.36665E-13	 	-6658.15206	27.87225	 
530.0	1.0	0.0	8.46229	7.123	-10.80969	13.64212	16.92313	1.16274	0.86004	182.53091	174.46348	68.84704	0.32563	 	1.49835E13	 	2.61619E-13	 	-6797.26492	27.82257	 
525.0	1.0	0.0	8.46429	7.12132	-10.83072	13.61817	16.86341	1.15959	0.86237	182.82616	174.6145	68.96522	0.3255	 	1.92215E13	 	2.02667E-13	 	-6936.13058	27.77313	 
520.0	1.0	0.0	8.46628	7.11965	-10.85168	13.5942	16.80366	1.15643	0.86473	183.12093	174.7649	69.08323	0.32536	 	2.47357E13	 	1.56501E-13	 	-7074.75019	27.72392	 
515.0	1.0	0.0	8.46826	7.11798	-10.87257	13.57023	16.74388	1.15324	0.86712	183.41523	174.91468	69.20109	0.32523	 	3.19338E13	 	1.20461E-13	 	-7213.12497	27.67496	 
510.0	1.0	0.0	8.47024	7.11632	-10.89341	13.54625	16.68405	1.15003	0.86954	183.70906	175.06384	69.3188	0.3251	 	4.13612E13	 	9.24143E-14	 	-7351.25607	27.62622	 
505.0	1.0	0.0	8.47222	7.11466	-10.91418	13.52227	16.62419	1.1468	0.87199	184.00242	175.21239	69.43634	0.32497	 	5.37501E13	 	7.06596E-14	 	-7489.14469	27.57772	 
500.0	1.0	0.0	8.47419	7.113	-10.9349	13.49828	16.5643	1.14355	0.87447	184.2953	175.36032	69.55373	0.32484	 	7.00869E13	 	5.3841E-14	 	-7626.79199	27.52946	 
495.0	1.0	0.0	8.47615	7.11135	-10.95554	13.47429	16.50436	1.14028	0.87697	184.58771	175.50764	69.67095	0.32471	 	9.17056E13	 	4.08825E-14	 	-7764.19915	27.48143	 
490.0	1.0	0.0	8.47811	7.10971	-10.97613	13.45029	16.44439	1.13699	0.87951	184.87964	175.65434	69.78802	0.32458	 	1.20416E14	 	3.09323E-14	 	-7901.36734	27.43364	 
485.0	1.0	0.0	8.48007	7.10807	-10.99666	13.42628	16.38437	1.13368	0.88208	185.17111	175.80044	69.90493	0.32445	 	1.58684E14	 	2.33189E-14	 	-8038.29772	27.38608	 
480.0	1.0	0.0	8.48202	7.10644	-11.01712	13.40227	16.32431	1.13035	0.88468	185.4621	175.94592	70.02168	0.32432	 	2.09881E14	 	1.75144E-14	 	-8174.99145	27.33875	 
475.0	1.0	0.0	8.48396	7.10481	-11.03752	13.37825	16.26421	1.12699	0.88732	185.75261	176.0908	70.13828	0.32419	 	2.7863499999999997E14	 	1.31051E-14	 	-8311.44971	27.29165	 
470.0	1.0	0.0	8.4859	7.10318	-11.05786	13.35422	16.20407	1.12362	0.88998	186.04266	176.23508	70.25471	0.32406	 	3.71326E14	 	9.76805E-15	 	-8447.67363	27.24478	 
465.0	1.0	0.0	8.48784	7.10156	-11.07814	13.33019	16.14388	1.12022	0.89268	186.33223	176.37875	70.37099	0.32393	 	4.9678E14	 	7.25215E-15	 	-8583.66437	27.19815	 
460.0	1.0	0.0	8.48977	7.09995	-11.09835	13.30615	16.08365	1.1168	0.89542	186.62133	176.52181	70.4871	0.3238	 	6.67263E14	 	5.36268E-15	 	-8719.42308	27.15174	 
455.0	1.0	0.0	8.49169	7.09834	-11.1185	13.28211	16.02338	1.11335	0.89819	186.90996	176.66428	70.60306	0.32367	 	8.99891E14	 	3.94928E-15	 	-8854.95092	27.10557	 
450.0	1.0	0.0	8.49361	7.09674	-11.13859	13.25806	15.96305	1.10989	0.90099	187.19811	176.80615	70.71886	0.32354	 	1.21865E15	 	2.89625E-15	 	-8990.24899	27.05962	 
445.0	1.0	0.0	8.49553	7.09514	-11.15862	13.234	15.90268	1.1064	0.90383	187.48579	176.94742	70.8345	0.32341	 	1.6573E15	 	2.11495E-15	 	-9125.31847	27.0139	 
440.0	1.0	0.0	8.49744	7.09354	-11.17858	13.20994	15.84226	1.10288	0.90671	187.773	177.08809	70.94999	0.32328	 	2.26358E15	 	1.5377E-15	 	-9260.16047	26.9684	 
435.0	1.0	0.0	8.49934	7.09195	-11.19848	13.18587	15.78179	1.09935	0.90963	188.05974	177.22816	71.06531	0.32315	 	3.1053E15	 	1.11303E-15	 	-9394.77613	26.92313	 
430.0	1.0	0.0	8.50124	7.09037	-11.21832	13.16179	15.72127	1.09579	0.91259	188.346	177.36765	71.18047	0.32302	 	4.27921E15	 	8.01995E-16	 	-9529.16655	26.87809	 
425.0	1.0	0.0	8.50313	7.08879	-11.2381	13.13771	15.6607	1.0922	0.91558	188.63179	177.50654	71.29548	0.32289	 	5.92403E15	 	5.75199E-16	 	-9663.3327	26.83323	 
420.0	1.0	0.0	8.50502	7.08721	-11.25782	13.11362	15.60008	1.0886	0.91861	188.91711	177.64484	71.41032	0.32276	 	8.23967E15	 	4.10586E-16	 	-9797.27596	26.78865	 
415.0	1.0	0.0	8.50691	7.08565	-11.27747	13.08953	15.5394	1.08496	0.92169	189.20195	177.78255	71.52501	0.32263	 	1.15155E16	 	2.91666E-16	 	-9930.99675	26.74416	 
410.0	1.0	0.0	8.50879	7.08408	-11.29706	13.06543	15.47866	1.08131	0.92481	189.48633	177.91967	71.63954	0.3225	 	1.61729E16	 	2.06166E-16	 	-10064.49526	26.6997	 
405.0	1.0	0.0	8.51066	7.08252	-11.31658	13.04133	15.41787	1.07762	0.92797	189.77023	178.0562	71.75391	0.32237	 	2.28278E16	 	1.44993E-16	 	-10197.77166	26.65528	 
400.0	1.0	0.0	8.51253	7.08097	-11.33605	13.01721	15.35703	1.07392	0.93117	190.05365	178.19215	71.86812	0.32224	 	3.23866E16	 	1.01446E-16	 	-10330.82611	26.61089	 
395.0	1.0	0.0	8.51439	7.07942	-11.35545	12.9931	15.29612	1.07018	0.93442	190.33661	178.32752	71.98216	0.32211	 	4.61891E16	 	7.06026E-17	 	-10463.65877	26.56653	 
390.0	1.0	0.0	8.51625	7.07787	-11.37479	12.96897	15.23515	1.06643	0.93771	190.61909	178.46231	72.09605	0.32198	 	6.6227600000000008E16	 	4.88719E-17	 	-10596.26979	26.5222	 
385.0	1.0	0.0	8.5181	7.07633	-11.39407	12.94484	15.17412	1.06264	0.94105	190.9011	178.59651	72.20978	0.32185	 	9.54809E16	 	3.3643E-17	 	-10728.65933	26.47791	 
380.0	1.0	0.0	8.51995	7.0748	-11.41328	12.9207	15.11303	1.05883	0.94444	191.18264	178.73013	72.32336	0.32172	 	1.38429E17	 	2.30289E-17	 	-10860.82752	26.43364	 
375.0	1.0	0.0	8.52179	7.07327	-11.43243	12.89656	15.05187	1.055	0.94787	191.46371	178.86318	72.43677	0.32159	 	2.01848E17	 	1.56725E-17	 	-10992.7745	26.3894	 
370.0	1.0	0.0	8.52363	7.07174	-11.45152	12.87241	14.99065	1.05113	0.95135	191.7443	178.99565	72.55002	0.32146	 	2.96054E17	 	1.0603E-17	 	-11124.50038	26.34518	 
365.0	1.0	0.0	8.52546	7.07023	-11.47055	12.84826	14.92935	1.04724	0.95489	192.02442	179.12754	72.66311	0.32133	 	4.3684E17	 	7.12996E-18	 	-11256.00531	26.30098	 
360.0	1.0	0.0	8.52729	7.06871	-11.48951	12.8241	14.86799	1.04333	0.95847	192.30407	179.25887	72.77604	0.3212	 	6.48549E17	 	4.76486E-18	 	-11387.28938	26.25681	 
355.0	1.0	0.0	8.52911	7.0672	-11.50841	12.79993	14.80656	1.03938	0.96211	192.58324	179.38961	72.88881	0.32108	 	9.68937E17	 	3.16413E-18	 	-11518.35269	26.21266	 
350.0	1.0	0.0	8.53092	7.0657	-11.52725	12.77576	14.74505	1.03541	0.9658	192.86195	179.51979	73.00143	0.32095	 	1.45695E18	 	2.08753E-18	 	-11649.19536	26.16853	 
345.0	1.0	0.0	8.53274	7.0642	-11.54602	12.75158	14.68347	1.03141	0.96955	193.14018	179.6494	73.11388	0.32082	 	2.20527E18	 	1.3681E-18	 	-11779.81746	26.12442	 
340.0	1.0	0.0	8.53454	7.0627	-11.56473	12.72739	14.62182	1.02738	0.97335	193.41794	179.77844	73.22617	0.32069	 	3.36058E18	 	8.9051E-19	 	-11910.21907	26.08032	 
335.0	1.0	0.0	8.53634	7.06121	-11.58338	12.7032	14.56008	1.02332	0.97721	193.69522	179.90691	73.3383	0.32056	 	5.15674E18	 	5.75602E-19	 	-12040.40026	26.03624	 
330.0	1.0	0.0	8.53814	7.05973	-11.60197	12.679	14.49826	1.01924	0.98113	193.97204	180.03481	73.45027	0.32043	 	7.96928E18	 	3.69397E-19	 	-12170.3611	25.99217	 
325.0	1.0	0.0	8.53993	7.05825	-11.62049	12.6548	14.43637	1.01512	0.9851	194.24838	180.16216	73.56209	0.3203	 	1.24058E19	 	2.35328E-19	 	-12300.10162	25.94811	 
320.0	1.0	0.0	8.54171	7.05678	-11.63895	12.63059	14.37438	1.01098	0.98914	194.52425	180.28893	73.67374	0.32017	 	1.94567E19	 	1.48793E-19	 	-12429.62188	25.90405	 
315.0	1.0	0.0	8.54349	7.05531	-11.65735	12.60637	14.31231	1.0068	0.99324	194.79964	180.41515	73.78523	0.32005	 	3.07494E19	 	9.33553E-20	 	-12558.92191	25.86	 
310.0	1.0	0.0	8.54526	7.05384	-11.67568	12.58215	14.25015	1.0026	0.99741	195.07457	180.54081	73.89656	0.31992	 	4.89793E19	 	5.81105E-20	 	-12688.0017	25.81596	 
305.0	1.0	0.0	8.54703	7.05238	-11.69395	12.55792	14.1879	0.99836	1.00164	195.34902	180.66591	74.00773	0.31979	 	7.86476E19	 	3.58791E-20	 	-12816.86129	25.77192	 
300.0	1.0	0.0	8.54879	7.05093	-11.71216	12.53368	14.12555	0.9941	1.00594	195.623	180.79045	74.11874	0.31966	 	1.2733499999999998E20	 	2.19689E-20	 	-12945.50065	25.72787	 
295.0	1.0	0.0	8.55055	7.04948	-11.7303	12.50944	14.06311	0.9898	1.0103	195.89651	180.91443	74.22959	0.31953	 	2.07918E20	 	1.3337E-20	 	-13073.91978	25.68382	 
290.0	1.0	0.0	8.5523	7.04804	-11.74838	12.4852	14.00057	0.98547	1.01474	196.16954	181.03786	74.34028	0.3194	 	3.4246699999999997E20	 	8.02588E-21	 	-13202.11862	25.63977	 
285.0	1.0	0.0	8.55405	7.0466	-11.7664	12.46094	13.93793	0.98111	1.01925	196.4421	181.16073	74.4508	0.31927	 	5.6915099999999997E20	 	4.78641E-21	 	-13330.09716	25.59571	 
280.0	1.0	0.0	8.55579	7.04516	-11.78436	12.43668	13.87518	0.97672	1.02383	196.71419	181.28305	74.56117	0.31915	 	9.546069999999999E20	 	2.82817E-21	 	-13457.85532	25.55163	 
275.0	1.0	0.0	8.55752	7.04373	-11.80225	12.41242	13.81232	0.9723	1.02849	196.98581	181.40482	74.67138	0.31902	 	1.61629E21	 	1.65526E-21	 	-13585.39302	25.50754	 
270.0	1.0	0.0	8.55925	7.04231	-11.82008	12.38814	13.74936	0.96784	1.03323	197.25696	181.52604	74.78142	0.31889	 	2.76328E21	 	9.5936E-22	 	-13712.71018	25.46343	 
265.0	1.0	0.0	8.56098	7.04089	-11.83784	12.36387	13.68627	0.96335	1.03804	197.52763	181.64671	74.89131	0.31876	 	4.77153E21	 	5.50468E-22	 	-13839.80669	25.4193	 
260.0	1.0	0.0	8.5627	7.03948	-11.85555	12.33958	13.62308	0.95883	1.04294	197.79783	181.76684	75.00103	0.31863	 	8.32417E21	 	3.12605E-22	 	-13966.68241	25.37514	 
255.0	1.0	0.0	8.56441	7.03807	-11.87318	12.31529	13.55976	0.95427	1.04792	198.06756	181.88642	75.11059	0.31851	 	1.4675699999999999E22	 	1.75648E-22	 	-14093.33722	25.33096	 
250.0	1.0	0.0	8.56612	7.03667	-11.89076	12.291	13.49631	0.94968	1.05299	198.33681	182.00545	75.21999	0.31838	 	2.61557E22	 	9.76219E-23	 	-14219.77095	25.28674	 
245.0	1.0	0.0	8.56782	7.03527	-11.90827	12.26669	13.43274	0.94505	1.05814	198.60559	182.12394	75.32923	0.31825	 	4.713839999999999E22	 	5.36497E-23	 	-14345.98339	25.24249	 
240.0	1.0	0.0	8.56952	7.03387	-11.92572	12.24238	13.36904	0.94039	1.06338	198.8739	182.24189	75.43831	0.31812	 	8.5935E22	 	2.91448E-23	 	-14471.97437	25.1982	 
235.0	1.0	0.0	8.57121	7.03249	-11.94311	12.21807	13.3052	0.9357	1.06872	199.14174	182.35929	75.54723	0.318	 	1.58525E23	 	1.56452E-23	 	-14597.74367	25.15386	 
230.0	1.0	0.0	8.5729	7.0311	-11.96043	12.19375	13.24122	0.93097	1.07415	199.40911	182.47616	75.65598	0.31787	 	2.9601199999999997E23	 	8.29612E-24	 	-14723.29101	25.10947	 
225.0	1.0	0.0	8.57458	7.02972	-11.97769	12.16942	13.1771	0.9262	1.07968	199.676	182.59248	75.76458	0.31774	 	5.59713E23	 	4.34392E-24	 	-14848.61613	25.06502	 
220.0	1.0	0.0	8.57626	7.02835	-11.99488	12.14509	13.11283	0.9214	1.0853	199.94242	182.70827	75.87301	0.31761	 	1.07209E24	 	2.24509E-24	 	-14973.71875	25.02052	 
215.0	1.0	0.0	8.57793	7.02698	-12.01201	12.12075	13.0484	0.91656	1.09103	200.20837	182.82353	75.98128	0.31748	 	2.08104E24	 	1.14488E-24	 	-15098.59852	24.97596	 
210.0	1.0	0.0	8.57959	7.02562	-12.02908	12.0964	12.98381	0.91169	1.09687	200.47385	182.93824	76.08939	0.31736	 	4.09536E24	 	5.75807E-25	 	-15223.25511	24.93132	 
205.0	1.0	0.0	8.58125	7.02426	-12.04609	12.07205	12.91906	0.90677	1.10281	200.73885	183.05243	76.19734	0.31723	 	8.17431E24	 	2.85496E-25	 	-15347.68812	24.8866	 
200.0	1.0	0.0	8.5829	7.02291	-12.06303	12.04769	12.85415	0.90182	1.10886	201.00338	183.16608	76.30512	0.3171	 	1.6556000000000002E25	 	1.39486E-25	 	-15471.89716	24.84181	 
195.0	1.0	0.0	8.58455	7.02156	-12.0799	12.02333	12.78905	0.89684	1.11503	201.26744	183.2792	76.41275	0.31698	 	3.4041300000000003E25	 	6.71222E-26	 	-15595.88176	24.79692	 
190.0	1.0	0.0	8.58619	7.02022	-12.09672	11.99896	12.72378	0.89181	1.12132	201.53102	183.39179	76.52021	0.31685	 	7.10911E25	 	3.17975E-26	 	-15719.64145	24.75194	 
185.0	1.0	0.0	8.58783	7.01888	-12.11347	11.97458	12.65831	0.88674	1.12772	201.79414	183.50385	76.62751	0.31672	 	1.5087100000000001E26	 	1.48214E-26	 	-15843.17572	24.70686	 
180.0	1.0	0.0	8.58946	7.01755	-12.13016	11.9502	12.59266	0.88164	1.13425	202.05678	183.61538	76.73465	0.31659	 	3.25542E26	 	6.79393E-27	 	-15966.48402	24.66166	 
175.0	1.0	0.0	8.59108	7.01622	-12.14678	11.92581	12.5268	0.87649	1.14091	202.31894	183.72639	76.84162	0.31647	 	7.14599E26	 	3.06089E-27	 	-16089.56574	24.61634	 
170.0	1.0	0.0	8.5927	7.0149	-12.16334	11.90141	12.46074	0.87131	1.1477	202.58064	183.83687	76.94843	0.31634	 	1.5967E27	 	1.35461E-27	 	-16212.42026	24.57091	 
165.0	1.0	0.0	8.59432	7.01358	-12.17983	11.87701	12.39446	0.86609	1.15462	202.84186	183.94683	77.05509	0.31621	 	3.6337199999999997E27	 	5.88516E-28	 	-16335.04689	24.52533	 
160.0	1.0	0.0	8.59593	7.01227	-12.19627	11.85261	12.32796	0.86082	1.16168	203.10261	184.05626	77.16157	0.31609	 	8.42801E27	 	2.50842E-28	 	-16457.44491	24.4796	 
155.0	1.0	0.0	8.59753	7.01096	-12.21263	11.82819	12.26122	0.85552	1.16888	203.36289	184.16517	77.2679	0.31596	 	1.9935700000000003E28	 	1.04821E-28	 	-16579.61354	24.43373	 
150.0	1.0	0.0	8.59913	7.00966	-12.22894	11.80377	12.19425	0.85017	1.17624	203.62269	184.27356	77.37406	0.31583	 	4.8125600000000005E28	 	4.29146E-29	 	-16701.55194	24.38768	 
145.0	1.0	0.0	8.60072	7.00836	-12.24518	11.77935	12.12703	0.84478	1.18374	203.88202	184.38144	77.48007	0.31571	 	1.18652E29	 	1.72007E-29	 	-16823.25923	24.34146	 
140.0	1.0	0.0	8.6023	7.00707	-12.26135	11.75491	12.05954	0.83935	1.1914	204.14088	184.48879	77.58591	0.31558	 	2.9899000000000003E29	 	6.74432E-30	 	-16944.73447	24.29505	 
135.0	1.0	0.0	8.60388	7.00578	-12.27747	11.73048	11.99179	0.83388	1.19922	204.39927	184.59562	77.69158	0.31545	 	7.70678E29	 	2.58484E-30	 	-17065.97664	24.24843	 
130.0	1.0	0.0	8.60546	7.0045	-12.29352	11.70603	11.92376	0.82836	1.2072	204.65718	184.70194	77.79709	0.31533	 	2.0337099999999998E30	 	9.67528E-31	 	-17186.98466	24.2016	 
125.0	1.0	0.0	8.60703	7.00322	-12.3095	11.68158	11.85544	0.8228	1.21536	204.91462	184.80775	77.90245	0.3152	 	5.499099999999999E30	 	3.5338E-31	 	-17307.7574	24.15455	 
120.0	1.0	0.0	8.60859	7.00195	-12.32542	11.65713	11.78682	0.8172	1.22369	205.17159	184.91304	78.00763	0.31507	 	1.52504E31	 	1.25824E-31	 	-17428.29362	24.10725	 
115.0	1.0	0.0	8.61015	7.00069	-12.34128	11.63266	11.71788	0.81155	1.23221	205.42808	185.01781	78.11266	0.31495	 	4.34194E31	 	4.36318E-32	 	-17548.59203	24.05968	 
110.0	1.0	0.0	8.6117	6.99942	-12.35707	11.60819	11.64861	0.80586	1.24091	205.6841	185.12208	78.21752	0.31482	 	1.2704099999999999E32	 	1.47201E-32	 	-17668.65123	24.01184	 
105.0	1.0	0.0	8.61324	6.99817	-12.3728	11.58372	11.579	0.80013	1.2498	205.93965	185.22583	78.32222	0.31469	 	3.82417E32	 	4.82629E-33	 	-17788.46975	23.9637	 
100.0	1.0	0.0	8.61478	6.99692	-12.38846	11.55924	11.50904	0.79435	1.25889	206.19473	185.32908	78.42675	0.31457	 	1.1856500000000001E33	 	1.53608E-33	 	-17908.04601	23.91525	 
95.0	1.0	0.0	8.61632	6.99567	-12.40407	11.53475	11.43869	0.78852	1.26819	206.44933	185.43181	78.53112	0.31444	 	3.79072E33	 	4.74012E-34	 	-18027.37834	23.86647	 
90.0	1.0	0.0	8.61785	6.99443	-12.4196	11.51026	11.36796	0.78265	1.2777	206.70346	185.53404	78.63533	0.31432	 	1.25138E34	 	1.4164E-34	 	-18146.46495	23.81732	 
85.0	1.0	0.0	8.61937	6.9932	-12.43507	11.48576	11.29683	0.77674	1.28744	206.95712	185.63577	78.73938	0.31419	 	4.27106E34	 	4.09276E-35	 	-18265.30391	23.76779	 
80.0	1.0	0.0	8.62089	6.99196	-12.45048	11.46125	11.22526	0.77078	1.29739	207.2103	185.73699	78.84326	0.31406	 	1.5093199999999999E35	 	1.142E-35	 	-18383.89322	23.71786	 
75.0	1.0	0.0	8.6224	6.99074	-12.46583	11.43674	11.15325	0.76477	1.30758	207.46301	185.8377	78.94698	0.31394	 	5.5305999999999996E35	 	3.07242E-36	 	-18502.2307	23.66749	 
70.0	1.0	0.0	8.6239	6.98952	-12.48111	11.41222	11.08077	0.75872	1.31801	207.71525	185.93791	79.05053	0.31381	 	2.1047499999999998E36	 	7.9574E-37	 	-18620.31403	23.61667	 
65.0	1.0	0.0	8.6254	6.9883	-12.49632	11.3877	11.0078	0.75262	1.32869	207.96701	186.03762	79.15392	0.31369	 	8.332819999999999E36	 	1.98063E-37	 	-18738.14076	23.56535	 
60.0	1.0	0.0	8.6269	6.98709	-12.51148	11.36317	10.93431	0.74647	1.33963	208.2183	186.13683	79.25715	0.31356	 	3.43813E37	 	4.72938E-38	 	-18855.70824	23.5135	 
55.0	1.0	0.0	8.62838	6.98589	-12.52656	11.33863	10.86028	0.74028	1.35084	208.46912	186.23554	79.36022	0.31344	 	1.48119E38	 	1.08131E-38	 	-18973.01368	23.46109	 
50.0	1.0	0.0	8.62987	6.98469	-12.54159	11.31409	10.78568	0.73404	1.36231	208.71947	186.33375	79.46312	0.31331	 	6.67615E38	 	2.36246E-39	 	-19090.05408	23.40808	 
45.0	1.0	0.0	8.63134	6.98349	-12.55654	11.28954	10.71049	0.72776	1.37408	208.96934	186.43146	79.56585	0.31318	 	3.1549700000000003E39	 	4.92179E-40	 	-19206.82621	23.35443	 
40.0	1.0	0.0	8.63281	6.9823	-12.57144	11.26499	10.63466	0.72143	1.38613	209.21874	186.52868	79.66842	0.31306	 	1.56676E40	 	9.75519E-41	 	-19323.32667	23.30009	 
35.0	1.0	0.0	8.63428	6.98112	-12.58627	11.24042	10.55817	0.71506	1.39849	209.46766	186.6254	79.77083	0.31293	 	8.19593E40	 	1.83506E-41	 	-19439.55178	23.24502	 
30.0	1.0	0.0	8.63574	6.97994	-12.60103	11.21586	10.48097	0.70863	1.41117	209.71611	186.72163	79.87307	0.31281	 	4.5279000000000005E41	 	3.26774E-42	 	-19555.49761	23.18917	 
25.0	1.0	0.0	8.63719	6.97877	-12.61574	 	10.40303	0.70217	1.42416	209.96409	186.81736	79.97515	0.31268	 	2.64907E42	 	5.49324E-43	 	-19671.15996	 	 
