T (C)	Fraction solid (wt)-TOTAL	Fraction liquid (wt)-LIQUID	Density (g/(cm)^3)-TOTAL	Molar volume (cm^3)-TOTAL	Volume change (%)-  	Average expansion coeff. (10e-6 1/K)-  	Thermal conductivity (W/(m*K))-TOTAL	Electrical resistivity (10e-6 Ohm*m)-TOTAL	Electrical conductivity (10e6 1/(Ohm*m))-TOTAL	Young's modulus (GPa)-TOTAL	Bulk modulus (GPa)-TOTAL	Shear modulus(GPa)-TOTAL	Poisson's ratio-TOTAL	Liquid viscosity (mPa s)-  	Total viscosity (mPa s)-  	Liquid diffusivity (10e-9 (m^2)/s)-  	Total diffusivity (10e-9 (m^2)/s)-  	Surface Tension (mN/m)-  	Enthalpy (J/mole)-TOTAL	Specific heat (J/(mole K))-TOTAL	Latent heat (J/mole)-TOTAL
1400.0	0.0	1.0	7.7049	7.76217	0.0	27.64284	30.9436	1.32474	0.75487	0.0	129.01528	0.0	0.5	7.71951	7.71951	1.05787	1.05787	1794.83725	56600.062	 	0.0
1395.0	0.0	1.0	7.70899	7.75805	-0.0530284	27.59999	30.86109	1.32431	0.75511	0.0	129.17214	0.0	0.5	7.80424	7.80424	1.04326	1.04326	1797.12653	56395.152	40.982	0.0
1390.0	0.0	1.0	7.71307	7.75395	-0.1059	27.55725	30.77859	1.32388	0.75536	0.0	129.32899	0.0	0.5	7.89041	7.89041	1.02877	1.02877	1799.41657	56190.727	40.885	0.0
1385.0	0.0	1.0	7.71714	7.74986	-0.15861	27.51463	30.69608	1.32345	0.7556	0.0	129.48585	0.0	0.5	7.97807	7.97807	1.01441	1.01441	1801.70721	55986.783	40.7888	0.0
1380.0	0.0	1.0	7.72121	7.74578	-0.21117	27.47213	30.61358	1.32301	0.75585	0.0	129.6427	0.0	0.5	8.06723	8.06723	1.00017	1.00017	1803.99828	55783.317	40.6932	0.0
1375.0	0.0	1.0	7.72526	7.74171	-0.26357	27.42975	30.53107	1.32258	0.7561	0.0	129.79956	0.0	0.5	8.15795	8.15795	0.98606	0.98606	1806.28959	55580.327	40.598	0.0
1370.0	0.0	1.0	7.72931	7.73765	-0.31581	27.38748	30.44856	1.32214	0.75635	0.0	129.95642	0.0	0.5	8.25024	8.25024	0.97207	0.97207	1808.58097	55377.81	40.5034	0.0
1365.0	0.0	1.0	7.73335	7.73361	-0.36789	27.34534	30.36606	1.3217	0.7566	0.0	130.11327	0.0	0.5	8.34415	8.34415	0.9582	0.9582	1810.87225	55175.762	40.4096	0.0
1360.0	0.0	1.0	7.73739	7.72958	-0.41982	27.30332	30.28355	1.32125	0.75686	0.0	130.27013	0.0	0.5	8.43972	8.43972	0.94446	0.94446	1813.16326	54974.183	40.3158	0.0
1355.0	0.0	1.0	7.74141	7.72556	-0.47159	27.26142	30.20105	1.3208	0.75711	0.0	130.42698	0.0	0.5	8.53698	8.53698	0.93084	0.93084	1815.45384	54773.067	40.2232	0.0
1350.0	0.0	1.0	7.74543	7.72155	-0.5232	27.21964	30.11854	1.32036	0.75737	0.0	130.58384	0.0	0.5	8.63596	8.63596	0.91735	0.91735	1817.74382	54572.414	40.1306	0.0
1345.0	0.0	1.0	7.74944	7.71756	-0.57466	27.17799	30.03603	1.3199	0.75763	0.0	130.7407	0.0	0.5	8.73672	8.73672	0.90398	0.90398	1820.03305	54372.22	40.0388	0.0
1340.0	0.0	1.0	7.75344	7.71358	-0.62596	27.13647	29.95353	1.31945	0.75789	0.0	130.89755	0.0	0.5	8.83929	8.83929	0.89073	0.89073	1822.32138	54172.482	39.9476	0.0
1339.09	0.0	1.0	7.75417	7.71285	-0.6353	27.12891	29.93847	1.31937	0.75794	0.0	130.92619	0.0	0.5	8.85821	8.85821	0.88832	0.88832	1822.73903	54136.067	39.8933	0.0
1335.0	0.0731505	0.92685	7.77486	7.69229	-0.90028	26.46242	30.12259	1.30798	0.76454	0.00311829	131.08735	0.00104668	0.4896	8.99547	12.18972	0.87255	0.6439	1823.6207	52757.808	337.21432	1215.389
1330.0	0.15175	0.84825	7.79744	7.67002	-1.18713	25.74758	30.31336	1.2957	0.77178	0.0585098	131.31362	0.0197888	0.47836	9.16645	55.65703	0.85361	0.14059	1824.71519	51260.343	299.493	2514.022
1325.0	0.22008	0.77992	7.81748	7.65035	-1.44052	25.12281	30.47162	1.28496	0.77824	0.26188	131.56606	0.0891638	0.46851	9.34088	221.66976	0.83506	0.0351883	1825.82581	49939.913	264.086	3636.068
1320.0	0.27998	0.72002	7.83537	7.63281	-1.66645	24.57194	30.60262	1.27545	0.78404	0.69315	131.84036	0.23741	0.45983	9.51903	597.10635	0.81687	0.0130224	1826.95134	48764.957	234.9912	4613.087
1315.0	0.33288	0.66712	7.8515	7.61714	-1.86838	24.0859	30.71153	1.26694	0.7893	1.39855	132.13568	0.48156	0.45212	9.70096	1256.94481	0.79903	0.00616683	1828.09025	47710.736	210.8442	5469.815
1310.0	0.37991	0.62009	7.86613	7.60287	-2.05221	23.64838	30.80111	1.25928	0.79411	2.39393	132.44572	0.82822	0.44522	9.88687	2262.03328	0.78154	0.00341594	1829.24191	46757.621	190.623	6225.878
1305.0	0.42198	0.57802	7.87949	7.58997	-2.21848	23.25841	30.87477	1.25231	0.79853	3.67404	132.77208	1.27657	0.43903	10.07682	3662.84745	0.76438	0.00210289	1830.40437	45889.868	173.5506	6897.016
1300.0	0.45984	0.54016	7.89178	7.578	-2.37263	22.90065	30.93397	1.24595	0.8026	5.22052	133.10817	1.82101	0.43342	10.27114	5502.26196	0.74755	0.00139545	1831.57747	45094.726	159.0284	7495.981
1295.0	0.49408	0.50592	7.90312	7.56705	-2.51365	22.57847	30.98108	1.2401	0.80639	7.00776	133.4568	2.45314	0.42833	10.46984	7820.151	0.73103	9.78722E-4	1832.7589	44361.767	146.5918	8033.196
1290.0	0.5252	0.4748	7.91366	7.55687	-2.64483	22.28262	31.01737	1.2347	0.80991	9.00787	133.81438	3.16359	0.42368	10.67316	10655.23611	0.71482	7.16019E-4	1833.94806	43682.397	135.874	8517.256
1285.0	0.55361	0.44639	7.9235	7.54732	-2.76788	22.00842	31.04409	1.22969	0.81321	11.19249	134.17904	3.94265	0.41941	10.88119	14047.25385	0.69891	5.41383E-4	1835.14392	43049.474	126.5846	8955.296
1280.0	0.57967	0.42033	7.93273	7.53837	-2.88315	21.75503	31.06223	1.22503	0.81631	13.53508	134.55079	4.78108	0.41548	11.09426	18039.87158	0.68328	4.2021E-4	1836.34487	42457.021	118.4906	9353.293
1275.0	0.60365	0.39635	7.94141	7.52999	-2.99109	21.52139	31.07297	1.22066	0.81923	16.01016	134.92967	5.6699	0.41185	11.3124	22679.81229	0.66795	3.33166E-4	1837.54929	41900.003	111.4036	9716.279
1270.0	0.62581	0.37419	7.94962	7.52202	-3.09382	21.30141	31.07678	1.21657	0.82198	18.59654	135.31287	6.60161	0.40849	11.53598	28019.76345	0.65289	2.68801E-4	1838.75665	41374.152	105.1702	10048.52
1265.0	0.64637	0.35363	7.95741	7.51445	-3.19129	21.0954	31.07452	1.21272	0.82459	21.27558	135.7008	7.56951	0.40535	11.76509	34120.40421	0.6381	2.20025E-4	1839.96508	40875.828	99.6648	10353.653
1260.0	0.6655	0.3345	7.96482	7.50728	-3.28373	20.90286	31.0668	1.20908	0.82708	24.0292	136.09341	8.56704	0.40242	11.99997	41046.87603	0.62358	1.82302E-4	1841.17292	40401.912	94.7832	10634.797
1255.0	0.68337	0.31663	7.9719	7.5004	-3.37235	20.72028	31.05411	1.20563	0.82944	26.84634	136.4894	9.59021	0.39967	12.24096	48878.63051	0.60931	1.52593E-4	1842.37918	39949.718	90.4388	10894.634
1250.0	0.70011	0.29989	7.97868	7.4938	-3.45739	20.54707	31.03695	1.20235	0.83171	29.71352	136.88856	10.63406	0.39709	12.48814	57697.98799	0.59529	1.28845E-4	1843.58228	39516.92	86.5596	11135.487
1245.0	0.71583	0.28417	7.98519	7.48744	-3.53926	20.38206	31.01574	1.19922	0.83388	32.62207	137.29037	11.69538	0.39466	12.74188	67602.82392	0.58152	1.09607E-4	1844.78063	39101.501	83.0838	11359.372
1240.0	0.73066	0.26934	7.99147	7.48133	-3.61798	20.22536	30.99089	1.19623	0.83596	35.56418	137.6951	12.77124	0.39235	13.00233	78702.1981	0.568	9.38387E-5	1845.97223	38701.702	79.9598	11568.044
1235.0	0.74466	0.25534	7.99753	7.47541	-3.69428	20.07479	30.96269	1.19336	0.83797	38.53328	138.1018	13.8592	0.39017	13.26987	91115.61914	0.55471	8.07864E-5	1847.156	38315.99	77.1424	11763.037
1230.0	0.75794	0.24206	8.0034	7.46968	-3.7681	19.93057	30.93147	1.19061	0.83991	41.52751	138.51063	14.95849	0.38809	13.54482	104988.1249	0.54165	6.98793E-5	1848.32972	37943.023	74.5934	11945.689
1225.0	0.77055	0.22945	8.00909	7.46413	-3.83964	19.79224	30.89746	1.18795	0.84179	44.53786	138.92126	16.06573	0.38611	13.82735	120460.4198	0.52881	6.07012E-5	1849.49174	37581.629	72.2788	12117.17
1220.0	0.78257	0.21743	8.01462	7.45872	-3.90924	19.65877	30.86089	1.18539	0.8436	47.56256	139.33338	17.18022	0.38422	14.11784	137704.8298	0.5162	5.29226E-5	1850.64065	37230.784	70.169	12278.501
1215.0	0.79403	0.20597	8.02	7.45346	-3.97704	19.52981	30.82199	1.18291	0.84537	50.59977	139.74678	18.30121	0.38242	14.41661	156913.2178	0.50381	4.62886E-5	1851.77474	36889.6	68.2368	12430.569
1210.0	0.805	0.195	8.02526	7.44831	-4.04336	19.40439	30.78099	1.18051	0.84709	53.64795	140.16114	19.42809	0.38068	14.72391	178297.4706	0.49164	4.06001E-5	1852.89296	36557.307	66.4586	12574.142
1205.0	0.8155	0.1845	8.03039	7.44331	-4.10781	19.28377	30.73798	1.17817	0.84877	56.70038	140.57678	20.55829	0.37901	15.04004	202079.4401	0.47969	3.57012E-5	1853.99319	36233.244	64.8126	12709.879
1200.0	0.82556	0.17444	8.0354	7.4384	-4.1711	19.16583	30.69312	1.1759	0.85041	59.75679	140.99273	21.69169	0.37741	15.36536	228518.2165	0.46794	3.14639E-5	1855.07567	35916.847	63.2794	12838.341
1195.0	0.83523	0.16477	8.04031	7.43362	-4.23267	19.0523	30.6465	1.1737	0.85201	62.80955	141.40949	22.82535	0.37587	15.70008	257882.6123	0.45641	2.77866E-5	1856.13849	35607.642	61.841	12960.0
1190.0	0.84449	0.15551	8.04511	7.42893	-4.29315	18.94129	30.59827	1.17154	0.85358	65.85779	141.82621	23.95893	0.37439	16.04447	290484.6672	0.44509	2.4584E-5	1857.18281	35305.23	60.4824	13075.254
1185.0	0.85339	0.14661	8.04982	7.42434	-4.35219	18.83393	30.54846	1.16944	0.85511	68.89272	142.24302	25.08908	0.37296	16.39876	326644.0893	0.43399	2.17878E-5	1858.20802	35009.278	59.1904	13184.434
1183.71	0.85559	0.14441	8.05101	7.42317	-4.36728	18.80664	30.53513	1.16891	0.85549	69.66155	142.3505	25.37563	0.37261	16.49224	336563.31	0.43115	2.11269E-5	1858.47239	34934.177	 	13211.229
1180.0	0.86768	0.13232	8.05604	7.41843	-4.42837	18.67056	30.53347	1.166	0.85763	72.53143	142.71124	26.45555	0.37082	16.74729	375381.9639	0.4235	1.8894E-5	1858.01606	34619.816	77.8924	13387.506
1175.0	0.88203	0.11797	8.06226	7.41258	-4.50375	18.50833	30.52239	1.16241	0.86028	76.07727	143.18426	27.79241	0.36867	17.09785	431123.7037	0.41339	1.63945E-5	1857.42571	34225.431	78.877	13595.883
1170.0	0.89436	0.10564	8.06794	7.40725	-4.57244	18.36637	30.50204	1.15917	0.86268	79.28653	143.64329	29.00455	0.36679	17.45619	490905.0045	0.4035	1.43483E-5	1856.87444	33861.391	72.808	13774.295
1165.0	0.90505	0.0949457	8.07316	7.40236	-4.63537	18.24193	30.47396	1.15622	0.86489	82.22753	144.09105	30.11673	0.36515	17.82262	555174.7493	0.39384	1.26433E-5	1856.36362	33522.271	67.824	13928.166
1160.0	0.91438	0.0856225	8.078	7.39784	-4.69365	18.13163	30.43934	1.15351	0.86692	84.97489	144.52905	31.15631	0.36369	18.19758	624459.7741	0.38438	1.12014E-5	1855.89618	33203.807	63.6928	14061.754
1155.0	0.92256	0.0774437	8.08255	7.39362	-4.74801	18.03321	30.39923	1.15101	0.86881	87.59823	144.95879	32.14888	0.36238	18.58118	699341.3122	0.37513	9.96716E-6	1855.47345	32902.615	60.2384	14178.446
1150.0	0.92977	0.0702267	8.08683	7.38965	-4.79914	17.94458	30.35444	1.14867	0.87057	90.15894	145.38131	33.11713	0.36121	18.974	780455.3958	0.36608	8.89999E-6	1855.09717	32615.978	57.3274	14280.952
1145.0	0.93617	0.0638274	8.0909	7.3859	-4.84739	17.86472	30.30565	1.14647	0.87224	92.70748	145.79777	34.07971	0.36016	19.37624	868508.7659	0.35722	7.96957E-6	1854.76643	32341.703	54.855	14371.468
1143.03	0.93848	0.061523	8.09244	7.38448	-4.86575	17.83529	30.28524	1.14565	0.87287	93.71047	145.96052	34.45822	0.35977	19.53798	905278.2381	0.35377	7.63522E-6	1854.6506	32236.779	 	14403.926
1140.0	0.94401	0.0559908	8.09526	7.38177	-4.90068	17.76737	30.25839	1.14422	0.87396	96.24555	146.24252	35.41385	0.35887	19.78438	972544.978	0.34862	7.09194E-6	1854.38673	32039.731	60.3944	14490.048
1135.0	0.95205	0.0479549	8.09962	7.37755	-4.95498	17.66575	30.21039	1.14198	0.87567	100.53677	146.69441	37.02915	0.35754	20.20136	1090420.048	0.34022	6.30292E-6	1853.88953	31731.566	61.633	14615.188
1130.0	0.9588	0.0411996	8.10364	7.37364	-5.00545	17.57607	30.15782	1.13991	0.87726	104.84343	147.13125	38.64811	0.35638	20.63015	1217019.364	0.33196	5.62721E-6	1853.3376	31443.876	57.538	14720.216
1126.62	0.96274	0.0372622	8.10621	7.37113	-5.03774	17.52123	30.11978	1.1386	0.87827	107.68383	147.41947	39.71531	0.3557	20.9271	1308091.187	0.32646	5.22281E-6	1852.94431	31259.388	 	14781.279
1125.0	0.96711	0.0328857	8.10805	7.36922	-5.06227	17.46413	30.11083	1.13762	0.87903	110.99462	147.65308	40.95745	0.355	21.00647	1367069.836	0.32485	4.99171E-6	1851.53402	31117.156	65.344	14864.637
1120.0	0.9792	0.0208022	8.11346	7.36372	-5.13314	17.30355	30.0886	1.13439	0.88153	120.70948	148.33102	44.60583	0.35307	21.26536	1557713.19	0.31975	4.36513E-6	1847.12043	30713.247	80.7818	15086.609
1115.0	0.98799	0.0120083	8.11803	7.35904	-5.19349	17.17728	30.05147	1.13172	0.88361	127.37004	148.91761	47.11741	0.35162	21.55349	1753113.667	0.31434	3.86468E-6	1842.98041	30376.771	 	15241.576
1115.0	0.988	0.0120029	8.11803	7.35904	-5.19354	17.17716	30.05147	1.13171	0.88362	127.37388	148.91795	47.11887	0.35162	21.55373	1753219.098	0.31434	3.86444E-6	1842.97981	30376.575	67.3344	15241.7
1110.0	1.0	0.0	8.12285	7.3528	-5.27392	16.98121	30.01198	1.12912	0.88564	134.93469	149.64858	49.98616	0.34972	 	1998148.907	 	3.37853E-6	 	29945.668	86.1814	15491.384
1105.0	1.0	0.0	8.12535	7.35052	-5.30325	16.95898	29.92649	1.12825	0.88633	135.40597	150.01224	50.16667	0.34956	 	2179354.065	 	3.08642E-6	 	29734.36998	42.2596	 
1100.0	1.0	0.0	8.12785	7.34826	-5.33232	16.93744	29.84104	1.12738	0.88701	135.87676	150.37525	50.34701	0.3494	 	2378515.993	 	2.81773E-6	 	29566.62354	33.54929	 
1095.0	1.0	0.0	8.13034	7.34601	-5.36134	16.91588	29.75559	1.1265	0.88771	136.34673	150.73661	50.52709	0.34924	 	2597538.161	 	2.57074E-6	 	29399.14916	33.49487	 
1090.0	1.0	0.0	8.13283	7.34376	-5.39029	16.89433	29.67013	1.12562	0.8884	136.81588	151.09633	50.7069	0.34909	 	2838562.364	 	2.34386E-6	 	29231.94638	33.44056	 
1085.0	1.0	0.0	8.13531	7.34152	-5.4192	16.87277	29.58467	1.12473	0.8891	137.28422	151.45441	50.88646	0.34893	 	3103978.294	 	2.13558E-6	 	29065.01468	33.38634	 
1080.0	1.0	0.0	8.13779	7.33928	-5.44804	16.85121	29.49921	1.12383	0.88981	137.75173	151.81085	51.06575	0.34877	 	3396454.49	 	1.9445E-6	 	28898.35359	33.33222	 
1075.0	1.0	0.0	8.14027	7.33705	-5.47683	16.82965	29.41374	1.12293	0.89052	138.21842	152.16567	51.24478	0.34861	 	3718972.807	 	1.7693E-6	 	28731.9626	33.2782	 
1070.0	1.0	0.0	8.14275	7.33482	-5.50556	16.80808	29.32826	1.12203	0.89124	138.68429	152.51887	51.42355	0.34845	 	4074867.713	 	1.60878E-6	 	28565.84122	33.22428	 
1065.0	1.0	0.0	8.14522	7.33259	-5.53423	16.78651	29.24278	1.12112	0.89196	139.14935	152.87046	51.60205	0.34829	 	4467870.964	 	1.46181E-6	 	28399.98897	33.17045	 
1060.0	1.0	0.0	8.14769	7.33037	-5.56284	16.76494	29.15729	1.12021	0.89269	139.61358	153.22043	51.7803	0.34813	 	4902162.294	 	1.32733E-6	 	28234.40534	33.11673	 
1055.0	1.0	0.0	8.15015	7.32815	-5.5914	16.74337	29.0718	1.11929	0.89343	140.077	153.5688	51.95828	0.34798	 	5382426.022	 	1.20436E-6	 	28069.08986	33.0631	 
1050.0	1.0	0.0	8.15261	7.32594	-5.6199	16.72179	28.98631	1.11836	0.89417	140.5396	153.91556	52.13599	0.34782	 	5913916.993	 	1.09199E-6	 	27904.04203	33.00957	 
1045.0	1.0	0.0	8.15507	7.32373	-5.64834	16.70022	28.90081	1.11743	0.89491	141.00138	154.26074	52.31345	0.34766	 	6502534.146	 	9.89393E-7	 	27739.26135	32.95613	 
1040.0	1.0	0.0	8.15753	7.32153	-5.67673	16.67864	28.8153	1.1165	0.89566	141.46234	154.60432	52.49064	0.3475	 	7154904.875	 	8.95771E-7	 	27574.74734	32.9028	 
1035.0	1.0	0.0	8.15998	7.31933	-5.70505	16.65706	28.72979	1.11556	0.89641	141.92248	154.94632	52.66756	0.34734	 	7878480.775	 	8.10404E-7	 	27410.49953	32.84956	 
1030.0	1.0	0.0	8.16242	7.31714	-5.73332	16.63547	28.64427	1.11461	0.89718	142.3818	155.28674	52.84423	0.34718	 	8681647.816	 	7.3262E-7	 	27246.51739	32.79643	 
1025.0	1.0	0.0	8.16487	7.31495	-5.76153	16.61389	28.55875	1.11366	0.89794	142.8403	155.62558	53.02063	0.34703	 	9573849.683	 	6.61797E-7	 	27082.80061	32.74336	 
1020.0	1.0	0.0	8.16731	7.31276	-5.78969	16.5923	28.47322	1.1127	0.89871	143.29799	155.96286	53.19677	0.34687	 	1.056573201E7	 	5.9736E-7	 	26919.34886	32.69035	 
1015.0	1.0	0.0	8.16974	7.31058	-5.81778	16.57072	28.38768	1.11174	0.89949	143.75486	156.29857	53.37264	0.34671	 	1.166930325E7	 	5.38776E-7	 	26756.16139	32.63749	 
1010.0	1.0	0.0	8.17218	7.3084	-5.84582	16.54913	28.30215	1.11077	0.90028	144.2109	156.63272	53.54826	0.34655	 	1.289812277E7	 	4.85554E-7	 	26593.23771	32.58473	 
1005.0	1.0	0.0	8.1746	7.30623	-5.8738	16.52754	28.2166	1.1098	0.90107	144.66613	156.96532	53.7236	0.34639	 	1.426751344E7	 	4.3724E-7	 	26430.57733	32.53208	 
1000.0	1.0	0.0	8.17703	7.30407	-5.90173	16.50595	28.13105	1.10882	0.90186	145.12055	157.29637	53.89869	0.34623	 	1.579480476E7	 	3.93416E-7	 	26268.17976	32.47951	 
998.42	1.0	0.0	8.1778	7.30338	-5.91053	16.49914	28.10404	1.10851	0.90211	145.26383	157.40057	53.95391	0.34618	 	1.63128261E7	 	3.80451E-7	 	26216.96416	 	 
995.0	1.0	0.0	8.17944	7.30191	-5.92945	16.48488	28.0455	1.10783	0.90266	145.57471	157.62681	54.07371	0.34608	 	1.750032584E7	 	3.53681E-7	 	26105.77462	32.48103	 
990.0	1.0	0.0	8.18184	7.29977	-5.95708	16.464	27.95995	1.10684	0.90347	146.02826	157.95605	54.24854	0.34592	 	1.940604594E7	 	3.17691E-7	 	25943.5313	32.44866	 
985.0	1.0	0.0	8.18424	7.29763	-5.98465	16.44308	27.8744	1.10584	0.90429	146.48096	158.28369	54.42309	0.34576	 	2.153690412E7	 	2.85125E-7	 	25781.57178	32.39191	 
980.0	1.0	0.0	8.18664	7.29549	-6.01218	16.42213	27.78884	1.10484	0.90511	146.93279	158.60972	54.59736	0.3456	 	2.392153983E7	 	2.55682E-7	 	25619.89439	32.33548	 
975.0	1.0	0.0	8.18903	7.29336	-6.03966	16.40115	27.70327	1.10383	0.90594	147.38377	158.93416	54.77136	0.34545	 	2.659249019E7	 	2.29084E-7	 	25458.4975	32.27938	 
970.0	1.0	0.0	8.19143	7.29123	-6.06709	16.38014	27.6177	1.10281	0.90677	147.83389	159.25702	54.94507	0.34529	 	2.958675885E7	 	2.05075E-7	 	25297.37956	32.22359	 
965.0	1.0	0.0	8.19381	7.2891	-6.09447	16.3591	27.53212	1.10179	0.90761	148.28316	159.5783	55.11851	0.34513	 	3.294646303E7	 	1.83422E-7	 	25136.53906	32.1681	 
960.0	1.0	0.0	8.1962	7.28698	-6.1218	16.33803	27.44653	1.10076	0.90846	148.73157	159.89801	55.29168	0.34497	 	3.671959206E7	 	1.6391E-7	 	24975.97451	32.11291	 
955.0	1.0	0.0	8.19858	7.28486	-6.14909	16.31693	27.36094	1.09973	0.90931	149.17913	160.21616	55.46457	0.34481	 	4.096087394E7	 	1.46342E-7	 	24815.68448	32.05801	 
950.0	1.0	0.0	8.20096	7.28275	-6.17632	16.29581	27.27534	1.09869	0.91017	149.62585	160.53276	55.63718	0.34466	 	4.573278367E7	 	1.30539E-7	 	24655.66759	32.00338	 
945.0	1.0	0.0	8.20334	7.28064	-6.2035	16.27467	27.18974	1.09764	0.91104	150.07172	160.84782	55.80952	0.3445	 	5.110671347E7	 	1.16335E-7	 	24495.92249	31.94902	 
940.0	1.0	0.0	8.20571	7.27854	-6.23063	16.2535	27.10413	1.09659	0.91192	150.51675	161.16134	55.98159	0.34434	 	5.716432419E7	 	1.0358E-7	 	24336.44785	31.89493	 
935.0	1.0	0.0	8.20808	7.27643	-6.2577	16.23232	27.01851	1.09553	0.9128	150.96093	161.47333	56.15338	0.34418	 	6.399911363E7	 	9.21369E-8	 	24177.24242	31.84109	 
930.0	1.0	0.0	8.21045	7.27434	-6.28473	16.21111	26.93288	1.09447	0.91369	151.40426	161.7838	56.3249	0.34403	 	7.171825191E7	 	8.18798E-8	 	24018.30496	31.78749	 
927.22	1.0	0.0	8.21176	7.27317	-6.29971	16.19933	26.88533	1.09387	0.91418	151.65009	161.95555	56.42002	0.34394	 	7.643115871E7	 	7.66536E-8	 	23930.16073	 	 
925.0	1.0	0.0	8.21277	7.27228	-6.31122	16.19185	26.85211	1.0932	0.91475	151.84772	162.09496	56.49645	0.34387	 	8.040734029E7	 	7.27281E-8	 	23845.47102	34.56679	 
920.0	1.0	0.0	8.21504	7.27027	-6.3371	16.17494	26.77822	1.09164	0.91605	152.29128	162.40707	56.66802	0.34371	 	9.018343215E7	 	6.45736E-8	 	23655.57028	37.98015	 
915.0	1.0	0.0	8.21731	7.26826	-6.36296	16.15792	26.70462	1.09006	0.91738	152.73384	162.71747	56.83926	0.34356	 	1.012464904E8	 	5.72767E-8	 	23466.41889	37.83028	 
910.0	1.0	0.0	8.21958	7.26626	-6.3888	16.14079	26.62968	1.08853	0.91867	153.17541	163.02616	57.01018	0.3434	 	1.137786461E8	 	5.07535E-8	 	23278.0093	37.68192	 
905.0	1.0	0.0	8.22184	7.26425	-6.41461	16.12356	26.55479	1.08699	0.91998	153.61596	163.33314	57.18075	0.34325	 	1.279895783E8	 	4.49275E-8	 	23090.334	37.53506	 
900.0	1.0	0.0	8.22411	7.26225	-6.44041	16.10622	26.47953	1.08545	0.92128	154.0555	163.63839	57.35099	0.34309	 	1.44120947E8	 	3.97295E-8	 	22903.38554	37.38969	 
895.0	1.0	0.0	8.22638	7.26025	-6.46618	16.08878	26.40385	1.08392	0.92258	154.49401	163.94193	57.52089	0.34294	 	1.624515816E8	 	3.50963E-8	 	22717.15648	37.24581	 
890.0	1.0	0.0	8.22864	7.25825	-6.49193	16.07125	26.32772	1.0824	0.92387	154.9315	164.24376	57.69045	0.34278	 	1.83303548E8	 	3.09707E-8	 	22531.63946	37.1034	 
885.0	1.0	0.0	8.23091	7.25626	-6.51765	16.05363	26.25113	1.08089	0.92516	155.36797	164.54389	57.85966	0.34263	 	2.070493047E8	 	2.73009E-8	 	22346.82712	36.96247	 
881.71	1.0	0.0	8.2324	7.25494	-6.53457	16.04198	26.20044	1.07991	0.92601	155.6548	164.74058	57.9709	0.34253	 	2.244705245E8	 	2.51105E-8	 	22225.51915	 	 
880.0	1.0	0.0	8.23346	7.25401	-6.54662	16.02168	26.15937	1.08	0.92592	155.86354	164.88067	58.05198	0.34245	 	2.348816021E8	 	2.3962E-8	 	22145.23032	40.31936	 
875.0	1.0	0.0	8.23655	7.25129	-6.58167	15.96282	26.04132	1.08019	0.92576	156.46875	165.28623	58.2871	0.34222	 	2.683939191E8	 	2.08791E-8	 	21912.30409	46.58525	 
870.0	1.0	0.0	8.23961	7.24859	-6.61637	15.90478	25.92547	1.0803	0.92567	157.06536	165.68514	58.51895	0.342	 	3.069821371E8	 	1.81751E-8	 	21682.48409	45.964	 
865.0	1.0	0.0	8.24264	7.24593	-6.65073	15.84754	25.8112	1.08033	0.92564	157.65376	166.07768	58.74768	0.34179	 	3.514606392E8	 	1.58055E-8	 	21455.65827	45.36516	 
860.0	1.0	0.0	8.24565	7.24328	-6.68477	15.79106	25.69866	1.0803	0.92567	158.23431	166.46408	58.97342	0.34157	 	4.027820081E8	 	1.37311E-8	 	21231.71787	44.78808	 
855.0	1.0	0.0	8.24863	7.24067	-6.71849	15.73532	25.58771	1.08019	0.92576	158.80733	166.8446	59.1963	0.34136	 	4.620619267E8	 	1.19166E-8	 	21010.5575	44.23207	 
850.0	1.0	0.0	8.25158	7.23807	-6.7519	15.68028	25.47825	1.08003	0.9259	159.37316	167.21947	59.41644	0.34115	 	5.306085118E8	 	1.03312E-8	 	20792.07515	43.69647	 
845.0	1.0	0.0	8.2539	7.23604	-6.77805	15.65748	25.39505	1.07874	0.92701	159.79893	167.50177	59.5821	0.341	 	6.054591725E8	 	9.01368E-9	 	20640.66817	30.28139	 
840.0	1.0	0.0	8.25621	7.23402	-6.80414	15.63466	25.31184	1.07745	0.92812	160.22389	167.78268	59.7475	0.34084	 	6.916881965E8	 	7.85471E-9	 	20486.41585	30.85047	 
835.0	1.0	0.0	8.25852	7.232	-6.83017	15.61184	25.22862	1.07615	0.92924	160.64804	168.06221	59.91263	0.34069	 	7.911479122E8	 	6.8364E-9	 	20332.41008	30.80115	 
830.0	1.0	0.0	8.26082	7.22998	-6.85614	15.589	25.14539	1.07484	0.93037	161.07139	168.34037	60.0775	0.34053	 	9.060119454E8	 	5.94275E-9	 	20178.65036	30.75194	 
825.0	1.0	0.0	8.26312	7.22797	-6.88205	15.56616	25.06216	1.07352	0.93152	161.49392	168.61716	60.2421	0.34037	 	1.038834349E9	 	5.15943E-9	 	20025.13617	30.70284	 
820.0	1.0	0.0	8.26541	7.22596	-6.90791	15.54331	24.97891	1.07219	0.93267	161.91565	168.89259	60.40645	0.34022	 	1.192620241E9	 	4.47367E-9	 	19871.86704	30.65383	 
815.0	1.0	0.0	8.2677	7.22396	-6.9337	15.52045	24.89566	1.07086	0.93383	162.33657	169.16665	60.57052	0.34006	 	1.3709103E9	 	3.87406E-9	 	19718.84242	30.60492	 
810.0	1.0	0.0	8.26999	7.22196	-6.95943	15.49758	24.81239	1.06951	0.93501	162.75668	169.43936	60.73433	0.33991	 	1.577882002E9	 	3.35043E-9	 	19566.06184	30.55612	 
805.0	1.0	0.0	8.27227	7.21997	-6.9851	15.4747	24.72912	1.06816	0.93619	163.17598	169.71071	60.89788	0.33975	 	1.818471073E9	 	2.89374E-9	 	19413.52475	30.50742	 
800.0	1.0	0.0	8.27455	7.21798	-7.01072	15.45181	24.64583	1.0668	0.93738	163.59447	169.98072	61.06116	0.3396	 	2.098517424E9	 	2.49594E-9	 	19261.23066	30.45882	 
795.0	1.0	0.0	8.27682	7.216	-7.03627	15.42891	24.56254	1.06543	0.93859	164.01215	170.24938	61.22418	0.33944	 	2.424940769E9	 	2.1499E-9	 	19109.17903	30.41033	 
790.0	1.0	0.0	8.27909	7.21402	-7.06176	15.406	24.47923	1.06405	0.9398	164.42903	170.5167	61.38694	0.33928	 	2.805952278E9	 	1.84927E-9	 	18957.36935	30.36194	 
785.0	1.0	0.0	8.28136	7.21205	-7.0872	15.38308	24.39592	1.06266	0.94103	164.8451	170.78268	61.54943	0.33913	 	3.25131006E9	 	1.58846E-9	 	18805.80109	30.31365	 
780.0	1.0	0.0	8.28362	7.21008	-7.11257	15.36015	24.3126	1.06127	0.94227	165.26035	171.04733	61.71165	0.33897	 	3.772628036E9	 	1.36249E-9	 	18654.47373	30.26547	 
775.0	1.0	0.0	8.28588	7.20811	-7.13789	15.33722	24.22926	1.05986	0.94352	165.6748	171.31065	61.87361	0.33882	 	4.383749956E9	 	1.16698E-9	 	18503.38672	30.2174	 
770.0	1.0	0.0	8.28814	7.20615	-7.16314	15.31427	24.14591	1.05845	0.94478	166.08845	171.57264	62.0353	0.33866	 	5.101203023E9	 	9.9807E-10	 	18352.53954	30.16944	 
765.0	1.0	0.0	8.29039	7.2042	-7.18834	15.29132	24.06256	1.05702	0.94605	166.50128	171.83332	62.19673	0.33851	 	5.944748971E9	 	8.52341E-10	 	18201.93164	30.12158	 
760.0	1.0	0.0	8.29263	7.20225	-7.21347	15.26835	23.97919	1.05559	0.94734	166.91331	172.09268	62.3579	0.33835	 	6.938054655E9	 	7.26796E-10	 	18051.56246	30.07383	 
755.0	1.0	0.0	8.29487	7.2003	-7.23854	15.24538	23.89581	1.05415	0.94864	167.32453	172.35072	62.5188	0.33819	 	8.109509414E9	 	6.18798E-10	 	17901.43149	30.0262	 
750.0	1.0	0.0	8.29711	7.19836	-7.26356	15.22239	23.81242	1.05269	0.94994	167.73494	172.60746	62.67943	0.33804	 	9.493223065E9	 	5.26032E-10	 	17751.53813	29.97867	 
745.0	1.0	0.0	8.29934	7.19642	-7.28851	15.1994	23.72902	1.05123	0.95127	168.14454	172.86289	62.8398	0.33788	 	1.11302E10	 	4.46471E-10	 	17601.88183	29.93126	 
740.0	1.0	0.0	8.30157	7.19449	-7.31341	15.1764	23.64561	1.04976	0.9526	168.55333	173.11702	62.9999	0.33773	 	1.3070099999999998E10	 	3.7834E-10	 	17452.46204	29.88396	 
735.0	1.0	0.0	8.3038	7.19256	-7.33824	15.15339	23.56219	1.04828	0.95395	168.96132	173.36985	63.15974	0.33757	 	1.5372399999999998E10	 	3.20088E-10	 	17303.27815	29.83678	 
730.0	1.0	0.0	8.30602	7.19064	-7.36302	15.13037	23.47875	1.04678	0.95531	169.3685	173.62139	63.31931	0.33742	 	1.81097E10	 	2.7036E-10	 	17154.32961	29.78971	 
725.0	1.0	0.0	8.30823	7.18872	-7.38773	15.10734	23.3953	1.04528	0.95668	169.77487	173.87164	63.47861	0.33726	 	2.13693E10	 	2.27977E-10	 	17005.61581	29.74276	 
720.0	1.0	0.0	8.31045	7.18681	-7.41238	15.0843	23.31185	1.04377	0.95807	170.18043	174.1206	63.63765	0.3371	 	2.5257799999999996E10	 	1.91914E-10	 	16857.13617	29.69593	 
715.0	1.0	0.0	8.31265	7.1849	-7.43698	15.06125	23.22838	1.04225	0.95947	170.58519	174.36828	63.79643	0.33695	 	2.9904399999999996E10	 	1.61278E-10	 	16708.89005	29.64922	 
710.0	1.0	0.0	8.31486	7.18299	-7.46151	15.03819	23.14489	1.04071	0.96088	170.98914	174.61469	63.95494	0.33679	 	3.54666E10	 	1.35297E-10	 	16560.87686	29.60264	 
705.0	1.0	0.0	8.31706	7.18109	-7.48598	15.01512	23.0614	1.03917	0.96231	171.39228	174.85982	64.11318	0.33664	 	4.21368E10	 	1.133E-10	 	16413.09595	29.55618	 
700.0	1.0	0.0	8.31925	7.1792	-7.51039	14.99205	22.97789	1.03761	0.96375	171.79461	175.10367	64.27116	0.33648	 	5.015029999999999E10	 	9.47094E-11	 	16265.5467	29.50985	 
695.0	1.0	0.0	8.32144	7.17731	-7.53475	14.96896	22.89437	1.03605	0.96521	172.19614	175.34627	64.42887	0.33633	 	5.979519999999999E10	 	7.90248E-11	 	16118.22845	29.46365	 
690.0	1.0	0.0	8.32363	7.17542	-7.55904	14.94586	22.81084	1.03447	0.96668	172.59685	175.58759	64.58631	0.33617	 	7.14252E10	 	6.58156E-11	 	15971.14053	29.41758	 
685.0	1.0	0.0	8.32581	7.17354	-7.58327	14.92276	22.72729	1.03288	0.96816	172.99677	175.82766	64.74349	0.33602	 	8.54757E10	 	5.47113E-11	 	15824.28227	29.37165	 
680.0	1.0	0.0	8.32799	7.17166	-7.60744	14.89965	22.64373	1.03129	0.96966	173.39587	176.06648	64.9004	0.33586	 	1.02483E11	 	4.53937E-11	 	15677.65298	29.32586	 
675.0	1.0	0.0	8.33017	7.16979	-7.63155	14.87652	22.56016	1.02968	0.97118	173.79417	176.30404	65.05704	0.33571	 	1.2311E11	 	3.75899E-11	 	15531.25194	29.28021	 
670.0	1.0	0.0	8.33233	7.16793	-7.6556	14.85339	22.47658	1.02806	0.97271	174.19166	176.54035	65.21342	0.33555	 	1.48176E11	 	3.10663E-11	 	15385.07843	29.2347	 
665.0	1.0	0.0	8.3345	7.16606	-7.67959	14.83025	22.39298	1.02642	0.97426	174.58834	176.77542	65.36953	0.3354	 	1.78699E11	 	2.56235E-11	 	15239.1317	29.18935	 
660.0	1.0	0.0	8.33666	7.16421	-7.70351	14.80709	22.30937	1.02478	0.97582	174.98421	177.00924	65.52538	0.33524	 	2.15941E11	 	2.10913E-11	 	15093.41198	29.14394	 
655.0	1.0	0.0	8.33882	7.16235	-7.72738	14.78393	22.22574	1.02312	0.9774	175.37928	177.24183	65.68095	0.33508	 	2.61479E11	 	1.73248E-11	 	14947.92434	29.09753	 
650.0	1.0	0.0	8.34097	7.16051	-7.75119	14.76076	22.1421	1.02146	0.97899	175.77354	177.47319	65.83626	0.33493	 	3.17276E11	 	1.42011E-11	 	14802.67565	29.04974	 
645.0	1.0	0.0	8.34312	7.15866	-7.77493	14.73758	22.05845	1.01978	0.98061	176.167	177.70332	65.99131	0.33477	 	3.85791E11	 	1.16158E-11	 	14657.66541	29.00205	 
640.0	1.0	0.0	8.34526	7.15683	-7.79861	14.71439	21.97478	1.01808	0.98224	176.55964	177.93221	66.14608	0.33462	 	4.70108E11	 	9.48049E-12	 	14512.89312	28.95446	 
635.0	1.0	0.0	8.3474	7.15499	-7.82224	14.69119	21.89109	1.01638	0.98388	176.95148	178.15989	66.30059	0.33446	 	5.74101E11	 	7.72068E-12	 	14368.35827	28.90697	 
630.0	1.0	0.0	8.34953	7.15316	-7.8458	14.66799	21.80739	1.01466	0.98555	177.34252	178.38635	66.45484	0.33431	 	7.02652E11	 	6.27345E-12	 	14224.06038	28.85958	 
625.0	1.0	0.0	8.35166	7.15134	-7.8693	14.64477	21.72368	1.01293	0.98723	177.73274	178.61159	66.60881	0.33415	 	8.61924E11	 	5.08588E-12	 	14079.99884	28.81231	 
620.0	1.0	0.0	8.35379	7.14952	-7.89274	14.62154	21.63995	1.01119	0.98893	178.12216	178.83561	66.76252	0.334	 	1.05972E12	 	4.11358E-12	 	13936.1729	28.76519	 
615.0	1.0	0.0	8.35591	7.1477	-7.91612	14.5983	21.55621	1.00944	0.99065	178.51078	179.05843	66.91596	0.33384	 	1.30594E12	 	3.31932E-12	 	13792.58222	28.71814	 
610.0	1.0	0.0	8.35802	7.14589	-7.93944	14.57506	21.47245	1.00767	0.99239	178.89858	179.28005	67.06913	0.33369	 	1.61318E12	 	2.67201E-12	 	13649.2263	28.67118	 
605.0	1.0	0.0	8.36014	7.14409	-7.9627	14.5518	21.38867	1.00589	0.99414	179.28558	179.50046	67.22203	0.33353	 	1.99751E12	 	2.14569E-12	 	13506.10466	28.62433	 
600.0	1.0	0.0	8.36224	7.14229	-7.98589	14.52854	21.30488	1.0041	0.99592	179.67177	179.71967	67.37467	0.33338	 	2.47945E12	 	1.71878E-12	 	13363.21683	28.57757	 
595.0	1.0	0.0	8.36435	7.14049	-8.00903	14.50527	21.22108	1.00229	0.99772	180.05716	179.93769	67.52704	0.33322	 	3.08535E12	 	1.37334E-12	 	13220.56233	28.5309	 
590.0	1.0	0.0	8.36645	7.1387	-8.0321	14.48198	21.13725	1.00047	0.99953	180.44174	180.15452	67.67914	0.33307	 	3.84905E12	 	1.09451E-12	 	13078.14068	28.48433	 
585.0	1.0	0.0	8.36854	7.13692	-8.05511	14.45869	21.05341	0.99864	1.00137	180.82551	180.37015	67.83097	0.33291	 	4.81417E12	 	8.70018E-13	 	12935.95141	28.43785	 
580.0	1.0	0.0	8.37063	7.13513	-8.07806	14.43539	20.96955	0.99679	1.00322	181.20848	180.58461	67.98254	0.33276	 	6.0371E12	 	6.89737E-13	 	12793.99405	28.39147	 
575.0	1.0	0.0	8.37271	7.13336	-8.10095	14.41208	20.88568	0.99492	1.0051	181.59064	180.79788	68.13383	0.3326	 	7.59093E12	 	5.45337E-13	 	12652.26814	28.34518	 
570.0	1.0	0.0	8.37479	7.13159	-8.12378	14.38876	20.80179	0.99305	1.007	181.98717	181.02507	68.29056	0.33245	 	9.57063E12	 	4.29983E-13	 	12510.77321	28.29899	 
565.0	1.0	0.0	8.37687	7.12982	-8.14655	14.36543	20.71788	0.99116	1.00892	182.36769	181.23595	68.44131	0.33229	 	1.21E13	 	3.38081E-13	 	12369.5088	28.25288	 
560.0	1.0	0.0	8.37894	7.12806	-8.16925	14.34209	20.63395	0.98925	1.01086	182.7474	181.44565	68.59179	0.33214	 	1.53411E13	 	2.65066E-13	 	12228.47446	28.20687	 
555.0	1.0	0.0	8.38101	7.1263	-8.1919	14.31874	20.55	0.98733	1.01283	183.12631	181.65419	68.742	0.33198	 	1.95061E13	 	2.07217E-13	 	12087.66973	28.16095	 
550.0	1.0	0.0	8.38307	7.12455	-8.21448	14.29538	20.46604	0.9854	1.01482	183.50441	181.86157	68.89195	0.33183	 	2.48743E13	 	1.61516E-13	 	11947.09415	28.11512	 
545.0	1.0	0.0	8.38513	7.1228	-8.237	14.27201	20.38206	0.98345	1.01683	183.8817	182.06778	69.04162	0.33167	 	3.18143E13	 	1.25516E-13	 	11806.74729	28.06937	 
540.0	1.0	0.0	8.38718	7.12105	-8.25946	14.24864	20.29806	0.98148	1.01887	184.25819	182.27283	69.19103	0.33152	 	4.08139E13	 	9.72411E-14	 	11666.62869	28.02372	 
535.0	1.0	0.0	8.38923	7.11932	-8.28185	14.22525	20.21404	0.9795	1.02093	184.63387	182.47673	69.34016	0.33136	 	5.25209E13	 	7.51012E-14	 	11526.73792	27.97815	 
530.0	1.0	0.0	8.39127	7.11758	-8.30419	14.20185	20.13	0.97751	1.02301	185.00874	182.67947	69.48903	0.33121	 	6.77985E13	 	5.78181E-14	 	11387.07454	27.93268	 
525.0	1.0	0.0	8.39331	7.11585	-8.32646	14.17845	20.04594	0.97549	1.02512	185.38264	182.8809	69.63757	0.33105	 	8.78005E13	 	4.43684E-14	 	11247.63811	27.88729	 
520.0	1.0	0.0	8.39534	7.11413	-8.34868	14.15504	19.96186	0.97347	1.02726	185.7559	183.08136	69.78589	0.3309	 	1.14075E14	 	3.39353E-14	 	11108.4282	27.84198	 
515.0	1.0	0.0	8.39737	7.11241	-8.37083	14.13161	19.87776	0.97142	1.02942	186.12835	183.28067	69.93396	0.33074	 	1.48705E14	 	2.58684E-14	 	10969.4444	27.79676	 
510.0	1.0	0.0	8.3994	7.11069	-8.39291	14.10818	19.79364	0.96936	1.03161	186.5	183.47884	70.08175	0.33059	 	1.94505E14	 	1.96517E-14	 	10830.68626	27.75163	 
505.0	1.0	0.0	8.40142	7.10899	-8.41494	14.08474	19.7095	0.96728	1.03382	186.87084	183.67588	70.22927	0.33043	 	2.5529099999999997E14	 	1.4877E-14	 	10692.15339	27.70657	 
500.0	1.0	0.0	8.40343	7.10728	-8.4369	14.06128	19.62533	0.96519	1.03607	187.24088	183.87179	70.37652	0.33028	 	3.36254E14	 	1.12223E-14	 	10553.84536	27.66161	 
495.0	1.0	0.0	8.40545	7.10558	-8.45881	14.03782	19.54115	0.96308	1.03834	187.61011	184.06656	70.5235	0.33012	 	4.44484E14	 	8.43484E-15	 	10415.76177	27.61672	 
490.0	1.0	0.0	8.40745	7.10388	-8.48065	14.01435	19.45694	0.96095	1.04064	187.97853	184.26021	70.67021	0.32997	 	5.89702E14	 	6.31631E-15	 	10277.90221	27.57191	 
485.0	1.0	0.0	8.40945	7.10219	-8.50243	13.99087	19.37271	0.95881	1.04296	188.34614	184.45274	70.81665	0.32982	 	7.85289E14	 	4.71208E-15	 	10140.26628	27.52719	 
480.0	1.0	0.0	8.41145	7.10051	-8.52414	13.96738	19.28846	0.95664	1.04532	188.71295	184.64414	70.96282	0.32966	 	1.04973E15	 	3.50179E-15	 	10002.85358	27.48254	 
475.0	1.0	0.0	8.41344	7.09883	-8.5458	13.94389	19.20419	0.95446	1.04771	189.07895	184.83444	71.10872	0.32951	 	1.40867E15	 	2.59218E-15	 	9865.66374	27.43797	 
470.0	1.0	0.0	8.41543	7.09715	-8.56739	13.92038	19.11989	0.95226	1.05013	189.44415	185.02361	71.25436	0.32935	 	1.89785E15	 	1.91118E-15	 	9728.69635	27.39348	 
465.0	1.0	0.0	8.41741	7.09548	-8.58892	13.89686	19.03557	0.95005	1.05258	189.80854	185.21168	71.39972	0.3292	 	2.56725E15	 	1.40334E-15	 	9591.95106	27.34906	 
460.0	1.0	0.0	8.41939	7.09381	-8.61039	13.87333	18.95123	0.94781	1.05506	190.17213	185.39864	71.54481	0.32904	 	3.48709E15	 	1.02616E-15	 	9455.42747	27.30472	 
455.0	1.0	0.0	8.42136	7.09215	-8.63179	13.8498	18.86686	0.94556	1.05758	190.5349	185.58449	71.68963	0.32889	 	4.75647E15	 	7.47176E-16	 	9319.12522	27.26045	 
450.0	1.0	0.0	8.42333	7.0905	-8.65313	13.82625	18.78246	0.94328	1.06013	190.89688	185.76925	71.83418	0.32873	 	6.51584E15	 	5.41682E-16	 	9183.04394	27.21626	 
445.0	1.0	0.0	8.42529	7.08884	-8.67442	13.8027	18.69804	0.94099	1.06271	191.25804	185.9529	71.97845	0.32858	 	8.9652E15	 	3.90969E-16	 	9047.1833	27.17213	 
440.0	1.0	0.0	8.42725	7.0872	-8.69563	13.77913	18.6136	0.93868	1.06533	191.6184	186.13547	72.12246	0.32842	 	1.23906E16	 	2.80915E-16	 	8911.54293	27.12807	 
435.0	1.0	0.0	8.4292	7.08556	-8.71679	13.75556	18.52913	0.93635	1.06798	191.97795	186.31693	72.2662	0.32827	 	1.7203200000000002E16	 	2.0091E-16	 	8776.1225	27.08409	 
430.0	1.0	0.0	8.43115	7.08392	-8.73788	13.73198	18.44463	0.93399	1.07067	192.3367	186.49732	72.40966	0.32811	 	2.39968E16	 	1.43015E-16	 	8640.92165	27.04017	 
425.0	1.0	0.0	8.43309	7.08229	-8.75891	13.70838	18.36011	0.93162	1.0734	192.69464	186.67661	72.55286	0.32796	 	3.3633200000000004E16	 	1.01314E-16	 	8505.94009	26.99631	 
420.0	1.0	0.0	8.43503	7.08066	-8.77988	13.68478	18.27555	0.92923	1.07616	193.05178	186.85482	72.69578	0.32781	 	4.73693E16	 	7.14195E-17	 	8371.17747	26.95252	 
415.0	1.0	0.0	8.43696	7.07904	-8.80079	13.66117	18.19097	0.92682	1.07896	193.4081	187.03195	72.83843	0.32765	 	6.7048400000000008E16	 	5.00935E-17	 	8236.63353	26.90879	 
410.0	1.0	0.0	8.43889	7.07742	-8.82163	13.63755	18.10637	0.92438	1.08181	193.76363	187.20801	72.98081	0.3275	 	9.53867E16	 	3.49555E-17	 	8102.30804	26.8651	 
405.0	1.0	0.0	8.44082	7.0758	-8.84241	13.61392	18.02173	0.92192	1.08469	194.11834	187.38299	73.12292	0.32734	 	1.3641E17	 	2.42643E-17	 	7968.2008	26.82145	 
400.0	1.0	0.0	8.44274	7.0742	-8.86313	13.59028	17.93706	0.91945	1.08761	194.47225	187.5569	73.26476	0.32719	 	1.96115E17	 	1.67528E-17	 	7834.31159	26.77784	 
395.0	1.0	0.0	8.44465	7.07259	-8.88378	13.56663	17.85237	0.91695	1.09058	194.82536	187.72974	73.40633	0.32703	 	2.83488E17	 	1.15034E-17	 	7700.6402	26.73428	 
390.0	1.0	0.0	8.44656	7.07099	-8.90438	13.54298	17.76764	0.91443	1.09358	195.17766	187.90152	73.54762	0.32688	 	4.12072E17	 	7.85463E-18	 	7567.18647	26.69075	 
385.0	1.0	0.0	8.44846	7.0694	-8.92491	13.51931	17.68288	0.91188	1.09663	195.52915	188.07223	73.68864	0.32673	 	6.02391E17	 	5.33252E-18	 	7433.95019	26.64726	 
380.0	1.0	0.0	8.45036	7.06781	-8.94537	13.49563	17.59809	0.90931	1.09973	195.87984	188.24189	73.82939	0.32657	 	8.85747E17	 	3.59907E-18	 	7300.93119	26.6038	 
375.0	1.0	0.0	8.45226	7.06623	-8.96578	13.47195	17.51327	0.90672	1.10287	196.22972	188.41049	73.96987	0.32642	 	1.31016E18	 	2.41456E-18	 	7168.12932	26.56037	 
370.0	1.0	0.0	8.45414	7.06465	-8.98612	13.44825	17.42842	0.90411	1.10606	196.5788	188.57803	74.11008	0.32626	 	1.94976E18	 	1.60997E-18	 	7035.54443	26.51698	 
365.0	1.0	0.0	8.45603	7.06308	-9.0064	13.42455	17.34353	0.90147	1.1093	196.92707	188.74453	74.25001	0.32611	 	2.91974E18	 	1.06676E-18	 	6903.17638	26.47361	 
360.0	1.0	0.0	8.45791	7.06151	-9.02661	13.40083	17.25861	0.89881	1.11258	197.27453	188.90997	74.38968	0.32595	 	4.40024E18	 	7.0229E-19	 	6771.02502	26.43027	 
355.0	1.0	0.0	8.45978	7.05994	-9.04676	13.37711	17.17365	0.89612	1.11592	197.62119	189.07438	74.52907	0.3258	 	6.67491E18	 	4.59309E-19	 	6639.09026	26.38695	 
350.0	1.0	0.0	8.46165	7.05838	-9.06685	13.35338	17.08866	0.89341	1.11931	197.96704	189.23774	74.66818	0.32565	 	1.01934E19	 	2.98374E-19	 	6507.37198	26.34365	 
345.0	1.0	0.0	8.46351	7.05683	-9.08688	13.32963	17.00363	0.89067	1.12275	198.31209	189.40006	74.80703	0.32549	 	1.56735E19	 	1.92493E-19	 	6375.8701	26.30038	 
340.0	1.0	0.0	8.46537	7.05528	-9.10684	13.30588	16.91856	0.88791	1.12624	198.65633	189.56134	74.9456	0.32534	 	2.42695E19	 	1.23309E-19	 	6244.58454	26.25711	 
335.0	1.0	0.0	8.46723	7.05373	-9.12674	13.28212	16.83346	0.88512	1.12979	198.99976	189.72159	75.0839	0.32518	 	3.7851E19	 	7.84188E-20	 	6113.51522	26.21386	 
330.0	1.0	0.0	8.46908	7.05219	-9.14658	13.25835	16.74832	0.88231	1.13339	199.34239	189.88081	75.22193	0.32503	 	5.94695E19	 	4.95014E-20	 	5982.6621	26.17062	 
325.0	1.0	0.0	8.47092	7.05066	-9.16635	13.23457	16.66314	0.87947	1.13705	199.68422	190.03901	75.35968	0.32487	 	9.41438E19	 	3.10102E-20	 	5852.02516	26.12739	 
320.0	1.0	0.0	8.47276	7.04913	-9.18606	13.21078	16.57792	0.8766	1.14077	200.02524	190.19617	75.49716	0.32472	 	1.50194E20	 	1.92752E-20	 	5721.60435	26.08416	 
315.0	1.0	0.0	8.47459	7.0476	-9.20571	13.18698	16.49266	0.8737	1.14455	200.36545	190.35232	75.63437	0.32457	 	2.4152499999999997E20	 	1.18853E-20	 	5591.39969	26.04093	 
310.0	1.0	0.0	8.47642	7.04608	-9.22529	13.16318	16.40736	0.87078	1.1484	200.70486	190.50744	75.7713	0.32441	 	3.9157099999999997E20	 	7.26869E-21	 	5461.41118	25.9977	 
305.0	1.0	0.0	8.47824	7.04457	-9.24481	13.13936	16.32202	0.86783	1.1523	201.04346	190.66155	75.90796	0.32426	 	6.4016E20	 	4.40797E-21	 	5331.63886	25.95446	 
300.0	1.0	0.0	8.48006	7.04306	-9.26427	13.11553	16.23663	0.86485	1.15628	201.38125	190.81465	76.04435	0.3241	 	1.05558E21	 	2.65011E-21	 	5202.08278	25.91122	 
295.0	1.0	0.0	8.48187	7.04155	-9.28366	13.0917	16.1512	0.86184	1.16031	201.71824	190.96673	76.18047	0.32395	 	1.75597E21	 	1.57919E-21	 	5072.74301	25.86795	 
290.0	1.0	0.0	8.48368	7.04005	-9.30299	13.06785	16.06572	0.8588	1.16442	202.05443	191.1178	76.31631	0.3238	 	2.94758E21	 	9.32491E-22	 	4943.61964	25.82467	 
285.0	1.0	0.0	8.48548	7.03856	-9.32225	13.044	15.9802	0.85573	1.1686	202.38981	191.26787	76.45187	0.32364	 	4.99398E21	 	5.45496E-22	 	4814.71278	25.78137	 
280.0	1.0	0.0	8.48728	7.03707	-9.34145	13.02013	15.89463	0.85263	1.17285	202.72438	191.41694	76.58717	0.32349	 	8.54213E21	 	3.16055E-22	 	4686.02255	25.73805	 
275.0	1.0	0.0	8.48907	7.03558	-9.36059	12.99626	15.80901	0.84949	1.17717	203.05815	191.565	76.72219	0.32333	 	1.4755E22	 	1.81321E-22	 	4557.54912	25.69469	 
270.0	1.0	0.0	8.49086	7.0341	-9.37967	12.97238	15.72335	0.84633	1.18157	203.39111	191.71207	76.85693	0.32318	 	2.5744399999999997E22	 	1.02973E-22	 	4429.29267	25.65129	 
265.0	1.0	0.0	8.49264	7.03263	-9.39868	12.94848	15.63763	0.84314	1.18605	203.72327	191.85814	76.9914	0.32303	 	4.53855E22	 	5.78726E-23	 	4301.2534	25.60785	 
260.0	1.0	0.0	8.49442	7.03116	-9.41763	12.92458	15.55186	0.83991	1.1906	204.05462	192.00322	77.1256	0.32287	 	8.08669E22	 	3.21785E-23	 	4173.43154	25.56437	 
255.0	1.0	0.0	8.49619	7.02969	-9.43651	12.90067	15.46604	0.83665	1.19524	204.38517	192.14731	77.25952	0.32272	 	1.4567099999999999E23	 	1.76958E-23	 	4045.82734	25.52084	 
250.0	1.0	0.0	8.49795	7.02823	-9.45533	12.87675	15.38016	0.83336	1.19997	204.71491	192.29041	77.39317	0.32256	 	2.6537699999999997E23	 	9.62165E-24	 	3918.44112	25.47725	 
245.0	1.0	0.0	8.49971	7.02677	-9.47409	12.85282	15.29423	0.83003	1.20478	205.04385	192.43252	77.52654	0.32241	 	4.8907999999999995E23	 	5.17086E-24	 	3791.27315	25.43359	 
240.0	1.0	0.0	8.50147	7.02532	-9.49278	12.82888	15.20824	0.82667	1.20967	205.37198	192.57366	77.65964	0.32226	 	9.12159E23	 	2.74575E-24	 	3664.32383	25.38987	 
235.0	1.0	0.0	8.50322	7.02388	-9.5114	12.80493	15.12219	0.82327	1.21467	205.69931	192.71381	77.79247	0.3221	 	1.72222E24	 	1.44009E-24	 	3537.59351	25.34606	 
230.0	1.0	0.0	8.50497	7.02243	-9.52997	12.78098	15.03609	0.81984	1.21975	206.02583	192.85299	77.92502	0.32195	 	3.293E24	 	7.45749E-25	 	3411.08262	25.30218	 
225.0	1.0	0.0	8.5067	7.021	-9.54847	12.75701	14.94992	0.81637	1.22493	206.35154	192.9912	78.05729	0.3218	 	6.3789E24	 	3.81154E-25	 	3284.79161	25.2582	 
220.0	1.0	0.0	8.50844	7.01957	-9.5669	12.73303	14.86369	0.81287	1.23022	206.67645	193.12843	78.18929	0.32164	 	1.25234E25	 	1.92195E-25	 	3158.72097	25.21413	 
215.0	1.0	0.0	8.51017	7.01814	-9.58528	12.70905	14.7774	0.80932	1.2356	207.00055	193.26469	78.32102	0.32149	 	2.49289E25	 	9.55735E-26	 	3032.87125	25.16994	 
210.0	1.0	0.0	8.51189	7.01672	-9.60358	12.68505	14.69103	0.80574	1.24109	207.32385	193.39999	78.45247	0.32133	 	5.0335E25	 	4.68489E-26	 	2907.24302	25.12565	 
205.0	1.0	0.0	8.51361	7.0153	-9.62183	12.66105	14.60461	0.80212	1.24669	207.64635	193.53432	78.58365	0.32118	 	1.0313800000000001E26	 	2.26272E-26	 	2781.83688	25.08123	 
200.0	1.0	0.0	8.51532	7.01389	-9.64001	12.63703	14.51811	0.79846	1.25241	207.96804	193.66769	78.71454	0.32103	 	2.14562E26	 	1.0763E-26	 	2656.65352	25.03667	 
195.0	1.0	0.0	8.51703	7.01249	-9.65812	12.61301	14.43154	0.79476	1.25823	208.28892	193.8001	78.84517	0.32087	 	4.534010000000001E26	 	5.03952E-27	 	2531.69367	24.99197	 
190.0	1.0	0.0	8.51873	7.01109	-9.67617	12.58898	14.34489	0.79103	1.26418	208.609	193.93156	78.97552	0.32072	 	9.737070000000001E26	 	2.32156E-27	 	2406.95808	24.94712	 
185.0	1.0	0.0	8.52043	7.00969	-9.69416	12.56494	14.25818	0.78724	1.27025	208.92827	194.06206	79.10559	0.32057	 	2.12627E27	 	1.05166E-27	 	2282.44758	24.9021	 
180.0	1.0	0.0	8.52212	7.0083	-9.71208	12.54088	14.17138	0.78342	1.27645	209.24674	194.19161	79.23539	0.32041	 	4.72383E27	 	4.68203E-28	 	2158.16305	24.8569	 
175.0	1.0	0.0	8.52381	7.00691	-9.72994	12.51682	14.0845	0.77956	1.28278	209.5644	194.32021	79.36491	0.32026	 	1.06833E28	 	2.04741E-28	 	2034.10545	24.81152	 
170.0	1.0	0.0	8.52549	7.00553	-9.74773	12.49275	13.99754	0.77565	1.28924	209.88126	194.44787	79.49416	0.3201	 	2.46102E28	 	8.78866E-29	 	1910.27578	24.76593	 
165.0	1.0	0.0	8.52716	7.00416	-9.76546	12.46867	13.9105	0.7717	1.29585	210.19731	194.57458	79.62313	0.31995	 	5.77824E28	 	3.70096E-29	 	1786.67513	24.72013	 
160.0	1.0	0.0	8.52883	7.00278	-9.78313	12.44458	13.82337	0.7677	1.3026	210.51256	194.70035	79.75182	0.3198	 	1.38367E29	 	1.52789E-29	 	1663.30464	24.6741	 
155.0	1.0	0.0	8.5305	7.00142	-9.80073	12.42049	13.73615	0.76365	1.30949	210.827	194.82518	79.88024	0.31964	 	3.38166E29	 	6.1795E-30	 	1540.16554	24.62782	 
150.0	1.0	0.0	8.53215	7.00006	-9.81826	12.39638	13.64884	0.75956	1.31654	211.14064	194.94907	80.00838	0.31949	 	8.44105E29	 	2.44672E-30	 	1417.25916	24.58128	 
145.0	1.0	0.0	8.53381	6.9987	-9.83573	12.37226	13.56143	0.75543	1.32375	211.45347	195.07203	80.13624	0.31934	 	2.1536E30	 	9.47664E-31	 	1294.58687	24.53446	 
140.0	1.0	0.0	8.53545	6.99735	-9.85314	12.34814	13.47392	0.75124	1.33113	211.76549	195.19406	80.26383	0.31918	 	5.62054E30	 	3.5877E-31	 	1172.15018	24.48734	 
135.0	1.0	0.0	8.5371	6.996	-9.87048	12.324	13.38631	0.74701	1.33867	212.07672	195.31516	80.39114	0.31903	 	1.50175E31	 	1.3265E-31	 	1049.95067	24.4399	 
130.0	1.0	0.0	8.53873	6.99466	-9.88776	12.29986	13.2986	0.74272	1.3464	212.38713	195.43533	80.51818	0.31888	 	4.111559999999999E31	 	4.78571E-32	 	927.99003	24.39213	 
125.0	1.0	0.0	8.54037	6.99333	-9.90497	12.2757	13.21077	0.73839	1.3543	212.69674	195.55458	80.64494	0.31872	 	1.1545199999999999E32	 	1.68319E-32	 	806.27006	24.34399	 
120.0	1.0	0.0	8.54199	6.992	-9.92212	12.25154	13.12284	0.734	1.3624	213.00555	195.6729	80.77142	0.31857	 	3.32813E32	 	5.76561E-33	 	684.79267	24.29548	 
115.0	1.0	0.0	8.54361	6.99067	-9.9392	12.22736	13.03479	0.72956	1.37069	213.31355	195.79031	80.89762	0.31842	 	9.85928E32	 	1.9215E-33	 	563.5599	24.24655	 
110.0	1.0	0.0	8.54523	6.98935	-9.95621	12.20318	12.94662	0.72507	1.37918	213.62075	195.90679	81.02355	0.31826	 	3.00469E33	 	6.2238E-34	 	442.57393	24.19719	 
105.0	1.0	0.0	8.54683	6.98803	-9.97317	12.17899	12.85832	0.72052	1.38789	213.92714	196.02237	81.1492	0.31811	 	9.43089E33	 	1.95703E-34	 	321.83707	24.14737	 
100.0	1.0	0.0	8.54844	6.98672	-9.99005	12.15479	12.7699	0.71592	1.39681	214.23272	196.13703	81.27457	0.31796	 	3.0522300000000003E34	 	5.96695E-35	 	201.35178	24.09706	 
95.0	1.0	0.0	8.55004	6.98542	-10.00688	12.13058	12.68134	0.71126	1.40596	214.5375	196.25078	81.39967	0.3178	 	1.01985E35	 	1.76187E-35	 	81.12068	24.04622	 
90.0	1.0	0.0	8.55163	6.98412	-10.02363	12.10636	12.59265	0.70654	1.41535	214.84148	196.36362	81.52449	0.31765	 	3.5227699999999996E35	 	5.03139E-36	 	-38.85343	23.99482	 
85.0	1.0	0.0	8.55322	6.98282	-10.04033	12.08213	12.50381	0.70176	1.42499	215.14465	196.47555	81.64903	0.3175	 	1.2596899999999999E36	 	1.38768E-36	 	-158.56756	23.94283	 
80.0	1.0	0.0	8.5548	6.98153	-10.05695	12.05789	12.41482	0.69692	1.43488	215.44702	196.58659	81.77329	0.31734	 	4.6699399999999996E36	 	3.69092E-37	 	-278.01855	23.8902	 
75.0	1.0	0.0	8.55637	6.98024	-10.07352	12.03364	12.32568	0.69202	1.44503	215.74858	196.69672	81.89728	0.31719	 	1.79765E37	 	9.45255E-38	 	-397.203	23.83689	 
70.0	1.0	0.0	8.55794	6.97896	-10.09001	12.00938	12.23638	0.68706	1.45547	216.04933	196.80595	82.02099	0.31704	 	7.197079999999999E37	 	2.3271E-38	 	-516.11732	23.78286	 
65.0	1.0	0.0	8.55951	6.97769	-10.10644	11.98512	12.1469	0.68204	1.46619	216.34928	196.91429	82.14441	0.31688	 	3.0021E38	 	5.49757E-39	 	-634.75762	23.72806	 
60.0	1.0	0.0	8.56107	6.97642	-10.12281	11.96084	12.05726	0.67695	1.47721	216.64843	197.02173	82.26757	0.31673	 	1.3071100000000001E39	 	1.24398E-39	 	-753.11983	23.67244	 
55.0	1.0	0.0	8.56262	6.97515	-10.13911	11.93655	11.96743	0.6718	1.48855	216.94677	197.12828	82.39044	0.31658	 	5.952070000000001E39	 	2.69086E-40	 	-871.1995	23.61593	 
50.0	1.0	0.0	8.56417	6.97389	-10.15535	11.91226	11.87742	0.66657	1.50021	217.24431	197.23394	82.51303	0.31642	 	2.84052E40	 	5.55256E-41	 	-988.99197	23.55849	 
45.0	1.0	0.0	8.56571	6.97264	-10.17152	11.88796	11.78721	0.66128	1.51221	217.54104	197.33872	82.63535	0.31627	 	1.4238400000000001E41	 	1.09058E-41	 	-1106.4922	23.50004	 
40.0	1.0	0.0	8.56724	6.97139	-10.18762	11.86364	11.69679	0.65592	1.52457	217.83696	197.44261	82.75739	0.31612	 	7.51413E41	 	2.03404E-42	 	-1223.69481	23.44052	 
35.0	1.0	0.0	8.56877	6.97014	-10.20366	11.83932	11.60615	0.65049	1.53731	218.13208	197.54561	82.87915	0.31596	 	4.18544E42	 	3.59342E-43	 	-1340.59405	23.37985	 
30.0	1.0	0.0	8.5703	6.9689	-10.21964	11.81498	11.5153	0.64498	1.55043	218.4264	197.64774	83.00063	0.31581	 	2.46721E43	 	5.99705E-44	 	-1457.18373	23.31794	 
25.0	1.0	0.0	8.57182	6.96767	-10.23554	 	11.4242	0.6394	1.56396	218.71991	197.74898	83.12183	0.31566	 	1.5435300000000001E44	 	9.42773E-45	 	-1573.45726	 	 
