T (C)	Fraction solid (wt)-TOTAL	Fraction liquid (wt)-LIQUID	Density (g/(cm)^3)-TOTAL	Molar volume (cm^3)-TOTAL	Volume change (%)-  	Average expansion coeff. (10e-6 1/K)-  	Thermal conductivity (W/(m*K))-TOTAL	Electrical resistivity (10e-6 Ohm*m)-TOTAL	Electrical conductivity (10e6 1/(Ohm*m))-TOTAL	Young's modulus (GPa)-TOTAL	Bulk modulus (GPa)-TOTAL	Shear modulus(GPa)-TOTAL	Poisson's ratio-TOTAL	Liquid viscosity (mPa s)-  	Total viscosity (mPa s)-  	Liquid diffusivity (10e-9 (m^2)/s)-  	Total diffusivity (10e-9 (m^2)/s)-  	Surface Tension (mN/m)-  	Enthalpy (J/mole)-TOTAL	Specific heat (J/(mole K))-TOTAL	Latent heat (J/mole)-TOTAL
1400.0	0.0	1.0	6.9571	7.92091	0.0	33.19589	29.05782	1.41071	0.70886	0.0	121.0862	0.0	0.5	6.30233	6.30233	1.29575	1.29575	1744.01781	45378.303	 	0.0
1395.0	0.0	1.0	6.96106	7.9164	-0.056894	33.15966	28.97684	1.41043	0.70901	0.0	121.23114	0.0	0.5	6.36832	6.36832	1.27849	1.27849	1746.23159	45176.264	40.4078	0.0
1390.0	0.0	1.0	6.96501	7.91191	-0.11363	33.12361	28.89587	1.41014	0.70915	0.0	121.37608	0.0	0.5	6.4354	6.4354	1.26137	1.26137	1748.46306	44974.674	40.318	0.0
1385.0	0.0	1.0	6.96896	7.90742	-0.1702	33.08774	28.8149	1.40985	0.7093	0.0	121.52102	0.0	0.5	6.5036	6.5036	1.24439	1.24439	1750.71228	44773.532	40.2284	0.0
1380.0	0.0	1.0	6.9729	7.90296	-0.22661	33.05207	28.73392	1.40956	0.70944	0.0	121.66596	0.0	0.5	6.57293	6.57293	1.22755	1.22755	1752.97926	44572.835	40.1394	0.0
1375.0	0.0	1.0	6.97683	7.8985	-0.28286	33.01658	28.65295	1.40927	0.70959	0.0	121.8109	0.0	0.5	6.64344	6.64344	1.21085	1.21085	1755.26399	44372.579	40.0512	0.0
1370.0	0.0	1.0	6.98076	7.89406	-0.33894	32.98129	28.57197	1.40897	0.70974	0.0	121.95584	0.0	0.5	6.71514	6.71514	1.19429	1.19429	1757.56645	44172.763	39.9632	0.0
1365.0	0.0	1.0	6.98468	7.88963	-0.39487	32.94618	28.491	1.40868	0.70988	0.0	122.10078	0.0	0.5	6.78805	6.78805	1.17786	1.17786	1759.88661	43973.385	39.8756	0.0
1360.0	0.0	1.0	6.98859	7.88521	-0.45063	32.91128	28.41002	1.40838	0.71003	0.0	122.24572	0.0	0.5	6.86222	6.86222	1.16158	1.16158	1762.22441	43774.441	39.7888	0.0
1355.0	0.0	1.0	6.9925	7.88081	-0.50623	32.87657	28.32905	1.40808	0.71019	0.0	122.39066	0.0	0.5	6.93765	6.93765	1.14543	1.14543	1764.57979	43575.93	39.7022	0.0
1350.0	0.0	1.0	6.9964	7.87642	-0.56167	32.84206	28.24807	1.40778	0.71034	0.0	122.5356	0.0	0.5	7.01439	7.01439	1.12942	1.12942	1766.95265	43377.848	39.6164	0.0
1345.0	0.0	1.0	7.00029	7.87204	-0.61695	32.80775	28.1671	1.40748	0.71049	0.0	122.68054	0.0	0.5	7.09246	7.09246	1.11355	1.11355	1769.3429	43180.194	39.5308	0.0
1342.23	0.0	1.0	7.00244	7.86962	-0.64749	32.78884	28.12227	1.40731	0.71057	0.0	122.76079	0.0	0.5	7.13626	7.13626	1.10482	1.10482	1770.67372	43070.945	39.46429	0.0
1340.0	0.0742305	0.92577	7.02426	7.84522	-0.95556	31.95663	28.36073	1.39355	0.71759	0.00262531	123.21493	8.80638E-4	0.49057	7.17777	8.43978	1.09691	0.93289	1770.01142	41931.878	510.40328	1051.087
1335.0	0.22149	0.77851	7.06807	7.79656	-1.56989	30.30138	28.84321	1.36599	0.73207	0.21446	124.16251	0.0728645	0.47162	7.27244	53.30003	1.07928	0.14726	1768.58585	39665.394	453.2968	3120.766
1330.0	0.33995	0.66005	7.10408	7.75708	-2.06829	28.9701	29.23781	1.34337	0.7444	1.22007	125.01173	0.41894	0.45615	7.36931	266.1872	1.06178	0.029395	1767.26365	37819.915	369.0958	4769.859
1325.0	0.4363	0.5637	7.134	7.72453	-2.47919	27.88366	29.5637	1.32442	0.75505	3.38141	125.78358	1.17136	0.44337	7.46846	742.00073	1.04441	0.0105124	1766.0426	36296.918	304.5994	6096.89
1320.0	0.51545	0.48455	7.15914	7.69742	-2.82144	26.98975	29.83341	1.30834	0.76433	6.70926	126.49554	2.34139	0.43275	7.57017	1513.74277	1.02716	0.00513678	1764.91894	35023.817	254.6202	7174.44
1315.0	0.58104	0.41896	7.18049	7.67455	-3.11024	26.2459	30.05616	1.29457	0.77246	11.00909	127.16017	3.86599	0.42384	7.67447	2574.08498	1.01002	0.00301131	1763.8901	33946.426	215.4782	8056.694
1310.0	0.63584	0.36416	7.19877	7.655	-3.35704	25.62015	30.23875	1.2827	0.77961	16.01381	127.78548	5.65338	0.4163	7.78147	3897.2605	0.99299	0.00198266	1762.95356	33023.808	184.5236	8784.586
1305.0	0.68194	0.31806	7.21459	7.63822	-3.56887	25.09307	30.38696	1.27241	0.78591	21.45926	128.38056	7.61022	0.4099	7.89148	5452.7408	0.97606	0.0014126	1762.10501	32224.694	159.8228	9389.384
1300.0	0.72099	0.27901	7.22839	7.6236	-3.75343	24.64289	30.50584	1.26344	0.79149	27.12385	128.94939	9.6567	0.40441	8.00449	7213.01903	0.95923	0.00106449	1761.34329	31524.954	139.948	9895.216
1295.0	0.75424	0.24576	7.24053	7.61081	-3.91491	24.25804	30.59948	1.25557	0.79645	32.82919	129.49714	11.72742	0.39968	8.12076	9155.06037	0.94249	8.36013E-4	1760.66489	30905.794	123.832	10320.872
1290.0	0.78273	0.21727	7.25129	7.59949	-4.0578	23.92585	30.67147	1.24863	0.80088	38.44849	130.02647	13.77513	0.39558	8.24044	11262.94412	0.92584	6.77385E-4	1760.06841	30352.448	110.6692	10681.117
1285.0	0.80727	0.19273	7.2609	7.58938	-4.18542	23.63693	30.72479	1.24247	0.80485	43.89308	130.53971	15.76618	0.392	8.36374	13526.41162	0.90928	5.62229E-4	1759.55242	29853.218	99.846	10987.646
1280.0	0.8285	0.1715	7.26956	7.58032	-4.29981	23.38568	30.76218	1.23698	0.80842	49.10776	131.03998	17.67905	0.38887	8.49083	15941.6586	0.89279	4.75518E-4	1759.11402	29398.772	90.8892	11249.79
1275.0	0.84695	0.15305	7.2774	7.5721	-4.40357	23.16463	30.78579	1.23205	0.81165	54.05791	131.52824	19.49989	0.38611	8.6219	18507.90706	0.87639	4.08265E-4	1758.75361	28981.606	83.4332	11475.05
1270.0	0.86307	0.13693	7.28456	7.56461	-4.49812	22.96986	30.79747	1.22761	0.81459	58.72903	132.00613	21.2223	0.38366	8.75724	21229.687	0.86006	3.54774E-4	1758.46906	28595.653	77.1906	11669.491
1265.0	0.87721	0.12279	7.29114	7.55775	-4.58476	22.79769	30.79885	1.22357	0.81728	63.11679	132.47507	22.84376	0.38149	8.89702	24114.14676	0.8438	3.11325E-4	1758.25928	28235.973	71.936	11838.05
1262.4	0.88377	0.11623	7.29432	7.55443	-4.62669	22.71712	30.79527	1.22165	0.81857	65.25452	132.715	23.63494	0.38047	8.9713	25669.54232	0.8354	2.91967E-4	1758.18382	28059.224	 	11915.637
1260.0	0.89151	0.10849	7.29753	7.55103	-4.66962	22.62957	30.80053	1.21953	0.81999	67.82186	132.96527	24.58616	0.37927	9.04799	27398.76024	0.82703	2.73112E-4	1758.70367	27872.263	72.742	12011.03
1255.0	0.90619	0.0938077	7.30383	7.54436	-4.75379	22.46223	30.80458	1.21539	0.82278	72.9401	133.47362	26.48569	0.37697	9.21113	31169.4974	0.80973	2.39289E-4	1759.79942	27502.703	73.912	12190.248
1250.0	0.9187	0.0812999	7.30955	7.5383	-4.83027	22.31731	30.79716	1.21171	0.82528	77.58787	133.96383	28.2142	0.37498	9.37877	35113.34964	0.79265	2.11718E-4	1760.90962	27162.042	68.1322	12340.953
1245.0	0.92942	0.0705807	7.31478	7.53272	-4.90074	22.18987	30.7801	1.2084	0.82754	81.80848	134.43839	29.78679	0.37323	9.55107	39250.41835	0.7758	1.8878E-4	1762.03514	26845.021	63.4042	12468.402
1240.0	0.93866	0.0613446	7.31963	7.52755	-4.96602	22.07756	30.75493	1.20541	0.8296	85.64219	134.90021	31.21758	0.3717	9.7283	43603.36375	0.75916	1.69375E-4	1763.17349	26547.491	59.506	12576.741
1235.0	0.94665	0.0533469	7.32414	7.52272	-5.02704	21.97767	30.72287	1.20268	0.83148	89.12881	135.35104	32.52078	0.37034	9.9105	48197.07033	0.74274	1.52725E-4	1764.32437	26266.147	56.2688	12669.272
1230.0	0.95361	0.0463903	7.32838	7.51817	-5.08442	21.88842	30.68491	1.20017	0.83321	92.30585	135.7923	33.70989	0.36912	10.09791	53058.79908	0.72654	1.38271E-4	1765.48628	25998.339	53.5616	12748.646
1225.0	0.95969	0.0403123	7.33238	7.51387	-5.13876	21.808	30.64189	1.19786	0.83482	95.20806	136.22528	34.79749	0.36803	10.2908	58218.90341	0.71055	1.25597E-4	1766.65847	25741.922	51.2834	12817.005
1220.0	0.96502	0.03498	7.33618	7.50977	-5.19051	21.73512	30.59451	1.19571	0.83632	97.86598	136.6509	35.79469	0.36705	10.48918	63709.15337	0.69478	1.1439E-4	1767.84022	25495.148	49.3548	12876.094
1215.0	0.96971	0.030285	7.33981	7.50585	-5.24006	21.66863	30.54335	1.1937	0.83773	100.30675	137.07004	36.71141	0.36615	10.69343	69564.33558	0.67923	1.04411E-4	1769.03068	25256.583	47.713	12927.346
1210.0	0.97387	0.0261346	7.3433	7.50207	-5.28772	21.60764	30.4889	1.19182	0.83906	102.55564	137.48339	37.55692	0.36534	10.90354	75822.36545	0.6639	9.54717E-5	1770.22877	25025.056	46.3054	12971.93
1205.0	0.97755	0.0224545	7.34665	7.49842	-5.33375	21.55136	30.43157	1.19004	0.84031	104.63443	137.89134	38.33923	0.36459	11.11982	82523.44348	0.64879	8.74234E-5	1771.43441	24799.583	45.0946	13010.827
1200.23	0.98067	0.0193284	7.34975	7.49506	-5.37629	21.50163	30.37451	1.18843	0.84145	106.4727	138.27587	39.03164	0.36393	11.33189	89363.88574	0.6346	8.04711E-5	1772.58921	24589.546	 	13043.307
1200.23	0.98067	0.0193284	7.34975	7.49506	-5.37629	21.50163	30.37451	1.18843	0.84145	106.4727	138.27587	39.03164	0.36393	11.33189	89363.88574	0.6346	8.04711E-5	1772.58921	24589.546	 	13043.307
1200.0	0.98082	0.0191787	7.3499	7.49489	-5.37841	21.49904	30.37165	1.18835	0.8415	106.56176	138.29456	39.0652	0.3639	11.34144	89711.47927	0.63397	8.01467E-5	1772.64685	24579.26	44.0646	13044.939
1195.94	0.98337	0.0166341	7.3526	7.49199	-5.41499	21.45522	30.32118	1.18705	0.84243	108.09151	138.62026	39.64186	0.36335	11.51035	95992.50775	0.62294	7.4696E-5	1773.65012	24400.586	 	13072.617
1195.0	0.9842	0.015798	7.35336	7.49124	-5.42451	21.4416	30.31056	1.1867	0.84267	108.56097	138.70453	39.81877	0.36319	11.52203	97596.30992	0.62191	7.34216E-5	1773.75245	24354.731	44.9058	13083.621
1191.36	0.9873	0.0127034	7.35629	7.48835	-5.46099	21.39	30.26846	1.18541	0.84359	110.33097	139.02921	40.48609	0.36258	11.56993	104034.9909	0.6178	6.87067E-5	1774.1699	24179.197	 	13124.013
1191.36	0.9873	0.0127034	7.35629	7.48835	-5.46099	21.39	30.26846	1.18541	0.84359	110.33097	139.02921	40.48609	0.36258	11.56993	104034.9909	0.6178	6.87067E-5	1774.1699	24179.197	 	13124.013
1191.31	0.98745	0.0125472	7.35639	7.48825	-5.46224	21.38689	30.26754	1.1854	0.8436	110.41295	139.0395	40.51697	0.36255	11.56909	104175.0275	0.61782	6.86119E-5	1774.15133	24174.15	 	13127.173
1191.31	0.98745	0.0125472	7.35639	7.48825	-5.46224	21.38689	30.26754	1.1854	0.8436	110.41295	139.0395	40.51697	0.36255	11.56909	104175.0275	0.61782	6.86119E-5	1774.15133	24174.15	 	13127.173
1190.0	0.9914	0.00859661	7.3589	7.48579	-5.49322	21.3101	30.25339	1.1849	0.84395	112.49985	139.30501	41.30313	0.36188	11.55014	107802.5004	0.61828	6.6244E-5	1773.8244	24047.087	61.5288	13205.779
1185.0	1.0	0.0	7.36585	7.47916	-5.5769	21.12857	30.18992	1.18333	0.84507	117.37069	140.05067	43.14073	0.36032	 	119804.8183	 	5.94039E-5	 	23693.004	70.8166	13374.737
1180.0	1.0	0.0	7.36834	7.47663	-5.60888	21.11509	30.10779	1.18249	0.84567	117.85285	140.41931	43.3245	0.36012	 	128834.3545	 	5.5051E-5	 	23496.16853	39.36709	 
1175.0	1.0	0.0	7.37084	7.4741	-5.64084	21.10157	30.02566	1.18165	0.84628	118.33428	140.78622	43.50805	0.35991	 	138614.0971	 	5.09909E-5	 	23318.19335	35.59504	 
1170.0	1.0	0.0	7.37333	7.47157	-5.67274	21.08814	29.94352	1.1808	0.84689	118.81482	141.15118	43.69132	0.35971	 	149211.8407	 	4.72057E-5	 	23140.47811	35.54305	 
1165.0	1.0	0.0	7.37582	7.46905	-5.70458	21.0748	29.86138	1.17994	0.8475	119.29447	141.51421	43.87431	0.3595	 	160702.1382	 	4.36787E-5	 	22963.02237	35.49115	 
1164.43	1.0	0.0	7.3761	7.46876	-5.70822	21.07328	29.85197	1.17984	0.84757	119.34939	141.5557	43.89527	0.35948	 	162079.8911	 	4.32901E-5	 	22942.69734	 	 
1160.0	1.0	0.0	7.38103	7.46378	-5.77114	20.94538	29.6007	1.18619	0.84303	120.44056	142.20341	44.31742	0.35884	 	174533.66	 	4.00774E-5	 	22626.98896	67.20668	 
1155.0	1.0	0.0	7.38647	7.45828	-5.84061	20.80508	29.32966	1.19298	0.83824	121.62091	142.88772	44.77483	0.35814	 	189897.0377	 	3.67064E-5	 	22277.60876	69.87604	 
1150.0	1.0	0.0	7.3918	7.4529	-5.90846	20.66896	29.0699	1.19943	0.83373	122.76161	143.54198	45.21735	0.35746	 	206778.2241	 	3.35917E-5	 	21935.51398	68.41896	 
1145.0	1.0	0.0	7.39701	7.44765	-5.97479	20.53681	28.82071	1.20555	0.8295	123.86615	144.17001	45.64624	0.35681	 	225340.6754	 	3.07163E-5	 	21600.36145	67.03051	 
1140.0	1.0	0.0	7.40212	7.44251	-6.03966	20.40843	28.58148	1.21135	0.82553	124.93686	144.7742	46.06237	0.35617	 	245766.7721	 	2.80641E-5	 	21271.82789	65.70671	 
1135.12	1.0	0.0	7.40701	7.4376	-6.10163	20.28657	28.35707	1.21672	0.82188	125.95128	145.34275	46.45695	0.35557	 	267696.4879	 	2.56761E-5	 	20957.24009	 	 
1135.0	1.0	0.0	7.40712	7.43748	-6.10313	20.28364	28.35168	1.21685	0.8218	125.97578	145.35645	46.46648	0.35556	 	268260.2086	 	2.562E-5	 	20949.59978	64.44562	 
1130.0	1.0	0.0	7.41202	7.43257	-6.16509	20.16291	28.13074	1.22205	0.8183	126.98549	145.91972	46.85951	0.35496	 	293064.6729	 	2.33683E-5	 	20632.94356	63.33124	 
1125.0	1.0	0.0	7.41681	7.42777	-6.2258	20.04541	27.91821	1.22697	0.81502	127.9667	146.46399	47.24173	0.35438	 	320420.2522	 	2.12971E-5	 	20322.09025	62.17066	 
1120.0	1.0	0.0	7.42152	7.42305	-6.2853	19.931	27.71363	1.2316	0.81195	128.92092	146.99058	47.6137	0.35382	 	350611.6885	 	1.93936E-5	 	20016.77735	61.06258	 
1115.0	1.0	0.0	7.42615	7.41843	-6.34366	19.81954	27.51655	1.23597	0.80908	129.84955	147.50065	47.97593	0.35328	 	383957.7924	 	1.76457E-5	 	19716.75638	60.00419	 
1110.0	1.0	0.0	7.43069	7.4139	-6.40091	19.71089	27.32654	1.24008	0.8064	130.7539	147.99527	48.32893	0.35275	 	420815.7674	 	1.60422E-5	 	19421.79173	58.99293	 
1105.0	1.0	0.0	7.43515	7.40944	-6.45712	19.60491	27.14322	1.24395	0.80389	131.6352	148.4754	48.67313	0.35224	 	461586.1103	 	1.45724E-5	 	19131.65982	58.02638	 
1100.0	1.0	0.0	7.43954	7.40507	-6.51232	19.5015	26.9662	1.24757	0.80156	132.4946	148.94193	49.00898	0.35174	 	506718.2951	 	1.32263E-5	 	18846.14813	57.10234	 
1095.0	1.0	0.0	7.44386	7.40078	-6.56655	19.40053	26.79514	1.25096	0.79939	133.33318	149.39567	49.33688	0.35125	 	556717.0275	 	1.19946E-5	 	18565.05457	56.21871	 
1090.0	1.0	0.0	7.44811	7.39655	-6.61987	19.30189	26.62969	1.25413	0.79736	134.15196	149.83737	49.6572	0.35078	 	612149.6057	 	1.08686E-5	 	18288.18671	55.37357	 
1085.0	1.0	0.0	7.4523	7.3924	-6.6723	19.20547	26.46955	1.25709	0.79549	134.9519	150.26771	49.97032	0.35032	 	673654.1003	 	9.84005E-6	 	18015.36126	54.56509	 
1080.0	1.0	0.0	7.45642	7.38831	-6.72389	19.11118	26.31441	1.25985	0.79375	135.73391	150.68735	50.27657	0.34987	 	741948.8403	 	8.90141E-6	 	17746.40349	53.79155	 
1075.0	1.0	0.0	7.46048	7.38429	-6.77467	19.0189	26.16399	1.26241	0.79214	136.49886	151.09688	50.57628	0.34944	 	817843.1127	 	8.04553E-6	 	17481.14676	53.05135	 
1070.0	1.0	0.0	7.46448	7.38033	-6.82468	18.92856	26.01803	1.26478	0.79065	137.24757	151.49685	50.86976	0.34901	 	902249.4744	 	7.26582E-6	 	17219.43206	52.34294	 
1065.0	1.0	0.0	7.46843	7.37643	-6.87394	18.84006	25.87627	1.26698	0.78928	137.98081	151.88778	51.1573	0.34859	 	996197.8488	 	6.55611E-6	 	16961.10768	51.66488	 
1060.0	1.0	0.0	7.47233	7.37258	-6.92248	18.75331	25.73848	1.269	0.78802	138.69932	152.27015	51.43919	0.34819	 	1100851.489	 	5.91067E-6	 	16706.02878	51.01578	 
1055.0	1.0	0.0	7.47617	7.36879	-6.97035	18.66822	25.60444	1.27086	0.78687	139.4038	152.64441	51.71569	0.34779	 	1217525.532	 	5.32422E-6	 	16454.05711	50.39433	 
1050.0	1.0	0.0	7.47997	7.36505	-7.01756	18.58474	25.47394	1.27256	0.78582	140.09491	153.01099	51.98705	0.3474	 	1347708.054	 	4.79181E-6	 	16205.0607	49.79928	 
1045.0	1.0	0.0	7.48372	7.36136	-7.06414	18.50276	25.34678	1.27411	0.78486	140.77329	153.37028	52.25351	0.34702	 	1493084.296	 	4.30891E-6	 	15958.91356	49.22943	 
1040.0	1.0	0.0	7.48742	7.35772	-7.11012	18.42223	25.22279	1.27552	0.78399	141.43953	153.72266	52.5153	0.34665	 	1655564.62	 	3.87128E-6	 	15715.49543	48.68363	 
1035.0	1.0	0.0	7.49108	7.35412	-7.15553	18.34307	25.10177	1.27679	0.78321	142.09421	154.06846	52.77264	0.34629	 	1837316.423	 	3.47504E-6	 	15474.69152	48.16078	 
1030.0	1.0	0.0	7.4947	7.35057	-7.20037	18.26522	24.98358	1.27793	0.78252	142.73785	154.40803	53.02573	0.34593	 	2040801.034	 	3.1166E-6	 	15236.3923	47.65984	 
1025.0	1.0	0.0	7.49829	7.34706	-7.24469	18.1886	24.86806	1.27894	0.7819	143.37098	154.74166	53.27478	0.34558	 	2268816.281	 	2.79262E-6	 	15000.49323	47.17981	 
1020.0	1.0	0.0	7.50183	7.34359	-7.28849	18.11317	24.75506	1.27983	0.78136	143.99409	155.06964	53.51996	0.34524	 	2524545.318	 	2.50007E-6	 	14766.8946	46.71973	 
1015.0	1.0	0.0	7.50533	7.34016	-7.3318	18.03886	24.64445	1.2806	0.78088	144.60762	155.39224	53.76146	0.3449	 	2811613.464	 	2.23613E-6	 	14535.50127	46.27867	 
1010.0	1.0	0.0	7.5088	7.33677	-7.37463	17.96561	24.5361	1.28126	0.78048	145.21203	155.70972	53.99944	0.34457	 	3134153.322	 	1.99822E-6	 	14306.22253	45.85575	 
1005.0	1.0	0.0	7.51224	7.33341	-7.41702	17.89337	24.4299	1.28182	0.78014	145.80773	156.02232	54.23407	0.34424	 	3496880.348	 	1.78397E-6	 	14078.97182	45.45014	 
1000.0	1.0	0.0	7.51565	7.33009	-7.45896	17.82209	24.32573	1.28227	0.77987	146.39511	156.33026	54.46549	0.34393	 	3905180.992	 	1.5912E-6	 	13853.66666	45.06103	 
995.0	1.0	0.0	7.51902	7.3268	-7.50049	17.75172	24.22349	1.28263	0.77965	146.97454	156.63376	54.69385	0.34361	 	4365213.433	 	1.41792E-6	 	13630.2284	44.68765	 
990.0	1.0	0.0	7.52237	7.32354	-7.54161	17.68221	24.12307	1.28289	0.77949	147.54637	156.93301	54.91928	0.3433	 	4884026.138	 	1.2623E-6	 	13408.58201	44.32928	 
985.0	1.0	0.0	7.52568	7.32032	-7.58234	17.61351	24.0244	1.28306	0.77939	148.11096	157.22821	55.14192	0.343	 	5469694.238	 	1.12268E-6	 	13188.65601	43.9852	 
980.0	1.0	0.0	7.52897	7.31712	-7.62269	17.54559	23.92738	1.28314	0.77934	148.6686	157.51952	55.36188	0.3427	 	6131479.294	 	9.97527E-7	 	12970.38227	43.65475	 
975.0	1.0	0.0	7.53223	7.31395	-7.66269	17.47839	23.83193	1.28314	0.77934	149.21961	157.80713	55.57929	0.3424	 	6880014.349	 	8.8545E-7	 	12753.6958	43.33729	 
970.0	1.0	0.0	7.53546	7.31081	-7.70233	17.41189	23.73797	1.28306	0.77939	149.76426	158.09118	55.79425	0.34211	 	7727519.759	 	7.85182E-7	 	12538.5347	43.03222	 
965.0	1.0	0.0	7.53867	7.3077	-7.74164	17.34603	23.64543	1.2829	0.77949	150.30284	158.37182	56.00688	0.34182	 	8688056.553	 	6.95564E-7	 	12324.83995	42.73895	 
960.0	1.0	0.0	7.54186	7.30461	-7.78062	17.28078	23.55425	1.28266	0.77963	150.8356	158.6492	56.21726	0.34154	 	9777819.603	 	6.15546E-7	 	12112.55526	42.45694	 
955.0	1.0	0.0	7.54503	7.30155	-7.81929	17.21612	23.46437	1.28236	0.77981	151.36278	158.92345	56.42549	0.34126	 	1.101548359E7	 	5.4417E-7	 	11901.62699	42.18565	 
950.0	1.0	0.0	7.54817	7.29851	-7.85765	17.152	23.37572	1.28198	0.78004	151.88461	159.1947	56.63167	0.34099	 	1.242260558E7	 	4.80567E-7	 	11692.00402	41.92459	 
945.0	1.0	0.0	7.55129	7.29549	-7.89572	17.08839	23.28825	1.28153	0.78032	152.40132	159.46306	56.83588	0.34071	 	1.402409887E7	 	4.23948E-7	 	11483.63758	41.67329	 
940.0	1.0	0.0	7.55439	7.2925	-7.93351	17.02526	23.20191	1.28102	0.78063	152.9131	159.72865	57.03819	0.34044	 	1.584878805E7	 	3.73599E-7	 	11276.48118	41.43128	 
935.0	1.0	0.0	7.55747	7.28953	-7.97102	16.96258	23.11665	1.28045	0.78098	153.42017	159.99157	57.23869	0.34018	 	1.793006148E7	 	3.28871E-7	 	11070.49049	41.19814	 
930.0	1.0	0.0	7.56053	7.28658	-8.00827	16.90032	23.03242	1.27981	0.78136	153.9227	160.25194	57.43745	0.33992	 	2.030663887E7	 	2.8918E-7	 	10865.6232	40.97346	 
925.0	1.0	0.0	7.56357	7.28365	-8.04526	16.83846	22.94918	1.27912	0.78179	154.42087	160.50983	57.63453	0.33966	 	2.302347826E7	 	2.53996E-7	 	10661.839	40.75684	 
920.0	1.0	0.0	7.56659	7.28074	-8.082	16.77696	22.86689	1.27836	0.78225	154.91486	160.76536	57.83001	0.3394	 	2.613283815E7	 	2.22841E-7	 	10459.09941	40.54792	 
915.0	1.0	0.0	7.56959	7.27785	-8.11849	16.71581	22.78551	1.27755	0.78275	155.40483	161.01861	58.02394	0.33914	 	2.969554274E7	 	1.95284E-7	 	10257.36771	40.34634	 
910.0	1.0	0.0	7.57258	7.27498	-8.15475	16.65497	22.70501	1.27669	0.78328	155.89092	161.26965	58.21639	0.33889	 	3.378246821E7	 	1.70937E-7	 	10056.60889	40.15176	 
905.0	1.0	0.0	7.57556	7.27212	-8.19078	16.59443	22.62535	1.27577	0.78384	156.37328	161.51857	58.40741	0.33864	 	3.847630836E7	 	1.49449E-7	 	9856.78952	39.96388	 
900.0	1.0	0.0	7.57851	7.26929	-8.22659	16.53416	22.54651	1.27479	0.78444	156.85206	161.76545	58.59705	0.3384	 	4.387366366E7	 	1.30508E-7	 	9657.87769	39.78236	 
895.0	1.0	0.0	7.58145	7.26647	-8.26219	16.47414	22.46845	1.27377	0.78507	157.32738	162.01037	58.78537	0.33815	 	5.008752915E7	 	1.1383E-7	 	9459.84299	39.60694	 
890.0	1.0	0.0	7.58438	7.26366	-8.29757	16.41435	22.39114	1.2727	0.78573	157.79938	162.25338	58.97241	0.33791	 	5.725023438E7	 	9.9162E-8	 	9262.65634	39.43733	 
885.0	1.0	0.0	7.58729	7.26088	-8.33274	16.35477	22.31456	1.27158	0.78643	158.26816	162.49456	59.15822	0.33767	 	6.551696597E7	 	8.62775E-8	 	9066.29002	39.27327	 
880.0	1.0	0.0	7.59018	7.25811	-8.36772	16.29539	22.23868	1.27041	0.78715	158.73384	162.73398	59.34285	0.33743	 	7.506994264E7	 	7.49733E-8	 	8870.71726	39.11455	 
875.0	1.0	0.0	7.59307	7.25535	-8.4025	16.23617	22.16348	1.26919	0.7879	159.19654	162.9717	59.52634	0.33719	 	8.612341578E7	 	6.50675E-8	 	8675.91271	38.96091	 
870.0	1.0	0.0	7.59593	7.25261	-8.43709	16.17711	22.08894	1.26793	0.78869	159.65636	163.20777	59.70873	0.33696	 	9.892963225E7	 	5.6398E-8	 	8481.85278	38.81198	 
865.0	1.0	0.0	7.59879	7.24989	-8.47149	16.11819	22.01504	1.26662	0.7895	160.11339	163.44225	59.89005	0.33673	 	1.137859746E8	 	4.882E-8	 	8288.51451	38.66765	 
860.0	1.0	0.0	7.60163	7.24718	-8.50571	16.05939	21.94176	1.26527	0.79035	160.56773	163.67521	60.07034	0.3365	 	1.310435166E8	 	4.22045E-8	 	8095.87596	38.52771	 
855.0	1.0	0.0	7.60446	7.24448	-8.53975	16.0007	21.86907	1.26387	0.79122	161.01948	163.90669	60.24964	0.33627	 	1.511172965E8	 	3.64367E-8	 	7903.9162	38.39195	 
850.0	1.0	0.0	7.60728	7.2418	-8.57362	15.9421	21.79575	1.2625	0.79208	161.46871	164.13676	60.42798	0.33604	 	1.744986494E8	 	3.14147E-8	 	7712.61528	38.26018	 
845.0	1.0	0.0	7.6095	7.23969	-8.60027	15.91615	21.73055	1.26065	0.79324	161.85118	164.37929	60.57773	0.3359	 	1.981313057E8	 	2.75444E-8	 	7554.02832	31.71739	 
840.0	1.0	0.0	7.61171	7.23758	-8.62685	15.89019	21.66535	1.25879	0.79441	162.23299	164.62078	60.72727	0.33575	 	2.2522141E8	 	2.4123E-8	 	7392.42865	32.31993	 
835.0	1.0	0.0	7.61392	7.23548	-8.65336	15.86424	21.60013	1.25692	0.79559	162.61414	164.86125	60.87658	0.33561	 	2.563117362E8	 	2.11017E-8	 	7231.05425	32.27488	 
830.0	1.0	0.0	7.61612	7.23339	-8.6798	15.83829	21.5349	1.25504	0.79679	162.99463	165.10068	61.02568	0.33546	 	2.920359981E8	 	1.84368E-8	 	7069.90434	32.22998	 
825.0	1.0	0.0	7.61832	7.2313	-8.70618	15.81235	21.46967	1.25315	0.79799	163.37447	165.33909	61.17456	0.33531	 	3.3313504E8	 	1.6089E-8	 	6908.97813	32.18524	 
820.0	1.0	0.0	7.62052	7.22921	-8.73248	15.7864	21.40442	1.25125	0.7992	163.75365	165.57648	61.32323	0.33517	 	3.804760756E8	 	1.40229E-8	 	6748.27479	32.14067	 
815.0	1.0	0.0	7.62271	7.22714	-8.75872	15.76045	21.33916	1.24933	0.80043	164.13217	165.81284	61.47168	0.33502	 	4.350755863E8	 	1.22071E-8	 	6587.79348	32.09626	 
810.0	1.0	0.0	7.6249	7.22506	-8.78489	15.73451	21.27389	1.24741	0.80166	164.51004	166.0482	61.61991	0.33488	 	4.981266087E8	 	1.06129E-8	 	6427.53333	32.05203	 
805.0	1.0	0.0	7.62708	7.223	-8.81098	15.70857	21.20862	1.24547	0.80291	164.88725	166.28254	61.76793	0.33473	 	5.710313022E8	 	9.21523E-9	 	6267.49342	32.00798	 
800.0	1.0	0.0	7.62926	7.22093	-8.83701	15.68262	21.14333	1.24352	0.80417	165.26381	166.51587	61.91573	0.33459	 	6.554398715E8	 	7.99124E-9	 	6107.67284	31.96412	 
795.0	1.0	0.0	7.63143	7.21888	-8.86297	15.65668	21.07803	1.24156	0.80544	165.63971	166.74819	62.06332	0.33444	 	7.532971549E8	 	6.92074E-9	 	5948.07063	31.92044	 
790.0	1.0	0.0	7.6336	7.21683	-8.88887	15.63075	21.01271	1.23959	0.80672	166.01495	166.97952	62.21069	0.3343	 	8.668984681E8	 	5.98567E-9	 	5788.68578	31.87697	 
785.0	1.0	0.0	7.63576	7.21478	-8.91469	15.60481	20.94739	1.23761	0.80801	166.38954	167.20984	62.35784	0.33415	 	9.98956644E8	 	5.16996E-9	 	5629.51729	31.8337	 
780.0	1.0	0.0	7.63792	7.21274	-8.94045	15.57887	20.88206	1.23561	0.80931	166.76348	167.43917	62.50477	0.33401	 	1.152682635E9	 	4.45931E-9	 	5470.56406	31.79064	 
775.0	1.0	0.0	7.64008	7.21071	-8.96613	15.55294	20.81671	1.23361	0.81063	167.13676	167.66751	62.65149	0.33386	 	1.331882573E9	 	3.841E-9	 	5311.82501	31.74781	 
770.0	1.0	0.0	7.64223	7.20868	-8.99175	15.527	20.75135	1.23159	0.81196	167.50939	167.89485	62.798	0.33372	 	1.541074821E9	 	3.30377E-9	 	5153.29897	31.70521	 
765.0	1.0	0.0	7.64437	7.20665	-9.0173	15.50107	20.68598	1.22956	0.8133	167.88136	168.12121	62.94428	0.33357	 	1.785631374E9	 	2.83763E-9	 	4994.98477	31.66284	 
760.0	1.0	0.0	7.64652	7.20464	-9.04278	15.47514	20.62059	1.22752	0.81465	168.25268	168.34659	63.09036	0.33343	 	2.071948934E9	 	2.43372E-9	 	4836.88116	31.62072	 
755.0	1.0	0.0	7.64865	7.20262	-9.06819	15.44921	20.5552	1.22546	0.81602	168.62335	168.57098	63.23621	0.33328	 	2.407656218E9	 	2.08424E-9	 	4678.98682	31.57887	 
750.0	1.0	0.0	7.65078	7.20062	-9.09353	15.42328	20.48979	1.2234	0.8174	168.99336	168.7944	63.38185	0.33314	 	2.801865619E9	 	1.78229E-9	 	4521.30043	31.53728	 
745.0	1.0	0.0	7.65291	7.19861	-9.11881	15.39735	20.42437	1.22132	0.81879	169.36273	169.01685	63.52727	0.33299	 	3.26547917E9	 	1.52178E-9	 	4363.82058	31.49597	 
740.0	1.0	0.0	7.65504	7.19662	-9.14401	15.37143	20.35893	1.21923	0.82019	169.73144	169.23832	63.67248	0.33285	 	3.811561209E9	 	1.29735E-9	 	4206.5458	31.45496	 
735.0	1.0	0.0	7.65715	7.19463	-9.16915	15.3455	20.29348	1.21712	0.82161	170.0995	169.45882	63.81747	0.3327	 	4.455793031E9	 	1.1043E-9	 	4049.47454	31.41425	 
730.0	1.0	0.0	7.65927	7.19264	-9.19422	15.31958	20.22801	1.21501	0.82304	170.46691	169.67836	63.96225	0.33256	 	5.217028543E9	 	9.38489E-10	 	3892.6052	31.37387	 
725.0	1.0	0.0	7.66138	7.19066	-9.21922	15.29366	20.16254	1.21288	0.82449	170.83367	169.89694	64.10681	0.33241	 	6.117974568E9	 	7.96297E-10	 	3735.93611	31.33382	 
720.0	1.0	0.0	7.66348	7.18869	-9.24415	15.26773	20.09704	1.21073	0.82595	171.19977	170.11456	64.25115	0.33227	 	7.186025239E9	 	6.74548E-10	 	3579.4655	31.29412	 
715.0	1.0	0.0	7.66558	7.18672	-9.26901	15.24181	20.03154	1.20858	0.82742	171.56523	170.33123	64.39528	0.33213	 	8.454287255E9	 	5.7047E-10	 	3423.19151	31.2548	 
710.0	1.0	0.0	7.66768	7.18475	-9.29381	15.2159	19.96601	1.20641	0.82891	171.93003	170.54694	64.53919	0.33198	 	9.962841987E9	 	4.81641E-10	 	3267.11221	31.21586	 
705.0	1.0	0.0	7.66977	7.18279	-9.31853	15.18998	19.90047	1.20423	0.83041	172.29419	170.7617	64.68288	0.33184	 	1.1760299999999998E10	 	4.05951E-10	 	3111.22556	31.17733	 
700.0	1.0	0.0	7.67185	7.18084	-9.34319	15.16406	19.83492	1.20203	0.83193	172.65769	170.97551	64.82636	0.33169	 	1.3905699999999998E10	 	3.41564E-10	 	2955.52942	31.13923	 
695.0	1.0	0.0	7.67394	7.17889	-9.36778	15.13815	19.76935	1.19982	0.83346	173.02055	171.18838	64.96962	0.33155	 	1.6470999999999998E10	 	2.86885E-10	 	2800.02151	31.10158	 
690.0	1.0	0.0	7.67601	7.17695	-9.3923	15.11224	19.70377	1.1976	0.83501	173.38276	171.40031	65.11267	0.33141	 	1.95439E10	 	2.4053E-10	 	2644.69948	31.06441	 
685.0	1.0	0.0	7.67808	7.17501	-9.41675	15.08632	19.63816	1.19536	0.83657	173.74431	171.6113	65.2555	0.33126	 	2.32315E10	 	2.01299E-10	 	2489.56081	31.02774	 
680.0	1.0	0.0	7.68015	7.17308	-9.44113	15.06041	19.57255	1.19311	0.83815	174.10522	171.82135	65.39812	0.33112	 	2.7664999999999996E10	 	1.68158E-10	 	2334.60286	30.99159	 
675.0	1.0	0.0	7.68221	7.17116	-9.46544	15.0345	19.50691	1.19084	0.83974	174.46548	172.03047	65.54052	0.33097	 	3.3005399999999996E10	 	1.4021E-10	 	2179.82284	30.95601	 
670.0	1.0	0.0	7.68427	7.16924	-9.48969	15.0086	19.44126	1.18856	0.84135	174.82509	172.23866	65.6827	0.33083	 	3.94503E10	 	1.16685E-10	 	2025.21779	30.92101	 
665.0	1.0	0.0	7.68632	7.16732	-9.51386	14.98269	19.37559	1.18627	0.84298	175.18406	172.44593	65.82467	0.33069	 	4.724359999999999E10	 	9.69206E-11	 	1870.7846	30.88664	 
660.0	1.0	0.0	7.68837	7.16541	-9.53797	14.95679	19.3099	1.18396	0.84462	175.54237	172.65227	65.96642	0.33054	 	5.668569999999999E10	 	8.0346E-11	 	1716.52831	30.85126	 
655.0	1.0	0.0	7.69042	7.16351	-9.56201	14.93088	19.24419	1.18164	0.84628	175.90004	172.85769	66.10795	0.3304	 	6.814859999999999E10	 	6.64734E-11	 	1562.49508	30.80665	 
650.0	1.0	0.0	7.69246	7.16161	-9.58598	14.90498	19.17847	1.1793	0.84796	176.25706	173.06219	66.24927	0.33026	 	8.20932E10	 	5.48848E-11	 	1408.74624	30.74977	 
645.0	1.0	0.0	7.69449	7.15972	-9.60988	14.87908	19.11272	1.17695	0.84966	176.61343	173.26577	66.39038	0.33011	 	9.909179999999998E10	 	4.52233E-11	 	1255.28065	30.69312	 
640.0	1.0	0.0	7.69652	7.15783	-9.63372	14.85318	19.04696	1.17458	0.85137	176.96916	173.46844	66.53127	0.32997	 	1.19857E11	 	3.71848E-11	 	1102.09722	30.63669	 
635.0	1.0	0.0	7.69854	7.15595	-9.65748	14.82728	18.98117	1.1722	0.8531	177.32424	173.6702	66.67194	0.32983	 	1.45278E11	 	3.05102E-11	 	949.1948	30.58048	 
630.0	1.0	0.0	7.70056	7.15407	-9.68118	14.80138	18.91537	1.1698	0.85485	177.67867	173.87106	66.81239	0.32968	 	1.76465E11	 	2.49797E-11	 	796.5723	30.5245	 
625.0	1.0	0.0	7.70258	7.1522	-9.70481	14.77548	18.84955	1.16738	0.85662	178.03246	174.07101	66.95263	0.32954	 	2.14813E11	 	2.04068E-11	 	644.22822	30.46882	 
620.0	1.0	0.0	7.70459	7.15033	-9.72837	14.74959	18.7837	1.16496	0.8584	178.3856	174.27005	67.09266	0.3294	 	2.6207E11	 	1.66339E-11	 	492.16054	30.41354	 
615.0	1.0	0.0	7.70659	7.14847	-9.75186	14.7237	18.71783	1.16251	0.86021	178.73809	174.4682	67.23246	0.32925	 	3.20439E11	 	1.35278E-11	 	340.36864	30.35838	 
610.0	1.0	0.0	7.70859	7.14662	-9.77528	14.6978	18.65195	1.16005	0.86203	179.08994	174.66545	67.37205	0.32911	 	3.92703E11	 	1.09763E-11	 	188.85142	30.30345	 
605.0	1.0	0.0	7.71059	7.14477	-9.79863	14.67191	18.58604	1.15757	0.86388	179.44114	174.86181	67.51143	0.32897	 	4.82378E11	 	8.88521E-12	 	37.60777	30.24873	 
600.0	1.0	0.0	7.71258	7.14292	-9.82192	14.64602	18.52011	1.15508	0.86574	179.7917	175.05727	67.65059	0.32883	 	5.93929E11	 	7.17532E-12	 	-113.36337	30.19423	 
595.0	1.0	0.0	7.71457	7.14108	-9.84514	14.62013	18.45415	1.15257	0.86763	180.14161	175.25185	67.78953	0.32868	 	7.3303E11	 	5.78042E-12	 	-264.06308	30.13994	 
590.0	1.0	0.0	7.71655	7.13925	-9.86828	14.59425	18.38817	1.15004	0.86953	180.49088	175.44554	67.92826	0.32854	 	9.06918E11	 	4.64521E-12	 	-414.49247	30.08588	 
585.0	1.0	0.0	7.71853	7.13742	-9.89136	14.56836	18.32217	1.1475	0.87146	180.83951	175.63834	68.06677	0.3284	 	1.12484E12	 	3.72356E-12	 	-564.6526	30.03203	 
580.0	1.0	0.0	7.7205	7.1356	-9.91438	14.54248	18.25614	1.14494	0.87341	181.18748	175.83027	68.20507	0.32826	 	1.39866E12	 	2.97715E-12	 	-714.54457	29.97839	 
575.0	1.0	0.0	7.72246	7.13378	-9.93732	14.51659	18.19009	1.14236	0.87538	181.53482	176.02132	68.34315	0.32811	 	1.7436E12	 	2.37418E-12	 	-864.16941	29.92497	 
570.0	1.0	0.0	7.72443	7.13197	-9.96019	14.49071	18.12402	1.13977	0.87737	181.88151	176.21149	68.48101	0.32797	 	2.1793E12	 	1.88831E-12	 	-1013.52822	29.87176	 
565.0	1.0	0.0	7.72638	7.13016	-9.983	14.46483	18.05792	1.13716	0.87939	182.22755	176.40078	68.61865	0.32783	 	2.73114E12	 	1.49784E-12	 	-1162.62206	29.81877	 
560.0	1.0	0.0	7.72833	7.12836	-10.00574	14.43895	17.99179	1.13453	0.88142	182.57296	176.58921	68.75608	0.32769	 	3.432E12	 	1.18485E-12	 	-1311.452	29.76599	 
555.0	1.0	0.0	7.73028	7.12657	-10.0284	14.41307	17.92563	1.13188	0.88349	182.91772	176.77677	68.8933	0.32754	 	4.32462E12	 	9.34647E-13	 	-1460.01909	29.71342	 
550.0	1.0	0.0	7.73222	7.12478	-10.051	14.3872	17.85945	1.12922	0.88557	183.26183	176.96346	69.0303	0.3274	 	5.46473E12	 	7.35186E-13	 	-1608.32439	29.66106	 
545.0	1.0	0.0	7.73416	7.12299	-10.07354	14.36132	17.79324	1.12653	0.88768	183.6053	177.14929	69.16708	0.32726	 	6.92519E12	 	5.76618E-13	 	-1756.36896	29.60891	 
540.0	1.0	0.0	7.73609	7.12121	-10.096	14.33545	17.72701	1.12383	0.88981	183.94813	177.33426	69.30364	0.32712	 	8.80155E12	 	4.50919E-13	 	-1904.15384	29.55698	 
535.0	1.0	0.0	7.73802	7.11944	-10.1184	14.30958	17.66074	1.12111	0.89197	184.29032	177.51837	69.43999	0.32698	 	1.12195E13	 	3.51563E-13	 	-2051.68009	29.50525	 
530.0	1.0	0.0	7.73994	7.11767	-10.14072	14.2837	17.59445	1.11837	0.89416	184.63186	177.70163	69.57613	0.32683	 	1.43451E13	 	2.73262E-13	 	-2198.94872	29.45373	 
525.0	1.0	0.0	7.74186	7.11591	-10.16298	14.25783	17.52812	1.11562	0.89636	184.97276	177.88403	69.71204	0.32669	 	1.8398E13	 	2.11739E-13	 	-2345.96079	29.40241	 
520.0	1.0	0.0	7.74377	7.11415	-10.18517	14.23197	17.46177	1.11284	0.8986	185.31302	178.06558	69.84774	0.32655	 	2.367E13	 	1.63547E-13	 	-2492.71734	29.35131	 
515.0	1.0	0.0	7.74568	7.1124	-10.20729	14.2061	17.39538	1.11005	0.90086	185.65264	178.24629	69.98323	0.32641	 	3.05503E13	 	1.25916E-13	 	-2639.21939	29.30041	 
510.0	1.0	0.0	7.74759	7.11065	-10.22934	14.18023	17.32896	1.10723	0.90315	185.99161	178.42614	70.11849	0.32627	 	3.95592E13	 	9.66238E-14	 	-2785.46797	29.24972	 
505.0	1.0	0.0	7.74948	7.10891	-10.25133	14.15437	17.26251	1.1044	0.90547	186.32994	178.60516	70.25354	0.32612	 	5.13951E13	 	7.38973E-14	 	-2931.46409	29.19922	 
500.0	1.0	0.0	7.75138	7.10717	-10.27324	14.1285	17.19603	1.10154	0.90782	186.66764	178.78333	70.38838	0.32598	 	6.69987E13	 	5.63228E-14	 	-3077.20877	29.14894	 
495.0	1.0	0.0	7.75326	7.10544	-10.29509	14.10264	17.12951	1.09867	0.91019	187.00468	178.96066	70.52299	0.32584	 	8.76415E13	 	4.27783E-14	 	-3222.70302	29.09885	 
490.0	1.0	0.0	7.75515	7.10372	-10.31687	14.07678	17.06296	1.09578	0.9126	187.34109	179.13716	70.6574	0.3257	 	1.15049E14	 	3.23754E-14	 	-3367.94785	29.04897	 
485.0	1.0	0.0	7.75702	7.102	-10.33858	14.05092	16.99637	1.09286	0.91503	187.67686	179.31283	70.79158	0.32556	 	1.5157E14	 	2.44135E-14	 	-3512.94425	28.99928	 
480.0	1.0	0.0	7.7589	7.10028	-10.36023	14.02506	16.92974	1.08993	0.91749	188.01198	179.48766	70.92555	0.32542	 	2.00416E14	 	1.83415E-14	 	-3657.69324	28.9498	 
475.0	1.0	0.0	7.76076	7.09857	-10.3818	13.9992	16.86308	1.08697	0.91999	188.34647	179.66166	71.0593	0.32528	 	2.6599599999999997E14	 	1.37278E-14	 	-3802.19577	28.90051	 
470.0	1.0	0.0	7.76263	7.09687	-10.4033	13.97335	16.79639	1.08399	0.92251	188.68031	179.83484	71.19283	0.32514	 	3.54381E14	 	1.02351E-14	 	-3946.45286	28.85142	 
465.0	1.0	0.0	7.76449	7.09517	-10.42474	13.94749	16.72965	1.081	0.92507	189.01351	180.00719	71.32615	0.32499	 	4.73974E14	 	7.6011E-15	 	-4090.46547	28.80252	 
460.0	1.0	0.0	7.76634	7.09348	-10.44611	13.92164	16.66288	1.07798	0.92766	189.34607	180.17872	71.45925	0.32485	 	6.36446E14	 	5.62235E-15	 	-4234.23458	28.75382	 
455.0	1.0	0.0	7.76819	7.09179	-10.46741	13.89579	16.59606	1.07493	0.93029	189.67799	180.34942	71.59214	0.32471	 	8.58077E14	 	4.14172E-15	 	-4377.76114	28.70531	 
450.0	1.0	0.0	7.77003	7.09011	-10.48864	13.86994	16.52921	1.07187	0.93295	190.00928	180.51932	71.7248	0.32457	 	1.16168E15	 	3.03829E-15	 	-4521.04613	28.657	 
445.0	1.0	0.0	7.77187	7.08843	-10.50981	13.84409	16.46231	1.06879	0.93564	190.33992	180.68839	71.85725	0.32443	 	1.57934E15	 	2.21935E-15	 	-4664.09048	28.60887	 
440.0	1.0	0.0	7.7737	7.08676	-10.5309	13.81824	16.39537	1.06568	0.93837	190.66992	180.85665	71.98949	0.32429	 	2.15644E15	 	1.6141E-15	 	-4806.89516	28.56094	 
435.0	1.0	0.0	7.77553	7.0851	-10.55193	13.79239	16.32839	1.06255	0.94114	190.99928	181.0241	72.1215	0.32415	 	2.9574E15	 	1.1687E-15	 	-4949.4611	28.51319	 
430.0	1.0	0.0	7.77735	7.08344	-10.57289	13.76655	16.26136	1.05939	0.94394	191.328	181.19075	72.2533	0.32401	 	4.0741E15	 	8.4237E-16	 	-5091.78922	28.46562	 
425.0	1.0	0.0	7.77917	7.08178	-10.59378	13.7407	16.19429	1.05622	0.94678	191.65608	181.35658	72.38488	0.32387	 	5.63828E15	 	6.0435E-16	 	-5233.88034	28.41822	 
420.0	1.0	0.0	7.78098	7.08013	-10.6146	13.71486	16.12717	1.05302	0.94965	191.98352	181.52162	72.51625	0.32373	 	7.83967E15	 	4.31535E-16	 	-5375.73555	28.37104	 
415.0	1.0	0.0	7.78278	7.07849	-10.63536	13.68902	16.06	1.04979	0.95257	192.31032	181.68585	72.6474	0.32359	 	1.09529E16	 	3.06648E-16	 	-5517.35528	28.32395	 
410.0	1.0	0.0	7.78459	7.07685	-10.65604	13.66318	15.99279	1.04655	0.95552	192.63649	181.84928	72.77833	0.32345	 	1.53775E16	 	2.16829E-16	 	-5658.73972	28.27689	 
405.0	1.0	0.0	7.78638	7.07522	-10.67666	13.63734	15.92552	1.04327	0.95852	192.96201	182.01191	72.90904	0.32331	 	2.16978E16	 	1.52544E-16	 	-5799.88909	28.22987	 
400.0	1.0	0.0	7.78818	7.07359	-10.69721	13.6115	15.85821	1.03998	0.96156	193.2869	182.17375	73.03954	0.32317	 	3.07728E16	 	1.06766E-16	 	-5940.80358	28.1829	 
395.0	1.0	0.0	7.78996	7.07197	-10.71769	13.58567	15.79084	1.03666	0.96464	193.61114	182.33479	73.16982	0.32303	 	4.38723E16	 	7.43311E-17	 	-6081.48339	28.13596	 
390.0	1.0	0.0	7.79174	7.07035	-10.7381	13.55983	15.72342	1.03331	0.96776	193.93475	182.49505	73.29988	0.32289	 	6.28833E16	 	5.14711E-17	 	-6221.92867	28.08906	 
385.0	1.0	0.0	7.79352	7.06874	-10.75844	13.534	15.65595	1.02994	0.97093	194.25772	182.65451	73.42973	0.32275	 	9.06267E16	 	3.5445E-17	 	-6362.13962	28.04219	 
380.0	1.0	0.0	7.79529	7.06713	-10.77872	13.50816	15.58842	1.02654	0.97414	194.58005	182.81319	73.55935	0.32261	 	1.31343E17	 	2.42713E-17	 	-6502.11636	27.99535	 
375.0	1.0	0.0	7.79706	7.06553	-10.79893	13.48233	15.52083	1.02312	0.9774	194.90174	182.97108	73.68876	0.32247	 	1.91445E17	 	1.65241E-17	 	-6641.85906	27.94854	 
370.0	1.0	0.0	7.79882	7.06394	-10.81907	13.4565	15.45318	1.01967	0.98071	195.2228	183.1282	73.81796	0.32233	 	2.80689E17	 	1.11834E-17	 	-6781.36784	27.90176	 
365.0	1.0	0.0	7.80057	7.06235	-10.83914	13.43068	15.38548	1.0162	0.98406	195.54321	183.28453	73.94693	0.32219	 	4.1401E17	 	7.52313E-18	 	-6920.64282	27.855	 
360.0	1.0	0.0	7.80232	7.06076	-10.85914	13.40485	15.31771	1.0127	0.98746	195.86299	183.44008	74.07569	0.32205	 	6.14415E17	 	5.02957E-18	 	-7059.68412	27.80826	 
355.0	1.0	0.0	7.80407	7.05918	-10.87908	13.37902	15.24988	1.00917	0.99092	196.18213	183.59486	74.20423	0.32191	 	9.17578E17	 	3.34124E-18	 	-7198.49182	27.76154	 
350.0	1.0	0.0	7.80581	7.05761	-10.89894	13.3532	15.18199	1.00561	0.99442	196.50063	183.74886	74.33255	0.32177	 	1.37917E18	 	2.20526E-18	 	-7337.06601	27.71484	 
345.0	1.0	0.0	7.80754	7.05604	-10.91874	13.32737	15.11403	1.00203	0.99798	196.8185	183.90209	74.46066	0.32163	 	2.08669E18	 	1.44585E-18	 	-7475.40677	27.66815	 
340.0	1.0	0.0	7.80927	7.05448	-10.93847	13.30155	15.046	0.99842	1.00159	197.13572	184.05455	74.58854	0.32149	 	3.17856E18	 	9.41507E-19	 	-7613.51414	27.62147	 
335.0	1.0	0.0	7.811	7.05292	-10.95813	13.27573	14.9779	0.99478	1.00525	197.45231	184.20624	74.71621	0.32135	 	4.87536E18	 	6.08822E-19	 	-7751.38817	27.57481	 
330.0	1.0	0.0	7.81272	7.05137	-10.97772	13.24991	14.90974	0.99111	1.00897	197.76826	184.35717	74.84366	0.32121	 	7.53121E18	 	3.90884E-19	 	-7889.02887	27.52814	 
325.0	1.0	0.0	7.81443	7.04982	-10.99725	13.22409	14.8415	0.98741	1.01275	198.08358	184.50733	74.9709	0.32107	 	1.17187E19	 	2.49125E-19	 	-8026.43626	27.48148	 
320.0	1.0	0.0	7.81614	7.04828	-11.0167	13.19828	14.77318	0.98369	1.01658	198.39826	184.65674	75.09791	0.32093	 	1.83709E19	 	1.57587E-19	 	-8163.61032	27.43481	 
315.0	1.0	0.0	7.81784	7.04675	-11.03609	13.17246	14.70479	0.97993	1.02048	198.7123	184.80538	75.22471	0.32079	 	2.90204E19	 	9.89171E-20	 	-8300.55103	27.38814	 
310.0	1.0	0.0	7.81954	7.04522	-11.05541	13.14665	14.63632	0.97615	1.02444	199.0257	184.95326	75.35129	0.32065	 	4.62041E19	 	6.16009E-20	 	-8437.25833	27.34146	 
305.0	1.0	0.0	7.82123	7.04369	-11.07467	13.12083	14.56777	0.97233	1.02846	199.33847	185.10039	75.47765	0.32051	 	7.41567E19	 	3.80519E-20	 	-8573.73218	27.29477	 
300.0	1.0	0.0	7.82292	7.04217	-11.09385	13.09502	14.49914	0.96848	1.03254	199.6506	185.24677	75.60379	0.32037	 	1.2000699999999998E20	 	2.33104E-20	 	-8709.97248	27.24806	 
295.0	1.0	0.0	7.8246	7.04066	-11.11296	13.06921	14.43042	0.96461	1.03669	199.96209	185.39239	75.72972	0.32024	 	1.95858E20	 	1.41582E-20	 	-8845.97912	27.20133	 
290.0	1.0	0.0	7.82628	7.03915	-11.13201	13.0434	14.36161	0.9607	1.04091	200.27294	185.53727	75.85542	0.3201	 	3.2244299999999997E20	 	8.52427E-21	 	-8981.75197	27.15457	 
285.0	1.0	0.0	7.82795	7.03765	-11.15099	13.0176	14.29272	0.95676	1.0452	200.58316	185.6814	75.98091	0.31996	 	5.3560599999999993E20	 	5.08619E-21	 	-9117.2909	27.10779	 
280.0	1.0	0.0	7.82962	7.03615	-11.1699	12.99179	14.22373	0.95279	1.04955	200.89275	185.82478	76.10618	0.31982	 	8.978859999999999E20	 	3.00683E-21	 	-9252.59572	27.06096	 
275.0	1.0	0.0	7.83128	7.03466	-11.18875	12.96598	14.15464	0.94878	1.05398	201.2017	185.96742	76.23124	0.31968	 	1.5194600000000001E21	 	1.76074E-21	 	-9387.66623	27.0141	 
270.0	1.0	0.0	7.83294	7.03317	-11.20752	12.94018	14.08546	0.94475	1.05849	201.51001	186.10931	76.35607	0.31954	 	2.59637E21	 	1.02103E-21	 	-9522.50221	26.9672	 
265.0	1.0	0.0	7.83459	7.03169	-11.22623	12.91438	14.01618	0.94068	1.06307	201.81768	186.25047	76.48068	0.3194	 	4.4809E21	 	5.86171E-22	 	-9657.10339	26.92024	 
260.0	1.0	0.0	7.83623	7.03021	-11.24486	12.88858	13.9468	0.93657	1.06772	202.12472	186.39089	76.60508	0.31926	 	7.812860000000001E21	 	3.33063E-22	 	-9791.46952	26.87323	 
255.0	1.0	0.0	7.83787	7.02874	-11.26344	12.86278	13.87731	0.93243	1.07246	202.43113	186.53057	76.72926	0.31913	 	1.3766599999999999E22	 	1.87248E-22	 	-9925.60027	26.82615	 
250.0	1.0	0.0	7.83951	7.02727	-11.28194	12.83698	13.80771	0.92826	1.07728	202.73689	186.66952	76.85322	0.31899	 	2.4521399999999997E22	 	1.04128E-22	 	-10059.49529	26.779	 
245.0	1.0	0.0	7.84114	7.02581	-11.30037	12.81118	13.738	0.92406	1.08219	203.04202	186.80773	76.97696	0.31885	 	4.416749999999999E22	 	5.72585E-23	 	-10193.15422	26.73179	 
240.0	1.0	0.0	7.84276	7.02436	-11.31874	12.78538	13.66817	0.91981	1.08718	203.34652	186.94522	77.10048	0.31871	 	8.047109999999999E22	 	3.11237E-23	 	-10326.57664	26.68448	 
235.0	1.0	0.0	7.84438	7.02291	-11.33703	12.75959	13.59823	0.91554	1.09226	203.65038	187.08198	77.22378	0.31857	 	1.4835599999999999E23	 	1.67176E-23	 	-10459.76211	26.63709	 
230.0	1.0	0.0	7.84599	7.02147	-11.35526	12.7338	13.52816	0.91122	1.09743	203.95361	187.21801	77.34687	0.31843	 	2.76853E23	 	8.87023E-24	 	-10592.71015	26.58961	 
225.0	1.0	0.0	7.8476	7.02003	-11.37343	12.708	13.45796	0.90687	1.10269	204.2562	187.35332	77.46973	0.3183	 	5.23158E23	 	4.64744E-24	 	-10725.42022	26.54202	 
220.0	1.0	0.0	7.8492	7.01859	-11.39152	12.68221	13.38763	0.90249	1.10805	204.55815	187.4879	77.59238	0.31816	 	1.00143E24	 	2.4035E-24	 	-10857.89177	26.49431	 
215.0	1.0	0.0	7.8508	7.01717	-11.40954	12.65642	13.31717	0.89806	1.11351	204.85947	187.62177	77.7148	0.31802	 	1.94261E24	 	1.22646E-24	 	-10990.12419	26.44648	 
210.0	1.0	0.0	7.85239	7.01574	-11.4275	12.63064	13.24657	0.8936	1.11907	205.16015	187.75491	77.83701	0.31788	 	3.82039E24	 	6.1725E-25	 	-11122.11682	26.39853	 
205.0	1.0	0.0	7.85398	7.01433	-11.44539	12.60485	13.17583	0.8891	1.12473	205.4602	187.88734	77.959	0.31775	 	7.62029E24	 	3.06252E-25	 	-11253.86895	26.35043	 
200.0	1.0	0.0	7.85556	7.01292	-11.46321	12.57906	13.10494	0.88457	1.1305	205.75962	188.01905	78.08077	0.31761	 	1.5423100000000001E25	 	1.49731E-25	 	-11385.37983	26.30218	 
195.0	1.0	0.0	7.85713	7.01151	-11.48096	12.55328	13.03389	0.87999	1.13638	206.0584	188.15005	78.20232	0.31747	 	3.16895E25	 	7.21036E-26	 	-11516.64866	26.25377	 
190.0	1.0	0.0	7.8587	7.01011	-11.49865	12.5275	12.96269	0.87537	1.14237	206.35654	188.28033	78.32365	0.31733	 	6.6131600000000005E25	 	3.41821E-26	 	-11647.67457	26.20518	 
185.0	1.0	0.0	7.86027	7.00871	-11.51626	12.50171	12.89132	0.87072	1.14848	206.65405	188.40991	78.44477	0.31719	 	1.4024200000000002E26	 	1.59447E-26	 	-11778.45662	26.15641	 
180.0	1.0	0.0	7.86183	7.00732	-11.53381	12.47593	12.81979	0.86602	1.15471	206.95093	188.53878	78.56566	0.31706	 	3.0237800000000004E26	 	7.3144E-27	 	-11908.99383	26.10744	 
175.0	1.0	0.0	7.86338	7.00594	-11.55129	12.45015	12.74808	0.86128	1.16106	207.24717	188.66694	78.68633	0.31692	 	6.63236E26	 	3.29793E-27	 	-12039.28516	26.05827	 
170.0	1.0	0.0	7.86493	7.00456	-11.5687	12.42438	12.67619	0.8565	1.16754	207.54277	188.7944	78.80679	0.31678	 	1.48076E27	 	1.46067E-27	 	-12169.32946	26.00886	 
165.0	1.0	0.0	7.86647	7.00319	-11.58605	12.3986	12.60411	0.85168	1.17415	207.83774	188.92116	78.92702	0.31665	 	3.36714E27	 	6.3511E-28	 	-12299.12555	25.95922	 
160.0	1.0	0.0	7.86801	7.00182	-11.60333	12.37282	12.53184	0.84682	1.18089	208.13208	189.04721	79.04703	0.31651	 	7.803229999999999E27	 	2.70926E-28	 	-12428.67213	25.90932	 
155.0	1.0	0.0	7.86954	7.00045	-11.62053	12.34705	12.45937	0.84191	1.18777	208.42578	189.17257	79.16683	0.31637	 	1.84422E28	 	1.1331E-28	 	-12557.96786	25.85914	 
150.0	1.0	0.0	7.87107	6.9991	-11.63767	12.32128	12.38669	0.83696	1.1948	208.71885	189.29723	79.2864	0.31623	 	4.44816E28	 	4.64303E-29	 	-12687.01127	25.80868	 
145.0	1.0	0.0	7.87259	6.99774	-11.65475	12.29551	12.31379	0.83197	1.20197	209.01129	189.42119	79.40576	0.3161	 	1.0957000000000001E29	 	1.86264E-29	 	-12815.80084	25.75791	 
140.0	1.0	0.0	7.8741	6.9964	-11.67175	12.26974	12.24067	0.82693	1.20929	209.30309	189.54446	79.52489	0.31596	 	2.75853E29	 	7.30999E-30	 	-12944.3349	25.70681	 
135.0	1.0	0.0	7.87561	6.99506	-11.68869	12.24397	12.16732	0.82185	1.21677	209.59425	189.66703	79.64381	0.31582	 	7.103780000000001E29	 	2.80425E-30	 	-13072.6117	25.65536	 
130.0	1.0	0.0	7.87712	6.99372	-11.70555	12.2182	12.09373	0.81672	1.22441	209.88479	189.78892	79.7625	0.31569	 	1.8728E30	 	1.05066E-30	 	-13200.62941	25.60354	 
125.0	1.0	0.0	7.87862	6.99239	-11.72235	12.19243	12.01989	0.81154	1.23222	210.17468	189.91012	79.88098	0.31555	 	5.05902E30	 	3.8412E-31	 	-13328.38603	25.55133	 
120.0	1.0	0.0	7.88011	6.99106	-11.73908	12.16667	11.94578	0.80632	1.2402	210.46395	190.03063	79.99924	0.31541	 	1.4015899999999999E31	 	1.36907E-31	 	-13455.87946	25.49869	 
115.0	1.0	0.0	7.8816	6.98974	-11.75575	12.14091	11.87141	0.80106	1.24835	210.75258	190.15045	80.11727	0.31528	 	3.98634E31	 	4.75239E-32	 	-13583.10746	25.4456	 
110.0	1.0	0.0	7.88308	6.98843	-11.77234	12.11514	11.79675	0.79574	1.25669	211.04058	190.2696	80.23509	0.31514	 	1.16514E32	 	1.60501E-32	 	-13710.06764	25.39204	 
105.0	1.0	0.0	7.88456	6.98712	-11.78887	12.08938	11.7218	0.79038	1.26521	211.32794	190.38806	80.35268	0.315	 	3.5034599999999995E32	 	5.2681E-33	 	-13836.75749	25.33797	 
100.0	1.0	0.0	7.88603	6.98582	-11.80533	12.06362	11.64655	0.78497	1.27394	211.61467	190.50584	80.47005	0.31487	 	1.085E33	 	1.67857E-33	 	-13963.17429	25.28336	 
95.0	1.0	0.0	7.8875	6.98452	-11.82172	12.03786	11.57097	0.77951	1.28286	211.90077	190.62294	80.58721	0.31473	 	3.46497E33	 	5.18576E-34	 	-14089.31517	25.22818	 
90.0	1.0	0.0	7.88896	6.98323	-11.83805	12.01211	11.49507	0.774	1.29199	212.18623	190.73936	80.70414	0.31459	 	1.14249E34	 	1.55138E-34	 	-14215.17707	25.17238	 
85.0	1.0	0.0	7.89041	6.98194	-11.8543	11.98635	11.41881	0.76844	1.30134	212.47106	190.85511	80.82085	0.31446	 	3.89472E34	 	4.48824E-35	 	-14340.75675	25.11594	 
80.0	1.0	0.0	7.89186	6.98066	-11.87049	11.9606	11.3422	0.76283	1.31091	212.75526	190.97019	80.93735	0.31432	 	1.37461E35	 	1.25391E-35	 	-14466.05073	25.0588	 
75.0	1.0	0.0	7.8933	6.97938	-11.88661	11.93484	11.2652	0.75717	1.32071	213.03882	191.08459	81.05362	0.31418	 	5.030559999999999E35	 	3.37783E-36	 	-14591.05531	25.00092	 
70.0	1.0	0.0	7.89474	6.97811	-11.90266	11.90909	11.18781	0.75146	1.33075	213.32175	191.19832	81.16967	0.31405	 	1.9119299999999998E36	 	8.7599E-37	 	-14715.76655	24.94225	 
65.0	1.0	0.0	7.89618	6.97684	-11.91865	11.88334	11.11001	0.74569	1.34103	213.60405	191.31139	81.2855	0.31391	 	7.55918E36	 	2.18334E-37	 	-14840.18026	24.88274	 
60.0	1.0	0.0	7.8976	6.97558	-11.93456	11.85759	11.03177	0.73988	1.35157	213.88571	191.42379	81.40111	0.31378	 	3.1145699999999998E37	 	5.22069E-38	 	-14964.29193	24.82233	 
55.0	1.0	0.0	7.89902	6.97433	-11.95041	11.83184	10.95307	0.73401	1.36238	214.16675	191.53552	81.5165	0.31364	 	1.3398599999999998E38	 	1.19536E-38	 	-15088.09679	24.76097	 
50.0	1.0	0.0	7.90044	6.97308	-11.96619	11.8061	10.8739	0.72809	1.37346	214.44714	191.64659	81.63166	0.3135	 	6.030209999999999E38	 	2.61552E-39	 	-15211.58971	24.69858	 
45.0	1.0	0.0	7.90185	6.97183	-11.9819	11.78035	10.79423	0.72211	1.38482	214.72691	191.757	81.74661	0.31337	 	2.84536E39	 	5.45735E-40	 	-15334.76523	24.6351	 
40.0	1.0	0.0	7.90325	6.97059	-11.99755	11.75461	10.71404	0.71609	1.39648	215.00604	191.86674	81.86133	0.31323	 	1.41078E40	 	1.08338E-40	 	-15457.61749	24.57045	 
35.0	1.0	0.0	7.90465	6.96936	-12.01312	11.72886	10.63329	0.71	1.40844	215.28454	191.97583	81.97584	0.3131	 	7.36792E40	 	2.04129E-41	 	-15580.14022	24.50455	 
30.0	1.0	0.0	7.90605	6.96813	-12.02863	11.70312	10.55195	0.70387	1.42072	215.56241	192.08426	82.09012	0.31296	 	4.0636100000000006E41	 	3.6411E-42	 	-15702.32672	24.4373	 
25.0	1.0	0.0	7.90744	6.96691	-12.04407	 	10.47001	0.69768	1.43333	215.83964	192.19204	82.20418	0.31283	 	2.37329E42	 	6.13155E-43	 	-15824.1698	 	 
