T (C)	Fraction solid (wt)-TOTAL	Fraction liquid (wt)-LIQUID	Density (g/(cm)^3)-TOTAL	Molar volume (cm^3)-TOTAL	Volume change (%)-  	Average expansion coeff. (10e-6 1/K)-  	Thermal conductivity (W/(m*K))-TOTAL	Electrical resistivity (10e-6 Ohm*m)-TOTAL	Electrical conductivity (10e6 1/(Ohm*m))-TOTAL	Young's modulus (GPa)-TOTAL	Bulk modulus (GPa)-TOTAL	Shear modulus(GPa)-TOTAL	Poisson's ratio-TOTAL	Liquid viscosity (mPa s)-  	Total viscosity (mPa s)-  	Liquid diffusivity (10e-9 (m^2)/s)-  	Total diffusivity (10e-9 (m^2)/s)-  	Surface Tension (mN/m)-  	Enthalpy (J/mole)-TOTAL	Specific heat (J/(mole K))-TOTAL	Latent heat (J/mole)-TOTAL
1400.0	0.0	1.0	7.81781	8.15448	0.0	35.97048	31.60546	1.297	0.77101	0.0	125.03848	0.0	0.5	7.50253	7.50253	1.08846	1.08846	1900.50841	39565.718	 	0.0
1395.0	0.0	1.0	7.82235	8.14974	-0.0580832	35.93947	31.51842	1.29669	0.77119	0.0	125.17718	0.0	0.5	7.58464	7.58464	1.07346	1.07346	1903.55716	39370.357	39.0722	0.0
1390.0	0.0	1.0	7.82689	8.14502	-0.116	35.90868	31.43138	1.29639	0.77138	0.0	125.31588	0.0	0.5	7.66815	7.66815	1.05859	1.05859	1906.61406	39175.402	38.991	0.0
1385.0	0.0	1.0	7.83142	8.14031	-0.17376	35.87813	31.34434	1.29608	0.77156	0.0	125.45459	0.0	0.5	7.75309	7.75309	1.04384	1.04384	1909.67923	38980.852	38.91	0.0
1380.0	0.0	1.0	7.83594	8.13561	-0.23136	35.8478	31.2573	1.29577	0.77174	0.0	125.59329	0.0	0.5	7.8395	7.8395	1.02923	1.02923	1912.75279	38786.703	38.8298	0.0
1375.0	0.0	1.0	7.84045	8.13093	-0.2888	35.81771	31.17026	1.29546	0.77193	0.0	125.73199	0.0	0.5	7.9274	7.9274	1.01473	1.01473	1915.8349	38592.952	38.7502	0.0
1370.0	0.0	1.0	7.84496	8.12626	-0.34607	35.78785	31.08322	1.29514	0.77212	0.0	125.8707	0.0	0.5	8.01684	8.01684	1.00037	1.00037	1918.92567	38399.598	38.6708	0.0
1366.74	0.0	1.0	7.84789	8.12323	-0.38329	35.76854	31.02653	1.29494	0.77224	0.0	125.96104	0.0	0.5	8.07592	8.07592	0.99108	0.99108	1920.94347	38273.876	38.60565	0.0
1365.0	0.00131	0.99869	7.84979	8.12122	-0.40793	35.74469	30.99862	1.29472	0.77237	5.31807E-11	126.05829	1.77281E-11	0.49989	8.09651	8.09651	0.98751	0.98751	1921.59607	38178.07	54.95259	28.566
1360.0	0.00501	0.99499	7.85532	8.11555	-0.4774	35.67937	30.919	1.2941	0.77274	1.15438E-8	126.33893	3.84894E-9	0.4996	8.15673	8.15673	0.97723	0.97723	1923.46908	37904.557	54.7026	109.509
1355.0	0.00863	0.99137	7.86074	8.10996	-0.54598	35.61612	30.83937	1.29347	0.77312	1.02657E-7	126.61515	3.42347E-8	0.49931	8.21832	8.21832	0.96694	0.96694	1925.34595	37632.981	54.3152	188.903
1350.0	0.01218	0.98782	7.86617	8.10436	-0.61469	35.55201	30.75982	1.29283	0.7735	4.10036E-7	126.88852	1.36768E-7	0.49903	8.28148	8.28148	0.95662	0.95662	1927.22778	37363.313	53.9336	266.771
1345.0	0.01566	0.98434	7.8716	8.09873	-0.68371	35.48654	30.68028	1.29219	0.77388	1.12726E-6	127.15898	3.76069E-7	0.49874	8.34618	8.34618	0.94628	0.94628	1929.11481	37095.524	53.5578	343.145
1340.0	0.01907	0.98093	7.87698	8.09319	-0.75164	35.42372	30.6009	1.29154	0.77427	2.49379E-6	127.42708	8.32113E-7	0.49847	8.41238	8.41238	0.93593	0.93593	1931.00564	36829.585	53.1878	418.049
1335.0	0.02241	0.97759	7.88232	8.08774	-0.8185	35.36356	30.5216	1.29088	0.77467	4.78564E-6	127.69316	1.59713E-6	0.49819	8.48015	8.48015	0.92557	0.92557	1932.90035	36565.467	52.8236	491.509
1334.28	0.02288	0.97712	7.88312	8.08691	-0.82868	35.35323	30.51015	1.29078	0.77472	5.20828E-6	127.73128	1.73823E-6	0.49815	8.49005	8.49005	0.92408	0.92408	1933.17423	36527.608	 	501.952
1330.0	0.0835412	0.91646	7.90869	8.06076	-1.14926	34.52883	30.66929	1.28067	0.78084	0.00154758	129.61565	5.19014E-4	0.49088	8.57941	9.75967	0.91202	0.80173	1936.4066	35458.988	221.2958	1407.7
1325.0	0.14831	0.85169	7.93644	8.03261	-1.49457	33.64486	30.84121	1.26956	0.78768	0.0287142	131.86664	0.00968097	0.48302	8.68729	14.6626	0.89788	0.53198	1940.16578	34306.744	230.4488	2370.031
1320.0	0.20698	0.79302	7.96187	8.00691	-1.80968	32.8433	30.992	1.25943	0.79401	0.13551	133.93104	0.0459102	0.47582	8.79877	30.01992	0.88373	0.25902	1943.9128	33250.547	211.2394	3236.689
1315.0	0.26027	0.73973	7.98534	7.98341	-2.0979	32.11535	31.12463	1.25012	0.79992	0.38047	135.83266	0.12948	0.46921	8.91394	63.88709	0.86958	0.12133	1947.64219	32278.986	194.3122	4019.076
1310.0	0.30882	0.69118	8.00701	7.96182	-2.36263	31.45169	31.24111	1.24154	0.80545	0.81229	137.5896	0.27759	0.46312	9.03278	124.26081	0.85544	0.0621834	1951.35341	31382.191	179.359	4727.062
1305.0	0.35318	0.64682	8.02711	7.9419	-2.60692	30.84398	31.34296	1.2336	0.81064	1.46521	139.21872	0.50264	0.4575	9.1554	218.54255	0.84131	0.0352451	1955.04502	30551.606	166.117	5369.201
1300.0	0.39381	0.60619	8.04577	7.92343	-2.83341	30.28495	31.43159	1.22622	0.81551	2.35856	140.7321	0.81201	0.4523	9.2817	353.36214	0.82724	0.0217289	1958.71567	29779.798	154.3616	5952.923
1295.0	0.43113	0.56887	8.06318	7.90637	-3.0426	29.77365	31.50827	1.21935	0.82011	3.49883	142.14476	1.20859	0.44748	9.41191	534.70999	0.8132	0.0143138	1962.36064	29060.296	143.9004	6484.7
1295.0	0.43113	0.56887	8.06318	7.90637	-3.0426	29.77365	31.50827	1.21935	0.82011	3.49883	142.14475	1.20859	0.44748	9.41191	534.70917	0.8132	0.0143139	1962.36054	29060.335	 	6484.666
1290.0	0.46547	0.53453	8.07938	7.89045	-3.23792	29.30031	31.57385	1.21294	0.82444	4.88295	143.46378	1.69194	0.443	9.54571	767.95048	0.79924	0.00993469	1965.97645	28387.475	134.5642	6970.15
1285.0	0.49717	0.50283	8.09456	7.87566	-3.41929	28.86557	31.62941	1.20694	0.82854	6.49958	144.70135	2.25862	0.43884	9.68329	1058.03113	0.78537	0.00718783	1969.55601	27756.35	126.225	7414.256
1280.0	0.52647	0.47353	8.10879	7.86181	-3.58913	28.46254	31.67025	1.20151	0.83228	8.33317	145.86327	2.90364	0.43495	9.82462	1409.81359	0.77159	0.00537698	1973.09946	27162.612	118.7476	7821.328
1275.0	0.55363	0.44637	8.12216	7.84878	-3.74883	28.08733	31.70783	1.19622	0.83596	10.36499	146.95735	3.62079	0.43131	9.96984	1827.96966	0.7579	0.00413362	1976.6054	26602.455	112.0314	8195.167
1270.0	0.57885	0.42115	8.13473	7.83659	-3.89834	27.74043	31.73758	1.19124	0.83946	12.57354	147.99049	4.40277	0.42791	10.1188	2317.15917	0.74433	0.00325042	1980.06882	26072.534	105.9842	8539.118
1265.0	0.6023	0.3977	8.14662	7.82509	-4.03935	27.41698	31.76013	1.18654	0.84279	14.93969	148.96854	5.24302	0.42472	10.2719	2882.63307	0.73086	0.00260433	1983.48919	25569.894	100.528	8856.131
1261.13	0.61929	0.38071	8.15535	7.81659	-4.14358	27.18014	31.77246	1.18309	0.84524	16.85718	149.68727	5.92566	0.42239	10.39321	3374.59732	0.72051	0.00221906	1986.11396	25198.655	 	9083.764
1260.71	0.62145	0.37855	8.1567	7.81532	-4.15924	27.14077	31.7549	1.18343	0.845	17.10643	149.76634	6.01468	0.42206	10.41009	3440.6146	0.71915	0.00217589	1986.46945	25146.89	 	9120.187
1260.0	0.62514	0.37486	8.15918	7.81292	-4.18861	27.06535	31.71381	1.18441	0.8443	17.52914	149.89627	6.16587	0.42146	10.43414	3555.53002	0.71716	0.00210459	1986.77124	25051.845	103.6098	9188.896
1255.0	0.65004	0.34996	8.17587	7.79682	-4.38605	26.56093	31.43602	1.19098	0.83964	20.62033	150.77551	7.27359	0.41748	10.60524	4431.11345	0.70329	0.00168322	1988.8645	24406.56	129.057	9649.238
1250.0	0.67252	0.32748	8.19111	7.78212	-4.56637	26.10587	31.18263	1.19673	0.83561	23.82222	151.58902	8.42455	0.41386	10.78051	5412.91464	0.68959	0.0013734	1990.9271	23810.083	119.2954	10061.11
1245.0	0.69291	0.30709	8.20508	7.76872	-4.7307	25.69723	30.95036	1.20175	0.83212	27.09857	152.34808	9.60564	0.41056	10.96013	6504.34541	0.67606	0.00113919	1992.95211	23255.836	110.8494	10431.088
1240.0	0.71143	0.28857	8.21795	7.75635	-4.88231	25.32534	30.73641	1.20613	0.8291	30.42209	153.06002	10.80692	0.40753	11.14439	7710.84528	0.66269	9.57782E-4	1994.9425	22738.326	103.502	10764.664
1235.0	0.72836	0.27164	8.22985	7.7449	-5.02282	24.98546	30.53837	1.20994	0.82649	33.76617	153.73027	12.01862	0.40474	11.33328	9038.41022	0.64949	8.14403E-4	1996.89675	22252.932	97.0788	11066.455
1231.94	0.73794	0.26206	8.23666	7.73835	-5.10305	24.79435	30.42487	1.21199	0.82509	35.80207	154.12158	12.75768	0.40316	11.45112	9911.14138	0.64151	7.41183E-4	1998.07452	21971.103	 	11236.078
1230.0	0.74587	0.25413	8.24042	7.73233	-5.17687	24.59977	30.31518	1.21481	0.82317	37.24309	154.32005	13.28498	0.4017	11.55719	10615.77185	0.6348	6.91095E-4	1999.43334	21687.28646	113.12911	11365.69
1225.0	0.7651	0.2349	8.26062	7.71835	-5.34842	24.15505	30.01365	1.22293	0.81771	41.16559	155.01149	14.72347	0.39796	11.83556	12770.08334	0.61781	5.72596E-4	2002.91288	21026.92982	132.07133	11678.181
1220.0	0.78232	0.21768	8.27923	7.70533	-5.50803	23.74484	29.72335	1.23076	0.81251	44.99018	155.63547	16.13083	0.39454	12.12119	15168.93989	0.60124	4.80435E-4	2006.36003	20407.36697	123.91257	11956.004
1215.0	0.7978	0.2022	8.29636	7.69316	-5.65724	23.36463	29.44508	1.23823	0.80761	48.69935	156.20091	17.50004	0.39141	12.41434	17830.7101	0.58507	4.07347E-4	2009.77608	19823.5317	116.76705	12203.962
1210.0	0.81177	0.18823	8.31213	7.68178	-5.79683	23.01228	29.17794	1.24536	0.80298	52.28206	156.71521	18.82641	0.38853	12.71496	20775.0085	0.56932	3.48442E-4	2013.15835	19271.15517	110.47531	12426.079
1205.0	0.82439	0.17561	8.32664	7.67106	-5.92834	22.68317	28.91723	1.25236	0.79849	55.73633	157.18507	20.10867	0.38588	13.02336	24027.18275	0.55396	3.00263E-4	2016.51031	18746.61306	104.90842	12625.745
1200.0	0.83585	0.16415	8.34001	7.66092	-6.05258	22.37497	28.66885	1.25893	0.79432	59.05784	157.61566	21.34473	0.38343	13.33971	27612.55839	0.539	2.60392E-4	2019.83277	18246.81383	99.95985	12805.827
1195.0	0.84627	0.15373	8.35231	7.65134	-6.17016	22.08588	28.42969	1.26522	0.79038	62.2501	158.01155	22.53541	0.38116	13.66414	31561.32861	0.52441	2.2704E-4	2023.12483	17769.10907	95.54095	12968.768
1190.0	0.85578	0.14422	8.36366	7.64223	-6.2818	21.81384	28.19927	1.27121	0.78665	65.31772	158.37761	23.682	0.37906	13.99706	35907.6621	0.5102	1.98879E-4	2026.38744	17311.21574	91.57867	13116.643
1185.0	0.86447	0.13553	8.37409	7.63355	-6.38827	21.55652	27.97725	1.27692	0.78314	68.26747	158.71666	24.78666	0.3771	14.33844	40689.41393	0.49635	1.74907E-4	2029.62328	16871.15762	88.01162	13251.239
1180.0	0.87241	0.12759	8.38371	7.62529	-6.48958	21.3141	27.76377	1.28233	0.77983	71.08911	159.0313	25.84527	0.37528	14.68719	45938.38369	0.4829	1.54391E-4	2032.83237	16447.91272	84.64898	13373.399
1175.0	0.87977	0.12023	8.39262	7.61737	-6.58669	21.0835	27.55782	1.28746	0.77672	73.83095	159.32827	26.87546	0.37358	15.04405	51725.51053	0.46982	1.36646E-4	2036.01346	16037.98168	81.98621	13486.446
1170.0	0.88655	0.11345	8.40085	7.60975	-6.68011	20.86327	27.35883	1.29235	0.77378	76.48039	159.60633	27.87237	0.37197	15.41051	58088.03947	0.45707	1.21258E-4	2039.17174	15641.43632	79.30907	13590.146
1165.0	0.89281	0.10719	8.40844	7.60246	-6.7695	20.6546	27.16655	1.29699	0.77102	79.04154	159.86814	28.83725	0.37048	15.78631	65082.60231	0.44464	1.07851E-4	2042.30093	15257.09816	76.86763	13685.519
1160.0	0.89861	0.10139	8.41546	7.59544	-6.85566	20.455	26.98051	1.30139	0.76841	81.52941	160.11535	29.77556	0.36907	16.17215	72774.46185	0.43252	9.61168E-5	2045.40645	14883.92593	74.63445	13773.456
1155.0	0.90399	0.0960149	8.42195	7.58868	-6.93858	20.26464	26.80047	1.30556	0.76595	83.95156	160.35016	30.68991	0.36774	16.56792	81235.33627	0.42072	8.58056E-5	2048.48528	14520.99619	72.58595	13854.737
1150.0	0.90897	0.0910296	8.42797	7.58213	-7.01885	20.08155	26.62609	1.30951	0.76364	86.31383	160.57321	31.58241	0.36649	16.97471	90539.91416	0.4092	7.6718E-5	2051.54417	14167.48496	70.70225	13930.051
1145.0	0.91363	0.0863718	8.43354	7.57582	-7.09627	19.90661	26.45703	1.31325	0.76147	88.62559	160.78644	32.4564	0.3653	17.39187	100777.6678	0.39798	6.86823E-5	2054.5767	13822.65525	68.96594	14000.004
1140.0	0.91796	0.082037	8.43871	7.56971	-7.17117	19.73873	26.29296	1.31679	0.75943	90.89362	160.99103	33.31434	0.36418	17.82042	112044.2942	0.38704	6.15581E-5	2057.5856	13485.84187	67.36268	14065.134
1135.0	0.92202	0.0779777	8.44352	7.56377	-7.24398	19.57655	26.13377	1.32012	0.75751	93.12554	161.18776	34.15902	0.36312	18.26084	124447.9391	0.37637	5.52266E-5	2060.57547	13156.44706	65.87896	14125.923
1130.0	0.92583	0.0741732	8.44799	7.55802	-7.31451	19.42082	25.97903	1.32327	0.75571	94.90376	161.29772	34.83711	0.36211	18.71259	138107.2531	0.36598	4.95877E-5	2063.54089	12833.92512	64.50439	14182.799
1125.0	0.9294	0.0705992	8.45215	7.55242	-7.38324	19.2699	25.82859	1.32623	0.75402	97.25004	161.48166	35.72364	0.36114	19.1768	153155.1628	0.35585	4.45563E-5	2066.48864	12517.7793	63.22916	14236.152
1120.0	0.93277	0.0672326	8.45604	7.54697	-7.45005	19.12435	25.67893	1.32919	0.75234	99.54154	161.66067	36.59009	0.36023	19.65357	169740.027	0.34597	4.0059E-5	2069.41426	12207.55341	62.04518	14286.332
1115.0	0.93598	0.0640232	8.45973	7.54164	-7.51543	18.98245	25.53005	1.33214	0.75067	101.82925	161.84154	37.45548	0.35934	20.1456	188052.1104	0.33631	3.60284E-5	2072.31188	11896.98569	62.11354	14339.501
1110.0	0.93918	0.0608168	8.46327	7.53635	-7.58026	18.84123	25.38283	1.33504	0.74904	104.18844	162.02731	38.34806	0.35846	20.65294	208390.7198	0.32687	3.2395E-5	2075.18667	11586.1505	62.16704	14395.489
1105.0	0.94454	0.055461	8.46742	7.53045	-7.65258	18.67214	25.2539	1.33701	0.74794	107.22674	162.29635	39.49833	0.35736	21.12402	232737.5426	0.31842	2.89013E-5	2078.00924	11242.0282	68.82446	14487.221
1100.0	0.95071	0.0492875	8.47162	7.52428	-7.72825	18.48953	25.13168	1.33864	0.74703	111.29522	162.59885	41.03327	0.35616	21.61561	260791.5997	0.31005	2.56987E-5	2080.7727	10885.04995	71.39565	14594.181
1095.0	0.95705	0.0429466	8.47558	7.51805	-7.80472	18.30235	25.01303	1.34009	0.74622	116.29125	162.91008	42.91393	0.35494	22.14719	292506.9585	0.30151	2.28289E-5	2083.47708	10526.32645	71.7447	14705.172
1090.0	0.96333	0.03667	8.47927	7.51186	-7.88064	18.1154	24.89173	1.3417	0.74532	121.91686	163.21929	45.03006	0.35373	22.70269	328071.4873	0.29306	2.02797E-5	2086.12666	10170.95689	71.07391	14815.013
1085.0	0.972	0.0279976	8.48389	7.50488	-7.96619	17.89189	24.77898	1.34286	0.74468	129.81991	163.60001	48.00237	0.35222	23.09167	370926.8207	0.28706	1.78709E-5	2088.70457	9782.98479	77.59442	14959.58
1080.0	0.97898	0.0210189	8.48774	7.49853	-8.04408	17.69407	24.66745	1.34396	0.74407	136.04214	163.92325	50.35046	0.35095	23.48975	416947.9518	0.28116	1.58398E-5	2091.24573	9425.88578	71.4198	15075.332
1075.0	0.98454	0.0154642	8.49098	7.49271	-8.11542	17.51827	24.55664	1.34504	0.74347	140.65338	164.19821	52.09858	0.34988	23.89593	466456.2233	0.27536	1.41063E-5	2093.76544	9095.02249	66.17266	15166.828
1070.0	0.98898	0.0110224	8.49374	7.48732	-8.18152	17.35996	24.44714	1.34605	0.74291	144.10243	164.43255	53.41249	0.34896	24.30874	519988.4834	0.26968	1.26072E-5	2096.26966	8784.9485	62.0148	15239.442
1065.0	0.99257	0.00743007	8.49613	7.48227	-8.24351	17.21523	24.33885	1.34701	0.74239	146.78314	164.64166	54.43836	0.34816	24.72915	578171.0529	0.26411	1.12963E-5	2098.76475	8491.08211	58.77328	15297.688
1060.0	0.99551	0.00448819	8.49822	7.47748	-8.30223	17.08122	24.23236	1.34787	0.74191	148.95502	164.82978	55.27277	0.34745	25.1578	641687.6209	0.25864	1.01401E-5	2101.249	8209.92633	56.23116	15345.012
1055.0	0.99795	0.00204809	8.50008	7.4729	-8.35835	16.95558	24.12742	1.34866	0.74148	150.78152	165.00208	55.97679	0.34682	25.5959	711271.8697	0.25326	9.11377E-6	2103.72534	7938.87966	54.20933	15383.949
1050.0	1.0	0.0	8.50176	7.4685	-8.41234	16.83668	24.02405	1.34936	0.74109	152.36436	165.16236	56.58852	0.34625	 	787712.6891	 	8.19838E-6	 	7676.0191	52.57211	15416.361
1045.0	1.0	0.0	8.50534	7.46535	-8.45089	16.77454	23.91812	1.35022	0.74062	152.76419	165.25855	56.75025	0.34593	 	873288.3398	 	7.36705E-6	 	8547.45426	-174.28703	 
1040.0	1.0	0.0	8.50889	7.46224	-8.4891	16.71307	23.81406	1.35097	0.74021	153.1602	165.35614	56.91039	0.34563	 	969072.5237	 	6.6137E-6	 	8386.04039	32.28277	 
1035.0	1.0	0.0	8.51241	7.45915	-8.52698	16.65224	23.71178	1.35164	0.73984	153.55257	165.45511	57.06903	0.34532	 	1076387.12	 	5.93165E-6	 	8225.66058	32.07596	 
1030.0	1.0	0.0	8.51591	7.45609	-8.56454	16.59201	23.6112	1.3522	0.73953	153.9415	165.55545	57.22625	0.34503	 	1196738.264	 	5.31474E-6	 	8066.28009	31.8761	 
1025.0	1.0	0.0	8.51938	7.45305	-8.60179	16.53237	23.51225	1.35269	0.73927	154.32716	165.65712	57.38211	0.34473	 	1331843.824	 	4.75728E-6	 	7907.86588	31.68284	 
1020.0	1.0	0.0	8.52283	7.45004	-8.63875	16.47328	23.41487	1.35308	0.73905	154.70974	165.7601	57.53669	0.34444	 	1483665.171	 	4.25402E-6	 	7750.38643	31.49589	 
1015.0	1.0	0.0	8.52625	7.44705	-8.67541	16.41473	23.31898	1.35339	0.73889	155.08938	165.86438	57.69005	0.34416	 	1654444.135	 	3.80015E-6	 	7593.81059	31.31517	 
1010.0	1.0	0.0	8.52965	7.44408	-8.71179	16.35667	23.22453	1.35362	0.73876	155.46624	165.96993	57.84226	0.34388	 	1846745.846	 	3.39123E-6	 	7438.10914	31.14029	 
1005.0	1.0	0.0	8.53302	7.44114	-8.74789	16.2991	23.13147	1.35377	0.73868	155.84046	166.07674	57.99337	0.34361	 	2063508.475	 	3.02317E-6	 	7283.25371	30.97109	 
1000.0	1.0	0.0	8.53637	7.43821	-8.78373	16.24198	23.03972	1.35384	0.73864	156.2122	166.18479	58.14343	0.34333	 	2308101.272	 	2.69223E-6	 	7129.21747	30.80725	 
995.0	1.0	0.0	8.5397	7.43531	-8.81931	16.1853	22.94926	1.35384	0.73864	156.58156	166.29405	58.29251	0.34307	 	2584391.994	 	2.39496E-6	 	6975.97463	30.64857	 
990.0	1.0	0.0	8.54301	7.43243	-8.85463	16.12903	22.86001	1.35377	0.73868	156.94869	166.40452	58.44065	0.3428	 	2896825.717	 	2.12823E-6	 	6823.50042	30.49484	 
985.0	1.0	0.0	8.5463	7.42957	-8.88971	16.07315	22.77195	1.35362	0.73876	157.3137	166.51617	58.58791	0.34254	 	3250516.697	 	1.88915E-6	 	6671.77115	30.34585	 
980.0	1.0	0.0	8.54957	7.42673	-8.92456	16.01765	22.68502	1.35341	0.73887	157.67671	166.629	58.73432	0.34229	 	3651355.911	 	1.67508E-6	 	6520.76412	30.20141	 
975.0	1.0	0.0	8.55282	7.42391	-8.95916	15.96251	22.59919	1.35313	0.73903	158.03781	166.74298	58.87993	0.34203	 	4106136.769	 	1.48361E-6	 	6370.45755	30.06131	 
970.0	1.0	0.0	8.55605	7.4211	-8.99354	15.9077	22.51442	1.35279	0.73922	158.39711	166.8581	59.02479	0.34178	 	4622702.558	 	1.31255E-6	 	6220.83062	29.92539	 
965.0	1.0	0.0	8.55927	7.41832	-9.0277	15.85321	22.43066	1.35238	0.73944	158.75472	166.97435	59.16893	0.34154	 	5210119.261	 	1.15988E-6	 	6071.86337	29.79345	 
960.0	1.0	0.0	8.56246	7.41555	-9.06164	15.79903	22.34788	1.3519	0.7397	159.11072	167.09171	59.31239	0.34129	 	5878878.732	 	1.02378E-6	 	5923.53669	29.66534	 
955.0	1.0	0.0	8.56564	7.4128	-9.09538	15.74513	22.26606	1.35137	0.73999	159.4652	167.21018	59.45521	0.34105	 	6641137.37	 	9.02601E-7	 	5775.83231	29.54088	 
950.0	1.0	0.0	8.5688	7.41007	-9.1289	15.69151	22.18516	1.35078	0.74032	159.81824	167.32974	59.59742	0.34082	 	7510997.4	 	7.9482E-7	 	5628.73269	29.41992	 
945.0	1.0	0.0	8.57194	7.40735	-9.16222	15.63814	22.10515	1.35012	0.74067	160.16993	167.45038	59.73906	0.34058	 	8504838.225	 	6.99071E-7	 	5482.22107	29.30232	 
940.78	1.0	0.0	8.57458	7.40507	-9.19018	15.59332	22.03832	1.34953	0.741	160.46564	167.55298	59.85812	0.34038	 	9453680.486	 	6.26729E-7	 	5359.05776	 	 
940.0	1.0	0.0	8.57511	7.40461	-9.1958	15.58312	22.02544	1.34945	0.74104	160.51653	167.56415	59.87889	0.34034	 	9644590.976	 	6.13928E-7	 	5333.02433	29.83935	 
935.0	1.0	0.0	8.57849	7.4017	-9.23154	15.5184	21.9438	1.34889	0.74135	160.84113	167.63692	60.01133	0.34009	 	1.096754412E7	 	5.37648E-7	 	5167.08104	33.18866	 
930.0	1.0	0.0	8.58183	7.39881	-9.2669	15.45459	21.86344	1.34824	0.74171	161.16426	167.71198	60.14309	0.33984	 	1.248628701E7	 	4.70298E-7	 	5002.1383	32.98855	 
925.0	1.0	0.0	8.58514	7.39596	-9.30188	15.39165	21.7843	1.34752	0.74211	161.48604	167.78931	60.27423	0.33959	 	1.423181057E7	 	4.10902E-7	 	4838.16194	32.79527	 
920.0	1.0	0.0	8.58842	7.39314	-9.3365	15.32955	21.70633	1.34671	0.74255	161.80657	167.86886	60.40479	0.33935	 	1.624031887E7	 	3.58581E-7	 	4675.11947	32.60849	 
915.0	1.0	0.0	8.59167	7.39034	-9.37077	15.26829	21.62951	1.34583	0.74303	162.12596	167.9506	60.53481	0.33911	 	1.855415664E7	 	3.12548E-7	 	4512.9799	32.42791	 
910.0	1.0	0.0	8.59488	7.38758	-9.40469	15.20782	21.55378	1.34488	0.74356	162.44429	168.03449	60.66433	0.33888	 	2.122291021E7	 	2.72096E-7	 	4351.71364	32.25325	 
905.0	1.0	0.0	8.59807	7.38484	-9.43828	15.14814	21.4791	1.34385	0.74413	162.76165	168.1205	60.7934	0.33865	 	2.4304717E7	 	2.3659E-7	 	4191.29242	32.08424	 
900.0	1.0	0.0	8.60123	7.38213	-9.47154	15.08921	21.40545	1.34275	0.74474	163.07813	168.20857	60.92203	0.33842	 	2.786782404E7	 	2.05465E-7	 	4031.6892	31.92064	 
895.0	1.0	0.0	8.60436	7.37944	-9.50447	15.03103	21.33279	1.34158	0.74539	163.39381	168.29869	61.05027	0.33819	 	3.19924448E7	 	1.78212E-7	 	3872.87807	31.76223	 
890.0	1.0	0.0	8.60746	7.37678	-9.53709	14.97357	21.26094	1.34035	0.74607	163.70875	168.3908	61.17815	0.33797	 	3.677297696E7	 	1.54381E-7	 	3714.8342	31.60877	 
885.0	1.0	0.0	8.61054	7.37415	-9.5694	14.91681	21.19011	1.33905	0.7468	164.02302	168.48487	61.30569	0.33775	 	4.232065073E7	 	1.33567E-7	 	3557.53381	31.46008	 
880.0	1.0	0.0	8.61359	7.37154	-9.6014	14.86075	21.12027	1.33768	0.74756	164.33669	168.58086	61.43293	0.33753	 	4.876669719E7	 	1.15412E-7	 	3400.95404	31.31595	 
875.0	1.0	0.0	8.61661	7.36895	-9.63311	14.80536	21.0512	1.33625	0.74836	164.6498	168.67874	61.55988	0.33731	 	5.626614794E7	 	9.95951E-8	 	3245.07298	31.17621	 
870.0	1.0	0.0	8.61961	7.36639	-9.66453	14.75063	20.98297	1.33476	0.7492	164.96243	168.77846	61.68657	0.3371	 	6.500238832E7	 	8.58342E-8	 	3089.86956	31.04068	 
865.0	1.0	0.0	8.62258	7.36385	-9.69567	14.69654	20.91556	1.3332	0.75007	165.27461	168.87999	61.81302	0.33689	 	7.519263053E7	 	7.38773E-8	 	2935.32361	30.90919	 
860.0	1.0	0.0	8.62553	7.36133	-9.72653	14.64309	20.84893	1.33159	0.75098	165.58622	168.9831	61.93919	0.33668	 	8.709449819E7	 	6.35014E-8	 	2781.4157	30.78158	 
855.0	1.0	0.0	8.62845	7.35884	-9.75711	14.59025	20.78306	1.32991	0.75193	165.89763	169.08811	62.06522	0.33648	 	1.010139523E8	 	5.45095E-8	 	2628.12724	30.65769	 
850.0	1.0	0.0	8.63135	7.35637	-9.78742	14.53802	20.71792	1.32818	0.75291	166.20872	169.19479	62.19107	0.33627	 	1.173148616E8	 	4.67274E-8	 	2475.44038	30.53737	 
845.0	1.0	0.0	8.63362	7.35444	-9.81112	14.51605	20.66169	1.32587	0.75422	166.53931	169.38641	62.3213	0.33613	 	1.329643439E8	 	4.10442E-8	 	2361.63336	22.7614	 
840.0	1.0	0.0	8.63588	7.35251	-9.83476	14.49407	20.60544	1.32354	0.75555	166.8694	169.57726	62.45137	0.33599	 	1.508710455E8	 	3.60109E-8	 	2245.63974	23.19872	 
835.0	1.0	0.0	8.63814	7.35058	-9.85834	14.47208	20.54917	1.32121	0.75688	167.19897	169.76734	62.58127	0.33585	 	1.713845866E8	 	3.15583E-8	 	2129.78292	23.17136	 
830.0	1.0	0.0	8.64039	7.34867	-9.88187	14.45009	20.49288	1.31886	0.75823	167.52805	169.95667	62.711	0.33571	 	1.949124189E8	 	2.76237E-8	 	2014.06234	23.14412	 
825.0	1.0	0.0	8.64265	7.34675	-9.90534	14.42809	20.43658	1.3165	0.75959	167.85661	170.14523	62.84057	0.33558	 	2.21929996E8	 	2.41508E-8	 	1898.47738	23.11699	 
820.0	1.0	0.0	8.64489	7.34484	-9.92876	14.40609	20.38025	1.31412	0.76096	168.18467	170.33304	62.96997	0.33544	 	2.529928367E8	 	2.10891E-8	 	1783.02743	23.08999	 
815.0	1.0	0.0	8.64713	7.34294	-9.95212	14.38409	20.32391	1.31174	0.76235	168.51222	170.52009	63.09921	0.3353	 	2.887508547E8	 	1.8393E-8	 	1667.71181	23.06312	 
810.0	1.0	0.0	8.64937	7.34104	-9.97542	14.36208	20.26756	1.30934	0.76374	168.83926	170.70639	63.22828	0.33516	 	3.299654034E8	 	1.60216E-8	 	1552.52985	23.03639	 
805.0	1.0	0.0	8.65161	7.33914	-9.99866	14.34007	20.21118	1.30693	0.76515	169.16579	170.89194	63.35718	0.33502	 	3.7752958E8	 	1.39385E-8	 	1437.48083	23.0098	 
800.0	1.0	0.0	8.65384	7.33725	-10.02185	14.31805	20.15478	1.30451	0.76657	169.49182	171.07674	63.48591	0.33488	 	4.324924445E8	 	1.21107E-8	 	1322.56402	22.98336	 
795.0	1.0	0.0	8.65606	7.33536	-10.04498	14.29603	20.09837	1.30208	0.768	169.81734	171.2608	63.61448	0.33474	 	4.960879516E8	 	1.0509E-8	 	1207.77862	22.95708	 
790.0	1.0	0.0	8.65828	7.33348	-10.06806	14.274	20.04194	1.29963	0.76945	170.14236	171.44411	63.74289	0.3346	 	5.697695631E8	 	9.10714E-9	 	1093.12382	22.93096	 
785.0	1.0	0.0	8.6605	7.33161	-10.09108	14.25197	19.98549	1.29717	0.77091	170.46687	171.62668	63.87112	0.33446	 	6.55251717E8	 	7.88181E-9	 	978.59879	22.90501	 
780.0	1.0	0.0	8.66271	7.32973	-10.11404	14.22993	19.92902	1.2947	0.77238	170.79087	171.80851	63.99919	0.33432	 	7.545595854E8	 	6.81214E-9	 	864.2026	22.87924	 
775.0	1.0	0.0	8.66492	7.32787	-10.13695	14.20789	19.87253	1.29222	0.77386	171.11437	171.9896	64.12709	0.33418	 	8.700888708E8	 	5.87958E-9	 	749.93433	22.85365	 
770.0	1.0	0.0	8.66712	7.326	-10.15979	14.18584	19.81602	1.28972	0.77536	171.43735	172.16996	64.25483	0.33404	 	1.004677775E9	 	5.06765E-9	 	635.793	22.82827	 
765.0	1.0	0.0	8.66932	7.32414	-10.18259	14.16379	19.75949	1.28721	0.77687	171.75984	172.34959	64.3824	0.3339	 	1.161693754E9	 	4.36169E-9	 	521.77757	22.80309	 
760.0	1.0	0.0	8.67152	7.32229	-10.20532	14.14174	19.70294	1.28469	0.7784	172.08181	172.52848	64.5098	0.33376	 	1.345138263E9	 	3.74872E-9	 	407.88696	22.77812	 
755.0	1.0	0.0	8.67371	7.32044	-10.228	14.11968	19.64637	1.28215	0.77994	172.40328	172.70665	64.63704	0.33363	 	1.55977343E9	 	3.21723E-9	 	294.12003	22.75339	 
750.0	1.0	0.0	8.6759	7.3186	-10.25062	14.09761	19.58978	1.2796	0.78149	172.72425	172.88408	64.76411	0.33349	 	1.81127548E9	 	2.75703E-9	 	180.47558	22.72889	 
745.0	1.0	0.0	8.67808	7.31676	-10.27319	14.07555	19.53317	1.27704	0.78306	173.0447	173.0608	64.89101	0.33335	 	2.106420896E9	 	2.35914E-9	 	66.95235	22.70465	 
740.0	1.0	0.0	8.68025	7.31492	-10.2957	14.05347	19.47654	1.27447	0.78464	173.36465	173.23679	65.01774	0.33321	 	2.453312648E9	 	2.01561E-9	 	-46.451	22.68067	 
735.0	1.0	0.0	8.68243	7.31309	-10.31815	14.03139	19.41989	1.27188	0.78624	173.6841	173.41206	65.14431	0.33307	 	2.861655608E9	 	1.71947E-9	 	-159.73586	22.65697	 
730.0	1.0	0.0	8.6846	7.31126	-10.34054	14.00931	19.36321	1.26927	0.78785	174.00304	173.58662	65.27071	0.33293	 	3.343092399E9	 	1.46455E-9	 	-272.90371	22.63357	 
725.0	1.0	0.0	8.68676	7.30944	-10.36288	13.98722	19.30652	1.26665	0.78948	174.32147	173.76045	65.39694	0.3328	 	3.911613674E9	 	1.24545E-9	 	-385.95611	22.61048	 
720.0	1.0	0.0	8.68892	7.30762	-10.38516	13.96513	19.2498	1.26402	0.79113	174.6394	173.93358	65.52301	0.33266	 	4.584060188E9	 	1.05743E-9	 	-498.89471	22.58772	 
715.0	1.0	0.0	8.69108	7.30581	-10.40739	13.94303	19.19306	1.26138	0.79278	174.95682	174.10599	65.64891	0.33252	 	5.380738329E9	 	8.9633E-10	 	-611.72124	22.56531	 
710.0	1.0	0.0	8.69323	7.304	-10.42955	13.92093	19.1363	1.25872	0.79446	175.27373	174.27769	65.77464	0.33238	 	6.326176087E9	 	7.58517E-10	 	-724.43755	22.54326	 
705.0	1.0	0.0	8.69537	7.3022	-10.45166	13.89883	19.07951	1.25604	0.79615	175.59014	174.44868	65.9002	0.33224	 	7.450053262E9	 	6.40815E-10	 	-837.04557	22.5216	 
700.0	1.0	0.0	8.69751	7.3004	-10.47372	13.87672	19.02271	1.25335	0.79786	175.90605	174.61897	66.0256	0.3321	 	8.788348179E9	 	5.40455E-10	 	-949.54736	22.50036	 
695.0	1.0	0.0	8.69965	7.29861	-10.49571	13.8546	18.96588	1.25065	0.79958	176.22144	174.78855	66.15083	0.33197	 	1.03848E10	 	4.55023E-10	 	-1061.94511	22.47955	 
690.0	1.0	0.0	8.70179	7.29682	-10.51765	13.83248	18.90902	1.24793	0.80133	176.53634	174.95743	66.27589	0.33183	 	1.2292399999999998E10	 	3.82422E-10	 	-1174.2411	22.4592	 
685.0	1.0	0.0	8.70391	7.29504	-10.53953	13.81036	18.85215	1.2452	0.80308	176.85072	175.12561	66.40078	0.33169	 	1.4576199999999998E10	 	3.20831E-10	 	-1286.43781	22.43934	 
680.0	1.0	0.0	8.70604	7.29326	-10.56136	13.78823	18.79525	1.24245	0.80486	177.1646	175.2931	66.52551	0.33155	 	1.73151E10	 	2.68672E-10	 	-1398.5378	22.42	 
675.0	1.0	0.0	8.70816	7.29148	-10.58313	13.76609	18.73832	1.23969	0.80665	177.47798	175.45988	66.65007	0.33142	 	2.06062E10	 	2.24578E-10	 	-1510.54384	22.40121	 
670.0	1.0	0.0	8.71027	7.28971	-10.60484	13.74396	18.68137	1.23691	0.80847	177.79085	175.62597	66.77446	0.33128	 	2.4567999999999996E10	 	1.87369E-10	 	-1622.45885	22.383	 
665.0	1.0	0.0	8.71238	7.28795	-10.62649	13.72181	18.6244	1.23412	0.8103	178.10321	175.79138	66.89868	0.33114	 	2.9346499999999996E10	 	1.56028E-10	 	-1734.28593	22.36541	 
660.0	1.0	0.0	8.71449	7.28618	-10.64809	13.69966	18.5674	1.23131	0.81214	178.41507	175.95609	67.02273	0.331	 	3.51212E10	 	1.29679E-10	 	-1846.01948	22.34671	 
655.0	1.0	0.0	8.71659	7.28443	-10.66963	13.67751	18.51038	1.22848	0.81401	178.72642	176.12011	67.14662	0.33087	 	4.21138E10	 	1.07567E-10	 	-1957.60993	22.31809	 
650.0	1.0	0.0	8.71869	7.28268	-10.69111	13.65536	18.45333	1.22564	0.8159	179.03727	176.28344	67.27034	0.33073	 	5.059789999999999E10	 	8.90485E-11	 	-2068.99157	22.27633	 
645.0	1.0	0.0	8.72078	7.28093	-10.71254	13.63319	18.39625	1.22279	0.8178	179.34761	176.44609	67.39388	0.33059	 	6.091279999999999E10	 	7.35684E-11	 	-2180.16537	22.23476	 
640.0	1.0	0.0	8.72287	7.27919	-10.73391	13.61103	18.33915	1.21991	0.81973	179.65745	176.60806	67.51727	0.33046	 	7.34798E10	 	6.06542E-11	 	-2291.1323	22.19339	 
635.0	1.0	0.0	8.72495	7.27745	-10.75522	13.58886	18.28202	1.21703	0.82168	179.96678	176.76935	67.64048	0.33032	 	8.88226E10	 	4.99023E-11	 	-2401.89333	22.15221	 
630.0	1.0	0.0	8.72703	7.27572	-10.77648	13.56668	18.22486	1.21412	0.82364	180.27561	176.92996	67.76352	0.33018	 	1.07595E11	 	4.0969E-11	 	-2512.44943	22.11122	 
625.0	1.0	0.0	8.7291	7.27399	-10.79767	13.5445	18.16768	1.2112	0.82563	180.58393	177.08989	67.8864	0.33004	 	1.30613E11	 	3.35621E-11	 	-2622.80158	22.07043	 
620.0	1.0	0.0	8.73117	7.27226	-10.81881	13.52232	18.11047	1.20826	0.82764	180.89174	177.24915	68.00911	0.32991	 	1.589E11	 	2.74339E-11	 	-2732.95074	22.02983	 
615.0	1.0	0.0	8.73324	7.27054	-10.8399	13.50013	18.05323	1.20531	0.82966	181.19905	177.40773	68.13165	0.32977	 	1.9374E11	 	2.23745E-11	 	-2842.89789	21.98943	 
610.0	1.0	0.0	8.7353	7.26883	-10.86092	13.47793	17.99596	1.20234	0.83171	181.50586	177.56565	68.25402	0.32963	 	2.36751E11	 	1.82067E-11	 	-2952.64398	21.94922	 
605.0	1.0	0.0	8.73735	7.26712	-10.88189	13.45574	17.93866	1.19935	0.83379	181.81216	177.72289	68.37622	0.3295	 	2.8997E11	 	1.47809E-11	 	-3062.18998	21.9092	 
600.0	1.0	0.0	8.7394	7.26541	-10.9028	13.43353	17.88134	1.19634	0.83588	182.11795	177.87947	68.49825	0.32936	 	3.55979E11	 	1.19716E-11	 	-3171.53686	21.86938	 
595.0	1.0	0.0	8.74145	7.26371	-10.92365	13.41133	17.82398	1.19332	0.838	182.42324	178.03538	68.62012	0.32923	 	4.38048E11	 	9.67297E-12	 	-3280.68557	21.82974	 
590.0	1.0	0.0	8.74349	7.26202	-10.94445	13.38911	17.76659	1.19028	0.84014	182.72803	178.19062	68.74181	0.32909	 	5.40334E11	 	7.79669E-12	 	-3389.63708	21.7903	 
585.0	1.0	0.0	8.74553	7.26033	-10.96519	13.3669	17.70918	1.18722	0.8423	183.03231	178.34521	68.86334	0.32895	 	6.68137E11	 	6.2688E-12	 	-3498.39235	21.75105	 
580.0	1.0	0.0	8.74756	7.25864	-10.98587	13.34467	17.65173	1.18414	0.84449	183.33608	178.49913	68.9847	0.32882	 	8.28227E11	 	5.02763E-12	 	-3606.95233	21.712	 
575.0	1.0	0.0	8.74958	7.25696	-11.00649	13.32245	17.59425	1.18105	0.8467	183.63935	178.6524	69.10589	0.32868	 	1.02928E12	 	4.02186E-12	 	-3715.31798	21.67313	 
570.0	1.0	0.0	8.75161	7.25528	-11.02706	13.30022	17.53674	1.17794	0.84894	183.94212	178.80501	69.22691	0.32854	 	1.28244E12	 	3.2089E-12	 	-3823.49025	21.63445	 
565.0	1.0	0.0	8.75362	7.25361	-11.04757	13.27798	17.4792	1.17481	0.8512	184.24438	178.95696	69.34776	0.32841	 	1.60206E12	 	2.55347E-12	 	-3931.47009	21.59597	 
560.0	1.0	0.0	8.75564	7.25194	-11.06802	13.25574	17.42162	1.17166	0.85349	184.54613	179.10826	69.46844	0.32827	 	2.00669E12	 	2.02642E-12	 	-4039.25846	21.55767	 
555.0	1.0	0.0	8.75765	7.25028	-11.08842	13.2335	17.36402	1.16849	0.85581	184.84738	179.25891	69.58895	0.32814	 	2.52037E12	 	1.60373E-12	 	-4146.85631	21.51957	 
550.0	1.0	0.0	8.75965	7.24862	-11.10875	13.21125	17.30637	1.1653	0.85815	185.14813	179.40891	69.70929	0.328	 	3.17431E12	 	1.26566E-12	 	-4254.26457	21.48165	 
545.0	1.0	0.0	8.76165	7.24697	-11.12903	13.18899	17.2487	1.1621	0.86051	185.44837	179.55826	69.82947	0.32787	 	4.00922E12	 	9.96001E-13	 	-4361.48419	21.44392	 
540.0	1.0	0.0	8.76364	7.24532	-11.14926	13.16674	17.19099	1.15887	0.86291	185.7481	179.70697	69.94947	0.32773	 	5.07829E12	 	7.8152E-13	 	-4468.51612	21.40639	 
535.0	1.0	0.0	8.76563	7.24367	-11.16942	13.14447	17.13324	1.15563	0.86533	186.04733	179.85503	70.06931	0.3276	 	6.45127E12	 	6.11411E-13	 	-4575.3613	21.36904	 
530.0	1.0	0.0	8.76762	7.24203	-11.18953	13.1222	17.07546	1.15237	0.86778	186.34606	180.00245	70.18897	0.32746	 	8.21991E12	 	4.76888E-13	 	-4682.02066	21.33187	 
525.0	1.0	0.0	8.7696	7.2404	-11.20958	13.09993	17.01764	1.14908	0.87026	186.64428	180.14922	70.30847	0.32732	 	1.05053E13	 	3.70821E-13	 	-4788.49514	21.2949	 
520.0	1.0	0.0	8.77157	7.23877	-11.22957	13.07766	16.95978	1.14578	0.87277	186.942	180.29536	70.42779	0.32719	 	1.34676E13	 	2.87443E-13	 	-4894.78569	21.25811	 
515.0	1.0	0.0	8.77354	7.23714	-11.2495	13.05537	16.90189	1.14246	0.87531	187.23921	180.44086	70.54695	0.32705	 	1.73198E13	 	2.22102E-13	 	-5000.89321	21.2215	 
510.0	1.0	0.0	8.77551	7.23552	-11.26938	13.03309	16.84396	1.13911	0.87788	187.53591	180.58573	70.66593	0.32692	 	2.23455E13	 	1.71057E-13	 	-5106.81865	21.18509	 
505.0	1.0	0.0	8.77747	7.23391	-11.2892	13.0108	16.78599	1.13575	0.88048	187.83212	180.72996	70.78475	0.32678	 	2.8924E13	 	1.31308E-13	 	-5212.56293	21.14886	 
500.0	1.0	0.0	8.77942	7.23229	-11.30896	12.9885	16.72798	1.13236	0.88311	188.12781	180.87356	70.90339	0.32665	 	3.75645E13	 	1.00455E-13	 	-5318.12699	21.11281	 
495.0	1.0	0.0	8.78137	7.23069	-11.32866	12.9662	16.66993	1.12896	0.88577	188.42301	181.01652	71.02187	0.32651	 	4.89524E13	 	7.65876E-14	 	-5423.51173	21.07695	 
490.0	1.0	0.0	8.78332	7.22909	-11.34831	12.9439	16.61184	1.12553	0.88847	188.71769	181.15886	71.14017	0.32638	 	6.40144E13	 	5.81861E-14	 	-5528.71808	21.04127	 
485.0	1.0	0.0	8.78526	7.22749	-11.3679	12.92159	16.55371	1.12209	0.8912	189.01188	181.30057	71.25831	0.32624	 	8.40074E13	 	4.40478E-14	 	-5633.74695	21.00577	 
480.0	1.0	0.0	8.7872	7.2259	-11.38743	12.89927	16.49554	1.11862	0.89396	189.30555	181.44166	71.37627	0.32611	 	1.10643E14	 	3.32234E-14	 	-5738.59927	20.97046	 
475.0	1.0	0.0	8.78913	7.22431	-11.4069	12.87695	16.43732	1.11513	0.89676	189.59873	181.58212	71.49407	0.32598	 	1.46262E14	 	2.49658E-14	 	-5843.27593	20.93533	 
470.0	1.0	0.0	8.79106	7.22272	-11.42631	12.85463	16.37906	1.11161	0.89959	189.8914	181.72195	71.61169	0.32584	 	1.94074E14	 	1.86894E-14	 	-5947.77786	20.90038	 
465.0	1.0	0.0	8.79298	7.22115	-11.44567	12.8323	16.32076	1.10808	0.90246	190.18356	181.86117	71.72915	0.32571	 	2.5850499999999997E14	 	1.39368E-14	 	-6052.10594	20.86562	 
460.0	1.0	0.0	8.79489	7.21957	-11.46497	12.80997	16.26241	1.10452	0.90537	190.47522	181.99977	71.84643	0.32557	 	3.45675E14	 	1.03517E-14	 	-6156.26108	20.83103	 
455.0	1.0	0.0	8.79681	7.218	-11.48421	12.78763	16.20401	1.10094	0.90831	190.76637	182.13775	71.96354	0.32544	 	4.64088E14	 	7.65785E-15	 	-6260.2442	20.79662	 
450.0	1.0	0.0	8.79871	7.21644	-11.50339	12.76529	16.14557	1.09734	0.91129	191.05702	182.27511	72.08048	0.3253	 	6.25608E14	 	5.64174E-15	 	-6364.05617	20.76239	 
445.0	1.0	0.0	8.80061	7.21488	-11.52252	12.74294	16.08708	1.09371	0.91432	191.34717	182.41186	72.19725	0.32517	 	8.46856E14	 	4.13897E-15	 	-6467.69789	20.72834	 
440.0	1.0	0.0	8.80251	7.21332	-11.54159	12.72059	16.02855	1.09007	0.91738	191.63681	182.548	72.31385	0.32504	 	1.15123E15	 	3.02347E-15	 	-6571.17023	20.69447	 
435.0	1.0	0.0	8.8044	7.21177	-11.5606	12.69824	15.96996	1.08639	0.92048	191.92594	182.68352	72.43028	0.3249	 	1.5718E15	 	2.19895E-15	 	-6674.47411	20.66078	 
430.0	1.0	0.0	8.80629	7.21023	-11.57955	12.67588	15.91132	1.0827	0.92362	192.21457	182.81844	72.54654	0.32477	 	2.15553E15	 	1.59214E-15	 	-6777.61039	20.62726	 
425.0	1.0	0.0	8.80817	7.20869	-11.59844	12.65351	15.85264	1.07898	0.9268	192.5027	182.95274	72.66263	0.32463	 	2.96945E15	 	1.14752E-15	 	-6880.57982	20.59389	 
420.0	1.0	0.0	8.81005	7.20715	-11.61728	12.63114	15.7939	1.07524	0.93003	192.79032	183.08644	72.77854	0.3245	 	4.10966E15	 	8.23205E-16	 	-6983.38347	20.56073	 
415.0	1.0	0.0	8.81192	7.20562	-11.63606	12.60877	15.7351	1.07147	0.9333	193.07744	183.21954	72.89429	0.32437	 	5.71461E15	 	5.87737E-16	 	-7086.02169	20.52764	 
410.0	1.0	0.0	8.81379	7.20409	-11.65478	12.58639	15.67626	1.06768	0.93661	193.36405	183.35203	73.00986	0.32423	 	7.98478E15	 	4.1758E-16	 	-7188.49461	20.49458	 
405.0	1.0	0.0	8.81565	7.20257	-11.67344	12.56401	15.61736	1.06386	0.93997	193.65016	183.48392	73.12526	0.3241	 	1.1212E16	 	2.9521E-16	 	-7290.80235	20.46155	 
400.0	1.0	0.0	8.81751	7.20106	-11.69205	12.54162	15.5584	1.06002	0.94338	193.93576	183.61521	73.24049	0.32397	 	1.58231E16	 	2.07639E-16	 	-7392.94504	20.42854	 
395.0	1.0	0.0	8.81936	7.19954	-11.71059	12.51923	15.49938	1.05615	0.94684	194.22086	183.7459	73.35555	0.32383	 	2.2446E16	 	1.45286E-16	 	-7494.92281	20.39555	 
390.0	1.0	0.0	8.82121	7.19804	-11.72908	12.49683	15.44031	1.05226	0.95034	194.50546	183.87599	73.47044	0.3237	 	3.20093E16	 	1.01117E-16	 	-7596.73575	20.36259	 
385.0	1.0	0.0	8.82305	7.19653	-11.74751	12.47443	15.38118	1.04834	0.95389	194.78955	184.00549	73.58516	0.32357	 	4.58939E16	 	6.99933E-17	 	-7698.38398	20.32965	 
380.0	1.0	0.0	8.82489	7.19503	-11.76588	12.45202	15.32198	1.04439	0.95749	195.07313	184.13439	73.6997	0.32343	 	6.6165400000000008E16	 	4.81802E-17	 	-7799.86761	20.29673	 
375.0	1.0	0.0	8.82672	7.19354	-11.7842	12.42961	15.26273	1.04042	0.96115	195.35621	184.2627	73.81407	0.3233	 	9.59306E16	 	3.29765E-17	 	-7901.18672	20.26382	 
370.0	1.0	0.0	8.82855	7.19205	-11.80245	12.40719	15.20341	1.03642	0.96486	195.63879	184.39042	73.92828	0.32317	 	1.39892E17	 	2.24392E-17	 	-8002.34143	20.23094	 
365.0	1.0	0.0	8.83037	7.19057	-11.82065	12.38477	15.14402	1.0324	0.96862	195.92086	184.51755	74.0423	0.32303	 	2.05208E17	 	1.5178E-17	 	-8103.3318	20.19807	 
360.0	1.0	0.0	8.83219	7.18909	-11.83879	12.36235	15.08457	1.02835	0.97243	196.20242	184.64409	74.15616	0.3229	 	3.02848E17	 	1.0204E-17	 	-8204.15792	20.16522	 
355.0	1.0	0.0	8.834	7.18761	-11.85687	12.33992	15.02506	1.02427	0.97631	196.48348	184.77004	74.26985	0.32277	 	4.49724E17	 	6.81717E-18	 	-8304.81987	20.13239	 
350.0	1.0	0.0	8.8358	7.18614	-11.87489	12.31748	14.96547	1.02016	0.98024	196.76404	184.89541	74.38336	0.32263	 	6.72084E17	 	4.52539E-18	 	-8405.31772	20.09957	 
345.0	1.0	0.0	8.83761	7.18468	-11.89286	12.29505	14.90581	1.01602	0.98423	197.04409	185.0202	74.4967	0.3225	 	1.01093E18	 	2.9844E-18	 	-8505.65152	20.06676	 
340.0	1.0	0.0	8.8394	7.18322	-11.91076	12.2726	14.84608	1.01186	0.98828	197.32364	185.1444	74.60987	0.32237	 	1.53078E18	 	1.95497E-18	 	-8605.82133	20.03396	 
335.0	1.0	0.0	8.84119	7.18176	-11.92861	12.25015	14.78628	1.00767	0.99239	197.60268	185.26802	74.72286	0.32224	 	2.33383E18	 	1.27183E-18	 	-8705.8272	20.00117	 
330.0	1.0	0.0	8.84298	7.18031	-11.9464	12.2277	14.7264	1.00345	0.99656	197.88122	185.39106	74.83569	0.3221	 	3.5831E18	 	8.21586E-19	 	-8805.66917	19.96839	 
325.0	1.0	0.0	8.84476	7.17887	-11.96413	12.20524	14.66645	0.9992	1.0008	198.15925	185.51352	74.94834	0.32197	 	5.54068E18	 	5.26907E-19	 	-8905.34728	19.93562	 
320.0	1.0	0.0	8.84654	7.17743	-11.98181	12.18278	14.60641	0.99492	1.00511	198.43678	185.63541	75.06081	0.32184	 	8.63093E18	 	3.35423E-19	 	-9004.86154	19.90285	 
315.0	1.0	0.0	8.84831	7.17599	-11.99942	12.16032	14.5463	0.99061	1.00948	198.7138	185.75672	75.17312	0.32171	 	1.35465E19	 	2.11909E-19	 	-9104.21198	19.87009	 
310.0	1.0	0.0	8.85007	7.17456	-12.01698	12.13784	14.4861	0.98627	1.01392	198.99032	185.87745	75.28525	0.32158	 	2.14265E19	 	1.32836E-19	 	-9203.3986	19.83732	 
305.0	1.0	0.0	8.85183	7.17313	-12.03448	12.11537	14.42582	0.9819	1.01844	199.26633	185.99762	75.39721	0.32144	 	3.41602E19	 	8.26051E-20	 	-9302.4214	19.80456	 
300.0	1.0	0.0	8.85359	7.17171	-12.05192	12.09289	14.36545	0.9775	1.02302	199.54184	186.11721	75.509	0.32131	 	5.49065E19	 	5.09485E-20	 	-9401.28039	19.7718	 
295.0	1.0	0.0	8.85534	7.17029	-12.0693	12.0704	14.30499	0.97306	1.02768	199.81685	186.23624	75.62061	0.32118	 	8.89928E19	 	3.11598E-20	 	-9499.97552	19.73903	 
290.0	1.0	0.0	8.85708	7.16888	-12.08662	12.04791	14.24444	0.9686	1.03242	200.09135	186.35469	75.73205	0.32105	 	1.4548199999999998E20	 	1.8893E-20	 	-9598.50678	19.70625	 
285.0	1.0	0.0	8.85882	7.16747	-12.10389	12.02542	14.1838	0.96411	1.03723	200.36534	186.47258	75.84332	0.32092	 	2.3993299999999997E20	 	1.1354E-20	 	-9696.87414	19.67347	 
280.0	1.0	0.0	8.86056	7.16607	-12.12109	12.00292	14.12306	0.95958	1.04213	200.63883	186.5899	75.95442	0.32078	 	3.9929899999999997E20	 	6.76132E-21	 	-9795.07754	19.64068	 
275.0	1.0	0.0	8.86229	7.16467	-12.13824	11.98042	14.06223	0.95502	1.0471	200.91182	186.70666	76.06534	0.32065	 	6.7072E20	 	3.98882E-21	 	-9893.11693	19.60788	 
270.0	1.0	0.0	8.86401	7.16328	-12.15533	11.95791	14.00129	0.95042	1.05216	201.1843	186.82286	76.17609	0.32052	 	1.1374500000000001E21	 	2.33064E-21	 	-9990.99222	19.57506	 
265.0	1.0	0.0	8.86573	7.16189	-12.17236	11.9354	13.94025	0.9458	1.05731	201.45627	186.93849	76.28666	0.32039	 	1.9479800000000001E21	 	1.34836E-21	 	-10088.70336	19.54223	 
260.0	1.0	0.0	8.86744	7.1605	-12.18933	11.91288	13.87911	0.94114	1.06254	201.72774	187.05357	76.39706	0.32026	 	3.36992E21	 	7.72176E-22	 	-10186.25023	19.50937	 
255.0	1.0	0.0	8.86915	7.15912	-12.20625	11.89036	13.81785	0.93645	1.06787	201.99871	187.16808	76.50729	0.32013	 	5.890640000000001E21	 	4.37605E-22	 	-10283.63275	19.4765	 
250.0	1.0	0.0	8.87086	7.15775	-12.2231	11.86783	13.75648	0.93172	1.07329	202.26917	187.28204	76.61734	0.32	 	1.04074E22	 	2.45342E-22	 	-10380.85078	19.44361	 
245.0	1.0	0.0	8.87255	7.15638	-12.2399	11.8453	13.695	0.92696	1.0788	202.53912	187.39545	76.72722	0.31986	 	1.8590399999999998E22	 	1.36036E-22	 	-10477.9042	19.41068	 
240.0	1.0	0.0	8.87425	7.15502	-12.25664	11.82276	13.6334	0.92216	1.08441	202.80857	187.50829	76.83693	0.31973	 	3.3585199999999996E22	 	7.45732E-23	 	-10574.79287	19.37773	 
235.0	1.0	0.0	8.87593	7.15366	-12.27332	11.80022	13.57168	0.91733	1.09012	203.07752	187.62059	76.94646	0.3196	 	6.1385E22	 	4.04033E-23	 	-10671.51662	19.34475	 
230.0	1.0	0.0	8.87762	7.1523	-12.28994	11.77768	13.50984	0.91246	1.09594	203.34596	187.73233	77.05582	0.31947	 	1.1354799999999999E23	 	2.16273E-23	 	-10768.07528	19.31173	 
225.0	1.0	0.0	8.87929	7.15095	-12.3065	11.75513	13.44786	0.90756	1.10186	203.61389	187.84352	77.16501	0.31934	 	2.1264899999999998E23	 	1.14336E-23	 	-10864.46867	19.27868	 
220.0	1.0	0.0	8.88096	7.1496	-12.323	11.73257	13.38575	0.90261	1.10789	203.88133	187.95417	77.27402	0.31921	 	4.03338E23	 	5.96756E-24	 	-10960.69659	19.24558	 
215.0	1.0	0.0	8.88263	7.14826	-12.33945	11.71001	13.32351	0.89764	1.11404	204.14825	188.06426	77.38285	0.31908	 	7.75123E23	 	3.07375E-24	 	-11056.75881	19.21244	 
210.0	1.0	0.0	8.88429	7.14693	-12.35583	11.68745	13.26112	0.89262	1.12029	204.41467	188.17381	77.49152	0.31895	 	1.5098900000000002E24	 	1.5618E-24	 	-11152.6551	19.17926	 
205.0	1.0	0.0	8.88595	7.1456	-12.37216	11.66488	13.1986	0.88757	1.12667	204.68059	188.28281	77.6	0.31882	 	2.98246E24	 	7.82486E-25	 	-11248.3852	19.14602	 
200.0	1.0	0.0	8.8876	7.14427	-12.38843	11.64231	13.13592	0.88248	1.13317	204.946	188.39127	77.70832	0.31869	 	5.976570000000001E24	 	3.86397E-25	 	-11343.94885	19.11273	 
195.0	1.0	0.0	8.88924	7.14295	-12.40464	11.61973	13.07308	0.87735	1.1398	205.2109	188.49919	77.81646	0.31856	 	1.21557E25	 	1.87972E-25	 	-11439.34577	19.07938	 
190.0	1.0	0.0	8.89088	7.14163	-12.42079	11.59715	13.01009	0.87218	1.14655	205.4753	188.60657	77.92442	0.31843	 	2.5105100000000002E25	 	9.00423E-26	 	-11534.57563	19.04597	 
185.0	1.0	0.0	8.89251	7.14032	-12.43688	11.57456	12.94694	0.86698	1.15344	205.7392	188.7134	78.03221	0.3183	 	5.26769E25	 	4.24497E-26	 	-11629.63814	19.0125	 
180.0	1.0	0.0	8.89414	7.13901	-12.45291	11.55197	12.88361	0.86173	1.16046	206.00258	188.8197	78.13983	0.31817	 	1.1235200000000001E26	 	1.96855E-26	 	-11724.53292	18.97896	 
175.0	1.0	0.0	8.89577	7.13771	-12.46889	11.52937	12.82011	0.85644	1.16762	206.26547	188.92545	78.24727	0.31804	 	2.43715E26	 	8.97485E-27	 	-11819.25963	18.94534	 
170.0	1.0	0.0	8.89738	7.13641	-12.4848	11.50677	12.75643	0.85111	1.17493	206.52785	189.03067	78.35453	0.31791	 	5.3798900000000005E26	 	4.02035E-27	 	-11913.81788	18.91165	 
165.0	1.0	0.0	8.899	7.13512	-12.50066	11.48417	12.69256	0.84575	1.18239	206.78972	189.13536	78.46162	0.31778	 	1.20924E27	 	1.76847E-27	 	-12008.20726	18.87788	 
160.0	1.0	0.0	8.9006	7.13383	-12.51646	11.46156	12.6285	0.84034	1.19	207.05109	189.23951	78.56854	0.31765	 	2.76931E27	 	7.63401E-28	 	-12102.42735	18.84402	 
155.0	1.0	0.0	8.9022	7.13255	-12.5322	11.43894	12.56424	0.83488	1.19777	207.31195	189.34313	78.67528	0.31752	 	6.46602E27	 	3.23181E-28	 	-12196.47769	18.81007	 
150.0	1.0	0.0	8.9038	7.13127	-12.54788	11.41632	12.49977	0.82939	1.20571	207.57231	189.44622	78.78184	0.31739	 	1.5403E28	 	1.34084E-28	 	-12290.35784	18.77603	 
145.0	1.0	0.0	8.90539	7.12999	-12.5635	11.3937	12.43508	0.82385	1.21381	207.83216	189.54878	78.88823	0.31726	 	3.7461700000000002E28	 	5.44793E-29	 	-12384.06728	18.74189	 
140.0	1.0	0.0	8.90698	7.12872	-12.57906	11.37107	12.37017	0.81827	1.22209	208.09151	189.65081	78.99444	0.31713	 	9.3092E28	 	2.16612E-29	 	-12477.60552	18.70765	 
135.0	1.0	0.0	8.90856	7.12746	-12.59457	11.34844	12.30503	0.81265	1.23054	208.35035	189.75231	79.10048	0.317	 	2.3655E29	 	8.42138E-30	 	-12570.97202	18.6733	 
130.0	1.0	0.0	8.91013	7.1262	-12.61001	11.3258	12.23965	0.80698	1.23919	208.60869	189.85328	79.20635	0.31687	 	6.1514900000000004E29	 	3.1987E-30	 	-12664.16621	18.63884	 
125.0	1.0	0.0	8.9117	7.12495	-12.62539	11.30316	12.17402	0.80127	1.24802	208.86652	189.95373	79.31203	0.31674	 	1.63856E30	 	1.18596E-30	 	-12757.18754	18.60426	 
120.0	1.0	0.0	8.91326	7.1237	-12.64072	11.28051	12.10813	0.79551	1.25705	209.12384	190.05366	79.41755	0.31661	 	4.4747199999999996E30	 	4.28824E-31	 	-12850.03539	18.56957	 
115.0	1.0	0.0	8.91482	7.12245	-12.65599	11.25786	12.04197	0.78971	1.26629	209.38066	190.15306	79.52288	0.31648	 	1.25404E31	 	1.51069E-31	 	-12942.70917	18.53476	 
110.0	1.0	0.0	8.91637	7.12121	-12.6712	11.2352	11.97553	0.78386	1.27573	209.63697	190.25194	79.62804	0.31635	 	3.61024E31	 	5.17988E-32	 	-13035.20823	18.49981	 
105.0	1.0	0.0	8.91792	7.11998	-12.68634	11.21254	11.9088	0.77797	1.2854	209.89278	190.3503	79.73303	0.31622	 	1.06882E32	 	1.72681E-32	 	-13127.53194	18.46474	 
100.0	1.0	0.0	8.91946	7.11874	-12.70143	11.18988	11.84176	0.77203	1.29529	210.14808	190.44814	79.83783	0.31609	 	3.25767E32	 	5.59066E-33	 	-13219.67962	18.42954	 
95.0	1.0	0.0	8.921	7.11752	-12.71646	11.16721	11.77441	0.76604	1.30541	210.40288	190.54546	79.94247	0.31596	 	1.02342E33	 	1.75572E-33	 	-13311.65061	18.3942	 
90.0	1.0	0.0	8.92253	7.1163	-12.73144	11.14453	11.70672	0.76001	1.31578	210.65717	190.64227	80.04692	0.31584	 	3.31813E33	 	5.34169E-34	 	-13403.44423	18.35872	 
85.0	1.0	0.0	8.92405	7.11508	-12.74635	11.12185	11.63869	0.75392	1.3264	210.91096	190.73856	80.1512	0.31571	 	1.11172E34	 	1.57238E-34	 	-13495.05978	18.32311	 
80.0	1.0	0.0	8.92557	7.11387	-12.7612	11.09917	11.5703	0.74779	1.33727	211.16424	190.83434	80.25531	0.31558	 	3.8544800000000003E34	 	4.47177E-35	 	-13586.49661	18.28737	 
75.0	1.0	0.0	8.92709	7.11266	-12.776	11.07648	11.50153	0.74161	1.34841	211.41701	190.9296	80.35923	0.31545	 	1.3849899999999998E35	 	1.22689E-35	 	-13677.75404	18.25149	 
70.0	1.0	0.0	8.92859	7.11146	-12.79073	11.05379	11.43236	0.73538	1.35983	211.66928	191.02435	80.46298	0.31532	 	5.1655199999999996E35	 	3.24232E-36	 	-13768.83141	18.21547	 
65.0	1.0	0.0	8.9301	7.11027	-12.80541	11.03109	11.36278	0.72911	1.37154	211.92104	191.11859	80.56656	0.31519	 	2.0030299999999998E36	 	8.23964E-37	 	-13859.72811	18.17934	 
60.0	1.0	0.0	8.93159	7.10907	-12.82002	11.00839	11.29276	0.72278	1.38355	212.1723	191.21231	80.66995	0.31506	 	8.089629999999999E36	 	2.01001E-37	 	-13950.44354	18.14309	 
55.0	1.0	0.0	8.93309	7.10789	-12.83458	10.98568	11.22229	0.7164	1.39586	212.42305	191.30553	80.77317	0.31494	 	3.40913E37	 	4.69802E-38	 	-14040.9772	18.10673	 
50.0	1.0	0.0	8.93457	7.10671	-12.84908	10.96297	11.15133	0.70998	1.4085	212.67329	191.39825	80.87622	0.31481	 	1.50207E38	 	1.05002E-38	 	-14131.32863	18.07029	 
45.0	1.0	0.0	8.93605	7.10553	-12.86352	10.94025	11.07987	0.7035	1.42147	212.92303	191.49045	80.97909	0.31468	 	6.93397E38	 	2.23943E-39	 	-14221.49748	18.03377	 
40.0	1.0	0.0	8.93753	7.10436	-12.87789	10.91753	11.00788	0.69697	1.43478	213.17226	191.58215	81.08177	0.31455	 	3.36114E39	 	4.5473E-40	 	-14311.48353	17.99721	 
35.0	1.0	0.0	8.939	7.10319	-12.89221	10.89481	10.93534	0.69039	1.44845	213.42099	191.67335	81.18429	0.31442	 	1.71489E40	 	8.77027E-41	 	-14401.28675	17.96064	 
30.0	1.0	0.0	8.94046	7.10202	-12.90647	10.87207	10.8622	0.68376	1.46249	213.66921	191.76404	81.28662	0.3143	 	9.23277E40	 	1.60255E-41	 	-14490.90729	17.92411	 
25.0	1.0	0.0	8.94192	7.10087	-12.92068	 	10.78843	0.67708	1.47692	213.91692	191.85423	81.38878	0.31417	 	5.25956E41	 	2.76676E-42	 	-14580.34559	 	 
