T (C)	Fraction solid (wt)-TOTAL	Fraction liquid (wt)-LIQUID	Density (g/(cm)^3)-TOTAL	Molar volume (cm^3)-TOTAL	Volume change (%)-  	Average expansion coeff. (10e-6 1/K)-  	Thermal conductivity (W/(m*K))-TOTAL	Electrical resistivity (10e-6 Ohm*m)-TOTAL	Electrical conductivity (10e6 1/(Ohm*m))-TOTAL	Young's modulus (GPa)-TOTAL	Bulk modulus (GPa)-TOTAL	Shear modulus(GPa)-TOTAL	Poisson's ratio-TOTAL	Liquid viscosity (mPa s)-  	Total viscosity (mPa s)-  	Liquid diffusivity (10e-9 (m^2)/s)-  	Total diffusivity (10e-9 (m^2)/s)-  	Surface Tension (mN/m)-  	Enthalpy (J/mole)-TOTAL	Specific heat (J/(mole K))-TOTAL	Latent heat (J/mole)-TOTAL
1400.0	0.0	1.0	7.25652	7.89525	0.0	32.15503	29.56924	1.38631	0.72134	0.0	124.85104	0.0	0.5	6.83389	6.83389	1.19496	1.19496	1782.59002	48399.399	 	0.0
1395.0	0.0	1.0	7.26059	7.89082	-0.0560746	32.11785	29.48611	1.38607	0.72147	0.0	124.99819	0.0	0.5	6.90698	6.90698	1.17878	1.17878	1785.39349	48197.789	40.322	0.0
1390.0	0.0	1.0	7.26466	7.88641	-0.11199	32.08085	29.40299	1.38582	0.7216	0.0	125.14534	0.0	0.5	6.98129	6.98129	1.16274	1.16274	1788.2162	47996.631	40.2316	0.0
1385.0	0.0	1.0	7.26872	7.88201	-0.16774	32.04401	29.31987	1.38557	0.72173	0.0	125.29249	0.0	0.5	7.05687	7.05687	1.14683	1.14683	1791.05802	47795.921	40.142	0.0
1380.0	0.0	1.0	7.27277	7.87762	-0.22334	32.00735	29.23674	1.38532	0.72186	0.0	125.43963	0.0	0.5	7.13372	7.13372	1.13105	1.13105	1793.91873	47595.658	40.0526	0.0
1375.0	0.0	1.0	7.27681	7.87324	-0.27877	31.97087	29.15362	1.38507	0.72199	0.0	125.58678	0.0	0.5	7.21189	7.21189	1.11541	1.11541	1796.79811	47395.838	39.964	0.0
1370.0	0.0	1.0	7.28084	7.86888	-0.33404	31.93457	29.07049	1.38481	0.72212	0.0	125.73393	0.0	0.5	7.2914	7.2914	1.0999	1.0999	1799.69594	47196.46	39.8756	0.0
1365.0	0.0	1.0	7.28487	7.86452	-0.38916	31.89844	28.98737	1.38456	0.72225	0.0	125.88108	0.0	0.5	7.37228	7.37228	1.08452	1.08452	1802.61197	46997.52	39.788	0.0
1360.0	0.0	1.0	7.28889	7.86019	-0.44411	31.8625	28.90424	1.3843	0.72239	0.0	126.02823	0.0	0.5	7.45455	7.45455	1.06928	1.06928	1805.54595	46799.016	39.7008	0.0
1358.76	0.0	1.0	7.28989	7.85911	-0.4577	31.85363	28.88365	1.38424	0.72242	0.0	126.06468	0.0	0.5	7.47516	7.47516	1.06552	1.06552	1806.27561	46749.91	39.64061	0.0
1355.0	0.14346	0.85654	7.33447	7.81139	-1.0621	30.22801	29.32793	1.36013	0.73523	0.0399772	127.76528	0.0134911	0.48162	7.56076	16.84631	1.05103	0.47171	1805.07904	44484.761	602.23784	2116.182
1350.0	0.29887	0.70113	7.38358	7.75943	-1.72031	28.46655	29.82004	1.33357	0.74987	0.77681	129.65771	0.26578	0.46135	7.67739	164.27732	1.03189	0.0482245	1803.50981	42014.161	494.12	4389.141
1345.0	0.42022	0.57978	7.42275	7.71841	-2.23986	27.08837	30.21309	1.31217	0.7621	3.1132	131.20502	1.07706	0.44523	7.79704	643.43101	1.01292	0.0122745	1801.98485	40062.078	390.4166	6144.013
1340.0	0.5163	0.4837	7.45443	7.68564	-2.65482	25.99998	30.52925	1.29457	0.77246	7.2433	132.50102	2.52858	0.43229	7.92	1530.32121	0.99411	0.00514492	1800.51324	38493.701	313.6754	7515.605
1335.0	0.59329	0.40671	7.48041	7.6589	-2.99357	25.12293	30.78299	1.27992	0.7813	12.85396	133.60562	4.52044	0.42176	8.04624	2807.46409	0.97548	0.00279575	1799.10594	37213.251	256.09	8599.692
1330.0	0.65567	0.34433	7.50198	7.63682	-3.27329	24.40993	30.98509	1.26762	0.78888	19.4645	134.56585	6.88708	0.41312	8.17596	4419.37008	0.95702	0.00177052	1797.76938	36151.633	212.3236	9465.367
1325.0	0.70668	0.29332	7.5201	7.61834	-3.50728	23.82426	31.14407	1.25721	0.79541	26.61168	135.41491	9.46388	0.40596	8.30935	6304.06582	0.93872	0.00123732	1796.50939	35258.301	178.6664	10163.175
1320.0	0.74875	0.25125	7.5355	7.60269	-3.70546	23.33849	31.26717	1.24834	0.80106	33.92752	136.17741	12.11711	0.39998	8.44649	8408.77095	0.92059	9.24721E-4	1795.33035	34495.796	152.501	10730.573
1315.0	0.78372	0.21628	7.54872	7.58928	-3.8753	22.93185	31.36026	1.24073	0.80598	41.14639	136.87154	14.74831	0.39495	8.58758	10693.26388	0.90263	7.24883E-4	1794.23569	33836.029	131.9534	11195.647
1310.0	0.813	0.187	7.5602	7.57766	-4.02248	22.58866	31.42815	1.23415	0.81027	48.09207	137.51075	17.29076	0.39069	8.73274	13129.76932	0.88483	5.88507E-4	1793.22757	33257.699	115.666	11579.694
1305.0	0.83767	0.16233	7.57026	7.56746	-4.15168	22.29582	31.47499	1.22843	0.81405	54.66473	138.1056	19.70554	0.38704	8.88218	15703.04323	0.86719	4.90514E-4	1792.30837	32744.493	102.6412	11899.027
1300.0	0.85859	0.14141	7.57915	7.55846	-4.26571	22.0456	31.50411	1.2234	0.81739	60.80774	138.66499	21.96961	0.38391	9.03615	18405.16478	0.84972	4.17174E-4	1791.47739	32283.794	92.1398	12166.259
1295.0	0.87644	0.12356	7.5871	7.55042	-4.36762	21.82942	31.51832	1.21896	0.82037	66.50529	139.19493	24.07534	0.38119	9.19472	21236.23358	0.83241	3.6041E-4	1790.7358	31865.758	83.6072	12391.233
1290.0	0.89175	0.10825	7.59426	7.54316	-4.45952	21.64141	31.51989	1.21502	0.82303	71.76092	139.70046	26.02247	0.37883	9.35822	24200.96183	0.81526	3.1525E-4	1790.08342	31482.64	76.6236	12581.691
1285.0	0.90494	0.0950591	7.60076	7.53656	-4.54307	21.47696	31.51066	1.21148	0.82543	76.59103	140.18543	27.81582	0.37675	9.52681	27307.75367	0.79827	2.7849E-4	1789.5194	31128.299	70.8682	12743.771
1280.0	0.91637	0.0836307	7.60672	7.53052	-4.61964	21.33217	31.49232	1.2083	0.82761	81.02624	140.65328	29.46571	0.37492	9.70077	30570.49925	0.78144	2.47969E-4	1789.0427	30797.832	66.0934	12882.375
1275.0	0.92632	0.073682	7.61221	7.52493	-4.69044	21.20366	31.46612	1.20541	0.82959	85.09552	141.10633	30.98211	0.3733	9.8803	34003.62176	0.76477	2.22216E-4	1788.65308	30487.295	62.1074	13001.445
1270.0	0.93502	0.0649842	7.6173	7.51973	-4.75623	21.08931	31.43319	1.20278	0.83141	88.82957	141.54694	32.37577	0.37185	10.06565	37624.69007	0.74826	2.00181E-4	1788.34806	30193.493	58.7604	13104.172
1265.0	0.94265	0.0573482	7.62206	7.51487	-4.81784	20.98675	31.3944	1.20036	0.83308	92.25986	141.97652	33.6579	0.37055	10.25715	41452.91706	0.73191	1.81105E-4	1788.12697	29913.828	55.933	13193.155
1260.0	0.94938	0.0506171	7.62654	7.5103	-4.87574	20.89471	31.35056	1.19813	0.83463	95.41532	142.39679	34.83884	0.36938	10.45507	45510.00207	0.71572	1.64424E-4	1787.98653	29646.168	53.532	13270.52
1255.0	0.95534	0.0446606	7.63076	7.50597	-4.93061	20.81123	31.30231	1.19607	0.83607	98.32351	142.80865	35.92858	0.36832	10.65966	49819.14175	0.6997	1.49712E-4	1787.92683	29388.76	51.4816	13338.02
1250.0	0.96063	0.0393722	7.63478	7.50185	-4.98279	20.73536	31.25018	1.19414	0.83742	101.00959	143.21301	36.93624	0.36735	10.8713	54405.50895	0.68383	1.36643E-4	1787.94557	29140.151	49.7218	13397.106
1245.0	0.96534	0.0346585	7.6386	7.49791	-5.03265	20.66605	31.19467	1.19234	0.83869	103.49609	143.61082	37.87002	0.36646	11.09027	59296.6546	0.66813	1.2496E-4	1788.04081	28899.131	48.204	13448.984
1243.33	0.96678	0.033225	7.63983	7.49664	-5.04873	20.64451	31.17533	1.19177	0.83909	104.27378	143.74198	38.16228	0.36619	11.16481	60994.94663	0.66294	1.21347E-4	1788.08955	28820.546	 	13464.58
1240.0	0.97064	0.0293591	7.6426	7.49373	-5.08553	20.58676	31.13879	1.19055	0.83995	106.30375	144.02136	38.92538	0.36548	11.31366	64802.47101	0.65278	1.13966E-4	1788.50557	28647.257	50.3748	13512.098
1235.0	0.97583	0.0241701	7.64655	7.48957	-5.13831	20.50714	31.08116	1.18881	0.84118	109.12257	144.43151	39.98606	0.36451	11.54148	70816.02981	0.63778	1.03944E-4	1789.14827	28395.954	50.2606	13575.019
1230.0	0.98031	0.0196922	7.6503	7.48561	-5.18843	20.43522	31.02013	1.1872	0.84232	111.66259	144.83137	40.94292	0.36364	11.7748	77201.32996	0.62307	9.50308E-5	1789.81314	28154.627	48.2654	13628.34
1225.0	0.9842	0.0158045	7.65387	7.48183	-5.23633	20.36964	30.95624	1.1857	0.84339	113.96417	145.22264	41.81088	0.36285	12.01372	84002.55112	0.60865	8.70461E-5	1790.49846	27921.575	46.6104	13673.76
1220.0	0.98759	0.0124095	7.65729	7.4782	-5.28233	20.30955	30.88991	1.18428	0.8444	116.06067	145.60643	42.60229	0.36214	12.25837	91265.77208	0.59451	7.98513E-5	1791.2014	27695.446	45.2258	13712.628
1215.49	0.99029	0.00971416	7.66027	7.47502	-5.32251	20.2591	30.82819	1.18306	0.84527	117.79604	145.94725	43.25797	0.36155	12.48396	98255.21879	0.582	7.39469E-5	1791.85169	27496.514	 	13742.866
1215.0	0.99083	0.00916627	7.66073	7.4746	-5.32787	20.2504	30.82236	1.1829	0.84538	118.11164	145.99245	43.37712	0.36145	12.48651	99136.44864	0.58169	7.32656E-5	1791.76785	27470.875	44.9142	13750.309
1213.14	0.99285	0.00715428	7.66246	7.47301	-5.348	20.21818	30.80024	1.18226	0.84583	119.28439	146.16361	43.81998	0.36107	12.49711	102550.8988	0.58047	7.07376E-5	1791.45844	27374.127	 	13777.529
1210.0	0.9959	0.00410063	7.66529	7.47044	-5.38062	20.16778	30.76266	1.18121	0.84659	121.10839	146.44543	44.50918	0.36049	12.51343	108444.2575	0.57849	6.67521E-5	1790.87979	27216.248	50.9254	13818.413
1205.0	1.0	0.0	7.66956	7.46656	-5.42967	20.09629	30.70031	1.17962	0.84773	123.6701	146.87916	45.47802	0.35967	 	118247.2183	 	6.10119E-5	 	26976.136	48.0224	13872.369
1200.0	1.0	0.0	7.67212	7.46406	-5.46138	20.07994	30.61578	1.17887	0.84827	124.13031	147.21732	45.65392	0.35947	 	127026.6665	 	5.66029E-5	 	26783.88517	38.45017	 
1195.0	1.0	0.0	7.67467	7.46157	-5.49286	20.06417	30.53126	1.17813	0.84881	124.58994	147.55475	45.82963	0.35927	 	136525.4601	 	5.2486E-5	 	26603.36704	36.10363	 
1190.0	1.0	0.0	7.67723	7.45909	-5.52427	20.04847	30.44675	1.17737	0.84935	125.04867	147.89034	46.00507	0.35908	 	146806.8894	 	4.8644E-5	 	26423.11223	36.05096	 
1185.0	1.0	0.0	7.67978	7.45662	-5.55563	20.03283	30.36222	1.17662	0.8499	125.50652	148.22412	46.18022	0.35888	 	157941.2159	 	4.50602E-5	 	26243.12033	35.99838	 
1180.0	1.0	0.0	7.68232	7.45415	-5.58693	20.01725	30.2777	1.17585	0.85045	125.96347	148.55607	46.35508	0.35868	 	170005.5115	 	4.1719E-5	 	26063.39092	35.94588	 
1175.0	1.0	0.0	7.68486	7.45168	-5.61816	20.00174	30.19317	1.17509	0.851	126.41953	148.88623	46.52967	0.35848	 	183084.3671	 	3.86055E-5	 	25883.92357	35.89347	 
1170.0	1.0	0.0	7.6874	7.44922	-5.64933	19.98629	30.10863	1.17432	0.85156	126.87469	149.21458	46.70397	0.35829	 	197270.6958	 	3.57055E-5	 	25704.71786	35.84114	 
1165.0	1.0	0.0	7.68994	7.44676	-5.68045	19.97091	30.02409	1.17355	0.85212	127.32897	149.54115	46.87798	0.35809	 	212666.5804	 	3.30059E-5	 	25525.77338	35.7889	 
1160.0	1.0	0.0	7.69247	7.44431	-5.7115	19.95559	29.93955	1.17277	0.85268	127.78235	149.86594	47.05171	0.35789	 	229384.2771	 	3.0494E-5	 	25347.08969	35.73674	 
1155.0	1.0	0.0	7.695	7.44187	-5.74249	19.94034	29.855	1.17199	0.85325	128.23484	150.18896	47.22516	0.3577	 	247547.2826	 	2.8158E-5	 	25168.6664	35.68466	 
1150.0	1.0	0.0	7.69753	7.43942	-5.77342	19.92516	29.77045	1.1712	0.85382	128.68643	150.51022	47.39833	0.3575	 	267291.5409	 	2.59868E-5	 	24990.50306	35.63267	 
1145.0	1.0	0.0	7.70005	7.43699	-5.80429	19.91006	29.68589	1.17041	0.8544	129.13714	150.82972	47.5712	0.3573	 	288766.8128	 	2.39696E-5	 	24812.59926	35.58076	 
1140.0	1.0	0.0	7.70257	7.43455	-5.8351	19.89502	29.60133	1.16962	0.85498	129.58695	151.14748	47.7438	0.35711	 	312138.1361	 	2.20967E-5	 	24634.95458	35.52894	 
1135.0	1.0	0.0	7.70508	7.43213	-5.86585	19.88005	29.51676	1.16882	0.85557	130.03587	151.4635	47.91611	0.35691	 	337587.5439	 	2.03587E-5	 	24457.56858	35.4772	 
1130.0	1.0	0.0	7.7076	7.4297	-5.89654	19.86516	29.43218	1.16801	0.85615	130.48389	151.7778	48.08813	0.35672	 	365315.912	 	1.87466E-5	 	24280.44086	35.42554	 
1125.0	1.0	0.0	7.71011	7.42729	-5.92716	19.85034	29.3476	1.16721	0.85675	130.93103	152.09037	48.25987	0.35652	 	395545.0656	 	1.72522E-5	 	24103.57097	35.37398	 
1120.0	1.0	0.0	7.71261	7.42487	-5.95773	19.8356	29.26301	1.16639	0.85734	131.37727	152.40123	48.43133	0.35633	 	428520.0724	 	1.58677E-5	 	23926.95851	35.32249	 
1115.0	1.0	0.0	7.71511	7.42246	-5.98823	19.82093	29.17842	1.16558	0.85794	131.82262	152.71038	48.6025	0.35613	 	464511.9521	 	1.45857E-5	 	23750.60305	35.27109	 
1111.97	1.0	0.0	7.71663	7.42101	-6.00668	19.81209	29.12717	1.16508	0.85831	132.09198	152.89685	48.70606	0.35601	 	487909.4165	 	1.38559E-5	 	23643.88815	 	 
1110.0	1.0	0.0	7.71855	7.41916	-6.03009	19.76662	29.04074	1.16688	0.85698	132.4633	153.08317	48.85122	0.35578	 	506111.0596	 	1.33386E-5	 	23523.09836	45.50094	 
1105.0	1.0	0.0	7.72337	7.41453	-6.08871	19.65318	28.82639	1.17131	0.85374	133.38698	153.54402	49.21255	0.35521	 	555680.7193	 	1.21048E-5	 	23220.05823	60.60803	 
1100.0	1.0	0.0	7.72811	7.40998	-6.14629	19.54239	28.61882	1.17553	0.85068	134.28555	153.98892	49.56434	0.35466	 	610562.9552	 	1.09768E-5	 	22921.72279	59.66709	 
1096.57	1.0	0.0	7.73132	7.40691	-6.18522	19.46781	28.48005	1.1783	0.84868	134.88872	154.28577	49.80064	0.35429	 	651638.1563	 	1.02591E-5	 	22719.5045	 	 
1095.0	1.0	0.0	7.73276	7.40552	-6.20281	19.43429	28.41769	1.17954	0.84779	135.16055	154.41928	49.90717	0.35412	 	671379.115	 	9.94609E-6	 	22627.81735	58.78109	 
1090.0	1.0	0.0	7.73734	7.40114	-6.25828	19.32885	28.22266	1.18335	0.84506	136.0134	154.83642	50.24156	0.35359	 	738828.9055	 	9.00506E-6	 	22338.07148	57.94917	 
1085.0	1.0	0.0	7.74185	7.39684	-6.31284	19.22571	28.03343	1.18696	0.84249	136.84494	155.24067	50.56783	0.35308	 	813675.9305	 	8.14672E-6	 	22052.49632	57.11503	 
1080.0	1.0	0.0	7.74628	7.3926	-6.36651	19.12477	27.84971	1.1904	0.84006	137.65625	155.6329	50.88638	0.35258	 	896794.6615	 	7.36444E-6	 	21770.92294	56.31468	 
1075.0	1.0	0.0	7.75066	7.38843	-6.41933	19.02593	27.67122	1.19365	0.83777	138.44837	156.01386	51.1976	0.3521	 	989170.1816	 	6.65203E-6	 	21493.19062	55.54646	 
1070.0	1.0	0.0	7.75497	7.38432	-6.47133	18.92909	27.4977	1.19672	0.83561	139.22223	156.38427	51.50184	0.35162	 	1091913.086	 	6.00376E-6	 	21219.14636	54.80885	 
1065.0	1.0	0.0	7.75921	7.38028	-6.52254	18.83417	27.3289	1.19963	0.83359	139.97874	156.74475	51.79944	0.35116	 	1206276.461	 	5.41433E-6	 	20948.64431	54.10041	 
1060.0	1.0	0.0	7.7634	7.37629	-6.573	18.74109	27.16459	1.20238	0.83168	140.71871	157.09589	52.09071	0.35071	 	1333675.57	 	4.87883E-6	 	20681.5454	53.41978	 
1055.0	1.0	0.0	7.76754	7.37237	-6.62273	18.64977	27.00453	1.20497	0.8299	141.44294	157.43822	52.37595	0.35027	 	1475709.883	 	4.39271E-6	 	20417.7169	52.7657	 
1050.0	1.0	0.0	7.77162	7.3685	-6.67177	18.56013	26.84852	1.20741	0.82822	142.15215	157.77223	52.65542	0.34983	 	1634188.852	 	3.95179E-6	 	20157.03206	52.13697	 
1045.0	1.0	0.0	7.77565	7.36468	-6.72013	18.4721	26.69636	1.2097	0.82665	142.84703	158.09839	52.92939	0.34941	 	1811161.2	 	3.55218E-6	 	19899.36977	51.53246	 
1040.0	1.0	0.0	7.77963	7.36091	-6.76785	18.38561	26.54786	1.21186	0.82518	143.52825	158.4171	53.19811	0.349	 	2008948.535	 	3.19031E-6	 	19644.61428	50.9511	 
1035.0	1.0	0.0	7.78356	7.35719	-6.81494	18.30058	26.40284	1.21387	0.82381	144.1964	158.72875	53.46182	0.34859	 	2230184.094	 	2.86288E-6	 	19392.65484	50.39189	 
1030.0	1.0	0.0	7.78745	7.35352	-6.86144	18.21696	26.26112	1.21576	0.82253	144.85207	159.03371	53.72072	0.3482	 	2477857.428	 	2.56688E-6	 	19143.38556	49.85386	 
1025.0	1.0	0.0	7.79129	7.3499	-6.90736	18.13468	26.12255	1.21752	0.82134	145.49582	159.3323	53.97503	0.34781	 	2755365.343	 	2.29949E-6	 	18896.70504	49.3361	 
1020.0	1.0	0.0	7.79509	7.34632	-6.95272	18.05369	25.98697	1.21916	0.82024	146.12815	159.62484	54.22495	0.34743	 	3066571.266	 	2.05818E-6	 	18652.51624	48.83776	 
1015.0	1.0	0.0	7.79884	7.34278	-6.99755	17.97392	25.85424	1.22068	0.81922	146.74956	159.91162	54.47066	0.34705	 	3415873.442	 	1.84057E-6	 	18410.72624	48.358	 
1010.0	1.0	0.0	7.80256	7.33928	-7.04186	17.89532	25.72422	1.22208	0.81827	147.36052	160.19291	54.71235	0.34668	 	3808283.513	 	1.6445E-6	 	18171.24606	47.89604	 
1005.0	1.0	0.0	7.80624	7.33582	-7.08567	17.81783	25.59678	1.22338	0.81741	147.96147	160.46897	54.95018	0.34632	 	4249517.691	 	1.46801E-6	 	17933.99044	47.45112	 
1000.0	1.0	0.0	7.80988	7.3324	-7.129	17.74142	25.4718	1.22458	0.81661	148.55283	160.74003	55.18431	0.34597	 	4746101.896	 	1.30927E-6	 	17698.87775	47.02254	 
995.0	1.0	0.0	7.81349	7.32901	-7.17187	17.66602	25.34916	1.22567	0.81588	149.13501	161.00632	55.4149	0.34562	 	5305494.36	 	1.16663E-6	 	17465.82975	46.6096	 
990.0	1.0	0.0	7.81706	7.32566	-7.21429	17.59159	25.22875	1.22666	0.81522	149.70836	161.26806	55.64208	0.34528	 	5936226.243	 	1.03856E-6	 	17234.77148	46.21166	 
985.0	1.0	0.0	7.8206	7.32235	-7.25627	17.51808	25.11047	1.22756	0.81462	150.27327	161.52543	55.86601	0.34494	 	6648066.815	 	9.23685E-7	 	17005.63113	45.82807	 
980.0	1.0	0.0	7.82411	7.31907	-7.29784	17.44546	24.99422	1.22837	0.81409	150.83007	161.77863	56.08681	0.34461	 	7452213.687	 	8.20738E-7	 	16778.33986	45.45825	 
975.0	1.0	0.0	7.82758	7.31582	-7.33901	17.37367	24.8799	1.22909	0.81361	151.37909	162.02783	56.3046	0.34429	 	8361515.209	 	7.28565E-7	 	16552.83175	45.10162	 
970.0	1.0	0.0	7.83103	7.3126	-7.37979	17.30268	24.76744	1.22973	0.81319	151.92064	162.2732	56.51952	0.34397	 	9390729.444	 	6.46117E-7	 	16329.04361	44.75763	 
965.0	1.0	0.0	7.83445	7.30941	-7.42019	17.23245	24.65674	1.23028	0.81282	152.45501	162.51491	56.73166	0.34365	 	1.055682446E7	 	5.72436E-7	 	16106.9149	44.42574	 
960.0	1.0	0.0	7.83784	7.30625	-7.46022	17.16294	24.54773	1.23075	0.81251	152.98249	162.75309	56.94114	0.34334	 	1.18793317E7	 	5.06653E-7	 	15886.38759	44.10546	 
955.0	1.0	0.0	7.8412	7.30311	-7.49991	17.09411	24.44033	1.23115	0.81225	153.50335	162.98791	57.14806	0.34303	 	1.338075561E7	 	4.47979E-7	 	15667.40611	43.7963	 
950.0	1.0	0.0	7.84454	7.30001	-7.53925	17.02594	24.33448	1.23147	0.81204	154.01785	163.21949	57.35253	0.34273	 	1.508705666E7	 	3.95696E-7	 	15449.9172	43.49778	 
945.0	1.0	0.0	7.84785	7.29693	-7.57826	16.95838	24.2301	1.23172	0.81187	154.52622	163.44796	57.55463	0.34243	 	1.70282118E7	 	3.49155E-7	 	15233.86984	43.20947	 
940.0	1.0	0.0	7.85113	7.29387	-7.61695	16.89141	24.12715	1.2319	0.81176	155.0287	163.67345	57.75446	0.34214	 	1.923887637E7	 	3.07767E-7	 	15019.21514	42.93094	 
935.0	1.0	0.0	7.8544	7.29084	-7.65533	16.82499	24.02554	1.23201	0.81168	155.52553	163.89607	57.9521	0.34185	 	2.175916045E7	 	2.70998E-7	 	14805.90628	42.66177	 
930.0	1.0	0.0	7.85764	7.28784	-7.69341	16.75909	23.92524	1.23205	0.81165	156.0169	164.11595	58.14764	0.34156	 	2.463553518E7	 	2.38366E-7	 	14593.89841	42.40157	 
925.0	1.0	0.0	7.86085	7.28485	-7.73119	16.69369	23.82619	1.23203	0.81167	156.50303	164.33319	58.34115	0.34127	 	2.792190948E7	 	2.09437E-7	 	14383.14857	42.14997	 
920.0	1.0	0.0	7.86405	7.28189	-7.76869	16.62876	23.72834	1.23195	0.81172	156.98411	164.5479	58.53272	0.34099	 	3.168088917E7	 	1.83816E-7	 	14173.6156	41.90659	 
915.0	1.0	0.0	7.86723	7.27895	-7.80592	16.56427	23.63164	1.23181	0.81181	157.46032	164.76017	58.7224	0.34072	 	3.598526444E7	 	1.61151E-7	 	13965.26013	41.6711	 
910.0	1.0	0.0	7.87038	7.27604	-7.84287	16.50019	23.53604	1.23161	0.81195	157.93186	164.97011	58.91028	0.34044	 	4.091976929E7	 	1.41122E-7	 	13758.04439	41.44315	 
905.0	1.0	0.0	7.87352	7.27314	-7.87957	16.43651	23.44152	1.23135	0.81212	158.39889	165.17781	59.09642	0.34017	 	4.65831629E7	 	1.23441E-7	 	13551.93225	41.22243	 
900.0	1.0	0.0	7.87663	7.27026	-7.91601	16.37319	23.34802	1.23103	0.81233	158.86157	165.38336	59.28087	0.33991	 	5.309067981E7	 	1.0785E-7	 	13346.88915	41.00862	 
895.0	1.0	0.0	7.87973	7.2674	-7.95221	16.31022	23.25551	1.23066	0.81257	159.32006	165.58685	59.46372	0.33964	 	6.05769562E7	 	9.41191E-8	 	13142.88195	40.80144	 
890.0	1.0	0.0	7.88281	7.26456	-7.98816	16.24757	23.16395	1.23024	0.81285	159.77452	165.78836	59.645	0.33938	 	6.919948011E7	 	8.20389E-8	 	12939.87895	40.6006	 
885.0	1.0	0.0	7.88587	7.26174	-8.02388	16.18522	23.07331	1.22976	0.81317	160.2251	165.98798	59.82478	0.33912	 	7.914271255E7	 	7.14234E-8	 	12737.84984	40.40582	 
880.0	1.0	0.0	7.88891	7.25894	-8.05937	16.12315	22.98357	1.22923	0.81351	160.67193	166.18578	60.00312	0.33886	 	9.062296486E7	 	6.21061E-8	 	12536.7654	40.21689	 
875.0	1.0	0.0	7.89194	7.25616	-8.09464	16.06135	22.89468	1.22866	0.8139	161.11514	166.38185	60.18006	0.33861	 	1.038942449E8	 	5.39379E-8	 	12336.59769	40.03354	 
870.0	1.0	0.0	7.89495	7.25339	-8.12968	15.99979	22.80662	1.22803	0.81431	161.55488	166.57627	60.35566	0.33836	 	1.192551908E8	 	4.67856E-8	 	12137.32058	39.85542	 
865.0	1.0	0.0	7.89795	7.25064	-8.16452	15.93846	22.71937	1.22735	0.81476	161.99127	166.76909	60.52996	0.33811	 	1.370573829E8	 	4.05307E-8	 	11938.90868	39.68238	 
860.0	1.0	0.0	7.90092	7.24791	-8.19915	15.87733	22.6329	1.22663	0.81524	162.42442	166.96041	60.70301	0.33786	 	1.577152831E8	 	3.50671E-8	 	11741.33768	39.5142	 
855.0	1.0	0.0	7.90389	7.24519	-8.23357	15.8164	22.54719	1.22586	0.81575	162.85446	167.15028	60.87486	0.33762	 	1.81718128E8	 	3.03009E-8	 	11544.58434	39.35067	 
850.0	1.0	0.0	7.90684	7.24249	-8.26779	15.75564	22.46221	1.22504	0.8163	163.28149	167.33878	61.04555	0.33737	 	2.09644183E8	 	2.61482E-8	 	11348.62646	39.19158	 
845.0	1.0	0.0	7.90911	7.24041	-8.29411	15.73054	22.39176	1.22343	0.81738	163.6583	167.57127	61.19325	0.33723	 	2.382272948E8	 	2.29084E-8	 	11188.72303	31.98069	 
840.0	1.0	0.0	7.91137	7.23834	-8.32036	15.70544	22.3213	1.2218	0.81846	164.03441	167.8027	61.34072	0.33708	 	2.710184674E8	 	2.00466E-8	 	11025.78327	32.58795	 
835.0	1.0	0.0	7.91363	7.23627	-8.34654	15.68034	22.25082	1.22017	0.81956	164.40982	168.03305	61.48795	0.33693	 	3.08682255E8	 	1.75216E-8	 	10863.07214	32.54223	 
830.0	1.0	0.0	7.91589	7.23421	-8.37266	15.65524	22.18033	1.21852	0.82067	164.78454	168.26233	61.63496	0.33678	 	3.519951899E8	 	1.52962E-8	 	10700.58893	32.49664	 
825.0	1.0	0.0	7.91814	7.23215	-8.39871	15.63014	22.10983	1.21687	0.82178	165.15856	168.49055	61.78174	0.33663	 	4.018658264E8	 	1.33373E-8	 	10538.33289	32.45121	 
820.0	1.0	0.0	7.92038	7.2301	-8.4247	15.60504	22.03931	1.2152	0.82291	165.53188	168.71772	61.92828	0.33648	 	4.593585801E8	 	1.16149E-8	 	10376.30326	32.40593	 
815.0	1.0	0.0	7.92263	7.22805	-8.45062	15.57993	21.96878	1.21353	0.82405	165.9045	168.94382	62.0746	0.33633	 	5.25722124E8	 	1.01023E-8	 	10214.49929	32.36079	 
810.0	1.0	0.0	7.92487	7.22601	-8.47647	15.55483	21.89823	1.21184	0.82519	166.27643	169.16888	62.22068	0.33618	 	6.02423258E8	 	8.77553E-9	 	10052.92016	32.31583	 
805.0	1.0	0.0	7.9271	7.22398	-8.50226	15.52972	21.82767	1.21015	0.82635	166.64766	169.39288	62.36653	0.33603	 	6.911873643E8	 	7.61325E-9	 	9891.56506	32.27102	 
800.0	1.0	0.0	7.92933	7.22194	-8.52798	15.50462	21.7571	1.20844	0.82751	167.01819	169.61584	62.51215	0.33589	 	7.940468014E8	 	6.59631E-9	 	9730.43314	32.22638	 
795.0	1.0	0.0	7.93155	7.21992	-8.55363	15.47951	21.68651	1.20673	0.82869	167.38803	169.83776	62.65754	0.33574	 	9.133988771E8	 	5.70767E-9	 	9569.52353	32.18192	 
790.0	1.0	0.0	7.93377	7.2179	-8.57922	15.4544	21.6159	1.205	0.82988	167.75717	170.05863	62.8027	0.33559	 	1.052075402E9	 	4.93213E-9	 	9408.83531	32.13764	 
785.0	1.0	0.0	7.93599	7.21588	-8.60474	15.42929	21.54528	1.20326	0.83107	168.12562	170.27847	62.94762	0.33544	 	1.21342626E9	 	4.25619E-9	 	9248.36757	32.09355	 
780.0	1.0	0.0	7.9382	7.21387	-8.6302	15.40418	21.47465	1.20152	0.83228	168.49337	170.49727	63.09232	0.33529	 	1.401419979E9	 	3.66783E-9	 	9088.11935	32.04965	 
775.0	1.0	0.0	7.9404	7.21187	-8.65559	15.37907	21.40399	1.19976	0.8335	168.86042	170.71505	63.23678	0.33514	 	1.620764934E9	 	3.15639E-9	 	8928.08962	32.00595	 
770.0	1.0	0.0	7.94261	7.20987	-8.68091	15.35396	21.33333	1.19799	0.83473	169.22678	170.9318	63.38102	0.335	 	1.877055674E9	 	2.71242E-9	 	8768.27735	31.96245	 
765.0	1.0	0.0	7.9448	7.20788	-8.70616	15.32884	21.26264	1.19621	0.83597	169.59245	171.14752	63.52502	0.33485	 	2.176949818E9	 	2.32755E-9	 	8608.68148	31.91917	 
760.0	1.0	0.0	7.947	7.20589	-8.73135	15.30373	21.19194	1.19442	0.83722	169.95741	171.36222	63.66879	0.3347	 	2.528382292E9	 	1.99438E-9	 	8449.30089	31.87612	 
755.0	1.0	0.0	7.94918	7.2039	-8.75648	15.27861	21.12122	1.19262	0.83849	170.32169	171.57591	63.81232	0.33455	 	2.940825194E9	 	1.70637E-9	 	8290.13441	31.8333	 
750.0	1.0	0.0	7.95137	7.20193	-8.78153	15.2535	21.05048	1.19081	0.83976	170.68527	171.78858	63.95563	0.3344	 	3.425603523E9	 	1.45777E-9	 	8131.18083	31.79072	 
745.0	1.0	0.0	7.95355	7.19995	-8.80653	15.22838	20.97973	1.18899	0.84105	171.04815	172.00024	64.0987	0.33426	 	3.996279438E9	 	1.24349E-9	 	7972.4389	31.74839	 
740.0	1.0	0.0	7.95572	7.19798	-8.83145	15.20326	20.90896	1.18716	0.84235	171.41034	172.21089	64.24155	0.33411	 	4.669120715E9	 	1.05907E-9	 	7813.90729	31.70632	 
735.0	1.0	0.0	7.95789	7.19602	-8.85631	15.17814	20.83817	1.18531	0.84366	171.77184	172.42054	64.38416	0.33396	 	5.463672829E9	 	9.0059E-10	 	7655.58463	31.66453	 
730.0	1.0	0.0	7.96006	7.19406	-8.8811	15.15302	20.76736	1.18345	0.84499	172.13264	172.62919	64.52654	0.33381	 	6.403458825E9	 	7.64606E-10	 	7497.46951	31.62303	 
725.0	1.0	0.0	7.96222	7.19211	-8.90583	15.1279	20.69653	1.18158	0.84632	172.49274	172.83683	64.66869	0.33367	 	7.516837022E9	 	6.48108E-10	 	7339.5604	31.58182	 
720.0	1.0	0.0	7.96437	7.19017	-8.93049	15.10278	20.62568	1.1797	0.84767	172.85215	173.04348	64.8106	0.33352	 	8.838054065E9	 	5.4846E-10	 	7181.85574	31.54093	 
715.0	1.0	0.0	7.96652	7.18822	-8.95508	15.07765	20.55482	1.17781	0.84903	173.21087	173.24914	64.95228	0.33337	 	1.04085E10	 	4.63361E-10	 	7024.3539	31.50037	 
710.0	1.0	0.0	7.96867	7.18629	-8.9796	15.05253	20.48393	1.17591	0.85041	173.5689	173.45381	65.09374	0.33322	 	1.2278499999999998E10	 	3.90806E-10	 	6867.05314	31.46015	 
705.0	1.0	0.0	7.97081	7.18436	-9.00406	15.0274	20.41302	1.17399	0.8518	173.92623	173.65749	65.23496	0.33308	 	1.4508899999999998E10	 	3.29047E-10	 	6709.95166	31.4203	 
700.0	1.0	0.0	7.97295	7.18243	-9.02846	15.00228	20.3421	1.17206	0.8532	174.28287	173.86018	65.37594	0.33293	 	1.7173899999999998E10	 	2.76565E-10	 	6553.04756	31.38082	 
695.0	1.0	0.0	7.97508	7.18051	-9.05279	14.97715	20.27115	1.17012	0.85461	174.63881	174.0619	65.5167	0.33278	 	2.03638E10	 	2.32044E-10	 	6396.33883	31.34174	 
690.0	1.0	0.0	7.97721	7.17859	-9.07705	14.95202	20.20018	1.16817	0.85604	174.99406	174.26263	65.65722	0.33263	 	2.4188999999999996E10	 	1.9434E-10	 	6239.82339	31.30309	 
685.0	1.0	0.0	7.97933	7.17668	-9.10124	14.92689	20.12919	1.1662	0.85749	175.34862	174.46239	65.79751	0.33249	 	2.8784399999999996E10	 	1.62466E-10	 	6083.49901	31.26488	 
680.0	1.0	0.0	7.98145	7.17478	-9.12537	14.90176	20.05817	1.16422	0.85894	175.70249	174.66118	65.93757	0.33234	 	3.4315399999999996E10	 	1.35569E-10	 	5927.36335	31.22713	 
675.0	1.0	0.0	7.98357	7.17288	-9.14943	14.87663	19.98714	1.16223	0.86041	176.05566	174.859	66.0774	0.33219	 	4.09851E10	 	1.12912E-10	 	5771.41397	31.18988	 
670.0	1.0	0.0	7.98568	7.17098	-9.17343	14.85149	19.91608	1.16023	0.8619	176.40814	175.05586	66.21699	0.33205	 	4.904329999999999E10	 	9.38615E-11	 	5615.64827	31.15314	 
665.0	1.0	0.0	7.98778	7.1691	-9.19736	14.82636	19.845	1.15821	0.8634	176.75993	175.25175	66.35635	0.3319	 	5.879839999999999E10	 	7.78742E-11	 	5460.06348	31.11696	 
660.0	1.0	0.0	7.98988	7.16721	-9.22122	14.80122	19.77389	1.15618	0.86492	177.11102	175.44668	66.49548	0.33175	 	7.0631E10	 	6.44827E-11	 	5304.66395	31.07991	 
655.0	1.0	0.0	7.99198	7.16533	-9.24501	14.77609	19.70276	1.15414	0.86645	177.46142	175.64065	66.63438	0.33161	 	8.50125E10	 	5.32871E-11	 	5149.48983	31.03482	 
650.0	1.0	0.0	7.99407	7.16346	-9.26874	14.75095	19.63161	1.15208	0.868	177.81113	175.83366	66.77304	0.33146	 	1.02528E11	 	4.39457E-11	 	4994.59443	30.97908	 
645.0	1.0	0.0	7.99615	7.16159	-9.29241	14.72581	19.56043	1.15001	0.86956	178.16015	176.02573	66.91147	0.33131	 	1.23905E11	 	3.6167E-11	 	4839.97671	30.92354	 
640.0	1.0	0.0	7.99823	7.15973	-9.316	14.70067	19.48923	1.14793	0.87114	178.50847	176.21684	67.04967	0.33117	 	1.50049E11	 	2.97026E-11	 	4685.63568	30.86821	 
635.0	1.0	0.0	8.00031	7.15787	-9.33954	14.67553	19.418	1.14583	0.87273	178.85611	176.40701	67.18764	0.33102	 	1.82094E11	 	2.43415E-11	 	4531.57034	30.81307	 
630.0	1.0	0.0	8.00238	7.15602	-9.363	14.65039	19.34674	1.14372	0.87434	179.20305	176.59624	67.32537	0.33087	 	2.21457E11	 	1.99048E-11	 	4377.77966	30.75813	 
625.0	1.0	0.0	8.00445	7.15417	-9.3864	14.62525	19.27546	1.14159	0.87597	179.5493	176.78452	67.46287	0.33073	 	2.69916E11	 	1.62408E-11	 	4224.26242	30.70345	 
620.0	1.0	0.0	8.00651	7.15233	-9.40973	14.60011	19.20415	1.13945	0.87762	179.89486	176.97186	67.60014	0.33058	 	3.29708E11	 	1.32215E-11	 	4071.01693	30.6491	 
615.0	1.0	0.0	8.00856	7.15049	-9.43299	14.57496	19.13282	1.1373	0.87928	180.23973	177.15827	67.73717	0.33043	 	4.03653E11	 	1.0739E-11	 	3918.04255	30.59488	 
610.0	1.0	0.0	8.01062	7.14866	-9.45619	14.54982	19.06145	1.13513	0.88096	180.5839	177.34375	67.87397	0.33029	 	4.95317E11	 	8.70238E-12	 	3765.3383	30.54085	 
605.0	1.0	0.0	8.01266	7.14683	-9.47932	14.52467	18.99006	1.13294	0.88266	180.92739	177.5283	68.01054	0.33014	 	6.09214E11	 	7.03534E-12	 	3612.9032	30.48702	 
600.0	1.0	0.0	8.0147	7.14501	-9.50239	14.49953	18.91864	1.13075	0.88437	181.27018	177.71191	68.14688	0.33	 	7.5108E11	 	5.674E-12	 	3460.73627	30.43339	 
595.0	1.0	0.0	8.01674	7.1432	-9.52539	14.47438	18.84718	1.12853	0.88611	181.61228	177.89461	68.28298	0.32985	 	9.28218E11	 	4.5649E-12	 	3308.83654	30.37995	 
590.0	1.0	0.0	8.01877	7.14139	-9.54832	14.44923	18.7757	1.12631	0.88786	181.95369	178.07638	68.41885	0.3297	 	1.14995E12	 	3.66348E-12	 	3157.20303	30.3267	 
585.0	1.0	0.0	8.0208	7.13958	-9.57119	14.42408	18.70419	1.12406	0.88963	182.29441	178.25723	68.55448	0.32956	 	1.42821E12	 	2.93264E-12	 	3005.83478	30.27365	 
580.0	1.0	0.0	8.02282	7.13778	-9.59399	14.39893	18.63264	1.1218	0.89142	182.63444	178.43717	68.68988	0.32941	 	1.77831E12	 	2.34156E-12	 	2854.73081	30.22079	 
575.0	1.0	0.0	8.02484	7.13599	-9.61672	14.37377	18.56107	1.11953	0.89323	182.97378	178.61619	68.82505	0.32927	 	2.21997E12	 	1.86472E-12	 	2703.89017	30.16813	 
570.0	1.0	0.0	8.02686	7.1342	-9.63939	14.34862	18.48946	1.11724	0.89506	183.31243	178.7943	68.95999	0.32912	 	2.77861E12	 	1.48103E-12	 	2553.3119	30.11565	 
565.0	1.0	0.0	8.02886	7.13241	-9.66199	14.32347	18.41782	1.11494	0.89691	183.65038	178.9715	69.09469	0.32898	 	3.48716E12	 	1.1731E-12	 	2402.99504	30.06337	 
560.0	1.0	0.0	8.03087	7.13063	-9.68452	14.29831	18.34614	1.11261	0.89878	183.98765	179.1478	69.22916	0.32883	 	4.38834E12	 	9.26637E-13	 	2252.93864	30.01128	 
555.0	1.0	0.0	8.03287	7.12886	-9.70699	14.27315	18.27443	1.11028	0.90068	184.32423	179.32319	69.36339	0.32869	 	5.53776E12	 	7.29897E-13	 	2103.14172	29.95938	 
550.0	1.0	0.0	8.03486	7.12709	-9.72939	14.248	18.20268	1.10792	0.90259	184.66012	179.49768	69.49739	0.32854	 	7.00802E12	 	5.73284E-13	 	1953.60338	29.90767	 
545.0	1.0	0.0	8.03685	7.12533	-9.75172	14.22284	18.1309	1.10555	0.90452	184.99531	179.67127	69.63116	0.32839	 	8.89419E12	 	4.48966E-13	 	1804.32264	29.85615	 
540.0	1.0	0.0	8.03883	7.12357	-9.77399	14.19768	18.05909	1.10317	0.90648	185.32982	179.84397	69.76469	0.32825	 	1.13212E13	 	3.50563E-13	 	1655.29859	29.80481	 
535.0	1.0	0.0	8.04081	7.12182	-9.79619	14.17252	17.98723	1.10076	0.90846	185.66363	180.01577	69.89799	0.3281	 	1.44534E13	 	2.72902E-13	 	1506.53027	29.75367	 
530.0	1.0	0.0	8.04278	7.12007	-9.81833	14.14736	17.91534	1.09834	0.91046	185.99676	180.18668	70.03105	0.32796	 	1.85086E13	 	2.11792E-13	 	1358.01675	29.7027	 
525.0	1.0	0.0	8.04475	7.11833	-9.8404	14.12219	17.84341	1.0959	0.91249	186.3292	180.35671	70.16388	0.32781	 	2.3775E13	 	1.63852E-13	 	1209.75711	29.65193	 
520.0	1.0	0.0	8.04672	7.11659	-9.8624	14.09703	17.77144	1.09345	0.91454	186.66094	180.52584	70.29648	0.32767	 	3.06364E13	 	1.26358E-13	 	1061.75043	29.60134	 
515.0	1.0	0.0	8.04867	7.11486	-9.88433	14.07187	17.69943	1.09098	0.91661	186.992	180.6941	70.42884	0.32752	 	3.96053E13	 	9.71275E-14	 	913.99578	29.55093	 
510.0	1.0	0.0	8.05063	7.11313	-9.9062	14.0467	17.62738	1.08849	0.91871	187.32237	180.86147	70.56097	0.32738	 	5.1368E13	 	7.44113E-14	 	766.49224	29.50071	 
505.0	1.0	0.0	8.05258	7.11141	-9.928	14.02153	17.55528	1.08598	0.92083	187.65205	181.02797	70.69286	0.32723	 	6.68472E13	 	5.68155E-14	 	619.23891	29.45067	 
500.0	1.0	0.0	8.05452	7.10969	-9.94974	13.99637	17.48315	1.08345	0.92297	187.98103	181.19359	70.82452	0.32709	 	8.72878E13	 	4.32311E-14	 	472.23487	29.40081	 
495.0	1.0	0.0	8.05646	7.10798	-9.97141	13.9712	17.41097	1.08091	0.92515	188.30933	181.35833	70.95594	0.32695	 	1.14375E14	 	3.27794E-14	 	325.47924	29.35113	 
490.0	1.0	0.0	8.05839	7.10628	-9.99301	13.94603	17.33875	1.07835	0.92735	188.63694	181.52221	71.08713	0.3268	 	1.504E14	 	2.47655E-14	 	178.9711	29.30163	 
485.0	1.0	0.0	8.06032	7.10458	-10.01455	13.92086	17.26648	1.07576	0.92957	188.96386	181.68521	71.21809	0.32666	 	1.98488E14	 	1.86426E-14	 	32.70957	29.25231	 
480.0	1.0	0.0	8.06224	7.10288	-10.03602	13.89569	17.19417	1.07316	0.93182	189.29009	181.84735	71.34881	0.32651	 	2.6291699999999997E14	 	1.39813E-14	 	-113.30625	29.20316	 
475.0	1.0	0.0	8.06416	7.10119	-10.05742	13.87051	17.12181	1.07055	0.9341	189.61564	182.00863	71.4793	0.32637	 	3.49572E14	 	1.04457E-14	 	-259.07723	29.1542	 
470.0	1.0	0.0	8.06608	7.09951	-10.07876	13.84534	17.0494	1.06791	0.93641	189.94049	182.16904	71.60955	0.32622	 	4.66571E14	 	7.77402E-15	 	-404.60424	29.1054	 
465.0	1.0	0.0	8.06798	7.09783	-10.10003	13.82016	16.97694	1.06525	0.93875	190.26466	182.3286	71.73956	0.32608	 	6.2517E14	 	5.7628E-15	 	-549.88816	29.05678	 
460.0	1.0	0.0	8.06989	7.09615	-10.12123	13.79499	16.90443	1.06257	0.94111	190.58813	182.4873	71.86935	0.32593	 	8.4103E14	 	4.25469E-15	 	-694.92986	29.00834	 
455.0	1.0	0.0	8.07179	7.09448	-10.14237	13.76981	16.83188	1.05987	0.94351	190.91092	182.64514	71.99889	0.32579	 	1.13604E15	 	3.12834E-15	 	-839.73019	28.96007	 
450.0	1.0	0.0	8.07368	7.09282	-10.16344	13.74463	16.75927	1.05716	0.94593	191.23302	182.80214	72.1282	0.32565	 	1.54093E15	 	2.29051E-15	 	-984.29001	28.91196	 
445.0	1.0	0.0	8.07557	7.09116	-10.18444	13.71946	16.6866	1.05442	0.94839	191.55443	182.95828	72.25728	0.3255	 	2.09901E15	 	1.66989E-15	 	-1128.61017	28.86403	 
440.0	1.0	0.0	8.07745	7.08951	-10.20538	13.69428	16.61388	1.05166	0.95088	191.87515	183.11358	72.38612	0.32536	 	2.87163E15	 	1.2121E-15	 	-1272.69149	28.81626	 
435.0	1.0	0.0	8.07933	7.08786	-10.22625	13.66909	16.54111	1.04888	0.9534	192.19518	183.26803	72.51472	0.32521	 	3.94606E15	 	8.75886E-16	 	-1416.53481	28.76866	 
430.0	1.0	0.0	8.0812	7.08622	-10.24705	13.64391	16.46828	1.04608	0.95595	192.51452	183.42164	72.64309	0.32507	 	5.44708E15	 	6.30045E-16	 	-1560.14096	28.72123	 
425.0	1.0	0.0	8.08307	7.08458	-10.26779	13.61873	16.39539	1.04326	0.95853	192.83318	183.57441	72.77123	0.32493	 	7.55384E15	 	4.51094E-16	 	-1703.51066	28.67394	 
420.0	1.0	0.0	8.08493	7.08295	-10.28846	13.59355	16.32245	1.04042	0.96115	193.15115	183.72634	72.89913	0.32478	 	1.0525E16	 	3.21435E-16	 	-1846.64487	28.62684	 
415.0	1.0	0.0	8.08679	7.08132	-10.30906	13.56836	16.24944	1.03755	0.96381	193.46843	183.87743	73.02679	0.32464	 	1.47356E16	 	2.2793E-16	 	-1989.54397	28.57982	 
410.0	1.0	0.0	8.08864	7.0797	-10.3296	13.54317	16.17637	1.03467	0.96649	193.78502	184.02769	73.15422	0.3245	 	2.07326E16	 	1.60823E-16	 	-2132.20816	28.53284	 
405.0	1.0	0.0	8.09049	7.07809	-10.35007	13.51799	16.10324	1.03176	0.96922	194.10092	184.17712	73.28141	0.32435	 	2.93174E16	 	1.12898E-16	 	-2274.63763	28.48589	 
400.0	1.0	0.0	8.09233	7.07647	-10.37047	13.4928	16.03004	1.02883	0.97198	194.41613	184.32573	73.40837	0.32421	 	4.1671E16	 	7.88433E-17	 	-2416.83256	28.43898	 
395.0	1.0	0.0	8.09417	7.07487	-10.39081	13.46761	15.95678	1.02588	0.97478	194.73066	184.4735	73.53509	0.32407	 	5.95425E16	 	5.47688E-17	 	-2558.79312	28.39211	 
390.0	1.0	0.0	8.096	7.07327	-10.41108	13.44242	15.88345	1.0229	0.97761	195.0445	184.62045	73.66157	0.32392	 	8.55378E16	 	3.78391E-17	 	-2700.51946	28.34527	 
385.0	1.0	0.0	8.09782	7.07167	-10.43129	13.41723	15.81005	1.0199	0.98049	195.35765	184.76658	73.78782	0.32378	 	1.2356E17	 	2.59976E-17	 	-2842.01175	28.29846	 
380.0	1.0	0.0	8.09964	7.07008	-10.45143	13.39204	15.73658	1.01688	0.9834	195.67011	184.91189	73.91383	0.32364	 	1.79492E17	 	1.77605E-17	 	-2983.27012	28.25168	 
375.0	1.0	0.0	8.10146	7.0685	-10.4715	13.36684	15.66304	1.01383	0.98636	195.98189	185.05638	74.03961	0.32349	 	2.62249E17	 	1.20628E-17	 	-3124.29472	28.20492	 
370.0	1.0	0.0	8.10327	7.06692	-10.4915	13.34165	15.58942	1.01076	0.98935	196.29297	185.20005	74.16515	0.32335	 	3.85427E17	 	8.14435E-18	 	-3265.08566	28.15819	 
365.0	1.0	0.0	8.10508	7.06535	-10.51144	13.31645	15.51573	1.00767	0.99239	196.60337	185.34292	74.29045	0.32321	 	5.69891E17	 	5.46534E-18	 	-3405.64304	28.11148	 
360.0	1.0	0.0	8.10688	7.06378	-10.53131	13.29126	15.44196	1.00455	0.99547	196.91309	185.48497	74.41552	0.32306	 	8.4786E17	 	3.64476E-18	 	-3545.96697	28.06479	 
355.0	1.0	0.0	8.10867	7.06221	-10.55111	13.26606	15.36811	1.0014	0.9986	197.22211	185.62621	74.54035	0.32292	 	1.26941E18	 	2.41517E-18	 	-3686.05752	28.01811	 
350.0	1.0	0.0	8.11046	7.06065	-10.57085	13.24086	15.29418	0.99823	1.00177	197.53045	185.76664	74.66494	0.32278	 	1.91291E18	 	1.58996E-18	 	-3825.91479	27.97145	 
345.0	1.0	0.0	8.11225	7.0591	-10.59052	13.21566	15.22016	0.99504	1.00498	197.8381	185.90627	74.7893	0.32264	 	2.90179E18	 	1.03971E-18	 	-3965.53881	27.9248	 
340.0	1.0	0.0	8.11402	7.05755	-10.61013	13.19046	15.14606	0.99182	1.00825	198.14506	186.0451	74.91342	0.32249	 	4.4319E18	 	6.75248E-19	 	-4104.92963	27.87817	 
335.0	1.0	0.0	8.1158	7.05601	-10.62967	13.16526	15.07187	0.98857	1.01156	198.45133	186.18312	75.03731	0.32235	 	6.81614E18	 	4.35471E-19	 	-4244.08731	27.83153	 
330.0	1.0	0.0	8.11757	7.05447	-10.64914	13.14006	14.9976	0.9853	1.01492	198.75692	186.32035	75.16095	0.32221	 	1.05581E19	 	2.78821E-19	 	-4383.01182	27.7849	 
325.0	1.0	0.0	8.11933	7.05294	-10.66854	13.11486	14.92323	0.982	1.01833	199.06182	186.45678	75.28436	0.32207	 	1.64745E19	 	1.77209E-19	 	-4521.7032	27.73828	 
320.0	1.0	0.0	8.12109	7.05141	-10.68788	13.08965	14.84876	0.97868	1.02179	199.36603	186.59242	75.40754	0.32192	 	2.58997E19	 	1.11778E-19	 	-4660.16141	27.69164	 
315.0	1.0	0.0	8.12284	7.04989	-10.70715	13.06445	14.7742	0.97533	1.0253	199.66956	186.72727	75.53047	0.32178	 	4.10315E19	 	6.99612E-20	 	-4798.38643	27.645	 
310.0	1.0	0.0	8.12459	7.04838	-10.72636	13.03924	14.69954	0.97195	1.02886	199.97239	186.86132	75.65317	0.32164	 	6.5519E19	 	4.3441E-20	 	-4936.3782	27.59835	 
305.0	1.0	0.0	8.12633	7.04687	-10.74549	13.01403	14.62478	0.96854	1.03248	200.27454	186.99459	75.77563	0.3215	 	1.0547099999999998E20	 	2.67543E-20	 	-5074.13665	27.55169	 
300.0	1.0	0.0	8.12807	7.04536	-10.76456	12.98882	14.54992	0.9651	1.03616	200.57601	187.12707	75.89786	0.32135	 	1.71201E20	 	1.63399E-20	 	-5211.6617	27.50501	 
295.0	1.0	0.0	8.1298	7.04386	-10.78357	12.96361	14.47494	0.96164	1.03989	200.87678	187.25877	76.01984	0.32121	 	2.8027299999999997E20	 	9.89391E-21	 	-5348.95325	27.45831	 
290.0	1.0	0.0	8.13152	7.04236	-10.80251	12.9384	14.39986	0.95815	1.04368	201.17687	187.38968	76.14159	0.32107	 	4.6286999999999993E20	 	5.93816E-21	 	-5486.01114	27.41158	 
285.0	1.0	0.0	8.13325	7.04087	-10.82138	12.91319	14.32466	0.95462	1.04753	201.47628	187.51982	76.2631	0.32093	 	7.71329E20	 	3.53181E-21	 	-5622.83525	27.36482	 
280.0	1.0	0.0	8.13496	7.03939	-10.84018	12.88798	14.24935	0.95107	1.05144	201.77499	187.64918	76.38438	0.32079	 	1.29727E21	 	2.08113E-21	 	-5759.4254	27.31803	 
275.0	1.0	0.0	8.13667	7.03791	-10.85892	12.86277	14.17392	0.94749	1.05542	202.07302	187.77776	76.50541	0.32065	 	2.2026200000000001E21	 	1.21464E-21	 	-5895.78138	27.2712	 
270.0	1.0	0.0	8.13838	7.03644	-10.87759	12.83755	14.09836	0.94388	1.05946	202.37036	187.90557	76.62621	0.3205	 	3.7764300000000003E21	 	7.0198E-22	 	-6031.90298	27.22432	 
265.0	1.0	0.0	8.14007	7.03497	-10.8962	12.81234	14.02268	0.94024	1.06356	202.66702	188.03261	76.74677	0.32036	 	6.53995E21	 	4.0162E-22	 	-6167.78995	27.17739	 
260.0	1.0	0.0	8.14177	7.0335	-10.91473	12.78712	13.94687	0.93657	1.06773	202.96299	188.15887	76.8671	0.32022	 	1.1443E22	 	2.27402E-22	 	-6303.442	27.13041	 
255.0	1.0	0.0	8.14346	7.03205	-10.9332	12.7619	13.87093	0.93286	1.07197	203.25827	188.28437	76.98718	0.32008	 	2.0235199999999998E22	 	1.2739E-22	 	-6438.85884	27.08337	 
250.0	1.0	0.0	8.14514	7.03059	-10.95161	12.73668	13.79484	0.92913	1.07628	203.55286	188.40911	77.10703	0.31994	 	3.61748E22	 	7.0584E-23	 	-6574.04014	27.03626	 
245.0	1.0	0.0	8.14682	7.02915	-10.96994	12.71146	13.71862	0.92536	1.08066	203.84677	188.53308	77.22664	0.3198	 	6.53996E22	 	3.86694E-23	 	-6708.98552	26.98908	 
240.0	1.0	0.0	8.14849	7.0277	-10.98822	12.68624	13.64225	0.92156	1.08511	204.13999	188.65629	77.34601	0.31965	 	1.19606E23	 	2.094E-23	 	-6843.69459	26.94181	 
235.0	1.0	0.0	8.15016	7.02627	-11.00642	12.66102	13.56573	0.91773	1.08965	204.43253	188.77874	77.46514	0.31951	 	2.21357E23	 	1.12043E-23	 	-6978.16692	26.89446	 
230.0	1.0	0.0	8.15182	7.02483	-11.02456	12.6358	13.48906	0.91386	1.09425	204.72437	188.90043	77.58403	0.31937	 	4.14712E23	 	5.92159E-24	 	-7112.40204	26.84702	 
225.0	1.0	0.0	8.15347	7.02341	-11.04263	12.61057	13.41223	0.90997	1.09894	205.01554	189.02136	77.70268	0.31923	 	7.868139999999999E23	 	3.09012E-24	 	-7246.39944	26.79948	 
220.0	1.0	0.0	8.15512	7.02199	-11.06063	12.58535	13.33523	0.90603	1.10371	205.30601	189.14154	77.8211	0.31909	 	1.5123E24	 	1.59158E-24	 	-7380.15858	26.75183	 
215.0	1.0	0.0	8.15677	7.02057	-11.07857	12.56012	13.25807	0.90207	1.10856	205.5958	189.26097	77.93928	0.31895	 	2.94589E24	 	8.08768E-25	 	-7513.67885	26.70405	 
210.0	1.0	0.0	8.15841	7.01916	-11.09644	12.5349	13.18073	0.89807	1.1135	205.8849	189.37965	78.05722	0.31881	 	5.8182E24	 	4.05303E-25	 	-7646.95965	26.65616	 
205.0	1.0	0.0	8.16004	7.01775	-11.11424	12.50967	13.10321	0.89403	1.11853	206.17332	189.49758	78.17492	0.31867	 	1.1655800000000002E25	 	2.00221E-25	 	-7780.00028	26.60813	 
200.0	1.0	0.0	8.16167	7.01635	-11.13198	12.48444	13.02551	0.88996	1.12365	206.46105	189.61476	78.29238	0.31853	 	2.3695900000000003E25	 	9.74567E-26	 	-7912.80001	26.55995	 
195.0	1.0	0.0	8.16329	7.01496	-11.14965	12.45921	12.94761	0.88585	1.12886	206.74809	189.7312	78.4096	0.31839	 	4.8908800000000005E25	 	4.67181E-26	 	-8045.35808	26.51161	 
190.0	1.0	0.0	8.16491	7.01357	-11.16725	12.43398	12.86952	0.88171	1.13416	207.03445	189.8469	78.52658	0.31824	 	1.0254E26	 	2.20452E-26	 	-8177.67365	26.46311	 
185.0	1.0	0.0	8.16652	7.01218	-11.18479	12.40875	12.79122	0.87753	1.13956	207.32012	189.96185	78.64332	0.3181	 	2.1848500000000003E26	 	1.02347E-26	 	-8309.74582	26.41443	 
180.0	1.0	0.0	8.16813	7.0108	-11.20225	12.38351	12.71271	0.87331	1.14506	207.6051	190.07607	78.75983	0.31796	 	4.7336600000000006E26	 	4.67231E-27	 	-8441.57365	26.36557	 
175.0	1.0	0.0	8.16973	7.00943	-11.21966	12.35828	12.63398	0.86906	1.15067	207.8894	190.18955	78.87609	0.31782	 	1.04343E27	 	2.09626E-27	 	-8573.15612	26.31649	 
170.0	1.0	0.0	8.17133	7.00806	-11.23699	12.33305	12.55503	0.86477	1.15638	208.17301	190.30229	78.99212	0.31768	 	2.3414199999999999E27	 	9.23758E-28	 	-8704.49216	26.26721	 
165.0	1.0	0.0	8.17292	7.0067	-11.25426	12.30781	12.47584	0.86044	1.1622	208.45593	190.4143	79.1079	0.31754	 	5.351859999999999E27	 	3.99581E-28	 	-8835.58062	26.21769	 
160.0	1.0	0.0	8.1745	7.00534	-11.27146	12.28257	12.39641	0.85607	1.16813	208.73817	190.52558	79.22345	0.3174	 	1.24686E28	 	1.69553E-28	 	-8966.42026	26.16793	 
155.0	1.0	0.0	8.17608	7.00399	-11.2886	12.25733	12.31673	0.85166	1.17418	209.01972	190.63613	79.33875	0.31726	 	2.96287E28	 	7.05294E-29	 	-9097.00978	26.11791	 
150.0	1.0	0.0	8.17765	7.00264	-11.30567	12.2321	12.2368	0.84721	1.18034	209.30059	190.74595	79.45382	0.31712	 	7.1860300000000005E28	 	2.87404E-29	 	-9227.3478	26.0676	 
145.0	1.0	0.0	8.17922	7.0013	-11.32267	12.20686	12.15659	0.84273	1.18662	209.58077	190.85504	79.56865	0.31698	 	1.78019E29	 	1.14644E-29	 	-9357.43282	26.01701	 
140.0	1.0	0.0	8.18078	6.99996	-11.3396	12.18161	12.0761	0.8382	1.19303	209.86026	190.96342	79.68323	0.31684	 	4.50798E29	 	4.47314E-30	 	-9487.2633	25.9661	 
135.0	1.0	0.0	8.18234	6.99863	-11.35647	12.15637	11.99532	0.83363	1.19957	210.13907	191.07106	79.79758	0.3167	 	1.16784E30	 	1.70578E-30	 	-9616.83756	25.91485	 
130.0	1.0	0.0	8.18389	6.9973	-11.37327	12.13113	11.91424	0.82902	1.20624	210.41719	191.17799	79.91169	0.31656	 	3.09769E30	 	6.35208E-31	 	-9746.1538	25.86325	 
125.0	1.0	0.0	8.18544	6.99598	-11.39001	12.10589	11.83285	0.82437	1.21304	210.69463	191.2842	80.02555	0.31642	 	8.420409999999999E30	 	2.30781E-31	 	-9875.21015	25.81127	 
120.0	1.0	0.0	8.18698	6.99466	-11.40668	12.08064	11.75114	0.81968	1.21999	210.97138	191.38969	80.13918	0.31628	 	2.34788E31	 	8.17277E-32	 	-10004.00459	25.75889	 
115.0	1.0	0.0	8.18851	6.99335	-11.42328	12.05539	11.66909	0.81495	1.22708	211.24744	191.49446	80.25256	0.31614	 	6.72189E31	 	2.81835E-32	 	-10132.53499	25.70608	 
110.0	1.0	0.0	8.19004	6.99205	-11.43981	12.03015	11.58669	0.81017	1.23431	211.52282	191.59853	80.36571	0.316	 	1.97802E32	 	9.45422E-33	 	-10260.79908	25.65282	 
105.0	1.0	0.0	8.19156	6.99075	-11.45628	12.0049	11.50392	0.80535	1.2417	211.79751	191.70188	80.47861	0.31586	 	5.9891299999999995E32	 	3.08168E-33	 	-10388.79443	25.59907	 
100.0	1.0	0.0	8.19308	6.98945	-11.47268	11.97965	11.42077	0.80049	1.24924	212.07152	191.80452	80.59128	0.31572	 	1.86806E33	 	9.74942E-34	 	-10516.51847	25.54481	 
95.0	1.0	0.0	8.19459	6.98816	-11.48901	11.9544	11.33723	0.79558	1.25694	212.34484	191.90645	80.7037	0.31558	 	6.0095E33	 	2.99001E-34	 	-10643.96847	25.49	 
90.0	1.0	0.0	8.1961	6.98688	-11.50528	11.92915	11.25327	0.79063	1.26481	212.61747	192.00767	80.81588	0.31544	 	1.9964500000000002E34	 	8.87798E-35	 	-10771.1415	25.43461	 
85.0	1.0	0.0	8.1976	6.9856	-11.52148	11.9039	11.16889	0.78564	1.27285	212.88942	192.10819	80.92782	0.3153	 	6.858640000000001E34	 	2.54867E-35	 	-10898.03449	25.3786	 
80.0	1.0	0.0	8.1991	6.98433	-11.53761	11.87864	11.08405	0.7806	1.28107	213.16068	192.208	81.03952	0.31516	 	2.44002E35	 	7.06402E-36	 	-11024.6441	25.32192	 
75.0	1.0	0.0	8.20059	6.98306	-11.55367	11.85339	10.99874	0.77551	1.28947	213.43125	192.30712	81.15098	0.31503	 	9.00288E35	 	1.88743E-36	 	-11150.96684	25.26455	 
70.0	1.0	0.0	8.20207	6.98179	-11.56967	11.82813	10.91294	0.77039	1.29805	213.70114	192.40553	81.2622	0.31489	 	3.45058E36	 	4.85377E-37	 	-11276.99895	25.20642	 
65.0	1.0	0.0	8.20355	6.98054	-11.58561	11.80288	10.82663	0.76521	1.30683	213.97035	192.50325	81.37318	0.31475	 	1.3761299999999999E37	 	1.19933E-37	 	-11402.73642	25.1475	 
60.0	1.0	0.0	8.20502	6.97928	-11.60147	11.77762	10.73978	0.75999	1.3158	214.23887	192.60027	81.48391	0.31461	 	5.720799999999999E37	 	2.8423E-38	 	-11528.175	25.08772	 
55.0	1.0	0.0	8.20649	6.97804	-11.61727	11.75236	10.65237	0.75473	1.32498	214.5067	192.69659	81.59441	0.31447	 	2.48378E38	 	6.44831E-39	 	-11653.31013	25.02703	 
50.0	1.0	0.0	8.20795	6.9768	-11.633	11.7271	10.56437	0.74942	1.33436	214.77384	192.79222	81.70466	0.31433	 	1.1285E39	 	1.39762E-39	 	-11778.13695	24.96536	 
45.0	1.0	0.0	8.2094	6.97556	-11.64867	11.70184	10.47575	0.74407	1.34396	215.0403	192.88716	81.81467	0.31419	 	5.37717E39	 	2.88778E-40	 	-11902.65027	24.90266	 
40.0	1.0	0.0	8.21085	6.97433	-11.66426	11.67658	10.38647	0.73867	1.35378	215.30608	192.98141	81.92444	0.31405	 	2.69314E40	 	5.6752E-41	 	-12026.84452	24.83885	 
35.0	1.0	0.0	8.2123	6.9731	-11.67979	11.65131	10.29652	0.73323	1.36384	215.57117	193.07497	82.03396	0.31391	 	1.4212500000000002E41	 	1.05823E-41	 	-12150.71377	24.77385	 
30.0	1.0	0.0	8.21373	6.97188	-11.69526	11.62606	10.20584	0.72774	1.37412	215.83557	193.16785	82.14325	0.31378	 	7.92338E41	 	1.86739E-42	 	-12274.25165	24.70757	 
25.0	1.0	0.0	8.21517	6.97066	-11.71065	 	10.11441	0.7222	1.38465	216.09929	193.26004	82.25229	0.31364	 	4.6792999999999995E42	 	3.10986E-43	 	-12397.45134	 	 
