T (C)	Fraction solid (wt)-TOTAL	Fraction liquid (wt)-LIQUID	Density (g/(cm)^3)-TOTAL	Molar volume (cm^3)-TOTAL	Volume change (%)-  	Average expansion coeff. (10e-6 1/K)-  	Thermal conductivity (W/(m*K))-TOTAL	Electrical resistivity (10e-6 Ohm*m)-TOTAL	Electrical conductivity (10e6 1/(Ohm*m))-TOTAL	Young's modulus (GPa)-TOTAL	Bulk modulus (GPa)-TOTAL	Shear modulus(GPa)-TOTAL	Poisson's ratio-TOTAL	Liquid viscosity (mPa s)-  	Total viscosity (mPa s)-  	Liquid diffusivity (10e-9 (m^2)/s)-  	Total diffusivity (10e-9 (m^2)/s)-  	Surface Tension (mN/m)-  	Enthalpy (J/mole)-TOTAL	Specific heat (J/(mole K))-TOTAL	Latent heat (J/mole)-TOTAL
1400.0	0.0	1.0	7.58429	7.84706	0.0	26.66895	28.28055	1.44948	0.6899	0.0	124.13908	0.0	0.5	8.66414	8.66414	0.94253	0.94253	1818.87014	55911.22	 	0.0
1395.0	0.0	1.0	7.58824	7.84298	-0.0520186	26.62579	28.20136	1.44921	0.69003	0.0	124.30261	0.0	0.5	8.75863	8.75863	0.92958	0.92958	1821.74352	55704.623	41.3194	0.0
1390.0	0.0	1.0	7.59218	7.83891	-0.10388	26.58274	28.12216	1.44893	0.69016	0.0	124.46615	0.0	0.5	8.85472	8.85472	0.91673	0.91673	1824.63075	55498.524	41.2198	0.0
1385.0	0.0	1.0	7.59611	7.83485	-0.15559	26.53979	28.04297	1.44866	0.69029	0.0	124.62968	0.0	0.5	8.95245	8.95245	0.904	0.904	1827.53177	55292.918	41.1212	0.0
1380.0	0.0	1.0	7.60003	7.83081	-0.20714	26.49695	27.96377	1.44838	0.69043	0.0	124.79321	0.0	0.5	9.05187	9.05187	0.89138	0.89138	1830.44651	55087.804	41.0228	0.0
1375.0	0.0	1.0	7.60395	7.82678	-0.25854	26.45421	27.88458	1.4481	0.69056	0.0	124.95674	0.0	0.5	9.153	9.153	0.87886	0.87886	1833.37491	54883.178	40.9252	0.0
1370.0	0.0	1.0	7.60786	7.82275	-0.30979	26.41159	27.80538	1.44782	0.69069	0.0	125.12027	0.0	0.5	9.25589	9.25589	0.86645	0.86645	1836.3169	54679.038	40.828	0.0
1365.0	0.0	1.0	7.61176	7.81875	-0.36088	26.36907	27.72619	1.44754	0.69083	0.0	125.2838	0.0	0.5	9.36057	9.36057	0.85416	0.85416	1839.27243	54475.379	40.7318	0.0
1360.0	0.0	1.0	7.61565	7.81475	-0.41181	26.32666	27.64699	1.44725	0.69096	0.0	125.44733	0.0	0.5	9.46709	9.46709	0.84197	0.84197	1842.24141	54272.201	40.6356	0.0
1355.0	0.0	1.0	7.61954	7.81076	-0.46259	26.28437	27.5678	1.44697	0.6911	0.0	125.61086	0.0	0.5	9.57548	9.57548	0.82989	0.82989	1845.2238	54069.498	40.5406	0.0
1350.0	0.0	1.0	7.62341	7.80679	-0.51321	26.24219	27.4886	1.44668	0.69124	0.0	125.77439	0.0	0.5	9.6858	9.6858	0.81792	0.81792	1848.21955	53867.269	40.4458	0.0
1345.17	0.0	1.0	7.62715	7.80296	-0.56198	26.20154	27.41208	1.4464	0.69137	0.0	125.93241	0.0	0.5	9.79426	9.79426	0.80645	0.80645	1851.12689	53672.316	40.35158	0.0
1345.0	0.0023	0.9977	7.62767	7.80254	-0.56745	26.18957	27.41814	1.44593	0.6916	2.90127E-9	125.94495	9.67294E-10	0.49968	9.7993	9.83014	0.80595	0.80343	1851.1696	53633.267	231.55242	32.242
1340.0	0.0674404	0.93256	7.64245	7.78735	-0.76092	25.74476	27.58247	1.43287	0.6979	0.00216319	126.26375	7.25652E-4	0.49052	9.94961	11.90974	0.79133	0.66109	1852.45949	52520.926	222.4682	943.292
1335.0	0.12563	0.87437	7.65593	7.77364	-0.93571	25.34936	27.72287	1.4212	0.70363	0.0262738	126.58284	0.0088626	0.48229	10.10259	24.9043	0.77693	0.31517	1853.77935	51509.365	202.3122	1754.028
1330.0	0.17787	0.82213	7.66833	7.76107	-1.09581	24.99254	27.84297	1.41067	0.70888	0.10649	126.90165	0.0361011	0.47486	10.25835	68.4054	0.76275	0.11439	1855.12876	50583.77	185.119	2479.262
1325.0	0.22504	0.77496	7.67978	7.74948	-1.24361	24.66801	27.94557	1.40111	0.71372	0.27494	127.21916	0.0936372	0.46811	10.41701	165.19844	0.74879	0.047217	1856.50678	49732.016	170.3508	3131.112
1320.0	0.2678	0.7322	7.69041	7.73878	-1.37994	24.37372	28.03328	1.39235	0.71821	0.55538	127.537	0.18994	0.46196	10.5786	338.02537	0.73505	0.0230035	1857.91206	48944.095	157.5842	3719.587
1315.0	0.30674	0.69326	7.70032	7.72872	-1.50813	24.10052	28.10784	1.3843	0.72239	0.96269	127.85276	0.33052	0.45632	10.74323	608.63888	0.72151	0.0127356	1859.34448	48211.681	146.4828	4253.009
1310.0	0.34235	0.65765	7.70962	7.7194	-1.62689	23.85234	28.17116	1.37684	0.7263	1.5034	128.1697	0.518	0.45115	10.91105	997.40206	0.70818	0.00774709	1860.80168	47527.797	136.7768	4738.351
1305.0	0.37501	0.62499	7.71834	7.71067	-1.73818	23.62381	28.22427	1.36991	0.72998	2.17833	128.48627	0.75303	0.44638	11.08215	1523.91675	0.69504	0.00505445	1862.28302	46886.559	128.2476	5181.498
1300.0	0.40509	0.59491	7.72659	7.70241	-1.84344	23.41099	28.26863	1.36343	0.73345	2.98394	128.8024	1.03468	0.44197	11.25652	2207.34439	0.68211	0.00347846	1863.78773	46282.972	120.7174	5587.44
1295.0	0.43287	0.56713	7.73441	7.69457	-1.94336	23.21206	28.30482	1.35735	0.73673	3.91357	129.11781	1.3609	0.43787	11.43443	3066.7214	0.66936	0.00249574	1865.31469	45712.771	114.0402	5960.44
1290.0	0.45862	0.54138	7.74184	7.68713	-2.03819	23.02644	28.33375	1.35164	0.73984	4.95868	129.43277	1.72891	0.43405	11.61589	4121.55806	0.6568	0.00185108	1866.8625	45172.298	108.0946	6304.152
1285.0	0.48254	0.51746	7.74892	7.68001	-2.12893	22.85134	28.35616	1.34626	0.7428	6.10965	129.74687	2.13552	0.43048	11.80099	5392.04092	0.64443	0.0014104	1868.43034	44658.395	102.7806	6621.733
1280.0	0.50482	0.49518	7.7557	7.67325	-2.21504	22.6885	28.37267	1.34116	0.74563	7.35714	130.06151	2.57757	0.42714	11.98995	6900.51641	0.63224	0.00109855	1870.01613	44168.326	98.0138	6915.917
1275.0	0.52563	0.47437	7.76218	7.66675	-2.29785	22.53415	28.38365	1.33632	0.74832	8.69115	130.37535	3.05164	0.42401	12.18278	8670.0138	0.62023	8.71525E-4	1871.61936	43699.708	93.7236	7189.082
1270.0	0.5451	0.4549	7.76842	7.66051	-2.37736	22.38834	28.38977	1.33172	0.75091	10.10291	130.68886	3.5547	0.42106	12.37964	10726.85065	0.6084	7.02138E-4	1873.23837	43250.459	89.8498	7443.31
1265.0	0.56338	0.43662	7.77444	7.65446	-2.45447	22.24854	28.39127	1.32733	0.75339	11.58313	131.00131	4.08352	0.41828	12.58065	13098.37059	0.59674	5.7315E-4	1874.87241	42818.749	86.342	7680.427
1260.0	0.58056	0.41944	7.78023	7.6487	-2.52781	22.11888	28.38862	1.32314	0.75578	13.12312	131.31456	4.635	0.41566	12.78591	15815.81721	0.58525	4.73129E-4	1876.51836	42402.968	83.1562	7902.042
1255.0	0.59675	0.40325	7.78585	7.64305	-2.59986	21.99206	28.3821	1.31913	0.75808	14.7172	131.62607	5.20718	0.41316	12.99563	18914.40093	0.57393	3.9433E-4	1878.17696	42001.689	80.2558	8109.578
1250.0	0.61203	0.38797	7.79129	7.6376	-2.66939	21.87182	28.37193	1.31529	0.76029	16.35683	131.93732	5.797	0.4108	13.20989	22430.90136	0.56277	3.31423E-4	1879.84516	41613.649	77.608	8304.297
1245.0	0.62648	0.37352	7.79657	7.63232	-2.73665	21.75746	28.3584	1.31159	0.76243	18.03564	132.24829	6.40217	0.40856	13.42887	26407.06986	0.55177	2.80596E-4	1881.5213	41237.72	75.1858	8487.324
1240.0	0.64018	0.35982	7.8017	7.6272	-2.8019	21.64831	28.34195	1.30803	0.76451	19.75022	132.55922	7.02145	0.40642	13.65265	30892.81171	0.54094	2.39062E-4	1883.20351	40872.896	72.9648	8659.663
1235.0	0.65317	0.34683	7.80671	7.62215	-2.86618	21.54118	28.32256	1.3046	0.76652	21.4948	132.86851	7.65279	0.40438	13.88143	35937.89876	0.53027	2.04823E-4	1884.89117	40518.275	70.9242	8822.213
1230.0	0.66554	0.33446	7.81159	7.61728	-2.92833	21.43975	28.30052	1.30129	0.76847	23.26418	133.17803	8.29425	0.40243	14.11538	41600.53698	0.51975	1.76356E-4	1886.58045	40173.047	69.0456	8975.783
1225.0	0.67731	0.32269	7.81636	7.61251	-2.98913	21.34161	28.27608	1.29808	0.77037	25.05624	133.48693	8.94508	0.40056	14.35459	47947.32797	0.50939	1.52503E-4	1888.26996	39836.481	67.3132	9121.1
1220.0	0.68854	0.31146	7.82103	7.60783	-3.04865	21.24663	28.24933	1.29498	0.77222	26.86825	133.79526	9.60425	0.39877	14.59934	55051.67823	0.49918	1.32379E-4	1889.95724	39507.916	65.713	9258.824
1215.0	0.69927	0.30073	7.82559	7.60324	-3.10723	21.15373	28.22034	1.29196	0.77402	28.69579	134.10251	10.27016	0.39705	14.8498	62990.0438	0.48912	1.15309E-4	1891.64027	39186.754	64.2324	9389.551
1210.0	0.70955	0.29045	7.83008	7.59875	-3.16443	21.06441	28.18941	1.28904	0.77577	30.53763	134.40969	10.94232	0.39539	15.10605	71855.7513	0.4792	1.00742E-4	1893.31528	38872.449	62.861	9513.823
1205.0	0.7194	0.2806	7.83448	7.59436	-3.22032	20.9784	28.15657	1.28619	0.77749	32.39084	134.71652	11.61964	0.3938	15.36841	81746.84324	0.46944	8.8254E-5	1894.97923	38564.507	61.5884	9632.134
1200.0	0.72887	0.27113	7.83881	7.59002	-3.27567	20.89337	28.12213	1.28341	0.77918	34.25804	135.02255	12.30306	0.39226	15.63692	92783.84813	0.45981	7.74928E-5	1896.62994	38262.472	60.407	9744.937
1195.0	0.73796	0.26204	7.84307	7.58575	-3.33006	20.81066	28.08596	1.2807	0.78082	36.1337	135.32802	12.99056	0.39077	15.91195	105082.7844	0.45033	6.81908E-5	1898.26315	37965.93	59.3084	9852.642
1190.0	0.74673	0.25327	7.84726	7.58155	-3.38362	20.72987	28.04829	1.27805	0.78244	38.01948	135.63292	13.6827	0.38933	16.19369	118790.6686	0.44099	6.01164E-5	1899.87502	37674.5	58.286	9955.631
1185.0	0.75518	0.24482	7.8514	7.57741	-3.4364	20.65088	28.00925	1.27546	0.78403	39.91592	135.93752	14.37968	0.38793	16.48237	134068.9022	0.43179	5.30837E-5	1901.46128	37387.831	57.3338	10054.251
1180.0	0.76336	0.23664	7.85549	7.57333	-3.48834	20.57389	27.96879	1.27293	0.78559	41.81966	136.24137	15.08024	0.38657	16.77854	151084.6171	0.42271	4.69437E-5	1903.01727	37105.599	56.4464	10148.825
1175.0	0.77128	0.22872	7.85953	7.56928	-3.53992	20.49737	27.9272	1.27043	0.78713	43.73553	136.54478	15.78616	0.38525	17.08187	170050.5275	0.41378	4.15645E-5	1904.53885	36827.506	55.6186	10239.646
1170.0	0.77895	0.22105	7.86352	7.5653	-3.59072	20.42274	27.88445	1.26799	0.78865	45.65829	136.84809	16.49546	0.38396	17.39266	191171.3784	0.40498	3.68447E-5	1906.01989	36553.279	54.8454	10326.99
1165.0	0.7864	0.2136	7.86747	7.56136	-3.64091	20.34941	27.84066	1.26558	0.79015	47.59362	137.15086	17.21026	0.38271	17.71175	214717.4593	0.3963	3.26906E-5	1907.45471	36282.661	54.1236	10411.107
1160.0	0.79366	0.20634	7.87139	7.55744	-3.69087	20.2762	27.79583	1.26322	0.79163	49.54118	137.45276	17.93043	0.38148	18.03925	240963.5891	0.38776	2.90287E-5	1908.8383	36015.422	53.4478	10492.229
1155.29	0.80031	0.19969	7.87505	7.5538	-3.73721	20.20895	27.75276	1.26102	0.79301	51.38254	137.73714	18.61206	0.38036	18.35538	268412.9056	0.37983	2.59744E-5	1910.0885	35766.718	 	10566.01
1155.0	0.80199	0.19801	7.87563	7.55325	-3.74425	20.19113	27.75732	1.26056	0.7933	51.68319	137.76338	18.72441	0.3801	18.3676	271807.0578	0.3795	2.56448E-5	1909.80967	35733.681	56.3482	10588.231
1150.0	0.83142	0.16858	7.8859	7.5432	-3.87238	19.85945	27.83951	1.25243	0.79844	57.2391	138.22094	20.80475	0.37563	18.58464	337677.9486	0.37375	2.057E-5	1905.11449	35164.822	113.7718	10971.73
1145.0	0.85747	0.14253	7.89536	7.534	-3.98959	19.5609	27.90302	1.24519	0.80309	62.64365	138.66481	22.83523	0.37164	18.81588	411734.8912	0.36786	1.68109E-5	1900.39919	34646.475	103.6694	11305.094
1140.0	0.88034	0.11966	7.90403	7.52561	-4.09653	19.29372	27.94867	1.23878	0.80725	67.94791	139.09383	24.83246	0.36813	19.06256	493902.5555	0.36182	1.39648E-5	1895.70182	34174.751	94.3448	11592.209
1135.0	0.90023	0.0997732	7.91193	7.51798	-4.19372	19.05667	27.97762	1.23312	0.81095	73.31252	139.50764	26.85359	0.36504	19.3253	584052.7424	0.35564	1.17675E-5	1891.0904	33745.594	85.8314	11837.128
1130.0	0.91738	0.0826237	7.91911	7.51108	-4.28161	18.84862	27.9911	1.22815	0.81424	78.97859	139.90608	28.98606	0.36235	19.60579	682065.5919	0.34931	1.00407E-5	1886.64755	33354.779	78.163	12044.075
1125.0	0.93203	0.067966	7.92561	7.50486	-4.3609	18.66756	27.99064	1.22379	0.81713	85.15277	140.28982	31.30544	0.36003	19.90402	787926.6596	0.34285	8.66073E-6	1882.45433	32997.939	71.368	12217.416
1120.0	0.94447	0.0555285	7.93149	7.49926	-4.43227	18.51167	27.97782	1.21997	0.81969	91.82085	140.65992	33.80657	0.35803	20.22091	901809.399	0.33627	7.53997E-6	1878.57569	32670.687	65.4504	12361.535
1115.11	0.95474	0.0452641	7.93671	7.49432	-4.49526	18.38087	27.95482	1.21669	0.8219	98.48361	141.00942	36.30451	0.35635	20.54876	1021197.054	0.32974	6.63512E-6	1875.12969	32375.466	 	12478.092
1115.0	0.95511	0.0448895	7.93687	7.49416	-4.49727	18.37594	27.95479	1.2166	0.82197	98.74117	141.01927	36.40107	0.35629	20.55378	1024705.432	0.32963	6.61187E-6	1874.98605	32366.68	60.8014	12482.774
1110.88	0.96937	0.0306265	7.94288	7.48834	-4.57144	18.19298	27.95663	1.2129	0.82447	109.07521	141.38522	40.27807	0.35403	20.74849	1164560.192	0.32557	5.80055E-6	1870.19535	32041.979	 	12657.044
1110.0	0.97195	0.0280513	7.94406	7.48722	-4.58567	18.15914	27.95459	1.21222	0.82493	110.84829	141.45968	40.94528	0.35361	20.78434	1194357.376	0.3248	5.65225E-6	1869.03612	31977.311	77.8738	12689.737
1105.0	0.98565	0.0143533	7.95047	7.48113	-4.66337	17.97701	27.94139	1.20841	0.82753	119.88787	141.8714	44.35674	0.35141	21.01141	1374194.821	0.32013	4.8948E-6	1863.43055	31626.718	70.1186	12858.285
1100.0	0.99533	0.00466648	7.95574	7.47609	-4.72761	17.83953	27.91082	1.20535	0.82964	125.68217	142.24421	46.55637	0.34978	21.26433	1556589.174	0.31518	4.30557E-6	1858.75398	31330.543	59.235	12972.775
1096.66	1.0	0.0	7.95876	7.47319	-4.76451	17.7678	27.88207	1.20365	0.83081	129.11082	142.47643	47.8554	0.34897	 	1680236.542	 	3.97901E-6	 	31155.933	 	13026.099
1095.0	1.0	0.0	7.95954	7.47247	-4.77368	17.7636	27.8557	1.20333	0.83103	129.24519	142.56959	47.90727	0.34891	 	1729449.762	 	3.86111E-6	 	31040.89695	57.92921	 
1090.0	1.0	0.0	7.96193	7.47023	-4.80227	17.74766	27.77592	1.20238	0.83168	129.64936	142.84648	48.06346	0.34873	 	1887544.766	 	3.52479E-6	 	30872.98792	33.58181	 
1085.0	1.0	0.0	7.96432	7.46799	-4.83081	17.73174	27.69614	1.20142	0.83235	130.05295	143.12209	48.21946	0.34855	 	2061419.043	 	3.21565E-6	 	30705.34471	33.52864	 
1080.0	1.0	0.0	7.9667	7.46575	-4.85931	17.71584	27.61636	1.20045	0.83302	130.45596	143.39644	48.37529	0.34837	 	2252776.572	 	2.93167E-6	 	30537.96686	33.47557	 
1075.0	1.0	0.0	7.96909	7.46352	-4.88775	17.69996	27.53657	1.19948	0.83369	130.85837	143.66953	48.53095	0.3482	 	2463519.019	 	2.67097E-6	 	30370.85393	33.42259	 
1070.0	1.0	0.0	7.97147	7.46129	-4.91615	17.68411	27.45678	1.19851	0.83437	131.2602	143.94135	48.68642	0.34802	 	2695770.228	 	2.4318E-6	 	30204.00547	33.36969	 
1065.0	1.0	0.0	7.97384	7.45907	-4.9445	17.66828	27.37699	1.19753	0.83505	131.66144	144.21191	48.84172	0.34784	 	2951903.946	 	2.21253E-6	 	30037.42104	33.31689	 
1060.0	1.0	0.0	7.97622	7.45685	-4.97279	17.65247	27.2972	1.19654	0.83574	132.06209	144.48122	48.99683	0.34766	 	3234575.146	 	2.01163E-6	 	29871.10017	33.26417	 
1055.0	1.0	0.0	7.97859	7.45463	-5.00104	17.63669	27.2174	1.19555	0.83644	132.46215	144.74929	49.15177	0.34748	 	3546755.942	 	1.82769E-6	 	29705.04243	33.21155	 
1050.0	1.0	0.0	7.98096	7.45242	-5.02924	17.62093	27.1376	1.19455	0.83714	132.86163	145.01611	49.30653	0.3473	 	3891775.503	 	1.65939E-6	 	29539.24734	33.15902	 
1045.0	1.0	0.0	7.98333	7.45021	-5.05739	17.6052	27.0578	1.19354	0.83784	133.26051	145.28168	49.46111	0.34712	 	4273366.099	 	1.5055E-6	 	29373.71448	33.10657	 
1040.0	1.0	0.0	7.98569	7.448	-5.08549	17.58949	26.97799	1.19253	0.83855	133.6588	145.54602	49.61552	0.34695	 	4695715.44	 	1.3649E-6	 	29208.44338	33.05422	 
1035.0	1.0	0.0	7.98805	7.4458	-5.11354	17.5738	26.89818	1.19152	0.83927	134.0565	145.80913	49.76974	0.34677	 	5163525.784	 	1.23651E-6	 	29043.43362	33.00195	 
1030.0	1.0	0.0	7.99041	7.4436	-5.14154	17.55815	26.81837	1.1905	0.83999	134.4536	146.07101	49.92378	0.34659	 	5682080.954	 	1.11937E-6	 	28878.68471	32.94978	 
1025.0	1.0	0.0	7.99276	7.44141	-5.16949	17.54252	26.73855	1.18947	0.84071	134.85012	146.33166	50.07764	0.34641	 	6257323.956	 	1.01257E-6	 	28714.19623	32.8977	 
1020.0	1.0	0.0	7.99512	7.43922	-5.1974	17.52691	26.65873	1.18844	0.84144	135.24604	146.59109	50.23132	0.34623	 	6895944.107	 	9.15255E-7	 	28549.96772	32.8457	 
1015.0	1.0	0.0	7.99747	7.43704	-5.22525	17.51133	26.5789	1.1874	0.84218	135.64137	146.8493	50.38482	0.34605	 	7605477.166	 	8.2666E-7	 	28385.99872	32.7938	 
1010.0	1.0	0.0	7.99981	7.43485	-5.25305	17.49579	26.49908	1.18635	0.84292	136.0361	147.1063	50.53814	0.34588	 	8394419.564	 	7.46059E-7	 	28222.2888	32.74198	 
1005.0	1.0	0.0	8.00216	7.43268	-5.2808	17.48027	26.41924	1.1853	0.84367	136.43024	147.36209	50.69128	0.3457	 	9272359.012	 	6.72788E-7	 	28058.83749	32.69026	 
1003.05	1.0	0.0	8.00307	7.43183	-5.29163	17.47422	26.38805	1.18489	0.84396	136.5841	147.46173	50.75108	0.34563	 	9641923.225	 	6.46012E-7	 	27995.0324	 	 
1000.0	1.0	0.0	8.00449	7.43051	-5.30846	17.46495	26.33941	1.18424	0.84442	136.82395	147.61695	50.8443	0.34552	 	1.025025404E7	 	6.06222E-7	 	27895.55312	32.65687	 
995.0	1.0	0.0	8.00683	7.42834	-5.33605	17.44973	26.25958	1.18317	0.84518	137.21714	147.87073	50.99716	0.34534	 	1.134030877E7	 	5.45799E-7	 	27732.48061	32.6145	 
990.0	1.0	0.0	8.00916	7.42618	-5.3636	17.43453	26.17975	1.1821	0.84595	137.60973	148.12328	51.14983	0.34516	 	1.255631116E7	 	4.90998E-7	 	27569.67451	32.56122	 
985.0	1.0	0.0	8.01149	7.42402	-5.3911	17.41935	26.09991	1.18103	0.84672	138.0017	148.37462	51.30232	0.34499	 	1.39139467E7	 	4.41335E-7	 	27407.13385	32.50813	 
980.0	1.0	0.0	8.01381	7.42187	-5.41855	17.40419	26.02007	1.17994	0.8475	138.39306	148.62474	51.45462	0.34481	 	1.543099447E7	 	3.96366E-7	 	27244.85764	32.45524	 
975.0	1.0	0.0	8.01613	7.41972	-5.44596	17.38904	25.94022	1.17885	0.84828	138.78381	148.87365	51.60673	0.34463	 	1.712762422E7	 	3.55677E-7	 	27082.84495	32.40254	 
970.0	1.0	0.0	8.01845	7.41757	-5.47332	17.37392	25.86037	1.17776	0.84907	139.17395	149.12136	51.75865	0.34445	 	1.902673727E7	 	3.18894E-7	 	26921.09489	32.35001	 
965.0	1.0	0.0	8.02077	7.41543	-5.50063	17.35882	25.78051	1.17665	0.84987	139.56348	149.36786	51.91039	0.34427	 	2.115436253E7	 	2.85667E-7	 	26759.60655	32.29767	 
960.0	1.0	0.0	8.02309	7.41329	-5.5279	17.34374	25.70065	1.17554	0.85067	139.95241	149.61317	52.06194	0.3441	 	2.354011065E7	 	2.55678E-7	 	26598.37907	32.24549	 
955.0	1.0	0.0	8.0254	7.41115	-5.55512	17.32869	25.62078	1.17442	0.85148	140.34072	149.85729	52.2133	0.34392	 	2.621769875E7	 	2.28635E-7	 	26437.41161	32.19349	 
950.0	1.0	0.0	8.02771	7.40902	-5.58229	17.31366	25.54091	1.1733	0.8523	140.72842	150.10022	52.36447	0.34374	 	2.922555754E7	 	2.0427E-7	 	26276.70334	32.14165	 
945.0	1.0	0.0	8.03002	7.40689	-5.60942	17.29866	25.46103	1.17217	0.85312	141.11551	150.34198	52.51546	0.34356	 	3.260753174E7	 	1.82335E-7	 	26116.25347	32.08998	 
940.0	1.0	0.0	8.03232	7.40476	-5.6365	17.28369	25.38115	1.17103	0.85395	141.50199	150.58255	52.66626	0.34338	 	3.641369409E7	 	1.62606E-7	 	25956.06118	32.03846	 
935.0	1.0	0.0	8.03462	7.40264	-5.66353	17.26875	25.30127	1.16989	0.85478	141.88786	150.82195	52.81687	0.34321	 	4.070128731E7	 	1.44877E-7	 	25796.12573	31.98709	 
930.0	1.0	0.0	8.03692	7.40053	-5.69051	17.25384	25.22138	1.16874	0.85562	142.27312	151.06019	52.96729	0.34303	 	4.553581238E7	 	1.2896E-7	 	25636.44637	31.93587	 
925.0	1.0	0.0	8.03922	7.39841	-5.71745	17.23896	25.14148	1.16758	0.85647	142.65778	151.29726	53.11752	0.34285	 	5.099230233E7	 	1.14681E-7	 	25477.02234	31.8848	 
920.0	1.0	0.0	8.04151	7.3963	-5.74434	17.22411	25.06158	1.16641	0.85733	143.04182	151.53317	53.26757	0.34267	 	5.715679466E7	 	1.01886E-7	 	25317.85294	31.83388	 
915.67	1.0	0.0	8.04349	7.39448	-5.76759	17.21128	24.99237	1.1654	0.85808	143.37399	151.73659	53.39739	0.34252	 	6.314476737E7	 	9.18893E-8	 	25180.18243	 	 
915.0	1.0	0.0	8.0438	7.3942	-5.77115	17.20939	24.98231	1.16521	0.85821	143.42598	151.76905	53.41768	0.3425	 	6.410225373E7	 	9.04659E-8	 	25152.06412	33.15776	 
914.03	1.0	0.0	8.04424	7.39379	-5.77634	17.20663	24.96824	1.16491	0.85843	143.50165	151.81629	53.44722	0.34246	 	6.552360627E7	 	8.84309E-8	 	25111.19888	 	 
910.0	1.0	0.0	8.04734	7.39095	-5.81257	17.13345	24.87825	1.16516	0.85825	143.99696	152.14665	53.63971	0.34226	 	7.201198744E7	 	8.01903E-8	 	24881.09705	54.19341	 
905.0	1.0	0.0	8.0511	7.38749	-5.85665	17.04547	24.76893	1.16536	0.85811	144.59698	152.54389	53.87305	0.34202	 	8.104608706E7	 	7.09505E-8	 	24602.72549	55.67431	 
900.0	1.0	0.0	8.05479	7.3841	-5.89979	16.96046	24.66223	1.16543	0.85805	145.18147	152.92766	54.10051	0.34178	 	9.13091415E7	 	6.27084E-8	 	24331.85798	54.1735	 
895.0	1.0	0.0	8.05841	7.38079	-5.94205	16.87818	24.5579	1.1654	0.85808	145.75168	153.299	54.32257	0.34154	 	1.029804626E8	 	5.53644E-8	 	24067.87872	52.79585	 
890.0	1.0	0.0	8.06197	7.37753	-5.98351	16.79842	24.4557	1.16526	0.85818	146.30874	153.65889	54.53967	0.34131	 	1.162673123E8	 	4.88275E-8	 	23810.23547	51.52865	 
885.0	1.0	0.0	8.06546	7.37434	-6.02421	16.72099	24.35545	1.16502	0.85835	146.85374	154.00824	54.75221	0.34108	 	1.314095164E8	 	4.30155E-8	 	23558.43274	50.36055	 
880.0	1.0	0.0	8.06889	7.3712	-6.0642	16.64571	24.25696	1.1647	0.85859	147.38764	154.34787	54.96056	0.34085	 	1.486849156E8	 	3.78535E-8	 	23312.0257	49.28141	 
875.0	1.0	0.0	8.07227	7.36812	-6.10353	16.57242	24.16007	1.1643	0.85888	147.91131	154.67853	55.16506	0.34063	 	1.684157755E8	 	3.32738E-8	 	23070.61378	48.28238	 
870.0	1.0	0.0	8.0756	7.36508	-6.14224	16.50098	24.06464	1.16383	0.85923	148.42555	155.0009	55.36599	0.3404	 	1.909763007E8	 	2.92153E-8	 	22833.83715	47.35533	 
865.0	1.0	0.0	8.07888	7.36209	-6.18037	16.43126	23.97055	1.16329	0.85963	148.93106	155.31557	55.56364	0.34018	 	2.168015458E8	 	2.56226E-8	 	22601.3709	46.49325	 
860.0	1.0	0.0	8.08212	7.35914	-6.21795	16.36312	23.87769	1.16268	0.86008	149.42848	155.62309	55.75825	0.33997	 	2.4639793E8	 	2.24459E-8	 	22372.92143	45.68989	 
855.0	1.0	0.0	8.08532	7.35623	-6.25501	16.29647	23.78607	1.16201	0.86058	149.91839	155.92395	55.95003	0.33975	 	2.803556522E8	 	1.96401E-8	 	22148.22302	44.93968	 
850.0	1.0	0.0	8.08847	7.35336	-6.29159	16.23119	23.69534	1.16129	0.86111	150.40132	156.21859	56.13918	0.33954	 	3.193634253E8	 	1.71648E-8	 	21927.03462	44.23768	 
845.0	1.0	0.0	8.09073	7.35131	-6.31775	16.21212	23.61948	1.15983	0.86219	150.77109	156.43257	56.28453	0.33937	 	3.637025045E8	 	1.50052E-8	 	21774.72604	30.46172	 
840.0	1.0	0.0	8.09299	7.34926	-6.34386	16.19303	23.54362	1.15837	0.86328	151.14026	156.64549	56.4297	0.33919	 	4.146814659E8	 	1.31016E-8	 	21619.5503	31.03515	 
835.0	1.0	0.0	8.09524	7.34721	-6.36992	16.17394	23.46775	1.15689	0.86438	151.50884	156.85734	56.57468	0.33902	 	4.733659809E8	 	1.14258E-8	 	21464.61772	30.98652	 
830.0	1.0	0.0	8.09749	7.34517	-6.39593	16.15485	23.39188	1.15541	0.86549	151.87682	157.06814	56.71948	0.33884	 	5.410040761E8	 	9.95224E-9	 	21309.92782	30.93798	 
825.0	1.0	0.0	8.09973	7.34313	-6.42189	16.13575	23.316	1.15391	0.86662	152.2442	157.27787	56.86408	0.33867	 	6.190592593E8	 	8.65797E-9	 	21155.48014	30.88954	 
820.0	1.0	0.0	8.10198	7.3411	-6.4478	16.11665	23.24011	1.15241	0.86775	152.61099	157.48656	57.00851	0.33849	 	7.092500104E8	 	7.52259E-9	 	21001.2742	30.84119	 
815.0	1.0	0.0	8.10422	7.33907	-6.47366	16.09754	23.16422	1.1509	0.86889	152.97717	157.6942	57.15274	0.33832	 	8.135969268E8	 	6.52779E-9	 	20847.30951	30.79294	 
810.0	1.0	0.0	8.10645	7.33705	-6.49947	16.07843	23.08832	1.14938	0.87004	153.34275	157.90079	57.29679	0.33814	 	9.344790876E8	 	5.65725E-9	 	20693.58562	30.74478	 
805.0	1.0	0.0	8.10869	7.33503	-6.52523	16.05931	23.01241	1.14784	0.8712	153.70774	158.10633	57.44065	0.33797	 	1.074701537E9	 	4.89641E-9	 	20540.10202	30.69672	 
800.0	1.0	0.0	8.11092	7.33301	-6.55093	16.04019	22.9365	1.1463	0.87237	154.07212	158.31084	57.58432	0.3378	 	1.237576197E9	 	4.23229E-9	 	20386.85825	30.64876	 
795.0	1.0	0.0	8.11315	7.33099	-6.57659	16.02106	22.86057	1.14475	0.87355	154.4359	158.51431	57.7278	0.33762	 	1.427019035E9	 	3.65333E-9	 	20233.8538	30.60089	 
790.0	1.0	0.0	8.11537	7.32899	-6.60219	16.00193	22.78465	1.14319	0.87475	154.79908	158.71674	57.8711	0.33745	 	1.647666909E9	 	3.14928E-9	 	20081.08818	30.55312	 
785.0	1.0	0.0	8.11759	7.32698	-6.62775	15.98279	22.70871	1.14162	0.87595	155.16166	158.91814	58.0142	0.33727	 	1.90501832E9	 	2.71103E-9	 	19928.5609	30.50546	 
780.0	1.0	0.0	8.11981	7.32498	-6.65325	15.96365	22.63277	1.14004	0.87717	155.52363	159.11851	58.15712	0.3371	 	2.205603188E9	 	2.3305E-9	 	19776.27146	30.45789	 
775.0	1.0	0.0	8.12202	7.32298	-6.67871	15.9445	22.55681	1.13844	0.87839	155.885	159.31785	58.29985	0.33692	 	2.557188002E9	 	2.00054E-9	 	19624.21935	30.41042	 
770.0	1.0	0.0	8.12424	7.32099	-6.70411	15.92535	22.48086	1.13684	0.87963	156.24577	159.51617	58.44239	0.33675	 	2.96902406E9	 	1.71482E-9	 	19472.40405	30.36306	 
765.0	1.0	0.0	8.12644	7.319	-6.72946	15.90619	22.40489	1.13523	0.88088	156.60593	159.71347	58.58474	0.33658	 	3.452148387E9	 	1.46777E-9	 	19320.82506	30.3158	 
760.0	1.0	0.0	8.12865	7.31701	-6.75476	15.88703	22.32891	1.13361	0.88214	156.96549	159.90976	58.7269	0.3364	 	4.019749055E9	 	1.25444E-9	 	19169.48184	30.26864	 
755.0	1.0	0.0	8.13085	7.31503	-6.78001	15.86786	22.25293	1.13197	0.88341	157.32444	160.10502	58.86887	0.33623	 	4.68760947E9	 	1.07051E-9	 	19018.37388	30.22159	 
750.0	1.0	0.0	8.13305	7.31305	-6.80521	15.84869	22.17694	1.13033	0.8847	157.68278	160.29928	59.01064	0.33605	 	5.474649571E9	 	9.12157E-10	 	18867.50063	30.17465	 
745.0	1.0	0.0	8.13524	7.31108	-6.83036	15.82952	22.10094	1.12867	0.886	158.04052	160.49252	59.15223	0.33588	 	6.403586215E9	 	7.76024E-10	 	18716.86155	30.12782	 
740.0	1.0	0.0	8.13744	7.30911	-6.85546	15.81033	22.02494	1.127	0.88731	158.39766	160.68476	59.29363	0.33571	 	7.501740404E9	 	6.59171E-10	 	18566.4561	30.08109	 
735.0	1.0	0.0	8.13963	7.30715	-6.88051	15.79115	21.94892	1.12533	0.88863	158.75418	160.87599	59.43483	0.33553	 	8.802025705E9	 	5.59022E-10	 	18416.28371	30.03448	 
730.0	1.0	0.0	8.14181	7.30518	-6.9055	15.77196	21.8729	1.12364	0.88997	159.1101	161.06623	59.57584	0.33536	 	1.03442E10	 	4.73323E-10	 	18266.34382	29.98798	 
725.0	1.0	0.0	8.14399	7.30323	-6.93045	15.75276	21.79686	1.12194	0.89132	159.46541	161.25546	59.71666	0.33518	 	1.2176199999999998E10	 	4.00103E-10	 	18116.63584	29.9416	 
720.0	1.0	0.0	8.14617	7.30127	-6.95534	15.73356	21.72082	1.12022	0.89268	159.82011	161.4437	59.85729	0.33501	 	1.4356199999999998E10	 	3.37647E-10	 	17967.15919	29.89533	 
715.0	1.0	0.0	8.14835	7.29932	-6.98018	15.71435	21.64477	1.1185	0.89405	160.1742	161.63094	59.99773	0.33484	 	1.6954699999999998E10	 	2.84459E-10	 	17817.91328	29.84918	 
710.0	1.0	0.0	8.15052	7.29738	-7.00498	15.69514	21.56871	1.11676	0.89544	160.52767	161.8172	60.13797	0.33466	 	2.00575E10	 	2.39238E-10	 	17668.89748	29.80316	 
705.0	1.0	0.0	8.15269	7.29544	-7.02972	15.67593	21.49264	1.11502	0.89685	160.88054	162.00246	60.27802	0.33449	 	2.3768999999999996E10	 	2.00855E-10	 	17520.1112	29.75726	 
700.0	1.0	0.0	8.15485	7.2935	-7.05441	15.65671	21.41656	1.11326	0.89826	161.2328	162.18674	60.41788	0.33431	 	2.8216399999999996E10	 	1.68332E-10	 	17371.55377	29.71149	 
695.0	1.0	0.0	8.15702	7.29157	-7.07905	15.63748	21.34047	1.11149	0.8997	161.58445	162.37004	60.55754	0.33414	 	3.3555299999999996E10	 	1.40821E-10	 	17223.22455	29.66584	 
690.0	1.0	0.0	8.15918	7.28964	-7.10363	15.61825	21.26438	1.1097	0.90114	161.93549	162.55236	60.69701	0.33397	 	3.99763E10	 	1.17592E-10	 	17075.12288	29.62033	 
685.0	1.0	0.0	8.16133	7.28771	-7.12817	15.59902	21.18827	1.10791	0.9026	162.28591	162.7337	60.83629	0.33379	 	4.771309999999999E10	 	9.80127E-11	 	16927.24808	29.57496	 
680.0	1.0	0.0	8.16348	7.28579	-7.15266	15.57978	21.11215	1.1061	0.90408	162.63572	162.91407	60.97537	0.33362	 	5.705309999999999E10	 	8.15397E-11	 	16779.59943	29.52973	 
675.0	1.0	0.0	8.16563	7.28387	-7.17709	15.56053	21.03602	1.10428	0.90557	162.98492	163.09347	61.11426	0.33344	 	6.835009999999999E10	 	6.77056E-11	 	16632.17621	29.48464	 
670.0	1.0	0.0	8.16778	7.28196	-7.20147	15.54128	20.95988	1.10245	0.90707	163.3335	163.27189	61.25295	0.33327	 	8.2041E10	 	5.61095E-11	 	16484.97771	29.4397	 
665.0	1.0	0.0	8.16992	7.28005	-7.22581	15.52203	20.88373	1.1006	0.90859	163.68147	163.44935	61.39145	0.3331	 	9.866619999999998E10	 	4.64078E-11	 	16338.00312	29.39492	 
660.0	1.0	0.0	8.17206	7.27814	-7.25009	15.50277	20.80757	1.09874	0.91013	164.02882	163.62585	61.52975	0.33292	 	1.18895E11	 	3.83066E-11	 	16191.25287	29.35005	 
655.0	1.0	0.0	8.1742	7.27624	-7.27432	15.4835	20.7314	1.09687	0.91168	164.37556	163.80138	61.66785	0.33275	 	1.4356E11	 	3.15553E-11	 	16044.73322	29.30393	 
650.0	1.0	0.0	8.17633	7.27435	-7.29849	15.46423	20.65522	1.09499	0.91325	164.72168	163.97596	61.80576	0.33258	 	1.73695E11	 	2.594E-11	 	15898.45259	29.25613	 
645.0	1.0	0.0	8.17846	7.27245	-7.32262	15.44496	20.57903	1.09309	0.91484	165.06719	164.14957	61.94348	0.3324	 	2.10594E11	 	2.12792E-11	 	15752.41052	29.20841	 
640.0	1.0	0.0	8.18058	7.27056	-7.3467	15.42568	20.50283	1.09118	0.91644	165.41208	164.32224	62.081	0.33223	 	2.55869E11	 	1.74185E-11	 	15606.60654	29.1608	 
635.0	1.0	0.0	8.1827	7.26868	-7.37072	15.40639	20.42661	1.08925	0.91806	165.75635	164.49395	62.21832	0.33205	 	3.11546E11	 	1.42273E-11	 	15461.04017	29.11327	 
630.0	1.0	0.0	8.18482	7.2668	-7.3947	15.3871	20.35038	1.08731	0.9197	166.1	164.66472	62.35544	0.33188	 	3.80166E11	 	1.15951E-11	 	15315.71094	29.06585	 
625.0	1.0	0.0	8.18694	7.26492	-7.41862	15.36781	20.27414	1.08536	0.92136	166.44304	164.83454	62.49237	0.33171	 	4.64929E11	 	9.42863E-12	 	15170.61829	29.01853	 
620.0	1.0	0.0	8.18905	7.26305	-7.44249	15.34851	20.19789	1.08339	0.92303	166.78545	165.00341	62.6291	0.33153	 	5.69874E11	 	7.64948E-12	 	15025.76148	28.97136	 
615.0	1.0	0.0	8.19116	7.26118	-7.46631	15.32921	20.12163	1.08141	0.92472	167.12725	165.17134	62.76563	0.33136	 	7.0011E11	 	6.19165E-12	 	14881.14019	28.92426	 
610.0	1.0	0.0	8.19326	7.25931	-7.49008	15.3099	20.04535	1.07941	0.92643	167.46843	165.33834	62.90196	0.33119	 	8.62117E11	 	4.99983E-12	 	14736.75398	28.87724	 
605.0	1.0	0.0	8.19536	7.25745	-7.51379	15.29058	19.96907	1.0774	0.92816	167.80899	165.5044	63.03809	0.33101	 	1.06413E12	 	4.02773E-12	 	14592.60238	28.83032	 
600.0	1.0	0.0	8.19746	7.25559	-7.53746	15.27126	19.89276	1.07537	0.92991	168.14893	165.66952	63.17403	0.33084	 	1.31665E12	 	3.23671E-12	 	14448.68495	28.78349	 
595.0	1.0	0.0	8.19955	7.25374	-7.56107	15.25194	19.81645	1.07333	0.93168	168.48824	165.83372	63.30977	0.33067	 	1.6331E12	 	2.59459E-12	 	14305.00124	28.73674	 
590.0	1.0	0.0	8.20164	7.25189	-7.58463	15.23261	19.74012	1.07128	0.93346	168.82694	165.99698	63.44531	0.33049	 	2.03066E12	 	2.0746E-12	 	14161.55083	28.69008	 
585.0	1.0	0.0	8.20373	7.25005	-7.60814	15.21328	19.66378	1.06921	0.93527	169.16501	166.15932	63.58065	0.33032	 	2.53143E12	 	1.65457E-12	 	14018.33326	28.64351	 
580.0	1.0	0.0	8.20581	7.24821	-7.6316	15.19394	19.58743	1.06712	0.9371	169.50246	166.32073	63.71578	0.33014	 	3.16385E12	 	1.31612E-12	 	13875.34811	28.59703	 
575.0	1.0	0.0	8.20789	7.24637	-7.65501	15.1746	19.51106	1.06502	0.93895	169.83929	166.48123	63.85072	0.32997	 	3.96467E12	 	1.04412E-12	 	13732.59493	28.55064	 
570.0	1.0	0.0	8.20997	7.24454	-7.67837	15.15525	19.43467	1.0629	0.94082	170.1755	166.6408	63.98546	0.3298	 	4.98151E12	 	8.26096E-13	 	13590.0733	28.50433	 
565.0	1.0	0.0	8.21204	7.24271	-7.70167	15.1359	19.35828	1.06077	0.94271	170.51108	166.79946	64.12	0.32962	 	6.27621E12	 	6.51795E-13	 	13447.7828	28.4581	 
560.0	1.0	0.0	8.21411	7.24088	-7.72492	15.11654	19.28186	1.05862	0.94463	170.84603	166.9572	64.25434	0.32945	 	7.92937E12	 	5.12827E-13	 	13305.723	28.41196	 
555.0	1.0	0.0	8.21618	7.23906	-7.74812	15.09718	19.20544	1.05645	0.94656	171.18036	167.11403	64.38848	0.32928	 	1.00463E13	 	4.02337E-13	 	13163.89347	28.3659	 
550.0	1.0	0.0	8.21824	7.23725	-7.77127	15.07781	19.129	1.05427	0.94852	171.51407	167.26995	64.52242	0.3291	 	1.2765E13	 	3.14734E-13	 	13022.2938	28.31993	 
545.0	1.0	0.0	8.2203	7.23543	-7.79437	15.05844	19.05254	1.05207	0.9505	171.84715	167.42497	64.65615	0.32893	 	1.62671E13	 	2.45477E-13	 	12880.92359	28.27404	 
540.0	1.0	0.0	8.22235	7.23363	-7.81742	15.03906	18.97606	1.04986	0.95251	172.17961	167.57907	64.78969	0.32876	 	2.07918E13	 	1.90883E-13	 	12739.78242	28.22823	 
535.0	1.0	0.0	8.22441	7.23182	-7.84041	15.01968	18.89957	1.04763	0.95454	172.51143	167.73228	64.92302	0.32858	 	2.66558E13	 	1.47974E-13	 	12598.86989	28.18251	 
530.0	1.0	0.0	8.22645	7.23002	-7.86335	15.00029	18.82307	1.04538	0.95659	172.84263	167.88459	65.05615	0.32841	 	3.42796E13	 	1.14353E-13	 	12458.1856	28.13686	 
525.0	1.0	0.0	8.2285	7.22823	-7.88625	14.9809	18.74655	1.04311	0.95867	173.17321	168.036	65.18907	0.32824	 	4.42231E13	 	8.80891E-14	 	12317.72913	28.09129	 
520.0	1.0	0.0	8.23054	7.22643	-7.90908	14.9615	18.67001	1.04082	0.96078	173.50315	168.18651	65.3218	0.32806	 	5.72343E13	 	6.76371E-14	 	12177.50012	28.0458	 
515.0	1.0	0.0	8.23258	7.22464	-7.93187	14.9421	18.59345	1.03852	0.96291	173.83247	168.33613	65.45432	0.32789	 	7.43165E13	 	5.17619E-14	 	12037.49817	28.00039	 
510.0	1.0	0.0	8.23461	7.22286	-7.95461	14.92269	18.51688	1.0362	0.96507	174.16116	168.48486	65.58664	0.32772	 	9.68194E13	 	3.94793E-14	 	11897.72289	27.95506	 
505.0	1.0	0.0	8.23664	7.22108	-7.97729	14.90328	18.44029	1.03386	0.96725	174.48922	168.6327	65.71875	0.32755	 	1.2656599999999998E14	 	3.00078E-14	 	11758.1739	27.9098	 
500.0	1.0	0.0	8.23867	7.2193	-7.99992	14.88386	18.36368	1.0315	0.96946	174.81665	168.77966	65.85067	0.32737	 	1.66025E14	 	2.27288E-14	 	11618.85084	27.86461	 
495.0	1.0	0.0	8.24069	7.21753	-8.0225	14.86444	18.28705	1.02913	0.9717	175.14345	168.92573	65.98237	0.3272	 	2.18558E14	 	1.7154E-14	 	11479.75332	27.8195	 
490.0	1.0	0.0	8.24271	7.21576	-8.04503	14.84501	18.21041	1.02673	0.97397	175.46962	169.07092	66.11388	0.32703	 	2.88751E14	 	1.28995E-14	 	11340.88099	27.77447	 
485.0	1.0	0.0	8.24472	7.214	-8.06751	14.82558	18.13374	1.02432	0.97626	175.79515	169.21523	66.24518	0.32685	 	3.82892E14	 	9.66419E-15	 	11202.23348	27.7295	 
480.0	1.0	0.0	8.24673	7.21224	-8.08993	14.80615	18.05706	1.02188	0.97859	176.12006	169.35867	66.37627	0.32668	 	5.0963099999999994E14	 	7.21293E-15	 	11063.81044	27.68461	 
475.0	1.0	0.0	8.24874	7.21049	-8.11231	14.7867	17.98035	1.01943	0.98094	176.44434	169.50123	66.50716	0.32651	 	6.80919E14	 	5.36265E-15	 	10925.61153	27.63978	 
470.0	1.0	0.0	8.25075	7.20873	-8.13463	14.76726	17.90363	1.01695	0.98333	176.76798	169.64291	66.63784	0.32633	 	9.13332E14	 	3.97132E-15	 	10787.6364	27.59503	 
465.0	1.0	0.0	8.25275	7.20699	-8.1569	14.74781	17.82689	1.01446	0.98575	177.09099	169.78373	66.76832	0.32616	 	1.22995E15	 	2.92915E-15	 	10649.8847	27.55034	 
460.0	1.0	0.0	8.25474	7.20524	-8.17911	14.72835	17.75012	1.01195	0.98819	177.41337	169.92368	66.8986	0.32599	 	1.66308E15	 	2.15163E-15	 	10512.35612	27.50572	 
455.0	1.0	0.0	8.25674	7.2035	-8.20128	14.70889	17.67333	1.00941	0.99068	177.73511	170.06276	67.02866	0.32581	 	2.25806E15	 	1.57388E-15	 	10375.05032	27.46116	 
450.0	1.0	0.0	8.25873	7.20177	-8.22339	14.68943	17.59653	1.00686	0.99319	178.05622	170.20098	67.15853	0.32564	 	3.0789E15	 	1.14636E-15	 	10237.96699	27.41667	 
445.0	1.0	0.0	8.26071	7.20004	-8.24545	14.66995	17.5197	1.00428	0.99574	178.3767	170.33834	67.28818	0.32547	 	4.21629E15	 	8.31326E-16	 	10101.10582	27.37224	 
440.0	1.0	0.0	8.26269	7.19831	-8.26746	14.65048	17.44284	1.00168	0.99832	178.69654	170.47484	67.41763	0.3253	 	5.79936E15	 	6.00188E-16	 	9964.46649	27.32786	 
435.0	1.0	0.0	8.26467	7.19659	-8.28941	14.631	17.36597	0.99906	1.00094	179.01574	170.61048	67.54687	0.32512	 	8.01281E15	 	4.31348E-16	 	9828.04873	27.28355	 
430.0	1.0	0.0	8.26665	7.19487	-8.31132	14.61151	17.28907	0.99642	1.00359	179.33431	170.74527	67.67591	0.32495	 	1.11221E16	 	3.08566E-16	 	9691.85222	27.2393	 
425.0	1.0	0.0	8.26862	7.19315	-8.33317	14.59202	17.21215	0.99376	1.00628	179.65225	170.8792	67.80474	0.32478	 	1.55105E16	 	2.19689E-16	 	9555.87672	27.1951	 
420.0	1.0	0.0	8.27058	7.19144	-8.35497	14.57253	17.1352	0.99107	1.00901	179.96955	171.01229	67.93336	0.3246	 	2.17346E16	 	1.55655E-16	 	9420.12192	27.15096	 
415.0	1.0	0.0	8.27255	7.18974	-8.37672	14.55303	17.05823	0.98836	1.01178	180.28621	171.14453	68.06177	0.32443	 	3.0606E16	 	1.0974E-16	 	9284.58762	27.10686	 
410.0	1.0	0.0	8.27451	7.18803	-8.39841	14.53352	16.98124	0.98563	1.01458	180.60224	171.27592	68.18997	0.32426	 	4.33148E16	 	7.6978E-17	 	9149.27365	27.06279	 
405.0	1.0	0.0	8.27646	7.18634	-8.42006	14.51401	16.90422	0.98287	1.01743	180.91762	171.40647	68.31797	0.32409	 	6.16156E16	 	5.37183E-17	 	9014.17988	27.01875	 
400.0	1.0	0.0	8.27841	7.18464	-8.44165	14.4945	16.82717	0.98009	1.02031	181.23237	171.53617	68.44576	0.32391	 	8.81086E16	 	3.7289E-17	 	8879.30616	26.97474	 
395.0	1.0	0.0	8.28036	7.18295	-8.46319	14.47498	16.75009	0.97729	1.02324	181.54649	171.66504	68.57334	0.32374	 	1.26669E17	 	2.57448E-17	 	8744.65236	26.93076	 
390.0	1.0	0.0	8.2823	7.18127	-8.48467	14.45545	16.67299	0.97446	1.02621	181.85996	171.79307	68.70071	0.32357	 	1.83105E17	 	1.76765E-17	 	8610.21834	26.8868	 
385.0	1.0	0.0	8.28425	7.17958	-8.50611	14.43592	16.59586	0.97161	1.02922	182.1728	171.92027	68.82787	0.32339	 	2.66172E17	 	1.20684E-17	 	8476.00402	26.84286	 
380.0	1.0	0.0	8.28618	7.17791	-8.52749	14.41639	16.51871	0.96873	1.03228	182.48499	172.04663	68.95482	0.32322	 	3.89145E17	 	8.19196E-18	 	8342.00926	26.79895	 
375.0	1.0	0.0	8.28811	7.17623	-8.54882	14.39685	16.44152	0.96583	1.03538	182.79655	172.17216	69.08157	0.32305	 	5.72276E17	 	5.52786E-18	 	8208.23401	26.75505	 
370.0	1.0	0.0	8.29004	7.17456	-8.5701	14.37731	16.3643	0.9629	1.03853	183.10747	172.29687	69.2081	0.32288	 	8.46649E17	 	3.70762E-18	 	8074.67815	26.71117	 
365.0	1.0	0.0	8.29197	7.1729	-8.59132	14.35776	16.28706	0.95994	1.04173	183.41774	172.42074	69.33442	0.3227	 	1.26028E18	 	2.4714E-18	 	7941.34163	26.6673	 
360.0	1.0	0.0	8.29389	7.17124	-8.6125	14.3382	16.20978	0.95696	1.04497	183.72738	172.5438	69.46054	0.32253	 	1.88781E18	 	1.63694E-18	 	7808.22442	26.62344	 
355.0	1.0	0.0	8.29581	7.16958	-8.63362	14.31865	16.13247	0.95396	1.04827	184.03638	172.66603	69.58644	0.32236	 	2.84607E18	 	1.07722E-18	 	7675.32643	26.5796	 
350.0	1.0	0.0	8.29772	7.16793	-8.65468	14.29908	16.05513	0.95092	1.05161	184.34473	172.78744	69.71213	0.32219	 	4.31909E18	 	7.04185E-19	 	7542.64766	26.53575	 
345.0	1.0	0.0	8.29963	7.16628	-8.6757	14.27951	15.97776	0.94786	1.05501	184.65244	172.90804	69.83761	0.32201	 	6.59888E18	 	4.57205E-19	 	7410.18809	26.49191	 
340.0	1.0	0.0	8.30153	7.16463	-8.69666	14.25994	15.90035	0.94477	1.05846	184.95952	173.02782	69.96288	0.32184	 	1.0152E19	 	2.94784E-19	 	7277.9477	26.44808	 
335.0	1.0	0.0	8.30344	7.16299	-8.71757	14.24036	15.82291	0.94165	1.06196	185.26595	173.14678	70.08794	0.32167	 	1.57292E19	 	1.88709E-19	 	7145.92653	26.40423	 
330.0	1.0	0.0	8.30533	7.16135	-8.73843	14.22078	15.74543	0.93851	1.06552	185.57174	173.26494	70.21279	0.3215	 	2.45479E19	 	1.19922E-19	 	7014.1246	26.36039	 
325.0	1.0	0.0	8.30723	7.15972	-8.75924	14.20119	15.66792	0.93533	1.06914	185.87688	173.38228	70.33743	0.32132	 	3.85971E19	 	7.56384E-20	 	6882.54195	26.31653	 
320.0	1.0	0.0	8.30912	7.15809	-8.77999	14.1816	15.59037	0.93213	1.07282	186.18139	173.49882	70.46185	0.32115	 	6.11517E19	 	4.73416E-20	 	6751.17864	26.27266	 
315.0	1.0	0.0	8.311	7.15647	-8.80069	14.162	15.51278	0.92889	1.07655	186.48525	173.61455	70.58607	0.32098	 	9.76473E19	 	2.93978E-20	 	6620.03475	26.22878	 
310.0	1.0	0.0	8.31289	7.15485	-8.82134	14.1424	15.43516	0.92563	1.08035	186.78846	173.72948	70.71007	0.32081	 	1.5718E20	 	1.81079E-20	 	6489.11039	26.18487	 
305.0	1.0	0.0	8.31476	7.15323	-8.84193	14.12279	15.3575	0.92233	1.08421	187.09104	173.84361	70.83386	0.32063	 	2.5509999999999997E20	 	1.10616E-20	 	6358.40564	26.14095	 
300.0	1.0	0.0	8.31664	7.15162	-8.86247	14.10317	15.27979	0.919	1.08814	187.39297	173.95695	70.95744	0.32046	 	4.17536E20	 	6.69979E-21	 	6227.92068	26.09699	 
295.0	1.0	0.0	8.31851	7.15001	-8.88296	14.08356	15.20205	0.91564	1.09213	187.69425	174.06948	71.0808	0.32029	 	6.893539999999999E20	 	4.0226E-21	 	6097.65564	26.05301	 
290.0	1.0	0.0	8.32037	7.14841	-8.9034	14.06393	15.12426	0.91225	1.09619	187.9949	174.18122	71.20395	0.32012	 	1.1483100000000001E21	 	2.39361E-21	 	5967.61069	26.00899	 
285.0	1.0	0.0	8.32224	7.14681	-8.92378	14.04431	15.04643	0.90883	1.10031	188.2949	174.29217	71.32689	0.31994	 	1.93039E21	 	1.41122E-21	 	5837.78605	25.96493	 
280.0	1.0	0.0	8.3241	7.14521	-8.94412	14.02467	14.96855	0.90538	1.10451	188.59425	174.40233	71.44962	0.31977	 	3.27573E21	 	8.24179E-22	 	5708.18194	25.92082	 
275.0	1.0	0.0	8.32595	7.14362	-8.9644	14.00504	14.89063	0.90189	1.10879	188.89296	174.51171	71.57213	0.3196	 	5.61258E21	 	4.76677E-22	 	5578.7986	25.87667	 
270.0	1.0	0.0	8.3278	7.14203	-8.98462	13.9854	14.81267	0.89836	1.11313	189.19103	174.62029	71.69443	0.31943	 	9.7123E21	 	2.72951E-22	 	5449.63629	25.83246	 
265.0	1.0	0.0	8.32965	7.14045	-9.00479	13.96575	14.73465	0.89481	1.11756	189.48845	174.7281	71.81652	0.31925	 	1.6978799999999998E22	 	1.54697E-22	 	5320.69532	25.78819	 
260.0	1.0	0.0	8.33149	7.13887	-9.02492	13.9461	14.65659	0.89122	1.12206	189.78522	174.83512	71.93839	0.31908	 	2.99945E22	 	8.67549E-23	 	5191.97602	25.74386	 
255.0	1.0	0.0	8.33333	7.1373	-9.04498	13.92644	14.57848	0.88759	1.12665	190.08135	174.94137	72.06005	0.31891	 	5.3562E22	 	4.81268E-23	 	5063.47874	25.69946	 
250.0	1.0	0.0	8.33516	7.13573	-9.065	13.90678	14.50031	0.88392	1.13132	190.37684	175.04683	72.18149	0.31874	 	9.67129E22	 	2.64015E-23	 	4935.20387	25.65497	 
245.0	1.0	0.0	8.33699	7.13416	-9.08496	13.88711	14.42209	0.88022	1.13607	190.67168	175.15153	72.30272	0.31857	 	1.7663E23	 	1.43178E-23	 	4807.15182	25.61041	 
240.0	1.0	0.0	8.33882	7.1326	-9.10487	13.86744	14.34382	0.87649	1.14092	190.96588	175.25545	72.42374	0.31839	 	3.2639499999999995E23	 	7.6734E-24	 	4679.32304	25.56576	 
235.0	1.0	0.0	8.34064	7.13104	-9.12473	13.84776	14.2655	0.87271	1.14585	191.25943	175.3586	72.54454	0.31822	 	6.104769999999999E23	 	4.06265E-24	 	4551.71801	25.521	 
230.0	1.0	0.0	8.34246	7.12949	-9.14453	13.82808	14.18711	0.8689	1.15088	191.55234	175.46098	72.66513	0.31805	 	1.15611E24	 	2.12415E-24	 	4424.33727	25.47615	 
225.0	1.0	0.0	8.34427	7.12794	-9.16428	13.8084	14.10867	0.86505	1.15601	191.8446	175.5626	72.78551	0.31788	 	2.21767E24	 	1.09635E-24	 	4297.18136	25.43118	 
220.0	1.0	0.0	8.34608	7.12639	-9.18398	13.7887	14.03017	0.86116	1.16123	192.13621	175.66345	72.90567	0.3177	 	4.31055E24	 	5.58385E-25	 	4170.25088	25.38609	 
215.0	1.0	0.0	8.34789	7.12485	-9.20362	13.76901	13.9516	0.85723	1.16655	192.42718	175.76354	73.02561	0.31753	 	8.49336E24	 	2.80518E-25	 	4043.54648	25.34088	 
210.0	1.0	0.0	8.34969	7.12331	-9.22321	13.74931	13.87297	0.85325	1.17198	192.71751	175.86287	73.14534	0.31736	 	1.69716E25	 	1.38946E-25	 	3917.06882	25.29553	 
205.0	1.0	0.0	8.35149	7.12178	-9.24275	13.7296	13.79428	0.84924	1.17752	193.00719	175.96145	73.26486	0.31719	 	3.44076E25	 	6.7826E-26	 	3790.81864	25.25003	 
200.0	1.0	0.0	8.35328	7.12025	-9.26224	13.70989	13.71552	0.84519	1.18317	193.29623	176.05927	73.38416	0.31702	 	7.080640000000001E25	 	3.26147E-26	 	3664.79673	25.20438	 
195.0	1.0	0.0	8.35507	7.11873	-9.28167	13.69017	13.63669	0.84109	1.18893	193.58462	176.15634	73.50325	0.31684	 	1.4797400000000002E26	 	1.54414E-26	 	3539.00391	25.15856	 
190.0	1.0	0.0	8.35685	7.1172	-9.30105	13.67045	13.55779	0.83695	1.19482	193.87237	176.25267	73.62212	0.31667	 	3.14203E26	 	7.19446E-27	 	3413.44105	25.11257	 
185.0	1.0	0.0	8.35863	7.11569	-9.32038	13.65073	13.47881	0.83276	1.20082	194.15947	176.34824	73.74078	0.3165	 	6.78224E26	 	3.29702E-27	 	3288.10909	25.06639	 
180.0	1.0	0.0	8.36041	7.11418	-9.33965	13.631	13.39976	0.82854	1.20695	194.44593	176.44307	73.85923	0.31633	 	1.48905E27	 	1.48532E-27	 	3163.00904	25.02001	 
175.0	1.0	0.0	8.36218	7.11267	-9.35887	13.61126	13.32063	0.82426	1.21321	194.73175	176.53715	73.97746	0.31616	 	3.32712E27	 	6.57419E-28	 	3038.14194	24.97342	 
170.0	1.0	0.0	8.36395	7.11116	-9.37804	13.59152	13.24142	0.81994	1.2196	195.01693	176.6305	74.09547	0.31598	 	7.570149999999999E27	 	2.85715E-28	 	2913.50892	24.9266	 
165.0	1.0	0.0	8.36572	7.10966	-9.39715	13.57178	13.16213	0.81557	1.22613	195.30146	176.72311	74.21327	0.31581	 	1.75505E28	 	1.21848E-28	 	2789.11116	24.87955	 
160.0	1.0	0.0	8.36748	7.10817	-9.41621	13.55203	13.08276	0.81116	1.23281	195.58535	176.81498	74.33086	0.31564	 	4.1486500000000005E28	 	5.09587E-29	 	2664.94992	24.83225	 
155.0	1.0	0.0	8.36923	7.10668	-9.43522	13.53227	13.00329	0.80669	1.23963	195.8686	176.90613	74.44823	0.31547	 	1.0005800000000001E29	 	2.08849E-29	 	2541.02654	24.78468	 
150.0	1.0	0.0	8.37099	7.10519	-9.45417	13.51251	12.92373	0.80218	1.2466	196.1512	176.99654	74.56539	0.3153	 	2.46393E29	 	8.3821E-30	 	2417.34244	24.73682	 
145.0	1.0	0.0	8.37273	7.10371	-9.47307	13.49275	12.84408	0.79762	1.25373	196.43317	177.08622	74.68233	0.31512	 	6.199640000000001E29	 	3.29194E-30	 	2293.89913	24.68866	 
140.0	1.0	0.0	8.37448	7.10223	-9.49192	13.47298	12.76433	0.793	1.26103	196.7145	177.17518	74.79907	0.31495	 	1.59516E30	 	1.26412E-30	 	2170.69818	24.64019	 
135.0	1.0	0.0	8.37622	7.10075	-9.51072	13.4532	12.68448	0.78834	1.26849	196.99519	177.26342	74.91558	0.31478	 	4.20048E30	 	4.74251E-31	 	2047.74127	24.59138	 
130.0	1.0	0.0	8.37795	7.09928	-9.52946	13.43342	12.60453	0.78362	1.27613	197.27524	177.35093	75.03189	0.31461	 	1.13298E31	 	1.73672E-31	 	1925.0302	24.54221	 
125.0	1.0	0.0	8.37968	7.09781	-9.54815	13.41364	12.52447	0.77885	1.28395	197.55465	177.43773	75.14798	0.31444	 	3.13307E31	 	6.20245E-32	 	1802.56686	24.49267	 
120.0	1.0	0.0	8.38141	7.09635	-9.56678	13.39385	12.4443	0.77402	1.29195	197.83342	177.52382	75.26385	0.31427	 	8.89105E31	 	2.1582E-32	 	1680.35322	24.44273	 
115.0	1.0	0.0	8.38313	7.09489	-9.58536	13.37406	12.36401	0.76914	1.30015	198.11156	177.6092	75.37952	0.31409	 	2.5918299999999998E32	 	7.30936E-33	 	1558.3914	24.39236	 
110.0	1.0	0.0	8.38485	7.09344	-9.60389	13.35426	12.2836	0.7642	1.30855	198.38907	177.69387	75.49497	0.31392	 	7.76941E32	 	2.40695E-33	 	1436.68364	24.34155	 
105.0	1.0	0.0	8.38656	7.09199	-9.62236	13.33445	12.20307	0.75921	1.31716	198.66594	177.77783	75.61021	0.31375	 	2.3976000000000002E33	 	7.69793E-34	 	1315.23232	24.29026	 
100.0	1.0	0.0	8.38827	7.09055	-9.64078	13.31465	12.12241	0.75415	1.32599	198.94218	177.86109	75.72524	0.31358	 	7.62573E33	 	2.3883E-34	 	1194.03992	24.23848	 
95.0	1.0	0.0	8.38998	7.0891	-9.65915	13.29483	12.04162	0.74904	1.33504	199.21779	177.94366	75.84006	0.31341	 	2.50285E34	 	7.17921E-35	 	1073.1091	24.18616	 
90.0	1.0	0.0	8.39168	7.08767	-9.67747	13.27501	11.96068	0.74387	1.34432	199.49277	178.02552	75.95466	0.31324	 	8.48793E34	 	2.08819E-35	 	952.44267	24.13329	 
85.0	1.0	0.0	8.39338	7.08623	-9.69573	13.25519	11.8796	0.73863	1.35385	199.76712	178.1067	76.06906	0.31306	 	2.97836E35	 	5.86914E-36	 	832.04358	24.07982	 
80.0	1.0	0.0	8.39507	7.08481	-9.71393	13.23536	11.79838	0.73334	1.36363	200.04084	178.18719	76.18325	0.31289	 	1.0828999999999999E36	 	1.59168E-36	 	711.91499	24.02572	 
75.0	1.0	0.0	8.39676	7.08338	-9.73209	13.21553	11.71699	0.72797	1.37367	200.31394	178.26699	76.29722	0.31272	 	4.0860699999999994E36	 	4.1586E-37	 	592.06021	23.97096	 
70.0	1.0	0.0	8.39844	7.08196	-9.75019	13.19569	11.63545	0.72255	1.38399	200.58642	178.34611	76.41099	0.31255	 	1.60261E37	 	1.04506E-37	 	472.48277	23.91549	 
65.0	1.0	0.0	8.40012	7.08054	-9.76823	13.17585	11.55373	0.71706	1.39459	200.85828	178.42455	76.52456	0.31238	 	6.5448799999999995E37	 	2.5217E-38	 	353.18638	23.85928	 
60.0	1.0	0.0	8.4018	7.07913	-9.78623	13.156	11.47184	0.7115	1.40549	201.12952	178.50232	76.63791	0.31221	 	2.7881599999999997E38	 	5.83188E-39	 	234.17501	23.80227	 
55.0	1.0	0.0	8.40347	7.07772	-9.80417	13.13615	11.38977	0.70587	1.4167	201.40014	178.57942	76.75106	0.31203	 	1.24141E39	 	1.29016E-39	 	115.45281	23.74444	 
50.0	1.0	0.0	8.40513	7.07632	-9.82205	13.11629	11.3075	0.70017	1.42822	201.67015	178.65585	76.864	0.31186	 	5.788740000000001E39	 	2.72463E-40	 	-2.9758	23.68572	 
45.0	1.0	0.0	8.4068	7.07492	-9.83988	13.09642	11.22503	0.6944	1.44009	201.93956	178.73162	76.97674	0.31169	 	2.83315E40	 	5.48087E-41	 	-121.10611	23.62606	 
40.0	1.0	0.0	8.40846	7.07353	-9.85766	13.07656	11.14236	0.68856	1.45231	202.20835	178.80674	77.08928	0.31152	 	1.4587400000000001E41	 	1.04776E-41	 	-238.9332	23.56542	 
35.0	1.0	0.0	8.41011	7.07214	-9.87539	13.05668	11.05946	0.68264	1.46489	202.47654	178.8812	77.20161	0.31135	 	7.92109E41	 	1.89873E-42	 	-356.4518	23.50372	 
30.0	1.0	0.0	8.41176	7.07075	-9.89306	13.0368	10.97634	0.67665	1.47786	202.74413	178.95502	77.31375	0.31118	 	4.5481E42	 	3.25323E-43	 	-473.65636	23.44091	 
25.0	1.0	0.0	8.4134	7.06937	-9.91067	 	10.89297	0.67059	1.49123	203.01112	179.02819	77.42568	0.31101	 	2.76907E43	 	5.25518E-44	 	-590.541	 	 
