T (C)	Fraction solid (wt)-TOTAL	Fraction liquid (wt)-LIQUID	Density (g/(cm)^3)-TOTAL	Molar volume (cm^3)-TOTAL	Volume change (%)-  	Average expansion coeff. (10e-6 1/K)-  	Thermal conductivity (W/(m*K))-TOTAL	Electrical resistivity (10e-6 Ohm*m)-TOTAL	Electrical conductivity (10e6 1/(Ohm*m))-TOTAL	Young's modulus (GPa)-TOTAL	Bulk modulus (GPa)-TOTAL	Shear modulus(GPa)-TOTAL	Poisson's ratio-TOTAL	Liquid viscosity (mPa s)-  	Total viscosity (mPa s)-  	Liquid diffusivity (10e-9 (m^2)/s)-  	Total diffusivity (10e-9 (m^2)/s)-  	Surface Tension (mN/m)-  	Enthalpy (J/mole)-TOTAL	Specific heat (J/(mole K))-TOTAL	Latent heat (J/mole)-TOTAL
1400.0	0.0	1.0	7.04398	7.90882	0.0	31.43999	28.59956	1.43332	0.69768	0.0	121.9343	0.0	0.5	6.6675	6.6675	1.22478	1.22478	1744.28971	51607.799	 	0.0
1395.0	0.0	1.0	7.04788	7.90445	-0.0552863	31.40277	28.52032	1.433	0.69784	0.0	122.09007	0.0	0.5	6.73702	6.73702	1.20852	1.20852	1746.38619	51404.687	40.6224	0.0
1390.0	0.0	1.0	7.05177	7.90009	-0.11041	31.36572	28.44108	1.43269	0.69799	0.0	122.24584	0.0	0.5	6.80769	6.80769	1.19239	1.19239	1748.49947	51202.026	40.5322	0.0
1385.0	0.0	1.0	7.05565	7.89575	-0.16538	31.32883	28.36185	1.43237	0.69814	0.0	122.40161	0.0	0.5	6.87954	6.87954	1.17639	1.17639	1750.62971	50999.817	40.4418	0.0
1380.0	0.0	1.0	7.05953	7.89141	-0.22019	31.29212	28.28261	1.43205	0.6983	0.0	122.55738	0.0	0.5	6.95258	6.95258	1.16052	1.16052	1752.77702	50798.054	40.3526	0.0
1375.0	0.0	1.0	7.0634	7.88709	-0.27484	31.25557	28.20337	1.43173	0.69845	0.0	122.71315	0.0	0.5	7.02685	7.02685	1.14478	1.14478	1754.94149	50596.738	40.2632	0.0
1370.0	0.0	1.0	7.06726	7.88278	-0.32934	31.2192	28.12414	1.43141	0.69861	0.0	122.86891	0.0	0.5	7.10238	7.10238	1.12917	1.12917	1757.12321	50395.864	40.1748	0.0
1365.0	0.0	1.0	7.07111	7.87848	-0.38367	31.183	28.0449	1.43109	0.69877	0.0	123.02468	0.0	0.5	7.17918	7.17918	1.11369	1.11369	1759.32226	50195.432	40.0864	0.0
1360.0	0.0	1.0	7.07496	7.8742	-0.43785	31.14698	27.96567	1.43076	0.69893	0.0	123.18045	0.0	0.5	7.25729	7.25729	1.09834	1.09834	1761.53871	49995.438	39.9988	0.0
1355.0	0.0	1.0	7.0788	7.86992	-0.49186	31.11113	27.88643	1.43043	0.69909	0.0	123.33622	0.0	0.5	7.33674	7.33674	1.08312	1.08312	1763.77261	49795.881	39.9114	0.0
1350.0	0.0	1.0	7.08264	7.86566	-0.54572	31.07547	27.80719	1.4301	0.69925	0.0	123.49199	0.0	0.5	7.41756	7.41756	1.06803	1.06803	1766.024	49596.758	39.8246	0.0
1345.0	0.0	1.0	7.08646	7.86142	-0.59942	31.03999	27.72796	1.42977	0.69941	0.0	123.64776	0.0	0.5	7.49977	7.49977	1.05307	1.05307	1768.29292	49398.067	39.7382	0.0
1340.0	0.0	1.0	7.09028	7.85718	-0.65296	31.00469	27.64872	1.42944	0.69957	0.0	123.80353	0.0	0.5	7.58341	7.58341	1.03824	1.03824	1770.57938	49199.806	39.6522	0.0
1337.62	0.0	1.0	7.09209	7.85517	-0.67836	30.98798	27.61105	1.42928	0.69965	0.0	123.87759	0.0	0.5	7.62369	7.62369	1.03123	1.03123	1771.67263	49105.691	39.58953	0.0010
1335.0	0.0758507	0.92415	7.11136	7.83389	-0.94743	30.27657	27.88068	1.41315	0.70764	0.00302755	124.10078	0.00101608	0.48983	7.67662	9.21166	1.02245	0.85207	1771.05898	47898.689	460.20826	1103.282
1330.0	0.20319	0.79681	7.14415	7.79791	-1.40246	29.07958	28.33916	1.38597	0.72152	0.15953	124.51784	0.0541667	0.47256	7.77868	49.49678	1.0059	0.15808	1770.00607	45860.372	407.6634	2944.191
1325.0	0.30794	0.69206	7.1717	7.768	-1.78055	28.09621	28.71973	1.36334	0.73349	0.8579	124.9327	0.29417	0.45819	7.88254	230.79277	0.98955	0.0337973	1769.10437	44161.109	339.8526	4446.47
1320.0	0.39502	0.60498	7.19512	7.74275	-2.09984	27.27627	29.03892	1.34413	0.74397	2.36279	125.34584	0.81695	0.44611	7.9882	640.00553	0.97341	0.0121495	1768.34299	42726.79	286.8638	5684.225
1315.0	0.46811	0.53189	7.21526	7.72107	-2.37398	26.58174	29.30777	1.32762	0.75323	4.73023	125.75735	1.64718	0.43586	8.09574	1321.91365	0.95746	0.00586375	1767.71185	41501.925	244.973	6712.945
1310.0	0.52999	0.47001	7.23275	7.7024	-2.61012	25.99319	29.53462	1.31328	0.76145	7.87762	126.17072	2.76001	0.4271	8.20524	2289.76528	0.94171	0.00337457	1767.20016	40444.411	211.5028	7574.733
1305.0	0.58278	0.41722	7.24808	7.68608	-2.81642	25.48778	29.72526	1.30073	0.7688	11.65705	126.58458	4.10589	0.41955	8.31678	3538.6811	0.92615	0.00217667	1766.79907	39521.914	184.4994	8301.917
1300.0	0.62812	0.37188	7.26164	7.6717	-2.99821	25.05085	29.88481	1.28969	0.77538	15.90698	126.99975	5.62875	0.41301	8.43053	5056.75842	0.91076	0.00151839	1766.49987	38709.325	162.5178	8919.606
1295.0	0.66731	0.33269	7.27374	7.65889	-3.16024	24.66904	30.01732	1.27992	0.7813	20.47174	127.41498	7.27338	0.40731	8.54642	6828.9701	0.89555	0.00112078	1766.295	37986.945	144.476	9447.497
1290.0	0.70138	0.29862	7.28461	7.64744	-3.30503	24.33553	30.12629	1.27122	0.78665	25.22046	127.83148	8.99251	0.4023	8.66469	8843.22042	0.88051	8.62734E-4	1766.17671	37339.173	129.5544	9901.189
1285.0	0.73114	0.26886	7.29444	7.63708	-3.43595	24.04083	30.21462	1.26345	0.79148	30.04421	128.24799	10.74625	0.39789	8.78533	11089.28391	0.86564	6.85792E-4	1766.13893	36753.546	117.1254	10293.143
1280.0	0.75727	0.24273	7.3034	7.62764	-3.55537	23.77831	30.28507	1.25647	0.79588	34.86245	128.6643	12.50464	0.39398	8.90844	13562.43853	0.85094	5.58936E-4	1766.17585	36220.023	106.7046	10633.398
1275.0	0.7803	0.2197	7.31162	7.61901	-3.6644	23.54495	30.33982	1.25016	0.7999	39.61083	129.08087	14.24338	0.3905	9.03419	16260.75702	0.83639	4.64685E-4	1766.28146	35730.459	97.9128	10930.096
1270.0	0.80069	0.19931	7.3192	7.61108	-3.76467	23.33625	30.38085	1.24444	0.80357	44.24517	129.49746	15.94549	0.38739	9.16265	19186.86821	0.822	3.92546E-4	1766.45093	35278.196	90.4526	11189.893
1265.0	0.81881	0.18119	7.32623	7.60374	-3.85754	23.14832	30.40972	1.23923	0.80695	48.73301	129.91343	17.59829	0.3846	9.29391	22346.08983	0.80777	3.35957E-4	1766.67998	34857.757	84.0878	11418.266
1260.0	0.83497	0.16503	7.33278	7.59687	-3.94444	22.97706	30.42794	1.23446	0.81007	53.05674	130.32816	19.19461	0.38207	9.42812	25748.50854	0.79368	2.90616E-4	1766.96518	34464.608	78.6298	11619.745
1255.0	0.84943	0.15057	7.33892	7.59045	-4.02556	22.82213	30.4367	1.23008	0.81295	57.20017	130.74228	20.72778	0.37979	9.56534	29405.28784	0.77974	2.53646E-4	1767.30207	34094.975	73.9266	11798.103
1250.0	0.86242	0.13758	7.3447	7.58443	-4.10164	22.6814	30.43714	1.22604	0.81563	61.16042	131.15563	22.19615	0.37773	9.70575	33333.31649	0.76595	2.23024E-4	1767.68719	33745.697	69.8556	11956.499
1245.0	0.8741	0.1259	7.35016	7.57873	-4.17375	22.55178	30.43015	1.2223	0.81813	64.93625	131.56745	23.59878	0.37584	9.84947	37550.42448	0.7523	1.97327E-4	1768.11849	33414.116	66.3162	12097.588
1240.0	0.88465	0.11535	7.35535	7.57331	-4.24223	22.43235	30.41655	1.21882	0.82047	68.53053	131.97787	24.93627	0.37411	9.99662	42078.42994	0.73878	1.75513E-4	1768.59297	33097.985	63.2262	12223.616
1235.0	0.8942	0.1058	7.36029	7.56817	-4.30724	22.32272	30.39715	1.21556	0.82266	71.94936	132.38723	26.21047	0.37253	10.14733	46943.2234	0.7254	1.56804E-4	1769.10751	32795.394	60.5182	12336.491
1230.0	0.90287	0.0971333	7.36501	7.56325	-4.36946	22.22092	30.37248	1.21252	0.82473	75.19863	132.795	27.42326	0.37107	10.30177	52171.62329	0.71216	1.40622E-4	1769.66068	32504.714	58.136	12437.84
1225.0	0.91074	0.0892566	7.36953	7.55854	-4.429	22.12666	30.34306	1.20966	0.82668	78.28201	133.20123	28.57569	0.36973	10.46007	57792.22017	0.69905	1.26524E-4	1770.25001	32224.551	56.0326	12529.056
1220.0	0.91793	0.0820657	7.37389	7.55401	-4.48629	22.0387	30.30944	1.20696	0.82853	81.21339	133.6059	29.67271	0.36849	10.62248	63842.74777	0.68606	1.14151E-4	1770.87393	31953.705	54.1692	12611.336
1215.0	0.9245	0.0754994	7.37808	7.54965	-4.54146	21.95674	30.27202	1.2044	0.83029	83.99804	134.00897	30.71605	0.36733	10.78902	70358.97131	0.67321	1.03232E-4	1771.53053	31691.139	52.5132	12685.714
1210.0	0.93051	0.0694886	7.38214	7.54543	-4.59486	21.87969	30.23116	1.20198	0.83196	86.64434	134.41029	31.70867	0.36626	10.9599	77382.47155	0.66049	9.35469E-5	1772.21877	31435.959	51.036	12753.085
1205.0	0.93603	0.0639734	7.38607	7.54135	-4.64642	21.80785	30.18717	1.19967	0.83356	89.16075	134.80997	32.65355	0.36525	11.13543	84958.88531	0.64789	8.49173E-5	1772.93636	31187.384	49.715	12814.226
1200.0	0.94109	0.0589053	7.38989	7.53738	-4.69662	21.73979	30.14037	1.19747	0.83509	91.55597	135.20784	33.55383	0.36431	11.31562	93139.27951	0.63541	7.71971E-5	1773.68312	30944.734	48.53	12869.815
1195.88	0.94496	0.0550437	7.39296	7.53419	-4.73698	21.68657	30.09971	1.19573	0.83631	93.44019	135.53461	34.26266	0.36359	11.46799	100374.9027	0.62521	7.14317E-5	1774.32067	30748.76	 	12911.753
1195.0	0.94594	0.0540616	7.39371	7.53345	-4.74631	21.67276	30.09119	1.19536	0.83657	93.9116	135.61239	34.44002	0.36341	11.48552	102045.7138	0.62389	7.02202E-5	1774.39705	30703.265	48.2938	12924.595
1190.0	0.95136	0.0486442	7.39793	7.52927	-4.79917	21.5949	30.04189	1.19324	0.83805	96.56116	136.05547	35.43745	0.36242	11.58932	112069.4644	0.61619	6.37218E-5	1774.84327	30446.702	51.3126	12994.84
1186.94	0.95439	0.0456125	7.40044	7.52679	-4.83048	21.55031	30.01031	1.192	0.83893	98.09063	136.32342	36.01367	0.36185	11.65539	118570.2199	0.61142	6.01023E-5	1775.12992	30294.008	 	13033.728
1185.0	0.95684	0.0431624	7.40213	7.52509	-4.85194	21.51669	29.99301	1.1911	0.83956	99.30741	136.50867	36.47229	0.36141	11.68867	123163.2469	0.60887	5.7784E-5	1775.49424	30188.42	51.6564	13067.172
1181.45	0.96107	0.0389338	7.40516	7.52206	-4.89028	21.45782	29.96042	1.1895	0.84069	101.45046	136.84359	37.28047	0.36064	11.75153	131905.0555	0.60414	5.38232E-5	1776.16413	29999.613	 	13124.306
1181.45	0.96107	0.0389338	7.40516	7.52206	-4.89028	21.45782	29.96042	1.1895	0.84069	101.45046	136.84359	37.28047	0.36064	11.75153	131905.0555	0.60414	5.38232E-5	1776.16413	29999.613	 	13124.306
1180.0	0.96806	0.0319377	7.40886	7.51835	-4.93721	21.33184	29.94169	1.18905	0.84101	104.84751	137.21802	38.56134	0.35949	11.76075	138666.4984	0.60306	5.11476E-5	1776.088	29803.624	76.9592	13266.383
1175.0	0.9843	0.0157013	7.4186	7.50873	-5.05887	21.02621	29.87545	1.18759	0.84204	113.22438	138.21075	41.72607	0.35676	11.78599	159421.3192	0.5997	4.43357E-5	1776.02732	29291.331	102.4586	13593.456
1170.0	0.99291	0.00709387	7.42535	7.50219	-5.14153	20.84616	29.80583	1.18625	0.84299	118.10393	138.91827	43.57388	0.35521	11.81667	177736.1667	0.59608	3.96298E-5	1776.2542	28935.579	71.1504	13764.35
1165.0	0.99818	0.0018165	7.43078	7.49702	-5.20685	20.72184	29.73397	1.185	0.84388	121.37087	139.50033	44.81303	0.35419	11.8533	195614.6965	0.59218	3.58831E-5	1776.68123	28647.961	57.5236	13867.471
1162.62	1.0	0.0	7.43307	7.49485	-5.23429	20.67445	29.69968	1.1844	0.84431	122.57872	139.75136	45.27165	0.35381	 	204229.588	 	3.43124E-5	 	28525.097	 	13902.471
1160.0	1.0	0.0	7.43442	7.4935	-5.25146	20.66512	29.65762	1.18392	0.84465	122.82891	139.94377	45.3673	0.35372	 	212466.6766	 	3.29221E-5	 	28414.30991	46.73022	 
1155.0	1.0	0.0	7.43698	7.49091	-5.28414	20.64764	29.57717	1.183	0.84531	123.30662	140.31062	45.54997	0.35353	 	229242.9377	 	3.04064E-5	 	28240.84646	34.69269	 
1150.0	1.0	0.0	7.43954	7.48833	-5.31676	20.63025	29.49672	1.18207	0.84597	123.78348	140.67571	45.73237	0.35335	 	247475.9624	 	2.80675E-5	 	28067.65421	34.63845	 
1145.0	1.0	0.0	7.4421	7.48576	-5.3493	20.61294	29.41626	1.18114	0.84664	124.2595	141.03904	45.9145	0.35316	 	267303.3722	 	2.58943E-5	 	27894.73262	34.58432	 
1140.0	1.0	0.0	7.44466	7.48319	-5.38177	20.59572	29.3358	1.1802	0.84731	124.73468	141.40064	46.09637	0.35298	 	288876.837	 	2.3876E-5	 	27722.08113	34.5303	 
1135.0	1.0	0.0	7.44721	7.48063	-5.41416	20.5786	29.25533	1.17926	0.84799	125.20901	141.7605	46.27797	0.35279	 	312363.5664	 	2.20027E-5	 	27549.69924	34.47638	 
1130.0	1.0	0.0	7.44975	7.47807	-5.44648	20.56156	29.17486	1.17832	0.84867	125.6825	142.11863	46.45931	0.35261	 	337948.0649	 	2.02647E-5	 	27377.58638	34.42257	 
1125.0	1.0	0.0	7.45229	7.47552	-5.47873	20.54462	29.09438	1.17736	0.84935	126.15515	142.47504	46.64037	0.35242	 	365834.0204	 	1.86533E-5	 	27205.74202	34.36887	 
1120.0	1.0	0.0	7.45483	7.47298	-5.51091	20.52777	29.01389	1.17641	0.85005	126.62695	142.82974	46.82117	0.35224	 	396246.4496	 	1.71601E-5	 	27034.16563	34.31528	 
1115.0	1.0	0.0	7.45737	7.47044	-5.54302	20.51102	28.9334	1.17545	0.85074	127.0979	143.18273	47.00171	0.35206	 	429434.0881	 	1.57771E-5	 	26862.85665	34.2618	 
1110.0	1.0	0.0	7.45989	7.4679	-5.57505	20.49436	28.8529	1.17448	0.85144	127.56802	143.53403	47.18197	0.35187	 	465672.0741	 	1.44969E-5	 	26691.81456	34.20842	 
1105.0	1.0	0.0	7.46242	7.46538	-5.60701	20.4778	28.77239	1.17351	0.85214	128.03729	143.88363	47.36197	0.35169	 	505264.9352	 	1.33126E-5	 	26521.03879	34.15515	 
1100.0	1.0	0.0	7.46494	7.46285	-5.6389	20.46134	28.69188	1.17253	0.85285	128.50571	144.23156	47.5417	0.35151	 	548550.0014	 	1.22177E-5	 	26350.52882	34.10199	 
1098.78	1.0	0.0	7.46556	7.46224	-5.64667	20.45735	28.67225	1.17229	0.85303	128.61979	144.31613	47.58548	0.35146	 	559704.6013	 	1.19636E-5	 	26308.99754	 	 
1095.0	1.0	0.0	7.46933	7.45847	-5.69428	20.36207	28.51949	1.17532	0.85083	129.32517	144.77597	47.85849	0.35112	 	599553.0679	 	1.11376E-5	 	26072.5483	55.5961	 
1090.0	1.0	0.0	7.47423	7.45358	-5.75621	20.2387	28.3256	1.17905	0.84814	130.22836	145.35544	48.2085	0.35068	 	657127.6456	 	1.01247E-5	 	25765.0148	61.5067	 
1085.0	1.0	0.0	7.47906	7.44877	-5.81697	20.11833	28.13925	1.1825	0.84567	131.10652	145.91354	48.54911	0.35025	 	720839.9973	 	9.19593E-6	 	25463.12029	60.3789	 
1080.0	1.0	0.0	7.48379	7.44406	-5.87658	20.00089	27.95965	1.18572	0.84337	131.96318	146.45453	48.8816	0.34982	 	791396.1909	 	8.34524E-6	 	25166.62708	59.29864	 
1075.0	1.0	0.0	7.48845	7.43943	-5.9351	19.88627	27.78627	1.18871	0.84125	132.80019	146.9805	49.20666	0.34941	 	869589.1883	 	7.56677E-6	 	24875.3057	58.26428	 
1070.0	1.0	0.0	7.49303	7.43488	-5.99256	19.77436	27.6187	1.19148	0.83929	133.61888	147.49277	49.52476	0.34901	 	956310.415	 	6.85508E-6	 	24588.93466	57.27421	 
1065.0	1.0	0.0	7.49753	7.43042	-6.049	19.66506	27.45659	1.19406	0.83748	134.42032	147.99236	49.83632	0.34862	 	1052562.509	 	6.20503E-6	 	24307.30079	56.32677	 
1060.0	1.0	0.0	7.50196	7.42603	-6.10447	19.55824	27.2996	1.19643	0.83582	135.20543	148.48008	50.14168	0.34823	 	1159474.203	 	5.61183E-6	 	24030.1992	55.42032	 
1055.0	1.0	0.0	7.50632	7.42172	-6.15901	19.4538	27.14743	1.19863	0.83429	135.97507	148.95666	50.44116	0.34786	 	1278317.336	 	5.07102E-6	 	23757.43277	54.55328	 
1050.0	1.0	0.0	7.51061	7.41748	-6.21265	19.35163	26.9998	1.20064	0.83289	136.73	149.42273	50.73504	0.34749	 	1410526.354	 	4.57841E-6	 	23488.81231	53.72409	 
1045.0	1.0	0.0	7.51484	7.4133	-6.26544	19.25162	26.85645	1.20249	0.83161	137.47096	149.87887	51.0236	0.34713	 	1557720.314	 	4.13011E-6	 	23224.15641	52.93118	 
1040.0	1.0	0.0	7.51901	7.40919	-6.3174	19.15368	26.71711	1.20418	0.83044	138.19862	150.32561	51.30711	0.34678	 	1721728.365	 	3.72251E-6	 	22963.29124	52.17303	 
1039.03	1.0	0.0	7.51981	7.4084	-6.3274	19.1349	26.69047	1.20449	0.83023	138.33865	150.41147	51.36167	0.34671	 	1755749.238	 	3.64768E-6	 	22912.98349	 	 
1035.0	1.0	0.0	7.52311	7.40515	-6.36849	19.058	26.58158	1.20571	0.82939	138.91391	150.76392	51.58589	0.34643	 	1904660.352	 	3.35218E-6	 	22705.91038	51.47617	 
1030.0	1.0	0.0	7.52716	7.40117	-6.41883	18.96421	26.44961	1.20709	0.82844	139.61718	151.19382	51.86009	0.34609	 	2108828.882	 	3.01606E-6	 	22451.97779	50.78652	 
1025.0	1.0	0.0	7.53115	7.39725	-6.46845	18.87219	26.32101	1.20834	0.82758	140.30896	151.61564	52.12991	0.34576	 	2336880.491	 	2.71128E-6	 	22201.37075	50.12141	 
1020.0	1.0	0.0	7.53509	7.39338	-6.51737	18.78186	26.19557	1.20945	0.82682	140.9898	152.02979	52.39557	0.34544	 	2591822.746	 	2.43518E-6	 	21953.94333	49.48548	 
1015.0	1.0	0.0	7.53898	7.38956	-6.56564	18.69313	26.07312	1.21043	0.82615	141.6602	152.43662	52.65725	0.34512	 	2877068.822	 	2.18526E-6	 	21709.55642	48.87738	 
1010.0	1.0	0.0	7.54283	7.38579	-6.61327	18.60592	25.95349	1.21129	0.82557	142.32065	152.83648	52.91515	0.3448	 	3196495.574	 	1.95925E-6	 	21468.07746	48.29579	 
1005.0	1.0	0.0	7.54663	7.38207	-6.66029	18.52016	25.83651	1.21203	0.82506	142.97162	153.22969	53.16942	0.34449	 	3554511.405	 	1.75505E-6	 	21229.38016	47.73946	 
1000.0	1.0	0.0	7.55039	7.3784	-6.70673	18.43578	25.72204	1.21266	0.82463	143.61353	153.61654	53.42025	0.34419	 	3956133.31	 	1.57071E-6	 	20993.34434	47.20716	 
995.0	1.0	0.0	7.5541	7.37477	-6.75261	18.3527	25.60993	1.21319	0.82427	144.24679	153.99732	53.66779	0.34389	 	4407076.69	 	1.40445E-6	 	20759.85556	46.69776	 
990.0	1.0	0.0	7.55778	7.37119	-6.79796	18.27086	25.50006	1.21361	0.82399	144.87179	154.37228	53.91218	0.34359	 	4913859.182	 	1.25464E-6	 	20528.80496	46.21012	 
985.0	1.0	0.0	7.56141	7.36764	-6.84278	18.19019	25.39229	1.21394	0.82377	145.4889	154.74167	54.15357	0.3433	 	5483920.201	 	1.11977E-6	 	20300.08894	45.7432	 
980.0	1.0	0.0	7.56501	7.36414	-6.88711	18.11063	25.28653	1.21417	0.82361	146.09846	155.10571	54.39209	0.34301	 	6125760.879	 	9.98458E-7	 	20073.60896	45.29599	 
975.0	1.0	0.0	7.56858	7.36067	-6.93096	18.03212	25.18265	1.21432	0.82351	146.70079	155.46462	54.62786	0.34273	 	6849103.893	 	8.89446E-7	 	19849.27127	44.86754	 
970.0	1.0	0.0	7.57211	7.35723	-6.97436	17.95461	25.08055	1.21437	0.82347	147.29621	155.8186	54.861	0.34245	 	7665082.623	 	7.91577E-7	 	19626.98669	44.45692	 
965.0	1.0	0.0	7.57561	7.35384	-7.01731	17.87803	24.98015	1.21435	0.82349	147.88499	156.16784	55.09163	0.34217	 	8586457.278	 	7.03795E-7	 	19406.67034	44.06327	 
960.0	1.0	0.0	7.57907	7.35047	-7.05985	17.80235	24.88135	1.21425	0.82355	148.46743	156.51251	55.31984	0.3419	 	9627869.292	 	6.25133E-7	 	19188.2415	43.68577	 
955.0	1.0	0.0	7.58251	7.34714	-7.10197	17.7275	24.78408	1.21407	0.82367	149.04377	156.85277	55.54574	0.34163	 	1.08061365E7	 	5.54712E-7	 	18971.62329	43.32364	 
950.0	1.0	0.0	7.58592	7.34384	-7.1437	17.65344	24.68824	1.21382	0.82384	149.61425	157.18879	55.76942	0.34136	 	1.214059792E7	 	4.9173E-7	 	18756.74257	42.97614	 
945.0	1.0	0.0	7.5893	7.34057	-7.18505	17.58012	24.59377	1.21351	0.82406	150.17912	157.52071	55.99097	0.3411	 	1.365351557E7	 	4.35455E-7	 	18543.52966	42.64258	 
940.0	1.0	0.0	7.59265	7.33733	-7.22604	17.5075	24.50061	1.21312	0.82432	150.73859	157.84866	56.21048	0.34084	 	1.53705456E7	 	3.85223E-7	 	18331.91822	42.32229	 
935.0	1.0	0.0	7.59598	7.33412	-7.26668	17.43553	24.40868	1.21267	0.82463	151.29285	158.17278	56.42802	0.34058	 	1.732128963E7	 	3.4043E-7	 	18121.84503	42.01464	 
930.0	1.0	0.0	7.59928	7.33093	-7.30698	17.36418	24.31792	1.21216	0.82497	151.84212	158.49319	56.64367	0.34033	 	1.953993932E7	 	3.00527E-7	 	17913.24984	41.71904	 
925.0	1.0	0.0	7.60256	7.32777	-7.34695	17.2934	24.22829	1.21159	0.82536	152.38656	158.80999	56.8575	0.34007	 	2.20660348E7	 	2.65017E-7	 	17706.0752	41.43493	 
920.0	1.0	0.0	7.60581	7.32463	-7.38661	17.22316	24.13972	1.21096	0.82579	152.92636	159.1233	57.06957	0.33982	 	2.494535502E7	 	2.33449E-7	 	17500.26635	41.16177	 
915.0	1.0	0.0	7.60905	7.32152	-7.42596	17.15342	24.05217	1.21027	0.82626	153.46168	159.43323	57.27995	0.33958	 	2.823096669E7	 	2.05415E-7	 	17295.771	40.89907	 
910.0	1.0	0.0	7.61226	7.31843	-7.46502	17.08414	23.96559	1.20953	0.82677	153.99267	159.73986	57.48871	0.33933	 	3.198445451E7	 	1.80546E-7	 	17092.5393	40.64634	 
905.0	1.0	0.0	7.61545	7.31536	-7.50379	17.01529	23.87994	1.20874	0.82731	154.51947	160.04329	57.69588	0.33909	 	3.627737946E7	 	1.58508E-7	 	16890.52361	40.40314	 
900.0	1.0	0.0	7.61862	7.31232	-7.54229	16.94684	23.79517	1.2079	0.82788	155.04224	160.34361	57.90154	0.33884	 	4.119299541E7	 	1.39001E-7	 	16689.67847	40.16903	 
895.0	1.0	0.0	7.62177	7.30929	-7.58052	16.87875	23.71125	1.20701	0.82849	155.56109	160.64089	58.10573	0.3386	 	4.682828524E7	 	1.21752E-7	 	16489.96045	39.9436	 
890.0	1.0	0.0	7.62491	7.30629	-7.6185	16.811	23.62814	1.20607	0.82914	156.07615	160.93522	58.3085	0.33837	 	5.329635727E7	 	1.06518E-7	 	16291.32803	39.72648	 
885.0	1.0	0.0	7.62802	7.30331	-7.65622	16.74356	23.54581	1.20508	0.82982	156.58755	161.22667	58.50989	0.33813	 	6.072931005E7	 	9.30793E-8	 	16093.74156	39.51729	 
880.0	1.0	0.0	7.63112	7.30034	-7.69371	16.67639	23.46422	1.20405	0.83053	157.09538	161.5153	58.70994	0.33789	 	6.928160152E7	 	8.12371E-8	 	15897.16294	39.31572	 
875.0	1.0	0.0	7.6342	7.2974	-7.73095	16.60947	23.38334	1.20298	0.83127	157.59976	161.80119	58.9087	0.33766	 	7.913409644E7	 	7.08144E-8	 	15701.55574	39.12144	 
870.0	1.0	0.0	7.63726	7.29447	-7.76797	16.54278	23.30315	1.20186	0.83204	158.10079	162.0844	59.10621	0.33743	 	9.04988356E7	 	6.1652E-8	 	15506.88578	38.93399	 
865.0	1.0	0.0	7.64031	7.29156	-7.80477	16.47628	23.22363	1.2007	0.83285	158.59855	162.365	59.3025	0.3372	 	1.036247523E8	 	5.36071E-8	 	15313.11995	38.75317	 
860.0	1.0	0.0	7.64334	7.28867	-7.84136	16.40995	23.14473	1.1995	0.83368	159.09315	162.64303	59.4976	0.33697	 	1.188044995E8	 	4.65523E-8	 	15120.22657	38.57868	 
855.0	1.0	0.0	7.64636	7.28579	-7.87773	16.34377	23.06645	1.19826	0.83454	159.58466	162.91856	59.69156	0.33674	 	1.363825833E8	 	4.03733E-8	 	14928.17535	38.41024	 
850.0	1.0	0.0	7.64937	7.28293	-7.91391	16.27772	22.98875	1.19698	0.83543	160.07317	163.19164	59.88439	0.33652	 	1.567651209E8	 	3.49683E-8	 	14736.93737	38.2476	 
845.0	1.0	0.0	7.65165	7.28076	-7.94137	16.25087	22.91837	1.19531	0.8366	160.4742	163.44951	60.04121	0.33637	 	1.779315189E8	 	3.06714E-8	 	14582.37403	30.91267	 
840.0	1.0	0.0	7.65392	7.27859	-7.96875	16.22403	22.84798	1.19364	0.83778	160.87451	163.70623	60.19778	0.33622	 	2.021857088E8	 	2.68714E-8	 	14424.88841	31.49713	 
835.0	1.0	0.0	7.6562	7.27643	-7.99607	16.19719	22.77758	1.19195	0.83896	161.27411	163.96181	60.35412	0.33607	 	2.30011122E8	 	2.35145E-8	 	14267.63646	31.45039	 
830.0	1.0	0.0	7.65846	7.27428	-8.02331	16.17037	22.70717	1.19025	0.84016	161.67299	164.21625	60.51023	0.33591	 	2.619719788E8	 	2.05526E-8	 	14110.61742	31.40381	 
825.0	1.0	0.0	7.66073	7.27213	-8.05048	16.14356	22.63675	1.18854	0.84137	162.07115	164.46956	60.6661	0.33576	 	2.987276352E8	 	1.79421E-8	 	13953.83052	31.35738	 
820.0	1.0	0.0	7.66299	7.26998	-8.07757	16.11675	22.56632	1.18682	0.84259	162.46859	164.72174	60.82173	0.33561	 	3.410496265E8	 	1.5644E-8	 	13797.27496	31.31111	 
815.0	1.0	0.0	7.66524	7.26785	-8.10459	16.08996	22.49588	1.18509	0.84382	162.86531	164.97279	60.97712	0.33546	 	3.898419431E8	 	1.36234E-8	 	13640.94994	31.265	 
810.0	1.0	0.0	7.66749	7.26572	-8.13154	16.06317	22.42542	1.18335	0.84506	163.26132	165.22272	61.13228	0.33531	 	4.461651849E8	 	1.18489E-8	 	13484.85463	31.21906	 
805.0	1.0	0.0	7.66973	7.26359	-8.15841	16.03639	22.35496	1.1816	0.84631	163.6566	165.47154	61.2872	0.33516	 	5.112653773E8	 	1.02925E-8	 	13328.98819	31.17329	 
800.0	1.0	0.0	7.67197	7.26147	-8.18522	16.00963	22.28449	1.17984	0.84757	164.05118	165.71924	61.44188	0.33501	 	5.86608398E8	 	8.92892E-9	 	13173.34977	31.12769	 
795.0	1.0	0.0	7.6742	7.25936	-8.21195	15.98287	22.214	1.17807	0.84885	164.44503	165.96582	61.59633	0.33486	 	6.739211664E8	 	7.73588E-9	 	13017.93846	31.08226	 
790.0	1.0	0.0	7.67643	7.25725	-8.2386	15.95612	22.1435	1.17629	0.85013	164.83817	166.2113	61.75054	0.33471	 	7.75240997E8	 	6.69337E-9	 	12862.75335	31.03702	 
785.0	1.0	0.0	7.67866	7.25515	-8.26518	15.92938	22.07299	1.1745	0.85143	165.23059	166.45568	61.90452	0.33456	 	8.92974824E8	 	5.78355E-9	 	12707.79354	30.99196	 
780.0	1.0	0.0	7.68088	7.25305	-8.29169	15.90265	22.00247	1.17269	0.85274	165.62229	166.69895	62.05826	0.33441	 	1.029970378E9	 	4.99059E-9	 	12553.05805	30.9471	 
775.0	1.0	0.0	7.68309	7.25096	-8.31813	15.87593	21.93193	1.17088	0.85406	166.01328	166.94113	62.21176	0.33426	 	1.189601861E9	 	4.3004E-9	 	12398.54591	30.90243	 
770.0	1.0	0.0	7.6853	7.24887	-8.3445	15.84922	21.86139	1.16906	0.85539	166.40355	167.18221	62.36502	0.33411	 	1.375873224E9	 	3.70045E-9	 	12244.2561	30.85796	 
765.0	1.0	0.0	7.68751	7.24679	-8.37079	15.82252	21.79083	1.16722	0.85674	166.79311	167.4222	62.51805	0.33396	 	1.593542882E9	 	3.17968E-9	 	12090.18756	30.81371	 
760.0	1.0	0.0	7.68971	7.24472	-8.39701	15.79583	21.72025	1.16537	0.8581	167.18195	167.66111	62.67084	0.33381	 	1.848274524E9	 	2.72825E-9	 	11936.33925	30.76966	 
755.0	1.0	0.0	7.6919	7.24265	-8.42315	15.76915	21.64967	1.16351	0.85947	167.57008	167.89893	62.8234	0.33366	 	2.146819812E9	 	2.33748E-9	 	11782.71004	30.72584	 
750.0	1.0	0.0	7.69409	7.24059	-8.44923	15.74248	21.57907	1.16164	0.86085	167.95749	168.13567	62.97572	0.33351	 	2.497240036E9	 	1.9997E-9	 	11629.29877	30.68225	 
745.0	1.0	0.0	7.69628	7.23853	-8.47523	15.71582	21.50846	1.15976	0.86225	168.34418	168.37133	63.1278	0.33336	 	2.909175522E9	 	1.70816E-9	 	11476.10427	30.6389	 
740.0	1.0	0.0	7.69846	7.23648	-8.50116	15.68916	21.43783	1.15787	0.86366	168.73017	168.60592	63.27964	0.33321	 	3.394173593E9	 	1.45689E-9	 	11323.1253	30.5958	 
735.0	1.0	0.0	7.70064	7.23444	-8.52701	15.66252	21.36719	1.15596	0.86508	169.11543	168.83944	63.43125	0.33306	 	3.966088525E9	 	1.24065E-9	 	11170.36058	30.55294	 
730.0	1.0	0.0	7.70281	7.2324	-8.55279	15.63589	21.29653	1.15405	0.86652	169.49999	169.0719	63.58262	0.33291	 	4.641570134E9	 	1.05484E-9	 	11017.80878	30.51036	 
725.0	1.0	0.0	7.70497	7.23037	-8.5785	15.60926	21.22586	1.15212	0.86797	169.88382	169.30329	63.73375	0.33276	 	5.440661688E9	 	8.95428E-10	 	10865.46855	30.46805	 
720.0	1.0	0.0	7.70713	7.22834	-8.60414	15.58265	21.15518	1.15018	0.86943	170.26695	169.53362	63.88465	0.33261	 	6.387532929E9	 	7.58872E-10	 	10713.33843	30.42602	 
715.0	1.0	0.0	7.70929	7.22632	-8.62971	15.55604	21.08448	1.14822	0.87091	170.64936	169.76289	64.03531	0.33246	 	7.511380341E9	 	6.42081E-10	 	10561.41694	30.3843	 
710.0	1.0	0.0	7.71144	7.2243	-8.6552	15.52944	21.01376	1.14626	0.8724	171.03106	169.99111	64.18573	0.33231	 	8.847534887E9	 	5.42356E-10	 	10409.70253	30.34288	 
705.0	1.0	0.0	7.71359	7.22229	-8.68062	15.50286	20.94303	1.14428	0.87391	171.41204	170.21828	64.33591	0.33216	 	1.04388E10	 	4.57341E-10	 	10258.19357	30.30179	 
700.0	1.0	0.0	7.71573	7.22028	-8.70597	15.47628	20.87228	1.14229	0.87544	171.79231	170.4444	64.48586	0.33202	 	1.2337299999999998E10	 	3.84988E-10	 	10106.88837	30.26104	 
695.0	1.0	0.0	7.71787	7.21829	-8.73125	15.44971	20.80151	1.14029	0.87697	172.17187	170.66948	64.63557	0.33187	 	1.4606199999999998E10	 	3.23514E-10	 	9955.78514	30.22064	 
690.0	1.0	0.0	7.72	7.21629	-8.75645	15.42315	20.73073	1.13827	0.87853	172.55071	170.89352	64.78505	0.33172	 	1.73227E10	 	2.71373E-10	 	9804.88206	30.18062	 
685.0	1.0	0.0	7.72213	7.2143	-8.78158	15.3966	20.65993	1.13624	0.88009	172.92884	171.11651	64.93428	0.33157	 	2.0581E10	 	2.27224E-10	 	9654.17718	30.14098	 
680.0	1.0	0.0	7.72425	7.21232	-8.80664	15.37006	20.58912	1.1342	0.88168	173.30626	171.33848	65.08328	0.33142	 	2.4496399999999996E10	 	1.89909E-10	 	9503.66843	30.10175	 
675.0	1.0	0.0	7.72637	7.21035	-8.83163	15.34353	20.51829	1.13215	0.88328	173.68297	171.55941	65.23204	0.33127	 	2.9210399999999996E10	 	1.58426E-10	 	9353.35371	30.06294	 
670.0	1.0	0.0	7.72848	7.20838	-8.85655	15.31701	20.44743	1.13008	0.8849	174.05896	171.77932	65.38057	0.33112	 	3.48965E10	 	1.31912E-10	 	9203.23075	30.02459	 
665.0	1.0	0.0	7.73059	7.20641	-8.88139	15.2905	20.37656	1.128	0.88653	174.43424	171.9982	65.52885	0.33097	 	4.17687E10	 	1.09625E-10	 	9053.29721	29.98671	 
660.0	1.0	0.0	7.73269	7.20445	-8.90616	15.264	20.30568	1.1259	0.88818	174.80881	172.21605	65.6769	0.33082	 	5.009049999999999E10	 	9.09249E-11	 	8903.55634	29.94817	 
655.0	1.0	0.0	7.73479	7.2025	-8.93086	15.23751	20.23477	1.12379	0.88984	175.18267	172.43289	65.82471	0.33068	 	6.018809999999999E10	 	7.52652E-11	 	8754.04003	29.90326	 
650.0	1.0	0.0	7.73688	7.20055	-8.95549	15.21102	20.16384	1.12167	0.89153	175.55582	172.64872	65.97229	0.33053	 	7.24652E10	 	6.2177E-11	 	8604.79064	29.84988	 
645.0	1.0	0.0	7.73896	7.19861	-8.98005	15.18455	20.0929	1.11953	0.89323	175.92825	172.86353	66.11962	0.33038	 	8.74232E10	 	5.12594E-11	 	8455.80716	29.79669	 
640.0	1.0	0.0	7.74105	7.19667	-9.00453	15.15809	20.02193	1.11738	0.89495	176.29997	173.07733	66.26672	0.33023	 	1.05686E11	 	4.21709E-11	 	8307.08864	29.7437	 
635.0	1.0	0.0	7.74312	7.19474	-9.02894	15.13163	19.95094	1.11522	0.89668	176.67099	173.29012	66.41358	0.33008	 	1.2803E11	 	3.46204E-11	 	8158.63411	29.69091	 
630.0	1.0	0.0	7.7452	7.19282	-9.05328	15.10519	19.87994	1.11304	0.89844	177.04129	173.50191	66.56021	0.32993	 	1.55429E11	 	2.83606E-11	 	8010.4426	29.6383	 
625.0	1.0	0.0	7.74726	7.1909	-9.07755	15.07875	19.80891	1.11085	0.90021	177.41088	173.7127	66.70659	0.32979	 	1.89099E11	 	2.31818E-11	 	7862.51285	29.58595	 
620.0	1.0	0.0	7.74933	7.18898	-9.10175	15.05233	19.73786	1.10864	0.90201	177.77975	173.92249	66.85274	0.32964	 	2.30568E11	 	1.89066E-11	 	7714.84318	29.53393	 
615.0	1.0	0.0	7.75138	7.18708	-9.12587	15.02591	19.66679	1.10642	0.90382	178.14792	174.13129	66.99865	0.32949	 	2.81759E11	 	1.53849E-11	 	7567.433	29.48204	 
610.0	1.0	0.0	7.75344	7.18517	-9.14993	14.9995	19.59569	1.10418	0.90565	178.51538	174.33909	67.14432	0.32934	 	3.45099E11	 	1.24904E-11	 	7420.28138	29.43032	 
605.0	1.0	0.0	7.75548	7.18328	-9.17391	14.97311	19.52457	1.10193	0.9075	178.88213	174.54591	67.28976	0.32919	 	4.23655E11	 	1.01168E-11	 	7273.38737	29.3788	 
600.0	1.0	0.0	7.75753	7.18139	-9.19782	14.94672	19.45343	1.09966	0.90937	179.24816	174.75174	67.43495	0.32904	 	5.21316E11	 	8.17474E-12	 	7126.75004	29.32747	 
595.0	1.0	0.0	7.75956	7.1795	-9.22166	14.92034	19.38227	1.09738	0.91126	179.61349	174.95659	67.57991	0.3289	 	6.43025E11	 	6.58952E-12	 	6980.36844	29.27632	 
590.0	1.0	0.0	7.76159	7.17762	-9.24543	14.89397	19.31108	1.09508	0.91318	179.97811	175.16046	67.72463	0.32875	 	7.95078E11	 	5.29862E-12	 	6834.24165	29.22536	 
585.0	1.0	0.0	7.76362	7.17575	-9.26912	14.86761	19.23987	1.09277	0.91511	180.34201	175.36335	67.86911	0.3286	 	9.85522E11	 	4.24995E-12	 	6688.36875	29.17458	 
580.0	1.0	0.0	7.76564	7.17388	-9.29275	14.84126	19.16863	1.09044	0.91706	180.70521	175.56526	68.01335	0.32845	 	1.22466E12	 	3.40014E-12	 	6542.7488	29.12399	 
575.0	1.0	0.0	7.76766	7.17201	-9.3163	14.81492	19.09737	1.08809	0.91904	181.0677	175.7662	68.15736	0.32831	 	1.52573E12	 	2.7132E-12	 	6397.38088	29.07358	 
570.0	1.0	0.0	7.76967	7.17016	-9.33979	14.78859	19.02608	1.08573	0.92104	181.42947	175.96618	68.30112	0.32816	 	1.90577E12	 	2.15934E-12	 	6252.26408	29.02336	 
565.0	1.0	0.0	7.77168	7.16831	-9.3632	14.76227	18.95476	1.08335	0.92306	181.79054	176.16519	68.44465	0.32801	 	2.38681E12	 	1.71392E-12	 	6107.39749	28.97332	 
560.0	1.0	0.0	7.77368	7.16646	-9.38654	14.73595	18.88342	1.08096	0.92511	182.1509	176.36324	68.58794	0.32786	 	2.99735E12	 	1.35666E-12	 	5962.7802	28.92346	 
555.0	1.0	0.0	7.77568	7.16462	-9.4098	14.70965	18.81205	1.07855	0.92717	182.51055	176.56032	68.73099	0.32772	 	3.77443E12	 	1.07089E-12	 	5818.41129	28.87378	 
550.0	1.0	0.0	7.77767	7.16279	-9.433	14.68336	18.74065	1.07612	0.92926	182.86949	176.75645	68.87381	0.32757	 	4.76631E12	 	8.42914E-13	 	5674.28988	28.82428	 
545.0	1.0	0.0	7.77966	7.16096	-9.45613	14.65707	18.66922	1.07367	0.93138	183.22772	176.95162	69.01638	0.32742	 	6.03603E12	 	6.61559E-13	 	5530.41507	28.77496	 
540.0	1.0	0.0	7.78164	7.15913	-9.47918	14.6308	18.59776	1.07121	0.93352	183.58524	177.14585	69.15871	0.32727	 	7.66622E12	 	5.17697E-13	 	5386.78595	28.72582	 
535.0	1.0	0.0	7.78361	7.15732	-9.50217	14.60453	18.52628	1.06873	0.93569	183.94206	177.33912	69.30081	0.32713	 	9.76555E12	 	4.03908E-13	 	5243.40166	28.67686	 
530.0	1.0	0.0	7.78559	7.1555	-9.52508	14.57828	18.45476	1.06624	0.93788	184.29816	177.53145	69.44267	0.32698	 	1.24773E13	 	3.14169E-13	 	5100.26129	28.62807	 
525.0	1.0	0.0	7.78755	7.1537	-9.54792	14.55203	18.38321	1.06372	0.94009	184.65356	177.72283	69.58429	0.32683	 	1.59911E13	 	2.43609E-13	 	4957.36397	28.57946	 
520.0	1.0	0.0	7.78951	7.1519	-9.57069	14.52579	18.31164	1.06119	0.94234	185.00825	177.91327	69.72566	0.32669	 	2.05586E13	 	1.88299E-13	 	4814.70884	28.53103	 
515.0	1.0	0.0	7.79147	7.1501	-9.59339	14.49957	18.24002	1.05864	0.94461	185.36223	178.10278	69.86681	0.32654	 	2.65151E13	 	1.45078E-13	 	4672.29502	28.48276	 
510.0	1.0	0.0	7.79342	7.14831	-9.61602	14.47335	18.16838	1.05608	0.9469	185.7155	178.29134	70.00771	0.32639	 	3.43088E13	 	1.11411E-13	 	4530.12165	28.43467	 
505.0	1.0	0.0	7.79536	7.14653	-9.63858	14.44714	18.0967	1.05349	0.94923	186.06806	178.47898	70.14837	0.32625	 	4.45404E13	 	8.52698E-14	 	4388.18787	28.38676	 
500.0	1.0	0.0	7.7973	7.14475	-9.66107	14.42094	18.02499	1.05088	0.95158	186.41992	178.66568	70.28879	0.3261	 	5.8019E13	 	6.504E-14	 	4246.49283	28.33901	 
495.0	1.0	0.0	7.79924	7.14298	-9.68348	14.39475	17.95324	1.04826	0.95396	186.77106	178.85146	70.42898	0.32595	 	7.58369E13	 	4.9437E-14	 	4105.0357	28.29143	 
490.0	1.0	0.0	7.80117	7.14121	-9.70583	14.36857	17.88146	1.04562	0.95637	187.1215	179.03631	70.56892	0.32581	 	9.94752E13	 	3.7444E-14	 	3963.81561	28.24402	 
485.0	1.0	0.0	7.8031	7.13945	-9.72811	14.3424	17.80964	1.04296	0.95881	187.47123	179.22024	70.70863	0.32566	 	1.3094899999999998E14	 	2.82578E-14	 	3822.83176	28.19677	 
480.0	1.0	0.0	7.80502	7.13769	-9.75031	14.31624	17.73779	1.04028	0.96128	187.82026	179.40325	70.84809	0.32551	 	1.73012E14	 	2.12467E-14	 	3682.0833	28.14969	 
475.0	1.0	0.0	7.80693	7.13594	-9.77245	14.29009	17.66589	1.03757	0.96379	188.16857	179.58535	70.98732	0.32537	 	2.29439E14	 	1.5915E-14	 	3541.56941	28.10278	 
470.0	1.0	0.0	7.80884	7.13419	-9.79451	14.26395	17.59396	1.03485	0.96632	188.51618	179.76653	71.1263	0.32522	 	3.05427E14	 	1.18756E-14	 	3401.28929	28.05602	 
465.0	1.0	0.0	7.81074	7.13245	-9.8165	14.23782	17.52199	1.03211	0.96889	188.86308	179.94679	71.26505	0.32508	 	4.08161E14	 	8.82673E-15	 	3261.24213	28.00943	 
460.0	1.0	0.0	7.81264	7.13072	-9.83842	14.21169	17.44997	1.02935	0.97148	189.20928	180.12615	71.40356	0.32493	 	5.4761099999999994E14	 	6.53442E-15	 	3121.42711	27.963	 
455.0	1.0	0.0	7.81454	7.12899	-9.86028	14.18558	17.37792	1.02657	0.97412	189.55476	180.3046	71.54182	0.32478	 	7.37677E14	 	4.81772E-15	 	2981.84347	27.91673	 
450.0	1.0	0.0	7.81643	7.12727	-9.88206	14.15947	17.30583	1.02377	0.97678	189.89954	180.48215	71.67985	0.32464	 	9.97814E14	 	3.53725E-15	 	2842.49041	27.87061	 
445.0	1.0	0.0	7.81831	7.12555	-9.90377	14.13338	17.23369	1.02095	0.97948	190.24362	180.65879	71.81764	0.32449	 	1.35538E15	 	2.58608E-15	 	2703.36716	27.82465	 
440.0	1.0	0.0	7.82019	7.12384	-9.92541	14.10729	17.1615	1.0181	0.98222	190.58698	180.83454	71.95519	0.32434	 	1.84899E15	 	1.88249E-15	 	2564.47294	27.77884	 
435.0	1.0	0.0	7.82206	7.12214	-9.94698	14.08122	17.08928	1.01524	0.98499	190.92964	181.00939	72.0925	0.3242	 	2.53346E15	 	1.36426E-15	 	2425.807	27.73319	 
430.0	1.0	0.0	7.82393	7.12044	-9.96848	14.05515	17.017	1.01235	0.9878	191.27159	181.18334	72.22956	0.32405	 	3.4869E15	 	9.84227E-16	 	2287.3686	27.68768	 
425.0	1.0	0.0	7.82579	7.11874	-9.98991	14.0291	16.94468	1.00944	0.99065	191.61284	181.3564	72.36639	0.32391	 	4.82116E15	 	7.0678E-16	 	2149.15707	27.64231	 
420.0	1.0	0.0	7.82765	7.11705	-10.01127	14.00305	16.87232	1.00651	0.99353	191.95338	181.52858	72.50298	0.32376	 	6.6972E15	 	5.0515E-16	 	2011.17154	27.59711	 
415.0	1.0	0.0	7.8295	7.11537	-10.03256	13.97701	16.7999	1.00356	0.99645	192.29321	181.69986	72.63932	0.32362	 	9.3478E15	 	3.59303E-16	 	1873.41165	27.55198	 
410.0	1.0	0.0	7.83135	7.11369	-10.05378	13.95098	16.72743	1.00058	0.99942	192.63234	181.87027	72.77543	0.32347	 	1.31113E16	 	2.54306E-16	 	1735.87715	27.5069	 
405.0	1.0	0.0	7.83319	7.11202	-10.07493	13.92496	16.65491	0.99758	1.00242	192.97075	182.03979	72.9113	0.32333	 	1.8482E16	 	1.79087E-16	 	1598.56783	27.46187	 
400.0	1.0	0.0	7.83503	7.11035	-10.09601	13.89895	16.58234	0.99456	1.00547	193.30847	182.20843	73.04692	0.32318	 	2.61858E16	 	1.25468E-16	 	1461.48347	27.41687	 
395.0	1.0	0.0	7.83686	7.10869	-10.11702	13.87295	16.50972	0.99152	1.00856	193.64547	182.37619	73.18231	0.32303	 	3.72948E16	 	8.74403E-17	 	1324.62385	27.37192	 
390.0	1.0	0.0	7.83868	7.10703	-10.13796	13.84696	16.43704	0.98845	1.01169	193.98178	182.54308	73.31745	0.32289	 	5.34007E16	 	6.0611E-17	 	1187.98881	27.32701	 
385.0	1.0	0.0	7.84051	7.10538	-10.15883	13.82098	16.36431	0.98536	1.01486	194.31737	182.7091	73.45236	0.32274	 	7.68802E16	 	4.17828E-17	 	1051.57815	27.28213	 
380.0	1.0	0.0	7.84232	7.10374	-10.17963	13.79501	16.29152	0.98224	1.01808	194.65226	182.87425	73.58702	0.3226	 	1.11303E17	 	2.86414E-17	 	915.39172	27.23729	 
375.0	1.0	0.0	7.84413	7.1021	-10.20036	13.76905	16.21867	0.9791	1.02135	194.98644	183.03853	73.72144	0.32245	 	1.6206E17	 	1.95204E-17	 	779.42936	27.19247	 
370.0	1.0	0.0	7.84594	7.10046	-10.22102	13.7431	16.14576	0.97593	1.02466	195.31992	183.20194	73.85562	0.32231	 	2.37346E17	 	1.32257E-17	 	643.69093	27.14769	 
365.0	1.0	0.0	7.84774	7.09883	-10.24161	13.71715	16.07278	0.97274	1.02802	195.65269	183.3645	73.98956	0.32216	 	3.49691E17	 	8.90687E-18	 	508.1763	27.10293	 
360.0	1.0	0.0	7.84953	7.09721	-10.26213	13.69122	15.99975	0.96953	1.03143	195.98476	183.52619	74.12326	0.32202	 	5.18377E17	 	5.96139E-18	 	372.88538	27.05818	 
355.0	1.0	0.0	7.85132	7.09559	-10.28258	13.66529	15.92665	0.96628	1.03489	196.31612	183.68702	74.25672	0.32187	 	7.73266E17	 	3.9648E-18	 	237.81806	27.01347	 
350.0	1.0	0.0	7.8531	7.09398	-10.30296	13.63938	15.85348	0.96302	1.0384	196.64677	183.847	74.38993	0.32173	 	1.16091E18	 	2.61987E-18	 	102.97426	26.96876	 
345.0	1.0	0.0	7.85488	7.09238	-10.32328	13.61347	15.78025	0.95972	1.04197	196.97672	184.00613	74.52291	0.32158	 	1.75438E18	 	1.71971E-18	 	-31.64607	26.92407	 
340.0	1.0	0.0	7.85666	7.09077	-10.34352	13.58758	15.70695	0.9564	1.04558	197.30596	184.1644	74.65564	0.32144	 	2.66916E18	 	1.12119E-18	 	-166.04298	26.87938	 
335.0	1.0	0.0	7.85842	7.08918	-10.36369	13.56169	15.63358	0.95306	1.04926	197.6345	184.32183	74.78814	0.3213	 	4.08904E18	 	7.25899E-19	 	-300.21648	26.8347	 
330.0	1.0	0.0	7.86019	7.08759	-10.38379	13.53582	15.56013	0.94968	1.05298	197.96234	184.47841	74.92039	0.32115	 	6.30869E18	 	4.6663E-19	 	-434.1666	26.79002	 
325.0	1.0	0.0	7.86195	7.086	-10.40383	13.50995	15.48661	0.94628	1.05677	198.28946	184.63414	75.0524	0.32101	 	9.80405E18	 	2.97777E-19	 	-567.89331	26.74534	 
320.0	1.0	0.0	7.8637	7.08443	-10.42379	13.48409	15.41301	0.94285	1.06061	198.61589	184.78904	75.18416	0.32086	 	1.53497E19	 	1.88604E-19	 	-701.3966	26.70066	 
315.0	1.0	0.0	7.86544	7.08285	-10.44369	13.45824	15.33934	0.93939	1.06452	198.9416	184.94309	75.31569	0.32072	 	2.42161E19	 	1.18542E-19	 	-834.67638	26.65596	 
310.0	1.0	0.0	7.86719	7.08128	-10.46351	13.4324	15.26558	0.93591	1.06848	199.26662	185.0963	75.44698	0.32057	 	3.85038E19	 	7.39202E-20	 	-967.7326	26.61124	 
305.0	1.0	0.0	7.86892	7.07972	-10.48327	13.40657	15.19174	0.93239	1.07251	199.59092	185.24869	75.57802	0.32043	 	6.17145E19	 	4.57235E-20	 	-1100.56515	26.56651	 
300.0	1.0	0.0	7.87065	7.07816	-10.50296	13.38075	15.11782	0.92885	1.0766	199.91453	185.40023	75.70882	0.32029	 	9.97345E19	 	2.80485E-20	 	-1233.17391	26.52175	 
295.0	1.0	0.0	7.87238	7.07661	-10.52257	13.35494	15.04381	0.92528	1.08076	200.23743	185.55095	75.83938	0.32014	 	1.62545E20	 	1.70599E-20	 	-1365.55873	26.47696	 
290.0	1.0	0.0	7.8741	7.07507	-10.54212	13.32914	14.96971	0.92167	1.08498	200.55962	185.70084	75.96969	0.32	 	2.6721899999999997E20	 	1.02859E-20	 	-1497.71943	26.43214	 
285.0	1.0	0.0	7.87581	7.07353	-10.5616	13.30335	14.89552	0.91804	1.08928	200.88111	185.8499	76.09977	0.31985	 	4.4322999999999993E20	 	6.14623E-21	 	-1629.65581	26.38728	 
280.0	1.0	0.0	7.87752	7.07199	-10.58101	13.27757	14.82123	0.91438	1.09364	201.20189	185.99814	76.2296	0.31971	 	7.41932E20	 	3.63886E-21	 	-1761.36763	26.34236	 
275.0	1.0	0.0	7.87923	7.07046	-10.60035	13.25179	14.74685	0.91068	1.09808	201.52197	186.14556	76.35919	0.31957	 	1.2536600000000001E21	 	2.13406E-21	 	-1892.85464	26.2974	 
270.0	1.0	0.0	7.88093	7.06894	-10.61962	13.22603	14.67236	0.90696	1.10259	201.84135	186.29216	76.48854	0.31942	 	2.1389000000000001E21	 	1.23941E-21	 	-2024.11655	26.25238	 
265.0	1.0	0.0	7.88262	7.06742	-10.63883	13.20028	14.59778	0.9032	1.10718	202.16002	186.43794	76.61764	0.31928	 	3.68565E21	 	7.1265E-22	 	-2155.15302	26.20729	 
260.0	1.0	0.0	7.88431	7.06591	-10.65796	13.17453	14.52309	0.89941	1.11184	202.47799	186.5829	76.7465	0.31913	 	6.416060000000001E21	 	4.05572E-22	 	-2285.96369	26.16213	 
255.0	1.0	0.0	7.88599	7.0644	-10.67703	13.1488	14.44829	0.89559	1.11659	202.79525	186.72705	76.87512	0.31899	 	1.12871E22	 	2.28382E-22	 	-2416.54818	26.1169	 
250.0	1.0	0.0	7.88767	7.0629	-10.69602	13.12307	14.37338	0.89173	1.12142	203.11181	186.87039	77.0035	0.31885	 	2.00717E22	 	1.27212E-22	 	-2546.90604	26.07157	 
245.0	1.0	0.0	7.88934	7.0614	-10.71495	13.09736	14.29836	0.88784	1.12633	203.42766	187.01292	77.13164	0.3187	 	3.6091999999999997E22	 	7.00698E-23	 	-2677.03679	26.02615	 
240.0	1.0	0.0	7.89101	7.05991	-10.73381	13.07165	14.22322	0.88392	1.13133	203.74281	187.15465	77.25953	0.31856	 	6.5645499999999995E22	 	3.81528E-23	 	-2806.93993	25.98063	 
235.0	1.0	0.0	7.89267	7.05842	-10.7526	13.04595	14.14795	0.87996	1.13641	204.05726	187.29557	77.38718	0.31842	 	1.20812E23	 	2.0529E-23	 	-2936.61491	25.93499	 
230.0	1.0	0.0	7.89432	7.05694	-10.77132	13.02026	14.07256	0.87597	1.14159	204.371	187.43569	77.51458	0.31827	 	2.2505099999999997E23	 	1.0912E-23	 	-3066.0611	25.88924	 
225.0	1.0	0.0	7.89598	7.05547	-10.78997	12.99459	13.99705	0.87195	1.14686	204.68404	187.575	77.64174	0.31813	 	4.24498E23	 	5.72758E-24	 	-3195.27786	25.84335	 
220.0	1.0	0.0	7.89762	7.054	-10.80855	12.96892	13.9214	0.86789	1.15223	204.99637	187.71352	77.76866	0.31799	 	8.1107E23	 	2.96762E-24	 	-3324.26449	25.79733	 
215.0	1.0	0.0	7.89926	7.05253	-10.82707	12.94326	13.84561	0.86379	1.15769	205.30801	187.85124	77.89534	0.31785	 	1.57037E24	 	1.51719E-24	 	-3453.02023	25.75115	 
210.0	1.0	0.0	7.90089	7.05107	-10.84551	12.91761	13.76968	0.85965	1.16326	205.61893	187.98817	78.02177	0.3177	 	3.08236E24	 	7.65043E-25	 	-3581.54427	25.70481	 
205.0	1.0	0.0	7.90252	7.04962	-10.86389	12.89197	13.69361	0.85548	1.16893	205.92916	188.12431	78.14796	0.31756	 	6.13607E24	 	3.8033E-25	 	-3709.83575	25.65829	 
200.0	1.0	0.0	7.90415	7.04817	-10.8822	12.86634	13.61739	0.85128	1.17471	206.23868	188.25966	78.27391	0.31742	 	1.23941E25	 	1.86324E-25	 	-3837.89372	25.61159	 
195.0	1.0	0.0	7.90577	7.04673	-10.90044	12.84072	13.54101	0.84703	1.18059	206.5475	188.39421	78.39961	0.31727	 	2.54135E25	 	8.99097E-26	 	-3965.71719	25.56469	 
190.0	1.0	0.0	7.90738	7.04529	-10.91861	12.8151	13.46447	0.84275	1.18659	206.85561	188.52799	78.52507	0.31713	 	5.292330000000001E25	 	4.27131E-26	 	-4093.30511	25.51758	 
185.0	1.0	0.0	7.90899	7.04386	-10.93672	12.7895	13.38777	0.83843	1.19271	207.16302	188.66098	78.65029	0.31699	 	1.1199100000000001E26	 	1.9967E-26	 	-4220.65632	25.47024	 
180.0	1.0	0.0	7.91059	7.04243	-10.95475	12.76391	13.31089	0.83407	1.19894	207.46973	188.79318	78.77526	0.31685	 	2.40936E26	 	9.17966E-27	 	-4347.76963	25.42266	 
175.0	1.0	0.0	7.91218	7.04101	-10.97272	12.73833	13.23384	0.82967	1.2053	207.77573	188.92461	78.89999	0.3167	 	5.2728500000000004E26	 	4.14825E-27	 	-4474.64374	25.37482	 
170.0	1.0	0.0	7.91377	7.0396	-10.99062	12.71275	13.15661	0.82523	1.21179	208.08103	189.05526	79.02448	0.31656	 	1.17453E27	 	1.8415E-27	 	-4601.27726	25.3267	 
165.0	1.0	0.0	7.91536	7.03819	-11.00845	12.68719	13.07919	0.82074	1.21841	208.38563	189.18513	79.14872	0.31642	 	2.66454E27	 	8.02578E-28	 	-4727.66874	25.2783	 
160.0	1.0	0.0	7.91694	7.03678	-11.02621	12.66163	13.00157	0.81622	1.22516	208.68953	189.31423	79.27271	0.31628	 	6.16018E27	 	3.43188E-28	 	-4853.81661	25.22957	 
155.0	1.0	0.0	7.91852	7.03538	-11.0439	12.63609	12.92375	0.81166	1.23204	208.99272	189.44256	79.39647	0.31613	 	1.4523300000000001E28	 	1.43886E-28	 	-4979.71921	25.18052	 
150.0	1.0	0.0	7.92008	7.03399	-11.06153	12.61055	12.84572	0.80705	1.23908	209.29521	189.57012	79.51998	0.31599	 	3.4941300000000003E28	 	5.91074E-29	 	-5105.37476	25.13111	 
145.0	1.0	0.0	7.92165	7.0326	-11.07909	12.58502	12.76747	0.8024	1.24625	209.597	189.69691	79.64324	0.31585	 	8.58483E28	 	2.37732E-29	 	-5230.78141	25.08133	 
140.0	1.0	0.0	7.92321	7.03122	-11.09658	12.55951	12.689	0.79771	1.25358	209.89808	189.82294	79.76626	0.31571	 	2.15562E29	 	9.35452E-30	 	-5355.93713	25.03114	 
135.0	1.0	0.0	7.92476	7.02984	-11.114	12.534	12.6103	0.79298	1.26107	210.19846	189.9482	79.88904	0.31557	 	5.5361900000000006E29	 	3.59828E-30	 	-5480.8398	24.98053	 
130.0	1.0	0.0	7.92631	7.02847	-11.13135	12.5085	12.53135	0.7882	1.26872	210.49814	190.0727	80.01157	0.31542	 	1.45549E30	 	1.3519E-30	 	-5605.48716	24.92947	 
125.0	1.0	0.0	7.92785	7.0271	-11.14864	12.48301	12.45216	0.78337	1.27653	210.79712	190.19644	80.13386	0.31528	 	3.9206E30	 	4.95657E-31	 	-5729.87681	24.87793	 
120.0	1.0	0.0	7.92939	7.02574	-11.16586	12.45753	12.3727	0.7785	1.28452	211.0954	190.31942	80.2559	0.31514	 	1.08303E31	 	1.77176E-31	 	-5854.0062	24.82588	 
115.0	1.0	0.0	7.93092	7.02438	-11.18301	12.43206	12.29297	0.77359	1.29268	211.39297	190.44165	80.3777	0.315	 	3.07113E31	 	6.16861E-32	 	-5977.8726	24.77328	 
110.0	1.0	0.0	7.93244	7.02303	-11.20009	12.4066	12.21296	0.76862	1.30103	211.68984	190.56312	80.49926	0.31486	 	8.94892E31	 	2.08971E-32	 	-6101.47312	24.7201	 
105.0	1.0	0.0	7.93396	7.02168	-11.2171	12.38115	12.13266	0.76361	1.30956	211.98601	190.68384	80.62057	0.31471	 	2.68241E32	 	6.88059E-33	 	-6224.8047	24.66632	 
100.0	1.0	0.0	7.93548	7.02034	-11.23405	12.35571	12.05205	0.75856	1.31829	212.28148	190.80381	80.74163	0.31457	 	8.280489999999999E32	 	2.19945E-33	 	-6347.86406	24.61187	 
95.0	1.0	0.0	7.93699	7.01901	-11.25093	12.33028	11.97112	0.75345	1.32722	212.57625	190.92303	80.86245	0.31443	 	2.63563E33	 	6.81754E-34	 	-6470.64773	24.55673	 
90.0	1.0	0.0	7.93849	7.01768	-11.26774	12.30485	11.88986	0.7483	1.33636	212.87031	191.04151	80.98303	0.31429	 	8.660800000000001E33	 	2.04651E-34	 	-6593.15201	24.50086	 
85.0	1.0	0.0	7.93999	7.01636	-11.28448	12.27944	11.80826	0.7431	1.34572	213.16367	191.15924	81.10336	0.31415	 	2.94211E34	 	5.94146E-35	 	-6715.37295	24.44419	 
80.0	1.0	0.0	7.94148	7.01504	-11.30116	12.25404	11.7263	0.73784	1.3553	213.45634	191.27623	81.22345	0.31401	 	1.03466E35	 	1.6659E-35	 	-6837.30637	24.38668	 
75.0	1.0	0.0	7.94297	7.01372	-11.31777	12.22864	11.64396	0.73254	1.36511	213.7483	191.39248	81.34329	0.31387	 	3.7724599999999996E35	 	4.50431E-36	 	-6958.94779	24.32828	 
70.0	1.0	0.0	7.94445	7.01241	-11.33431	12.20326	11.56124	0.72719	1.37516	214.03956	191.50799	81.46288	0.31372	 	1.4283099999999997E36	 	1.17259E-36	 	-7080.29244	24.26893	 
65.0	1.0	0.0	7.94593	7.01111	-11.35078	12.17788	11.4781	0.72178	1.38546	214.33012	191.62277	81.58223	0.31358	 	5.62498E36	 	2.9341E-37	 	-7201.33526	24.20856	 
60.0	1.0	0.0	7.9474	7.00981	-11.36718	12.15252	11.39453	0.71632	1.39602	214.61998	191.73681	81.70134	0.31344	 	2.30828E37	 	7.04431E-38	 	-7322.07082	24.14711	 
55.0	1.0	0.0	7.94886	7.00852	-11.38352	12.12716	11.31052	0.71081	1.40684	214.90914	191.85012	81.8202	0.3133	 	9.888719999999999E37	 	1.61964E-38	 	-7442.49335	24.08451	 
50.0	1.0	0.0	7.95032	7.00724	-11.39979	12.10181	11.22603	0.70525	1.41793	215.1976	191.96269	81.93882	0.31316	 	4.43144E38	 	3.55914E-39	 	-7562.59666	24.02066	 
45.0	1.0	0.0	7.95178	7.00595	-11.416	12.07648	11.14105	0.69964	1.42932	215.48536	192.07454	82.05719	0.31302	 	2.0817300000000002E39	 	7.45922E-40	 	-7682.37415	23.9555	 
40.0	1.0	0.0	7.95323	7.00468	-11.43213	12.05115	11.05556	0.69397	1.44099	215.77241	192.18566	82.17532	0.31288	 	1.02745E40	 	1.48757E-40	 	-7801.81878	23.88893	 
35.0	1.0	0.0	7.95467	7.00341	-11.4482	12.02583	10.96952	0.68824	1.45298	216.05877	192.29606	82.2932	0.31274	 	5.34067E40	 	2.81613E-41	 	-7920.92299	23.82084	 
30.0	1.0	0.0	7.95611	7.00214	-11.4642	12.00052	10.88292	0.68246	1.46528	216.34443	192.40574	82.41083	0.3126	 	2.9311900000000003E41	 	5.04777E-42	 	-8039.67869	23.75114	 
25.0	1.0	0.0	7.95754	7.00088	-11.48014	 	10.79572	0.67663	1.47792	216.62939	192.51469	82.52823	0.31246	 	1.7033099999999998E42	 	8.54333E-43	 	-8158.07722	 	 
