T (C)	Fraction solid (wt)-TOTAL	Fraction liquid (wt)-LIQUID	Density (g/(cm)^3)-TOTAL	Molar volume (cm^3)-TOTAL	Volume change (%)-  	Average expansion coeff. (10e-6 1/K)-  	Thermal conductivity (W/(m*K))-TOTAL	Electrical resistivity (10e-6 Ohm*m)-TOTAL	Electrical conductivity (10e6 1/(Ohm*m))-TOTAL	Young's modulus (GPa)-TOTAL	Bulk modulus (GPa)-TOTAL	Shear modulus(GPa)-TOTAL	Poisson's ratio-TOTAL	Liquid viscosity (mPa s)-  	Total viscosity (mPa s)-  	Liquid diffusivity (10e-9 (m^2)/s)-  	Total diffusivity (10e-9 (m^2)/s)-  	Surface Tension (mN/m)-  	Enthalpy (J/mole)-TOTAL	Specific heat (J/(mole K))-TOTAL	Latent heat (J/mole)-TOTAL
1400.0	0.0	1.0	7.28016	7.79128	0.0	29.06189	29.29372	1.39935	0.71462	0.0	125.57213	0.0	0.5	7.10392	7.10392	1.14954	1.14954	1756.69158	54880.842	 	0.0
1395.0	0.0	1.0	7.28408	7.78708	-0.0539005	29.02109	29.21474	1.39894	0.71483	0.0	125.73057	0.0	0.5	7.17968	7.17968	1.13401	1.13401	1758.92068	54675.411	41.0862	0.0
1390.0	0.0	1.0	7.288	7.7829	-0.10764	28.98042	29.13577	1.39853	0.71504	0.0	125.88901	0.0	0.5	7.25671	7.25671	1.11861	1.11861	1761.16492	54470.455	40.9912	0.0
1385.0	0.0	1.0	7.29191	7.77872	-0.16123	28.93988	29.05679	1.39811	0.71525	0.0	126.04744	0.0	0.5	7.33504	7.33504	1.10334	1.10334	1763.42427	54265.974	40.8962	0.0
1380.0	0.0	1.0	7.29582	7.77456	-0.21466	28.89948	28.97781	1.3977	0.71546	0.0	126.20588	0.0	0.5	7.41469	7.41469	1.08819	1.08819	1765.69864	54061.963	40.8022	0.0
1375.0	0.0	1.0	7.29971	7.77041	-0.26793	28.85921	28.89883	1.39728	0.71568	0.0	126.36431	0.0	0.5	7.49571	7.49571	1.07318	1.07318	1767.98796	53858.422	40.7082	0.0
1370.0	0.0	1.0	7.3036	7.76627	-0.32104	28.81908	28.81985	1.39686	0.71589	0.0	126.52275	0.0	0.5	7.5781	7.5781	1.05829	1.05829	1770.29211	53655.346	40.6152	0.0
1365.0	0.0	1.0	7.30749	7.76214	-0.374	28.77909	28.74088	1.39643	0.71611	0.0	126.68119	0.0	0.5	7.66192	7.66192	1.04352	1.04352	1772.61099	53452.734	40.5224	0.0
1360.0	0.0	1.0	7.31136	7.75803	-0.4268	28.73924	28.6619	1.39601	0.71633	0.0	126.83962	0.0	0.5	7.74719	7.74719	1.02889	1.02889	1774.94445	53250.584	40.43	0.0
1355.0	0.0	1.0	7.31523	7.75393	-0.47944	28.69953	28.58292	1.39558	0.71655	0.0	126.99806	0.0	0.5	7.83393	7.83393	1.01438	1.01438	1777.29237	53048.893	40.3382	0.0
1350.37	0.0	1.0	7.31881	7.75014	-0.52809	28.66285	28.50972	1.39518	0.71675	0.0	127.1449	0.0	0.5	7.91568	7.91568	1.00105	1.00105	1779.48125	52862.376	40.24837	0.0
1350.0	0.01215	0.98785	7.32179	7.74701	-0.56818	28.55782	28.54903	1.39294	0.7179	2.05992E-6	127.14514	6.87405E-7	0.49833	7.92439	8.05476	0.99972	0.98354	1779.3822	52663.163	544.52098	184.493
1345.0	0.16732	0.83268	7.36007	7.70665	-1.08627	27.20085	29.05787	1.36434	0.73296	0.0760059	127.14646	0.0257328	0.47683	8.04322	39.87983	0.98192	0.19804	1778.10098	50119.326	508.7674	2527.549
1340.0	0.29079	0.70921	7.39114	7.67428	-1.50172	26.12493	29.46303	1.34142	0.74548	0.70757	127.22198	0.2424	0.4595	8.16362	301.40128	0.96445	0.0261226	1776.96768	48068.789	410.1074	4377.759
1335.0	0.39039	0.60961	7.41673	7.64778	-1.84178	25.25562	29.78955	1.3226	0.75609	2.33819	127.3552	0.80886	0.44536	8.2856	1013.54064	0.9473	0.00774412	1775.97586	46388.348	336.0882	5858.321
1330.0	0.47172	0.52828	7.43811	7.62584	-2.12346	24.54664	30.05409	1.30688	0.76518	5.05853	127.53648	1.76416	0.43369	8.40932	2282.75117	0.93046	0.0034277	1775.1179	44990.047	279.6602	7057.19
1325.0	0.53884	0.46116	7.4562	7.60732	-2.36112	23.95862	30.26795	1.2936	0.77304	8.72504	127.75551	3.06363	0.42397	8.53488	4125.77065	0.91392	0.0018906	1774.38651	43809.938	236.0218	8038.314
1320.0	0.5948	0.4052	7.4717	7.59154	-2.56364	23.46735	30.43999	1.28227	0.77987	13.1041	128.00601	4.62783	0.41579	8.66241	6514.54215	0.89765	0.0011936	1773.77375	42800.766	201.8344	8848.943
1315.0	0.64184	0.35816	7.48514	7.57793	-2.7384	23.05258	30.57712	1.27251	0.78585	17.95385	128.28223	6.37178	0.40886	8.79188	9404.34447	0.88165	8.24232E-4	1773.27218	41927.09	174.7352	9524.516
1310.0	0.68172	0.31828	7.49691	7.56601	-2.89137	22.6979	30.68477	1.26405	0.79111	23.06517	128.57877	8.22038	0.40293	8.92341	12750.92893	0.86592	6.05992E-4	1772.87475	41161.972	153.0236	10091.97
1305.0	0.71576	0.28424	7.50732	7.55547	-3.02663	22.3921	30.76743	1.25668	0.79575	28.27221	128.89204	10.11298	0.39782	9.05722	16517.90211	0.85043	4.66316E-4	1772.57458	40484.685	135.4574	10572.029
1300.0	0.74502	0.25498	7.51663	7.54611	-3.14669	22.12841	30.82922	1.25018	0.79988	33.4534	129.22035	12.0043	0.39339	9.19329	20680.7752	0.83519	3.7127E-4	1772.36474	39879.101	121.1168	10980.821
1295.0	0.77031	0.22969	7.52501	7.53769	-3.25486	21.89757	30.87302	1.24444	0.80357	38.52081	129.56013	13.86109	0.38953	9.33178	25223.19775	0.82018	3.03441E-4	1772.23961	39332.54	109.3122	11331.019
1290.0	0.79231	0.20769	7.53264	7.53005	-3.35286	21.69494	30.9017	1.23932	0.80689	43.41927	129.90983	15.66193	0.38614	9.47273	30142.13598	0.8054	2.53112E-4	1772.19322	38834.941	99.5198	11632.686
1285.0	0.81154	0.18846	7.53962	7.52307	-3.44249	21.51548	30.91733	1.23473	0.80989	48.11054	130.2675	17.39166	0.38315	9.61625	35439.58878	0.79084	2.14589E-4	1772.22047	38378.246	91.339	11893.876
1280.0	0.82842	0.17158	7.54605	7.51662	-3.52523	21.35508	30.92167	1.2306	0.81261	52.57434	130.63138	19.04183	0.3805	9.76251	41126.38355	0.77649	1.84323E-4	1772.31666	37955.954	84.4584	12121.088
1275.0	0.84331	0.15669	7.55203	7.51066	-3.60176	21.21196	30.91649	1.22684	0.8151	56.80603	131.00105	20.60982	0.37813	9.91154	47224.34543	0.76236	1.60005E-4	1772.47683	37562.776	78.6356	12319.61
1270.0	0.8565	0.1435	7.55762	7.50508	-3.6733	21.08265	30.90286	1.22342	0.81738	60.80088	131.37488	22.09316	0.37601	10.06346	53753.91172	0.74842	1.40115E-4	1772.69726	37194.381	73.679	12493.771
1265.0	0.86824	0.13176	7.56287	7.49986	-3.7404	20.96566	30.882	1.22028	0.81948	64.56623	131.75235	23.49392	0.37411	10.21843	60747.31277	0.73468	1.23583E-4	1772.97387	36847.197	69.4368	12647.139
1260.0	0.87871	0.12129	7.56783	7.49492	-3.80373	20.85912	30.85484	1.21738	0.82143	68.11117	132.13266	24.81493	0.37238	10.37648	68240.58168	0.72114	1.09655E-4	1773.30325	36518.262	65.787	12782.675
1255.0	0.88808	0.11192	7.57254	7.49026	-3.86363	20.76214	30.82216	1.2147	0.82325	71.44698	132.51552	26.05992	0.37082	10.53785	76275.77622	0.70778	9.77836E-5	1773.68184	36205.105	62.6314	12902.847
1250.0	0.89651	0.10349	7.57703	7.4858	-3.92087	20.67245	30.78456	1.2122	0.82494	74.58318	132.89979	27.2321	0.3694	10.70254	84895.4106	0.69461	8.75679E-5	1774.10736	35905.653	59.8904	13009.728
1245.0	0.90411	0.0958938	7.58132	7.48154	-3.97554	20.58991	30.74273	1.20987	0.82654	77.53555	133.28551	28.337	0.3681	10.87073	94155.76844	0.68162	7.86963E-5	1774.57647	35618.157	57.4992	13105.063
1240.0	0.91097	0.0890294	7.58545	7.47745	-4.02803	20.51334	30.69711	1.20768	0.82804	80.31534	133.67213	29.37856	0.3669	11.04257	104112.3229	0.6688	7.0936E-5	1775.08689	35341.137	55.404	13190.331
1235.0	0.91719	0.0828076	7.58943	7.47352	-4.07849	20.44245	30.64815	1.20561	0.82946	82.93419	134.05947	30.36089	0.36581	11.21812	114828.0777	0.65616	6.41037E-5	1775.63601	35073.332	53.561	13266.791
1230.0	0.92285	0.0771548	7.59328	7.46972	-4.12725	20.37623	30.59622	1.20365	0.83081	85.40398	134.44728	31.28827	0.36479	11.39755	126372.9497	0.64369	5.80544E-5	1776.22191	34813.666	51.9332	13335.517
1225.0	0.92799	0.0720056	7.59702	7.46602	-4.17463	20.31373	30.54163	1.20179	0.83209	87.73683	134.83496	32.16509	0.36385	11.58106	138823.5749	0.63138	5.26719E-5	1776.84305	34561.212	50.4908	13397.432
1220.0	0.9327	0.0673035	7.60064	7.46245	-4.22046	20.25556	30.48466	1.20002	0.83332	89.94166	135.22279	32.99451	0.36298	11.76869	152264.3311	0.61924	4.78621E-5	1777.49654	34315.174	49.2076	13453.332
1215.0	0.937	0.063002	7.60418	7.45897	-4.26517	20.20041	30.42556	1.19832	0.8345	92.02959	135.61022	33.78064	0.36216	11.96064	166787.4669	0.60727	4.35482E-5	1778.18159	34074.865	48.0618	13503.903
1210.0	0.94094	0.0590579	7.60763	7.45557	-4.30879	20.14823	30.36455	1.1967	0.83563	94.009	135.99722	34.5265	0.3614	12.15707	182493.7818	0.59545	3.96665E-5	1778.8964	33839.685	47.036	13549.741
1205.0	0.94457	0.0554347	7.61101	7.45224	-4.35149	20.09853	30.30182	1.19513	0.83673	95.88865	136.38359	35.23531	0.36069	12.35817	199494.7365	0.58378	3.61638E-5	1779.63975	33609.114	46.1142	13591.364
1200.0	0.9479	0.0520992	7.61432	7.449	-4.39316	20.05166	30.23752	1.19362	0.83779	97.67516	136.76937	35.90946	0.36002	12.56398	217912.1479	0.57228	3.29953E-5	1780.40946	33382.697	45.2834	13629.225
1199.46	0.94824	0.0517582	7.61468	7.44865	-4.39769	20.04657	30.2304	1.19346	0.8379	97.86188	136.81137	35.97996	0.35995	12.58672	220003.5392	0.57103	3.26696E-5	1780.49527	33358.334	 	13633.069
1198.1	0.9496	0.0503962	7.61573	7.44761	-4.41101	20.02733	30.2132	1.19304	0.83819	98.36648	136.92378	36.17207	0.3597	12.67593	225791.8576	0.56649	3.18028E-5	1780.76179	33286.049	 	13654.365
1195.0	0.96039	0.0396149	7.62092	7.4426	-4.47532	19.87524	30.18541	1.19162	0.83919	101.50309	137.4272	37.37216	0.358	12.7796	247125.3612	0.56071	2.89961E-5	1780.60428	32949.309	86.6776	13874.448
1191.04	0.96944	0.0305552	7.626	7.43771	-4.538	19.74207	30.1399	1.1902	0.84019	104.53988	137.96148	38.53207	0.35653	12.9226	272007.8496	0.55301	2.62726E-5	1780.45037	32616.388	 	14058.609
1190.0	0.98251	0.0174929	7.63021	7.43363	-4.59042	19.59173	30.15343	1.18883	0.84117	111.14796	138.41514	41.02887	0.35451	12.89553	291151.9005	0.55378	2.45276E-5	1780.32547	32311.74	127.5138	14324.241
1186.19	1.0	0.0	7.63747	7.4267	-4.67941	19.36986	30.13692	1.18638	0.8429	123.86605	139.22298	45.81803	0.35172	 	330136.7414	 	2.1575E-5	 	31816.407	 	14676.924
1185.0	1.0	0.0	7.63808	7.42609	-4.68719	19.36476	30.11737	1.18618	0.84304	123.98137	139.31473	45.86205	0.35168	 	336177.6526	 	2.117E-5	 	31769.04533	108.53893	 
1180.0	1.0	0.0	7.64064	7.4236	-4.71912	19.3454	30.0356	1.18533	0.84364	124.46415	139.70001	46.04632	0.35151	 	362808.0235	 	1.95488E-5	 	31592.45332	35.3184	 
1175.0	1.0	0.0	7.6432	7.42112	-4.75098	19.3261	29.95382	1.18448	0.84425	124.94613	140.08359	46.23034	0.35134	 	391754.0982	 	1.80421E-5	 	31416.15004	35.26066	 
1170.0	1.0	0.0	7.64575	7.41864	-4.78277	19.30685	29.87204	1.18362	0.84487	125.42729	140.46547	46.4141	0.35118	 	423234.6474	 	1.66424E-5	 	31240.13493	35.20302	 
1165.0	1.0	0.0	7.6483	7.41617	-4.81449	19.28765	29.79026	1.18276	0.84548	125.90766	140.84566	46.59761	0.35101	 	457490.7069	 	1.53429E-5	 	31064.40744	35.1455	 
1160.0	1.0	0.0	7.65084	7.41371	-4.84615	19.26851	29.70847	1.18189	0.8461	126.38721	141.22417	46.78086	0.35084	 	494788.0495	 	1.41371E-5	 	30888.96702	35.08808	 
1155.0	1.0	0.0	7.65338	7.41124	-4.87773	19.24942	29.62669	1.18102	0.84673	126.86597	141.60099	46.96385	0.35068	 	535419.8219	 	1.30187E-5	 	30713.81312	35.03078	 
1150.0	1.0	0.0	7.65592	7.40879	-4.90925	19.23039	29.54489	1.18014	0.84736	127.34391	141.97614	47.14659	0.35051	 	579709.6496	 	1.19819E-5	 	30538.94518	34.97359	 
1145.0	1.0	0.0	7.65845	7.40634	-4.9407	19.21141	29.4631	1.17926	0.84799	127.82106	142.34962	47.32908	0.35034	 	628014.9783	 	1.10215E-5	 	30364.36266	34.91651	 
1140.0	1.0	0.0	7.66098	7.40389	-4.97209	19.19249	29.3813	1.17837	0.84863	128.29739	142.72145	47.51131	0.35018	 	680730.8542	 	1.01321E-5	 	30190.06498	34.85953	 
1135.0	1.0	0.0	7.66351	7.40145	-5.0034	19.17362	29.29949	1.17748	0.84927	128.77292	143.09161	47.69328	0.35001	 	738294.2246	 	9.30907E-6	 	30016.05162	34.80267	 
1130.0	1.0	0.0	7.66603	7.39902	-5.03465	19.15482	29.21769	1.17659	0.84992	129.24765	143.46013	47.875	0.34984	 	801188.5904	 	8.54783E-6	 	29842.32201	34.74592	 
1125.0	1.0	0.0	7.66855	7.39659	-5.06583	19.13607	29.13587	1.17569	0.85057	129.72157	143.82701	48.05646	0.34968	 	869949.3642	 	7.84416E-6	 	29668.8756	34.68928	 
1120.0	1.0	0.0	7.67106	7.39416	-5.09694	19.11739	29.05406	1.17478	0.85122	130.19469	144.19225	48.23767	0.34951	 	945169.8793	 	7.19407E-6	 	29495.71182	34.63276	 
1115.0	1.0	0.0	7.67357	7.39175	-5.12799	19.09876	28.97224	1.17387	0.85188	130.66701	144.55586	48.41862	0.34935	 	1027508.052	 	6.59383E-6	 	29322.83014	34.57634	 
1110.0	1.0	0.0	7.67608	7.38933	-5.15897	19.0802	28.89041	1.17296	0.85255	131.13852	144.91784	48.59932	0.34918	 	1117693.823	 	6.03995E-6	 	29150.22999	34.52003	 
1105.0	1.0	0.0	7.67858	7.38692	-5.18988	19.0617	28.80858	1.17204	0.85322	131.60922	145.27821	48.77976	0.34901	 	1216537.745	 	5.52914E-6	 	28977.91083	34.46383	 
1100.0	1.0	0.0	7.68108	7.38452	-5.22072	19.04326	28.72675	1.17111	0.85389	132.07912	145.63696	48.95994	0.34885	 	1324940.4	 	5.05834E-6	 	28805.87209	34.40775	 
1095.0	1.0	0.0	7.68357	7.38212	-5.25149	19.02489	28.64491	1.17018	0.85457	132.54821	145.9941	49.13987	0.34868	 	1443903.112	 	4.62469E-6	 	28634.11322	34.35177	 
1090.0	1.0	0.0	7.68607	7.37973	-5.2822	19.00658	28.56307	1.16924	0.85525	133.01651	146.34965	49.31953	0.34852	 	1574539.964	 	4.22549E-6	 	28462.63366	34.29591	 
1085.0	1.0	0.0	7.68855	7.37734	-5.31284	18.98833	28.48122	1.1683	0.85594	133.48399	146.70359	49.49895	0.34835	 	1718091.531	 	3.85823E-6	 	28291.43286	34.24016	 
1080.0	1.0	0.0	7.69104	7.37496	-5.34341	18.97016	28.39937	1.16736	0.85664	133.95068	147.05595	49.6781	0.34819	 	1875939.978	 	3.52058E-6	 	28120.51027	34.18452	 
1075.0	1.0	0.0	7.69351	7.37259	-5.37391	18.95205	28.31751	1.1664	0.85734	134.41655	147.40673	49.857	0.34802	 	2049626.505	 	3.21033E-6	 	27949.86533	34.12899	 
1070.0	1.0	0.0	7.69599	7.37021	-5.40434	18.93401	28.23565	1.16545	0.85804	134.88163	147.75592	50.03565	0.34786	 	2240870.802	 	2.92546E-6	 	27779.49747	34.07357	 
1065.0	1.0	0.0	7.69846	7.36785	-5.43471	18.91604	28.15378	1.16449	0.85875	135.3459	148.10354	50.21403	0.34769	 	2451593.369	 	2.66405E-6	 	27609.40614	34.01826	 
1063.44	1.0	0.0	7.69923	7.36711	-5.4442	18.91043	28.12816	1.16418	0.85897	135.491	148.21199	50.2698	0.34764	 	2521860.192	 	2.5868E-6	 	27556.24247	 	 
1060.0	1.0	0.0	7.70217	7.3643	-5.48024	18.84321	28.02215	1.16558	0.85794	136.02565	148.57672	50.47662	0.34741	 	2702953.96	 	2.40728E-6	 	27360.74024	49.73318	 
1055.0	1.0	0.0	7.70639	7.36027	-5.53195	18.74727	27.87152	1.16749	0.85654	136.79194	149.09866	50.77312	0.34709	 	2991686.296	 	2.16679E-6	 	27080.01308	56.14543	 
1050.0	1.0	0.0	7.71054	7.35631	-5.58281	18.65351	27.72522	1.16923	0.85526	137.54478	149.61054	51.06451	0.34677	 	3313489.817	 	1.94899E-6	 	26803.63515	55.27559	 
1045.0	1.0	0.0	7.71462	7.35241	-5.63284	18.56184	27.58286	1.17082	0.8541	138.28476	150.11284	51.35101	0.34647	 	3672394.42	 	1.75187E-6	 	26531.4391	54.43921	 
1040.0	1.0	0.0	7.71865	7.34857	-5.68208	18.47218	27.44428	1.17227	0.85304	139.01247	150.60602	51.63285	0.34616	 	4072951.848	 	1.57359E-6	 	26263.26393	53.63503	 
1035.0	1.0	0.0	7.72262	7.3448	-5.73056	18.38445	27.30924	1.17358	0.85209	139.72846	151.09049	51.91021	0.34587	 	4520306.462	 	1.41246E-6	 	25998.95495	52.8618	 
1030.0	1.0	0.0	7.72653	7.34108	-5.7783	18.29858	27.17754	1.17476	0.85124	140.43324	151.56664	52.18332	0.34558	 	5020277.264	 	1.26693E-6	 	25738.36361	52.11827	 
1025.0	1.0	0.0	7.73039	7.33741	-5.82534	18.21448	27.04898	1.17582	0.85047	141.12731	152.03487	52.45235	0.34529	 	5579452.323	 	1.13559E-6	 	25481.3472	51.40328	 
1020.0	1.0	0.0	7.7342	7.3338	-5.8717	18.1321	26.92339	1.17675	0.8498	141.81114	152.49551	52.71748	0.34501	 	6205295.954	 	1.01712E-6	 	25227.76878	50.71568	 
1015.0	1.0	0.0	7.73796	7.33024	-5.9174	18.05135	26.80059	1.17757	0.8492	142.48519	152.94891	52.97889	0.34474	 	6906273.286	 	9.10352E-7	 	24977.49686	50.05438	 
1010.0	1.0	0.0	7.74167	7.32673	-5.96247	17.97218	26.68043	1.17829	0.84869	143.14988	153.39537	53.23674	0.34447	 	7691991.024	 	8.14189E-7	 	24730.40551	49.41827	 
1005.0	1.0	0.0	7.74533	7.32327	-6.00693	17.89452	26.56276	1.17889	0.84825	143.80563	153.8352	53.49118	0.3442	 	8573361.709	 	7.27641E-7	 	24486.37397	48.80631	 
1004.25	1.0	0.0	7.74587	7.32275	-6.01351	17.88308	26.54539	1.17898	0.84819	143.90283	153.90036	53.5289	0.34416	 	8713967.303	 	7.15482E-7	 	24450.17765	 	 
1000.0	1.0	0.0	7.74894	7.31985	-6.05072	17.81864	26.44746	1.1794	0.84789	144.45311	154.26919	53.74247	0.34394	 	9563025.171	 	6.49787E-7	 	24245.13828	48.24714	 
995.0	1.0	0.0	7.7525	7.31649	-6.09394	17.74416	26.33439	1.17981	0.84759	145.09243	154.69712	53.99065	0.34368	 	1.067493285E7	 	5.79819E-7	 	24006.72437	47.68278	 
990.0	1.0	0.0	7.75603	7.31316	-6.13662	17.67099	26.22343	1.18013	0.84736	145.72388	155.11916	54.23584	0.34343	 	1.192514765E7	 	5.16985E-7	 	23771.04835	47.1352	 
985.0	1.0	0.0	7.75952	7.30988	-6.17878	17.59909	26.11444	1.18037	0.84719	146.34781	155.53557	54.47816	0.34318	 	1.33320054E7	 	4.606E-7	 	23538.00808	46.60805	 
980.0	1.0	0.0	7.76296	7.30663	-6.22043	17.52841	26.00734	1.18052	0.84708	146.96453	155.94655	54.71775	0.34293	 	1.491642494E7	 	4.10039E-7	 	23307.50594	46.10043	 
975.0	1.0	0.0	7.76637	7.30342	-6.26161	17.45888	25.90201	1.18059	0.84703	147.57434	156.35232	54.95472	0.34269	 	1.670229605E7	 	3.64735E-7	 	23079.44857	45.61147	 
970.0	1.0	0.0	7.76975	7.30025	-6.30231	17.39048	25.79837	1.18059	0.84704	148.17752	156.75308	55.18916	0.34245	 	1.871692591E7	 	3.24172E-7	 	22853.74677	45.14036	 
965.0	1.0	0.0	7.77308	7.29712	-6.34256	17.32314	25.69632	1.18051	0.84709	148.77435	157.14902	55.4212	0.34222	 	2.099155729E7	 	2.87883E-7	 	22630.31528	44.6863	 
960.0	1.0	0.0	7.77639	7.29401	-6.38237	17.25683	25.59577	1.18036	0.8472	149.36509	157.54031	55.65092	0.34198	 	2.356196944E7	 	2.55441E-7	 	22409.07264	44.24853	 
955.0	1.0	0.0	7.77966	7.29094	-6.42176	17.19151	25.49666	1.18014	0.84736	149.94997	157.92712	55.87842	0.34175	 	2.646917651E7	 	2.26463E-7	 	22189.94101	43.82633	 
950.0	1.0	0.0	7.7829	7.28791	-6.46073	17.12714	25.39889	1.17986	0.84756	150.52923	158.30961	56.1038	0.34152	 	2.976024096E7	 	2.006E-7	 	21972.84602	43.419	 
945.0	1.0	0.0	7.78612	7.2849	-6.49932	17.06367	25.30241	1.17952	0.8478	151.10308	158.68792	56.32712	0.3413	 	3.348921505E7	 	1.77534E-7	 	21757.71661	43.02588	 
940.0	1.0	0.0	7.7893	7.28193	-6.53752	17.00107	25.20714	1.17912	0.84809	151.67174	159.0622	56.54848	0.34108	 	3.771824639E7	 	1.56982E-7	 	21544.4849	42.64634	 
935.0	1.0	0.0	7.79245	7.27898	-6.57535	16.93931	25.11303	1.17866	0.84842	152.23541	159.43259	56.76795	0.34086	 	4.251885548E7	 	1.38684E-7	 	21333.086	42.27978	 
930.0	1.0	0.0	7.79558	7.27606	-6.61281	16.87834	25.02001	1.17814	0.84879	152.79426	159.7992	56.9856	0.34064	 	4.797344317E7	 	1.22407E-7	 	21123.45793	41.92562	 
925.0	1.0	0.0	7.79868	7.27317	-6.64993	16.81815	24.92803	1.17758	0.8492	153.34849	160.16216	57.2015	0.34042	 	5.417703672E7	 	1.0794E-7	 	20915.54141	41.5833	 
920.0	1.0	0.0	7.80175	7.2703	-6.68672	16.75869	24.83704	1.17696	0.84965	153.89824	160.52157	57.41571	0.34021	 	6.12393434E7	 	9.50936E-8	 	20709.27978	41.25233	 
915.0	1.0	0.0	7.8048	7.26746	-6.72317	16.69994	24.74698	1.17629	0.85013	154.44369	160.87755	57.6283	0.34	 	6.928715395E7	 	8.36961E-8	 	20504.61887	40.93218	 
910.0	1.0	0.0	7.80783	7.26465	-6.75931	16.64187	24.65781	1.17558	0.85065	154.98499	161.2302	57.83932	0.33979	 	7.846715702E7	 	7.35934E-8	 	20301.50689	40.6224	 
905.0	1.0	0.0	7.81083	7.26185	-6.79513	16.58445	24.56949	1.17482	0.8512	155.52227	161.57961	58.04883	0.33958	 	8.894925083E7	 	6.46465E-8	 	20099.89424	40.32253	 
900.0	1.0	0.0	7.81381	7.25909	-6.83066	16.52765	24.48197	1.17401	0.85178	156.05568	161.92586	58.25689	0.33938	 	1.009304375E8	 	5.67307E-8	 	19899.73351	40.03215	 
895.0	1.0	0.0	7.81676	7.25634	-6.8659	16.47145	24.39522	1.17317	0.85239	156.58535	162.26906	58.46353	0.33917	 	1.146393952E8	 	4.97338E-8	 	19700.97929	39.75084	 
890.0	1.0	0.0	7.8197	7.25362	-6.90085	16.41583	24.3092	1.17228	0.85304	157.11139	162.60927	58.66882	0.33897	 	1.303418738E8	 	4.3555E-8	 	19503.58811	39.47824	 
885.0	1.0	0.0	7.82261	7.25092	-6.93552	16.36075	24.22386	1.17135	0.85371	157.63392	162.94658	58.87279	0.33877	 	1.4834707E8	 	3.81042E-8	 	19307.51832	39.21396	 
880.0	1.0	0.0	7.8255	7.24823	-6.96993	16.30621	24.13919	1.17039	0.85442	158.15305	163.28106	59.07548	0.33857	 	1.690151316E8	 	3.33002E-8	 	19112.72993	38.95768	 
875.0	1.0	0.0	7.82838	7.24557	-7.00408	16.25216	24.05515	1.16938	0.85515	158.6689	163.61278	59.27694	0.33837	 	1.927660781E8	 	2.90706E-8	 	18919.18436	38.70911	 
870.0	1.0	0.0	7.83123	7.24293	-7.03797	16.1986	23.97171	1.16834	0.85591	159.18155	163.94179	59.47721	0.33817	 	2.200903147E8	 	2.53506E-8	 	18726.84552	38.46777	 
865.0	1.0	0.0	7.83407	7.24031	-7.07161	16.14551	23.88883	1.16727	0.8567	159.6911	164.26818	59.67632	0.33798	 	2.515611217E8	 	2.20822E-8	 	18535.67829	38.23345	 
860.0	1.0	0.0	7.83688	7.23771	-7.10502	16.09286	23.80651	1.16616	0.85752	160.19765	164.59199	59.8743	0.33778	 	2.878494907E8	 	1.92136E-8	 	18345.64895	38.00587	 
855.0	1.0	0.0	7.83968	7.23513	-7.13818	16.04064	23.7247	1.16502	0.85836	160.70127	164.91328	60.07119	0.33759	 	3.297417832E8	 	1.66986E-8	 	18156.72513	37.78476	 
850.0	1.0	0.0	7.84246	7.23256	-7.17112	15.98882	23.64338	1.16384	0.85922	161.20206	165.23211	60.26703	0.3374	 	3.781606483E8	 	1.4496E-8	 	17968.87577	37.56987	 
845.0	1.0	0.0	7.84475	7.23045	-7.19816	15.96321	23.56917	1.16231	0.86036	161.6172	165.50662	60.42894	0.33725	 	4.308765355E8	 	1.26658E-8	 	17813.55173	31.06481	 
840.0	1.0	0.0	7.84703	7.22835	-7.22514	15.9376	23.49495	1.16077	0.8615	162.03161	165.7799	60.59061	0.3371	 	4.915169609E8	 	1.10536E-8	 	17655.30548	31.64925	 
835.0	1.0	0.0	7.84931	7.22626	-7.25204	15.91199	23.42072	1.15922	0.86265	162.44529	166.05197	60.75204	0.33695	 	5.613583922E8	 	9.63485E-9	 	17497.30878	31.59934	 
830.0	1.0	0.0	7.85158	7.22416	-7.27887	15.88638	23.34648	1.15766	0.86382	162.85823	166.32282	60.91323	0.33681	 	6.418964793E8	 	8.38796E-9	 	17339.56096	31.54956	 
825.0	1.0	0.0	7.85385	7.22208	-7.30564	15.86078	23.27224	1.15608	0.86499	163.27044	166.59246	61.07418	0.33666	 	7.348860028E8	 	7.29337E-9	 	17182.06138	31.49992	 
820.0	1.0	0.0	7.85611	7.22	-7.33234	15.83518	23.19799	1.1545	0.86617	163.68191	166.8609	61.23489	0.33651	 	8.423885219E8	 	6.33365E-9	 	17024.80937	31.4504	 
815.0	1.0	0.0	7.85837	7.21792	-7.35896	15.80958	23.12373	1.15291	0.86737	164.09265	167.12813	61.39535	0.33636	 	9.668292885E8	 	5.4932E-9	 	16867.80426	31.40102	 
810.0	1.0	0.0	7.86062	7.21586	-7.38552	15.78398	23.04946	1.15131	0.86857	164.50265	167.39416	61.55558	0.33621	 	1.111065325E9	 	4.75812E-9	 	16711.04539	31.35178	 
805.0	1.0	0.0	7.86287	7.21379	-7.41201	15.75839	22.97518	1.1497	0.86979	164.91192	167.65899	61.71557	0.33606	 	1.278466975E9	 	4.11601E-9	 	16554.53204	31.30267	 
800.0	1.0	0.0	7.86511	7.21173	-7.43843	15.7328	22.9009	1.14808	0.87102	165.32046	167.92263	61.87532	0.33592	 	1.47301574E9	 	3.55582E-9	 	16398.26355	31.2537	 
795.0	1.0	0.0	7.86735	7.20968	-7.46478	15.70721	22.8266	1.14646	0.87225	165.72826	168.18508	62.03482	0.33577	 	1.69942182E9	 	3.06773E-9	 	16242.23919	31.20487	 
790.0	1.0	0.0	7.86959	7.20763	-7.49107	15.68163	22.7523	1.14482	0.8735	166.13533	168.44635	62.19409	0.33562	 	1.963265558E9	 	2.64303E-9	 	16086.45825	31.15619	 
785.0	1.0	0.0	7.87182	7.20559	-7.51728	15.65604	22.67799	1.14316	0.87476	166.54166	168.70643	62.35311	0.33547	 	2.271167892E9	 	2.27397E-9	 	15930.92	31.10765	 
780.0	1.0	0.0	7.87404	7.20355	-7.54342	15.63046	22.60366	1.1415	0.87604	166.94727	168.96533	62.5119	0.33532	 	2.63099609E9	 	1.95369E-9	 	15775.62369	31.05926	 
775.0	1.0	0.0	7.87627	7.20152	-7.5695	15.60488	22.52933	1.13983	0.87732	167.35214	169.22306	62.67044	0.33518	 	3.052112476E9	 	1.67614E-9	 	15620.56858	31.01102	 
770.0	1.0	0.0	7.87848	7.19949	-7.5955	15.57931	22.45499	1.13815	0.87862	167.75627	169.47961	62.82874	0.33503	 	3.545675582E9	 	1.43593E-9	 	15465.75389	30.96294	 
765.0	1.0	0.0	7.88069	7.19747	-7.62144	15.55374	22.38064	1.13646	0.87993	168.15967	169.735	62.9868	0.33488	 	4.125005397E9	 	1.22835E-9	 	15311.17883	30.91501	 
760.0	1.0	0.0	7.8829	7.19546	-7.64731	15.52817	22.30628	1.13476	0.88125	168.56235	169.98922	63.14463	0.33473	 	4.806027063E9	 	1.04921E-9	 	15156.84261	30.86725	 
755.0	1.0	0.0	7.8851	7.19345	-7.67311	15.5026	22.23192	1.13304	0.88258	168.96428	170.24228	63.30221	0.33458	 	5.607810771E9	 	8.94849E-10	 	15002.74441	30.81964	 
750.0	1.0	0.0	7.8873	7.19144	-7.69884	15.47703	22.15754	1.13132	0.88393	169.36549	170.49418	63.45954	0.33444	 	6.553229825E9	 	7.62027E-10	 	14848.88338	30.77221	 
745.0	1.0	0.0	7.8895	7.18944	-7.7245	15.45147	22.08315	1.12958	0.88528	169.76596	170.74493	63.61664	0.33429	 	7.669764102E9	 	6.47913E-10	 	14695.25868	30.72494	 
740.0	1.0	0.0	7.89168	7.18745	-7.75009	15.42591	22.00875	1.12783	0.88666	170.1657	170.99452	63.7735	0.33414	 	8.990482744E9	 	5.50019E-10	 	14541.86941	30.67785	 
735.0	1.0	0.0	7.89387	7.18546	-7.77561	15.40035	21.93434	1.12607	0.88804	170.56471	171.24296	63.93011	0.33399	 	1.05552E10	 	4.66169E-10	 	14388.71469	30.63095	 
730.0	1.0	0.0	7.89605	7.18348	-7.80107	15.3748	21.85991	1.1243	0.88944	170.96298	171.49026	64.08649	0.33385	 	1.2412199999999998E10	 	3.94461E-10	 	14235.79359	30.58422	 
725.0	1.0	0.0	7.89822	7.1815	-7.82645	15.34924	21.78548	1.12252	0.89085	171.36053	171.73642	64.24262	0.3337	 	1.4619499999999998E10	 	3.33234E-10	 	14083.10516	30.53769	 
720.0	1.0	0.0	7.90039	7.17953	-7.85177	15.32369	21.71104	1.12073	0.89228	171.75734	171.98144	64.39851	0.33355	 	1.72478E10	 	2.81039E-10	 	13930.64841	30.49135	 
715.0	1.0	0.0	7.90256	7.17756	-7.87701	15.29815	21.63659	1.11892	0.89372	172.15342	172.22532	64.55416	0.3334	 	2.03827E10	 	2.36618E-10	 	13778.42234	30.44521	 
710.0	1.0	0.0	7.90472	7.1756	-7.90219	15.2726	21.56212	1.11711	0.89517	172.54877	172.46807	64.70957	0.33326	 	2.4128299999999996E10	 	1.98874E-10	 	13626.42591	30.39929	 
705.0	1.0	0.0	7.90687	7.17364	-7.9273	15.24706	21.48764	1.11528	0.89664	172.94339	172.70969	64.86474	0.33311	 	2.8611599999999996E10	 	1.66859E-10	 	13474.65805	30.35357	 
700.0	1.0	0.0	7.90902	7.17169	-7.95234	15.22152	21.41315	1.11344	0.89812	173.33727	172.95019	65.01967	0.33296	 	3.3987299999999996E10	 	1.39749E-10	 	13323.11765	30.30808	 
695.0	1.0	0.0	7.91117	7.16975	-7.97731	15.19598	21.33865	1.11158	0.89962	173.73042	173.18956	65.17435	0.33281	 	4.04449E10	 	1.16833E-10	 	13171.80355	30.26282	 
690.0	1.0	0.0	7.91331	7.16781	-8.00222	15.17044	21.26414	1.10972	0.90113	174.12285	173.42781	65.32879	0.33267	 	4.821649999999999E10	 	9.74956E-11	 	13020.71457	30.2178	 
685.0	1.0	0.0	7.91545	7.16587	-8.02705	15.14491	21.18962	1.10784	0.90266	174.51454	173.66495	65.483	0.33252	 	5.758689999999999E10	 	8.12075E-11	 	12869.84947	30.17302	 
680.0	1.0	0.0	7.91758	7.16394	-8.05182	15.11938	21.11508	1.10595	0.9042	174.9055	173.90097	65.63695	0.33237	 	6.89067E10	 	6.75129E-11	 	12719.20698	30.1285	 
675.0	1.0	0.0	7.91971	7.16202	-8.07651	15.09385	21.04053	1.10404	0.90576	175.29573	174.13589	65.79067	0.33222	 	8.26077E10	 	5.602E-11	 	12568.78575	30.08425	 
670.0	1.0	0.0	7.92183	7.1601	-8.10114	15.06833	20.96596	1.10213	0.90734	175.68522	174.36969	65.94415	0.33208	 	9.922369999999998E10	 	4.6393E-11	 	12418.5844	30.04027	 
665.0	1.0	0.0	7.92395	7.15819	-8.1257	15.04281	20.89139	1.1002	0.90893	176.07399	174.6024	66.09738	0.33193	 	1.19415E11	 	3.83443E-11	 	12268.60149	29.99658	 
660.0	1.0	0.0	7.92606	7.15628	-8.15019	15.01729	20.8168	1.09826	0.91053	176.46203	174.834	66.25037	0.33178	 	1.44E11	 	3.16282E-11	 	12118.83844	29.95261	 
655.0	1.0	0.0	7.92817	7.15437	-8.17461	14.99177	20.7422	1.0963	0.91216	176.84933	175.06451	66.40312	0.33163	 	1.73998E11	 	2.60352E-11	 	11969.31139	29.90541	 
650.0	1.0	0.0	7.93027	7.15248	-8.19896	14.96626	20.66758	1.09433	0.9138	177.23591	175.29392	66.55563	0.33149	 	2.10676E11	 	2.13867E-11	 	11820.04179	29.85392	 
645.0	1.0	0.0	7.93237	7.15059	-8.22325	14.94074	20.59295	1.09235	0.91546	177.62175	175.52224	66.7079	0.33134	 	2.55618E11	 	1.75311E-11	 	11671.02891	29.80258	 
640.0	1.0	0.0	7.93446	7.1487	-8.24746	14.91523	20.5183	1.09035	0.91713	178.00686	175.74947	66.85992	0.33119	 	3.10804E11	 	1.43398E-11	 	11522.27203	29.75138	 
635.0	1.0	0.0	7.93655	7.14682	-8.27161	14.88973	20.44364	1.08834	0.91883	178.39125	175.97562	67.0117	0.33105	 	3.78719E11	 	1.17038E-11	 	11373.77041	29.70032	 
630.0	1.0	0.0	7.93864	7.14494	-8.29568	14.86422	20.36897	1.08632	0.92054	178.7749	176.20068	67.16324	0.3309	 	4.62485E11	 	9.53122E-12	 	11225.52334	29.64942	 
625.0	1.0	0.0	7.94072	7.14307	-8.31969	14.83872	20.29428	1.08428	0.92227	179.15782	176.42467	67.31454	0.33075	 	5.66037E11	 	7.74445E-12	 	11077.52979	29.59871	 
620.0	1.0	0.0	7.94279	7.14121	-8.34363	14.81322	20.21958	1.08223	0.92402	179.54001	176.64758	67.46559	0.3306	 	6.94344E11	 	6.27822E-12	 	10929.78826	29.54831	 
615.0	1.0	0.0	7.94486	7.13935	-8.3675	14.78772	20.14486	1.08016	0.92579	179.92148	176.86941	67.6164	0.33046	 	8.53695E11	 	5.07774E-12	 	10782.29845	29.49796	 
610.0	1.0	0.0	7.94692	7.13749	-8.39131	14.76223	20.07012	1.07808	0.92758	180.30221	177.09018	67.76697	0.33031	 	1.05208E12	 	4.09707E-12	 	10635.05966	29.44776	 
605.0	1.0	0.0	7.94898	7.13564	-8.41504	14.73674	19.99537	1.07598	0.92938	180.68221	177.30988	67.9173	0.33016	 	1.29965E12	 	3.29784E-12	 	10488.07118	29.3977	 
600.0	1.0	0.0	7.95104	7.1338	-8.43871	14.71125	19.9206	1.07387	0.93121	181.06148	177.52852	68.06738	0.33002	 	1.60936E12	 	2.64802E-12	 	10341.33233	29.34777	 
595.0	1.0	0.0	7.95309	7.13196	-8.4623	14.68576	19.84582	1.07175	0.93306	181.44002	177.74609	68.21722	0.32987	 	1.9978E12	 	2.12094E-12	 	10194.8424	29.29799	 
590.0	1.0	0.0	7.95513	7.13013	-8.48583	14.66028	19.77102	1.0696	0.93492	181.81784	177.96261	68.36682	0.32972	 	2.48621E12	 	1.69447E-12	 	10048.60071	29.24834	 
585.0	1.0	0.0	7.95717	7.1283	-8.50929	14.63479	19.6962	1.06745	0.93681	182.19492	178.17807	68.51617	0.32958	 	3.10193E12	 	1.35026E-12	 	9902.60657	29.19883	 
580.0	1.0	0.0	7.95921	7.12648	-8.53268	14.60931	19.62137	1.06528	0.93872	182.57127	178.39247	68.66529	0.32943	 	3.88017E12	 	1.07315E-12	 	9756.85929	29.14946	 
575.0	1.0	0.0	7.96124	7.12466	-8.556	14.58384	19.54652	1.06309	0.94066	182.9469	178.60583	68.81416	0.32928	 	4.86649E12	 	8.50635E-13	 	9611.3582	29.10022	 
570.0	1.0	0.0	7.96326	7.12285	-8.57925	14.55836	19.47165	1.06088	0.94261	183.32179	178.81814	68.96278	0.32914	 	6.11996E12	 	6.72424E-13	 	9466.10263	29.05111	 
565.0	1.0	0.0	7.96528	7.12104	-8.60244	14.53289	19.39676	1.05867	0.94459	183.69596	179.02941	69.11116	0.32899	 	7.71735E12	 	5.30079E-13	 	9321.09188	29.00215	 
560.0	1.0	0.0	7.9673	7.11924	-8.62555	14.50742	19.32185	1.05643	0.94658	184.06939	179.23964	69.2593	0.32884	 	9.7588E12	 	4.1669E-13	 	9176.32531	28.95331	 
555.0	1.0	0.0	7.96931	7.11744	-8.6486	14.48195	19.24693	1.05418	0.94861	184.4421	179.44883	69.4072	0.3287	 	1.23753E13	 	3.26618E-13	 	9031.80224	28.90461	 
550.0	1.0	0.0	7.97131	7.11565	-8.67158	14.45649	19.17198	1.05191	0.95065	184.81408	179.65698	69.55485	0.32855	 	1.57387E13	 	2.55268E-13	 	8887.52201	28.85605	 
545.0	1.0	0.0	7.97331	7.11387	-8.69449	14.43103	19.09702	1.04962	0.95272	185.18533	179.8641	69.70226	0.3284	 	2.00751E13	 	1.98913E-13	 	8743.48396	28.80761	 
540.0	1.0	0.0	7.97531	7.11209	-8.71733	14.40557	19.02203	1.04732	0.95482	185.55585	180.0702	69.84943	0.32826	 	2.5683E13	 	1.5453E-13	 	8599.68745	28.7593	 
535.0	1.0	0.0	7.9773	7.11032	-8.74011	14.38011	18.94703	1.045	0.95694	185.92564	180.27526	69.99635	0.32811	 	3.29578E13	 	1.1968E-13	 	8456.13179	28.71113	 
530.0	1.0	0.0	7.97928	7.10855	-8.76281	14.35466	18.872	1.04266	0.95908	186.2947	180.4793	70.14303	0.32796	 	4.24248E13	 	9.23983E-14	 	8312.81639	28.66308	 
525.0	1.0	0.0	7.98126	7.10678	-8.78545	14.32921	18.79696	1.04031	0.96125	186.66303	180.68232	70.28947	0.32782	 	5.47841E13	 	7.11077E-14	 	8169.74057	28.61516	 
520.0	1.0	0.0	7.98324	7.10502	-8.80801	14.30376	18.72189	1.03794	0.96345	187.03063	180.88433	70.43566	0.32767	 	7.09724E13	 	5.45447E-14	 	8026.9037	28.56737	 
515.0	1.0	0.0	7.98521	7.10327	-8.83051	14.27831	18.6468	1.03555	0.96567	187.39751	181.08531	70.5816	0.32752	 	9.22467E13	 	4.17008E-14	 	7884.30516	28.51971	 
510.0	1.0	0.0	7.98717	7.10152	-8.85294	14.25287	18.57169	1.03314	0.96792	187.76366	181.28529	70.72731	0.32738	 	1.203E14	 	3.17735E-14	 	7741.9443	28.47217	 
505.0	1.0	0.0	7.98913	7.09978	-8.87531	14.22743	18.49656	1.03071	0.9702	188.12907	181.48425	70.87277	0.32723	 	1.57421E14	 	2.41261E-14	 	7599.82049	28.42476	 
500.0	1.0	0.0	7.99109	7.09804	-8.8976	14.20199	18.42141	1.02827	0.97251	188.49376	181.6822	71.01798	0.32708	 	2.06715E14	 	1.82549E-14	 	7457.93313	28.37747	 
495.0	1.0	0.0	7.99304	7.09631	-8.91982	14.17655	18.34623	1.02581	0.97484	188.85772	181.87916	71.16295	0.32694	 	2.7240799999999997E14	 	1.3763E-14	 	7316.2816	28.33031	 
490.0	1.0	0.0	7.99498	7.09459	-8.94198	14.15112	18.27103	1.02332	0.97721	189.22095	182.0751	71.30768	0.32679	 	3.60278E14	 	1.03385E-14	 	7174.86531	28.28326	 
485.0	1.0	0.0	7.99692	7.09287	-8.96407	14.12569	18.1958	1.02082	0.9796	189.58383	182.27041	71.45231	0.32665	 	4.78253E14	 	7.7372E-15	 	7033.68366	28.23633	 
480.0	1.0	0.0	7.99886	7.09115	-8.98609	14.10026	18.12055	1.0183	0.98203	189.94559	182.46435	71.59654	0.3265	 	6.37252E14	 	5.76842E-15	 	6892.73604	28.18952	 
475.0	1.0	0.0	8.00079	7.08944	-9.00804	14.07483	18.04527	1.01576	0.98448	190.30661	182.65729	71.74052	0.32635	 	8.52376E14	 	4.28395E-15	 	6752.02187	28.14283	 
470.0	1.0	0.0	8.00271	7.08774	-9.02992	14.04941	17.96997	1.0132	0.98697	190.66691	182.84923	71.88427	0.32621	 	1.14459E15	 	3.16893E-15	 	6611.54058	28.09626	 
465.0	1.0	0.0	8.00463	7.08604	-9.05174	14.02399	17.89465	1.01062	0.98949	191.02648	183.04019	72.02776	0.32606	 	1.54314E15	 	2.33468E-15	 	6471.29159	28.0498	 
460.0	1.0	0.0	8.00654	7.08434	-9.07348	13.99857	17.81929	1.00802	0.99205	191.38532	183.23017	72.17102	0.32592	 	2.08895E15	 	1.71298E-15	 	6331.27433	28.00345	 
455.0	1.0	0.0	8.00845	7.08265	-9.09516	13.97315	17.74391	1.0054	0.99463	191.74343	183.41915	72.31402	0.32577	 	2.8396E15	 	1.25156E-15	 	6191.48823	27.95722	 
450.0	1.0	0.0	8.01036	7.08097	-9.11677	13.94774	17.66851	1.00275	0.99725	192.10082	183.60716	72.45679	0.32562	 	3.87642E15	 	9.10509E-16	 	6051.93275	27.9111	 
445.0	1.0	0.0	8.01226	7.07929	-9.13831	13.92233	17.59307	1.00009	0.99991	192.45747	183.79419	72.59931	0.32548	 	5.3148E15	 	6.59501E-16	 	5912.60734	27.86508	 
440.0	1.0	0.0	8.01415	7.07762	-9.15979	13.89692	17.51761	0.99741	1.0026	192.8134	183.98025	72.74158	0.32533	 	7.31921E15	 	4.75558E-16	 	5773.51147	27.81917	 
435.0	1.0	0.0	8.01604	7.07595	-9.18119	13.87151	17.44211	0.9947	1.00533	193.1686	184.16533	72.88361	0.32519	 	1.01252E16	 	3.41356E-16	 	5634.6446	27.77338	 
430.0	1.0	0.0	8.01792	7.07429	-9.20253	13.84611	17.36659	0.99197	1.00809	193.52307	184.34944	73.02539	0.32504	 	1.40718E16	 	2.43885E-16	 	5496.0062	27.72768	 
425.0	1.0	0.0	8.0198	7.07263	-9.22379	13.82071	17.29104	0.98922	1.0109	193.87682	184.53258	73.16693	0.32489	 	1.9649E16	 	1.73418E-16	 	5357.59582	27.68208	 
420.0	1.0	0.0	8.02168	7.07098	-9.24499	13.79531	17.21545	0.98645	1.01374	194.22983	184.71476	73.30822	0.32475	 	2.75693E16	 	1.22713E-16	 	5219.41286	27.63659	 
415.0	1.0	0.0	8.02354	7.06933	-9.26612	13.76991	17.13984	0.98365	1.01662	194.58212	184.89597	73.44927	0.3246	 	3.88728E16	 	8.6402E-17	 	5081.45703	27.59117	 
410.0	1.0	0.0	8.02541	7.06769	-9.28719	13.74452	17.06419	0.98084	1.01954	194.93368	185.07623	73.59007	0.32446	 	5.50873E16	 	6.05273E-17	 	4943.72807	27.54579	 
405.0	1.0	0.0	8.02726	7.06606	-9.30818	13.71913	16.98851	0.97799	1.0225	195.28451	185.25552	73.73063	0.32431	 	7.84675E16	 	4.21816E-17	 	4806.22574	27.50047	 
400.0	1.0	0.0	8.02912	7.06442	-9.32911	13.69374	16.9128	0.97513	1.0255	195.63462	185.43386	73.87094	0.32416	 	1.1236E17	 	2.92407E-17	 	4668.94984	27.45518	 
395.0	1.0	0.0	8.03096	7.0628	-9.34997	13.66835	16.83705	0.97224	1.02855	195.98399	185.61125	74.011	0.32402	 	1.61758E17	 	2.01603E-17	 	4531.90014	27.40994	 
390.0	1.0	0.0	8.03281	7.06118	-9.37076	13.64297	16.76127	0.96933	1.03164	196.33264	185.78769	74.15082	0.32387	 	2.34156E17	 	1.38227E-17	 	4395.07643	27.36474	 
385.0	1.0	0.0	8.03464	7.05957	-9.39148	13.61759	16.68545	0.96639	1.03478	196.68056	185.96318	74.2904	0.32373	 	3.40868E17	 	9.42378E-18	 	4258.47855	27.31958	 
380.0	1.0	0.0	8.03648	7.05796	-9.41213	13.59221	16.6096	0.96343	1.03796	197.02776	186.13773	74.42972	0.32358	 	4.99074E17	 	6.38756E-18	 	4122.10628	27.27445	 
375.0	1.0	0.0	8.0383	7.05635	-9.43272	13.56684	16.53371	0.96044	1.04119	197.37422	186.31133	74.56881	0.32344	 	7.35017E17	 	4.30393E-18	 	3985.9595	27.22936	 
370.0	1.0	0.0	8.04012	7.05475	-9.45323	13.54146	16.45778	0.95743	1.04446	197.71996	186.48399	74.70764	0.32329	 	1.08904E18	 	2.8824E-18	 	3850.03802	27.1843	 
365.0	1.0	0.0	8.04194	7.05316	-9.47368	13.51609	16.38181	0.95439	1.04779	198.06497	186.65571	74.84623	0.32315	 	1.62356E18	 	1.91841E-18	 	3714.34171	27.13926	 
360.0	1.0	0.0	8.04375	7.05157	-9.49406	13.49072	16.30581	0.95133	1.05116	198.40925	186.8265	74.98458	0.323	 	2.43573E18	 	1.26872E-18	 	3578.87044	27.09425	 
355.0	1.0	0.0	8.04556	7.04999	-9.51437	13.46536	16.22976	0.94824	1.05459	198.75281	186.99636	75.12267	0.32286	 	3.67786E18	 	8.33595E-19	 	3443.62411	27.04927	 
350.0	1.0	0.0	8.04736	7.04841	-9.53462	13.43999	16.15367	0.94512	1.05807	199.09564	187.16528	75.26052	0.32271	 	5.59028E18	 	5.44059E-19	 	3308.60261	27.0043	 
345.0	1.0	0.0	8.04915	7.04684	-9.55479	13.41463	16.07754	0.94198	1.0616	199.43774	187.33328	75.39813	0.32256	 	8.55486E18	 	3.52669E-19	 	3173.80586	26.95935	 
340.0	1.0	0.0	8.05094	7.04527	-9.5749	13.38928	16.00137	0.93881	1.06518	199.77911	187.50035	75.53549	0.32242	 	1.31828E19	 	2.27011E-19	 	3039.23379	26.91441	 
335.0	1.0	0.0	8.05273	7.04371	-9.59494	13.36392	15.92515	0.93561	1.06883	200.11976	187.6665	75.6726	0.32227	 	2.04592E19	 	1.45081E-19	 	2904.88635	26.86949	 
330.0	1.0	0.0	8.05451	7.04216	-9.61491	13.33857	15.84889	0.93238	1.07253	200.45967	187.83172	75.80946	0.32213	 	3.19841E19	 	9.20403E-20	 	2770.7635	26.82457	 
325.0	1.0	0.0	8.05628	7.04061	-9.63482	13.31322	15.77258	0.92912	1.07628	200.79887	187.99603	75.94608	0.32198	 	5.0376E19	 	5.79526E-20	 	2636.86524	26.77965	 
320.0	1.0	0.0	8.05805	7.03906	-9.65465	13.28787	15.69623	0.92584	1.0801	201.13733	188.15942	76.08245	0.32184	 	7.9954E19	 	3.62085E-20	 	2503.19157	26.73473	 
315.0	1.0	0.0	8.05981	7.03752	-9.67442	13.26252	15.61982	0.92252	1.08398	201.47507	188.3219	76.21858	0.32169	 	1.2789899999999998E20	 	2.24444E-20	 	2369.7425	26.68981	 
310.0	1.0	0.0	8.06157	7.03599	-9.69412	13.23718	15.54337	0.91918	1.08792	201.81208	188.48347	76.35445	0.32155	 	2.0625E20	 	1.37998E-20	 	2236.51808	26.64488	 
305.0	1.0	0.0	8.06332	7.03446	-9.71375	13.21184	15.46687	0.91581	1.09193	202.14836	188.64412	76.49009	0.3214	 	3.35358E20	 	8.4143E-21	 	2103.51837	26.59994	 
300.0	1.0	0.0	8.06507	7.03293	-9.73331	13.1865	15.39031	0.9124	1.09601	202.48392	188.80387	76.62547	0.32126	 	5.4993099999999997E20	 	5.08683E-21	 	1970.74347	26.55498	 
295.0	1.0	0.0	8.06681	7.03141	-9.75281	13.16117	15.31371	0.90897	1.10015	202.81875	188.96272	76.76061	0.32111	 	9.096779999999999E20	 	3.04833E-21	 	1838.19347	26.51	 
290.0	1.0	0.0	8.06855	7.0299	-9.77223	13.13583	15.23704	0.9055	1.10436	203.15285	189.12066	76.89549	0.32097	 	1.51827E21	 	1.81035E-21	 	1705.86852	26.46499	 
285.0	1.0	0.0	8.07028	7.02839	-9.79159	13.1105	15.16033	0.902	1.10864	203.48622	189.27771	77.03014	0.32082	 	2.55738E21	 	1.06523E-21	 	1573.76877	26.41995	 
280.0	1.0	0.0	8.07201	7.02689	-9.81088	13.08518	15.08355	0.89847	1.113	203.81887	189.43385	77.16453	0.32068	 	4.34846E21	 	6.2086E-22	 	1441.8944	26.37487	 
275.0	1.0	0.0	8.07373	7.02539	-9.83011	13.05985	15.00672	0.89491	1.11743	204.15079	189.5891	77.29868	0.32053	 	7.4659E21	 	3.58347E-22	 	1310.24564	26.32975	 
270.0	1.0	0.0	8.07544	7.0239	-9.84926	13.03453	14.92982	0.89131	1.12194	204.48199	189.74346	77.43258	0.32039	 	1.2946399999999999E22	 	2.04765E-22	 	1178.82271	26.28459	 
265.0	1.0	0.0	8.07715	7.02241	-9.86835	13.00921	14.85287	0.88769	1.12653	204.81245	189.89693	77.56623	0.32024	 	2.26809E22	 	1.15806E-22	 	1047.62591	26.23936	 
260.0	1.0	0.0	8.07886	7.02093	-9.88737	12.98389	14.77585	0.88402	1.13119	205.14219	190.0495	77.69963	0.3201	 	4.01549E22	 	6.48034E-23	 	916.65551	26.19408	 
255.0	1.0	0.0	8.08056	7.01945	-9.90632	12.95858	14.69877	0.88032	1.13595	205.47121	190.2012	77.83279	0.31995	 	7.186439999999999E22	 	3.58699E-23	 	785.91185	26.14873	 
250.0	1.0	0.0	8.08225	7.01798	-9.9252	12.93326	14.62162	0.87659	1.14078	205.7995	190.352	77.9657	0.31981	 	1.3005299999999998E23	 	1.96333E-23	 	655.39532	26.10331	 
245.0	1.0	0.0	8.08394	7.01652	-9.94401	12.90795	14.5444	0.87282	1.14571	206.12706	190.50193	78.09836	0.31966	 	2.3806699999999997E23	 	1.06229E-23	 	525.10632	26.0578	 
240.0	1.0	0.0	8.08562	7.01506	-9.96276	12.88265	14.46711	0.86902	1.15072	206.45389	190.65098	78.23077	0.31952	 	4.40955E23	 	5.67984E-24	 	395.04528	26.01221	 
235.0	1.0	0.0	8.0873	7.0136	-9.98144	12.85734	14.38975	0.86518	1.15583	206.78	190.79915	78.36293	0.31937	 	8.26719E23	 	2.99999E-24	 	265.21269	25.96652	 
230.0	1.0	0.0	8.08897	7.01215	-10.00005	12.83204	14.31232	0.8613	1.16104	207.10538	190.94644	78.49485	0.31923	 	1.56945E24	 	1.56472E-24	 	135.60909	25.92072	 
225.0	1.0	0.0	8.09064	7.01071	-10.01859	12.80674	14.23481	0.85738	1.16634	207.43004	191.09286	78.62652	0.31908	 	3.01803E24	 	8.05606E-25	 	6.23504	25.87481	 
220.0	1.0	0.0	8.0923	7.00927	-10.03707	12.78144	14.15722	0.85343	1.17174	207.75396	191.23841	78.75794	0.31894	 	5.88111E24	 	4.09267E-25	 	-122.90886	25.82878	 
215.0	1.0	0.0	8.09396	7.00783	-10.05548	12.75615	14.07956	0.84944	1.17725	208.07717	191.3831	78.88911	0.3188	 	1.1618E25	 	2.05074E-25	 	-251.82193	25.78261	 
210.0	1.0	0.0	8.09561	7.0064	-10.07382	12.73085	14.00181	0.8454	1.18287	208.39964	191.52691	79.02003	0.31865	 	2.32767E25	 	1.01309E-25	 	-380.50345	25.7363	 
205.0	1.0	0.0	8.09725	7.00498	-10.09209	12.70556	13.92397	0.84133	1.18859	208.72139	191.66987	79.15071	0.31851	 	4.73176E25	 	4.93205E-26	 	-508.95266	25.68984	 
200.0	1.0	0.0	8.09889	7.00356	-10.11029	12.68028	13.84605	0.83722	1.19443	209.04241	191.81196	79.28113	0.31836	 	9.76421E25	 	2.36509E-26	 	-637.16874	25.64322	 
195.0	1.0	0.0	8.10053	7.00215	-10.12843	12.65499	13.76803	0.83307	1.20039	209.36271	191.95319	79.41131	0.31822	 	2.04631E26	 	1.11661E-26	 	-765.15079	25.59641	 
190.0	1.0	0.0	8.10216	7.00074	-10.14649	12.62971	13.68993	0.82887	1.20646	209.68228	192.09356	79.54124	0.31807	 	4.35756E26	 	5.18758E-27	 	-892.89789	25.54942	 
185.0	1.0	0.0	8.10378	6.99934	-10.16449	12.60443	13.61172	0.82463	1.21266	210.00113	192.23308	79.67092	0.31793	 	9.433680000000001E26	 	2.37035E-27	 	-1020.40899	25.50222	 
180.0	1.0	0.0	8.1054	6.99794	-10.18243	12.57915	13.53342	0.82035	1.21899	210.31925	192.37174	79.80035	0.31778	 	2.0774E27	 	1.06465E-27	 	-1147.68305	25.45481	 
175.0	1.0	0.0	8.10701	6.99655	-10.20029	12.55388	13.45502	0.81603	1.22545	210.63664	192.50956	79.92953	0.31764	 	4.6559799999999995E27	 	4.69785E-28	 	-1274.71888	25.40717	 
170.0	1.0	0.0	8.10862	6.99516	-10.21809	12.52861	13.37651	0.81166	1.23204	210.95331	192.64652	80.05846	0.3175	 	1.0627E28	 	2.0353E-28	 	-1401.51526	25.35928	 
165.0	1.0	0.0	8.11022	6.99378	-10.23582	12.50334	13.29789	0.80725	1.23878	211.26925	192.78264	80.18715	0.31735	 	2.47166E28	 	8.65209E-29	 	-1528.07088	25.31112	 
160.0	1.0	0.0	8.11182	6.9924	-10.25348	12.47807	13.21917	0.80279	1.24566	211.58446	192.91791	80.31558	0.31721	 	5.861790000000001E28	 	3.60657E-29	 	-1654.38433	25.26269	 
155.0	1.0	0.0	8.11341	6.99103	-10.27107	12.45281	13.14032	0.79828	1.25269	211.89895	193.05234	80.44376	0.31706	 	1.41851E29	 	1.47316E-29	 	-1780.45412	25.21396	 
150.0	1.0	0.0	8.11499	6.98967	-10.2886	12.42754	13.06136	0.79373	1.25988	212.21271	193.18593	80.5717	0.31692	 	3.50513E29	 	5.8922E-30	 	-1906.27866	25.16491	 
145.0	1.0	0.0	8.11657	6.98831	-10.30605	12.40229	12.98227	0.78913	1.26722	212.52575	193.31869	80.69939	0.31677	 	8.850560000000001E29	 	2.30594E-30	 	-2031.85624	25.11552	 
140.0	1.0	0.0	8.11814	6.98695	-10.32344	12.37703	12.90306	0.78448	1.27473	212.83806	193.4506	80.82682	0.31663	 	2.28546E30	 	8.82308E-31	 	-2157.18508	25.06577	 
135.0	1.0	0.0	8.11971	6.9856	-10.34077	12.35177	12.82371	0.77978	1.28241	213.14965	193.58168	80.95401	0.31649	 	6.04049E30	 	3.29787E-31	 	-2282.26325	25.01563	 
130.0	1.0	0.0	8.12128	6.98426	-10.35802	12.32652	12.74423	0.77503	1.29027	213.46051	193.71193	81.08095	0.31634	 	1.63546E31	 	1.20313E-31	 	-2407.0887	24.96509	 
125.0	1.0	0.0	8.12283	6.98292	-10.37521	12.30127	12.6646	0.77023	1.29831	213.77065	193.84135	81.20764	0.3162	 	4.54018E31	 	4.28016E-32	 	-2531.65928	24.91412	 
120.0	1.0	0.0	8.12438	6.98159	-10.39233	12.27603	12.58483	0.76538	1.30654	214.08006	193.96994	81.33407	0.31605	 	1.29355E32	 	1.48341E-32	 	-2655.97265	24.86267	 
115.0	1.0	0.0	8.12593	6.98026	-10.40938	12.25078	12.5049	0.76048	1.31497	214.38874	194.09771	81.46026	0.31591	 	3.7862599999999996E32	 	5.00352E-33	 	-2780.02637	24.81074	 
110.0	1.0	0.0	8.12747	6.97893	-10.42636	12.22554	12.42482	0.75552	1.3236	214.6967	194.22465	81.5862	0.31577	 	1.13975E33	 	1.64076E-33	 	-2903.81781	24.75829	 
105.0	1.0	0.0	8.12901	6.97762	-10.44328	12.2003	12.34457	0.75051	1.33243	215.00393	194.35077	81.71189	0.31562	 	3.53238E33	 	5.22497E-34	 	-3027.34419	24.70528	 
100.0	1.0	0.0	8.13054	6.9763	-10.46013	12.17506	12.26416	0.74544	1.34149	215.31044	194.47607	81.83733	0.31548	 	1.1284600000000002E34	 	1.61392E-34	 	-3150.60254	24.65167	 
95.0	1.0	0.0	8.13206	6.975	-10.47691	12.14983	12.18357	0.74031	1.35078	215.61623	194.60055	81.96252	0.31533	 	3.7205800000000004E34	 	4.82948E-35	 	-3273.5897	24.59743	 
90.0	1.0	0.0	8.13358	6.97369	-10.49362	12.1246	12.10279	0.73513	1.3603	215.92129	194.72422	82.08746	0.31519	 	1.2676599999999999E35	 	1.39821E-35	 	-3396.30231	24.54252	 
85.0	1.0	0.0	8.13509	6.9724	-10.51027	12.09937	12.02182	0.7299	1.37006	216.22562	194.84708	82.21214	0.31505	 	4.46947E35	 	3.91107E-36	 	-3518.73679	24.4869	 
80.0	1.0	0.0	8.1366	6.97111	-10.52685	12.07414	11.94066	0.7246	1.38008	216.52923	194.96912	82.33658	0.3149	 	1.63308E36	 	1.05545E-36	 	-3640.88934	24.43051	 
75.0	1.0	0.0	8.1381	6.96982	-10.54336	12.04892	11.85928	0.71924	1.39036	216.83212	195.09035	82.46077	0.31476	 	6.19332E36	 	2.74365E-37	 	-3762.75587	24.37331	 
70.0	1.0	0.0	8.1396	6.96854	-10.5598	12.0237	11.7777	0.71382	1.40091	217.13428	195.21078	82.58471	0.31462	 	2.4418E37	 	6.859E-38	 	-3884.33205	24.31524	 
65.0	1.0	0.0	8.14109	6.96726	-10.57617	11.99848	11.69588	0.70834	1.41175	217.43571	195.3304	82.70839	0.31447	 	1.00257E38	 	1.64619E-38	 	-4005.61326	24.25624	 
60.0	1.0	0.0	8.14257	6.96599	-10.59248	11.97326	11.61384	0.7028	1.42288	217.73643	195.44921	82.83183	0.31433	 	4.2946999999999994E38	 	3.78611E-39	 	-4126.59456	24.19626	 
55.0	1.0	0.0	8.14405	6.96473	-10.60872	11.94805	11.53154	0.69719	1.43433	218.03641	195.56723	82.95502	0.31418	 	1.9231100000000002E39	 	8.32827E-40	 	-4247.27068	24.13522	 
50.0	1.0	0.0	8.14553	6.96347	-10.62489	11.92284	11.449	0.69152	1.4461	218.33568	195.68445	83.07795	0.31404	 	9.020350000000001E39	 	1.74851E-40	 	-4367.63597	24.07306	 
45.0	1.0	0.0	8.14699	6.96221	-10.641	11.89763	11.36618	0.68578	1.4582	218.63422	195.80087	83.20064	0.3139	 	4.44161E40	 	3.49605E-41	 	-4487.68444	24.00969	 
40.0	1.0	0.0	8.14846	6.96096	-10.65704	11.87242	11.28309	0.67997	1.47065	218.93204	195.91649	83.32307	0.31375	 	2.30126E41	 	6.64162E-42	 	-4607.40962	23.94504	 
35.0	1.0	0.0	8.14991	6.95972	-10.67301	11.84722	11.1997	0.6741	1.48347	219.22913	196.03132	83.44526	0.31361	 	1.25769E42	 	1.19584E-42	 	-4726.80462	23.879	 
30.0	1.0	0.0	8.15136	6.95848	-10.68891	11.82202	11.116	0.66815	1.49667	219.5255	196.14536	83.56719	0.31347	 	7.26968E42	 	2.0353E-43	 	-4845.86205	23.81149	 
25.0	1.0	0.0	8.15281	6.95725	-10.70474	 	11.03199	0.66214	1.51026	219.82114	196.25862	83.68887	0.31332	 	4.45668E43	 	3.2652E-44	 	-4964.57401	 	 
